time,seconds_elapsed,z,y,x
1684201153064296700,0.038296630859375,3.1859312990397215,1.815064678378403,-0.08760698091560043
1684201153074322700,0.04832275390625,3.7651533287525174,1.9643162054300307,-1.2580202859431504
1684201153084347600,0.05834765625,3.6852848422676323,1.3494704891502856,-2.0022788563385605
1684201153094373600,0.06837353515625,3.1863691059350967,0.3248264128834009,-2.7841286139816046
1684201153104399600,0.078399658203125,2.3888702360004186,-0.8446072425901889,-3.352128700195253
1684201153114424800,0.0884248046875,1.9117478138029573,-2.1777461901426314,-2.824823612463474
1684201153124450600,0.098450439453125,2.08931036632061,-1.0550760394096375,-2.08299665312916
1684201153134476500,0.1084765625,2.7565076166063545,-0.4869610946446657,-1.5598312955506144
1684201153144502500,0.11850244140625,2.4583067603200672,-1.4027981747120617,-1.382404205980897
1684201153154527700,0.12852783203125,2.155575859388709,-1.453126678457856,-1.2125202252671121
1684201153164553700,0.1385537109375,1.8131980077236889,-0.8716007557168602,-0.8294495670773089
1684201153174579700,0.148579833984375,1.7179057421356438,0.2588742235481739,-0.3947913449913263
1684201153184604700,0.158604736328125,1.0023515804380179,1.0598626891642808,-0.413745928569138
1684201153194630700,0.168630615234375,-0.6556546965301037,0.8853361433416604,-1.643948525521159
1684201153204656600,0.17865673828125,-0.8748772931694984,1.2171730195090174,-2.0593547885179517
1684201153214682600,0.1886826171875,-0.1627045906037092,2.3865029223471876,-1.1190081210941076
1684201153224707600,0.19870751953125,0.4866852003127336,3.2471611360281702,-0.7276970194339751
1684201153234733600,0.208733642578125,1.4550725518286227,3.5907205986931916,-0.9383674763053655
1684201153244759600,0.218759521484375,1.4675094240754842,2.778872008627653,-1.429497381067276
1684201153254784500,0.228784423828125,2.376814472025633,3.474707908898592,-1.2262854235082865
1684201153264810500,0.238810546875,3.1591929297178982,4.462830180715025,-0.6950918039053678
1684201153274836500,0.24883642578125,4.129658256551623,5.058572260335088,-0.34597003093808887
1684201153284861400,0.258861328125,5.097541165676713,6.472201041141152,-0.6082476331889629
1684201153294887400,0.268887451171875,5.682144888427853,7.99662302352786,-2.034743494352698
1684201153304913400,0.278913330078125,5.761439374417066,8.282543074911832,-3.5280893704742193
1684201153314939400,0.288939453125,5.064287130850553,8.062069601428508,-3.608060732811689
1684201153324964600,0.298964599609375,5.90216652649045,7.641777319955826,-5.03049942753911
1684201153334990600,0.308990478515625,7.132757538238168,7.307067810961604,-4.2615737411379815
1684201153345016800,0.319016845703125,7.331173493692279,8.13386759418249,-2.1703268537968397
1684201153355041500,0.32904150390625,6.6273366577953094,8.424565527492762,-2.0991490387678144
1684201153365067800,0.33906787109375,4.913801970350742,8.484939624434709,-3.614519699692726
1684201153375093800,0.34909375,3.0021704764038324,9.928554378181696,-5.147729384168982
1684201153385119700,0.35911962890625,1.7524328656375407,11.58086682742238,-5.817796636933088
1684201153395144700,0.369144775390625,1.127804591012001,11.046128667080401,-4.759526769918203
1684201153405170700,0.379170654296875,0.3269219238579273,9.516581012243032,-2.746826765069365
1684201153415196700,0.38919677734375,0.15367431192994116,8.976347761616111,-0.31328736625909803
1684201153425221600,0.3992216796875,-0.6232768600165843,8.089876476764678,3.0663223383188245
1684201153435247600,0.40924755859375,-2.7160955267190934,6.395410646927356,5.34257098826766
1684201153445273600,0.419273681640625,-5.139428004291653,4.542673240497708,5.109552505987883
1684201153455298600,0.429298583984375,-6.119630296763777,4.075442682239413,4.34227400227189
1684201153465324500,0.439324462890625,-3.8732507153779268,6.112696698108315,5.79227991836071
1684201153475350500,0.4493505859375,-0.39920273169279097,6.876616539046168,7.489325827819108
1684201153485376500,0.45937646484375,0.07804309768863021,5.217929878598452,9.275092223259806
1684201153495401700,0.469401611328125,-2.377282089537382,3.9487642215237018,12.995650623482465
1684201153505427700,0.479427734375,-7.611361723425984,1.3420944074243306,15.734097098219394
1684201153515453700,0.48945361328125,-8.12249162916541,0.1393687232017517,16.0594221082747
1684201153525478700,0.499478759765625,-4.5640135501682755,1.1696826617985963,14.693496158885955
1684201153535504600,0.509504638671875,-1.147027177876234,2.18442493725419,12.595741789346933
1684201153545530600,0.519530517578125,0.9888713366180658,2.2018998036682604,11.024793618106841
1684201153555556600,0.529556640625,1.975641901564598,1.1384919892430305,9.986371776378155
1684201153565581600,0.53958154296875,2.2968998083114625,-0.39512452246844765,10.097817888909578
1684201153575607600,0.549607666015625,1.9388544319152832,-1.147267416372895,11.162107162344455
1684201153585633500,0.559633544921875,0.8990554566144943,-2.303597260123491,12.420108159065245
1684201153595658500,0.569658447265625,-1.1542682350456714,-4.396611157137155,13.310244980686901
1684201153605684500,0.5796845703125,-1.9698557193785904,-6.116582599630951,12.83610771178007
1684201153615710500,0.58971044921875,-2.415326281249523,-6.588399901157617,11.868090362620354
1684201153625736700,0.59973681640625,-2.8381460353732106,-5.583024588984251,11.599321352523564
1684201153635761400,0.609761474609375,-2.1562012978106737,-3.9237721113473176,11.071192965710162
1684201153645787600,0.61978759765625,-0.9591964023876934,-3.2489193778723475,9.916085357230902
1684201153655813600,0.629813720703125,-0.3351134136199951,-3.565160333240032,10.299892951393128
1684201153665838600,0.639838623046875,0.6000258213538676,-3.810078512150049,11.204562156236172
1684201153675864600,0.649864501953125,1.9839898970626293,-4.052254698875546,11.163259839510918
1684201153685890600,0.659890625,4.840963528633117,-4.452892431807518,9.649978844341636
1684201153695915800,0.669915771484375,4.530689957237243,-4.42922046431899,8.68053818438053
1684201153705941800,0.679941650390625,1.9602572854280471,-3.5906443185865875,8.564076874035596
1684201153715967700,0.6899677734375,0.31067367662936446,-2.4420582208305595,8.10556036810875
1684201153725993700,0.69999365234375,-0.032182460071891544,-1.4941338116288185,6.9715317880153655
1684201153736018700,0.710018798828125,0.4099298774123192,-0.8834890541702508,5.137464595264196
1684201153746044700,0.720044677734375,0.9961740608468651,-1.085054998087883,4.065122363755107
1684201153756070700,0.730070556640625,1.3039669213429093,-1.6201935559242964,2.937248799160123
1684201153766095600,0.740095703125,2.666869138996303,-2.236401208207011,0.5073147313654423
1684201153776121600,0.75012158203125,7.792056728750467,-1.9194079731673002,-5.454568304941058
1684201153786147600,0.760147705078125,9.939078110283612,-0.026511574828624724,-11.197687009769677
1684201153796173600,0.770173583984375,2.8586405418694016,0.7685340567350387,-8.18427968455851
1684201153806198500,0.780198486328125,0.41327290422990914,1.1795488067746163,-5.614603384074568
1684201153816224500,0.790224609375,0.5704781667649745,-0.22275223207026718,-5.108543621206283
1684201153826250500,0.80025048828125,0.3080950583130121,-2.192161084464192,-4.114356058001518
1684201153836275500,0.810275390625,1.0376504189647733,-4.291992552538216,-2.152918038356304
1684201153846301400,0.820301513671875,0.46991409825384617,-6.076997023695707,-2.2523300142228604
1684201153856327400,0.830327392578125,0.5413980566225945,-5.457806556209921,-3.6142262697041034
1684201153866353400,0.840353515625,-0.11118015507161616,-3.9215325157269834,-1.9322224465548992
1684201153876378600,0.850378662109375,-1.678033750474453,-2.326128533144295,-2.9992981358379125
1684201153886404600,0.860404541015625,-2.918803041887283,-0.9768293089076876,-4.05026966253817
1684201153896430600,0.8704306640625,-3.040979807269573,0.04232932168543339,-1.7022615982800722
1684201153906455600,0.88045556640625,-0.9377356081426144,0.9422133380785583,-1.5537000993192196
1684201153916481500,0.8904814453125,3.557590774768591,-1.7880027761906385,-0.4928770406901836
1684201153926507800,0.9005078125,6.496801229390502,-3.0414851264432072,1.168019697022438
1684201153936532500,0.910532470703125,7.145108485767245,-0.9025647799097001,0.5835223572552204
1684201153946558700,0.920558837890625,7.125288517531752,-0.8817249671071767,-1.2642337536305188
1684201153956584700,0.930584716796875,4.515511092805863,1.7149764106854795,-4.463179432544112
1684201153966610700,0.940610595703125,-0.5316133063197136,5.397950930184126,-6.912265944576263
1684201153976635600,0.9506357421875,-7.534995692104101,7.311086398953199,-10.263913290995358
1684201153986661600,0.96066162109375,-9.647678750705719,6.079235158011317,-7.913682874512672
1684201153996687600,0.9706875,-6.701953215101361,4.102753006230294,-4.382039610949159
1684201154006712600,0.980712646484375,-0.8540648067653178,2.185042776891589,-0.6356143635421991
1684201154016738600,0.990738525390625,0.353458085138537,2.923214136327803,3.060944736933708
1684201154026764500,1.0007646484375,-0.7237760465979576,4.867448507715761,4.943202836880087
1684201154036791300,1.010791259765625,-1.4930372485637664,3.5873268646016716,3.58043856639266
1684201154046816300,1.020816162109375,-1.6244564740657805,-0.01578384458720684,1.785452507185936
1684201154056842200,1.03084228515625,-3.0044191321134566,1.4323410800606011,-0.859419027274847
1684201154066868200,1.0408681640625,-4.0211154642462725,2.4914473978996274,0.4309259036898613
1684201154076893400,1.0508935546875,-1.941833155465126,1.4500006553918123,3.358213865327835
1684201154086919400,1.06091943359375,-0.7981950355052948,-0.827165693923831,4.002185722848773
1684201154096945400,1.0709453125,1.943565678346157,-1.81720607432127,0.9695540572077035
1684201154106971100,1.08097119140625,3.1606139024317264,-2.26273684194684,-1.5907798299133777
1684201154116996400,1.090996337890625,2.8421429960548874,-1.6301035400420427,-2.988051350158453
1684201154127022300,1.101022216796875,2.0819185025036333,-0.47535541252493857,-2.5059908870369196
1684201154137048300,1.11104833984375,1.126835307588428,0.5172480963587761,-0.6583698007076978
1684201154147073300,1.1210732421875,0.6432382825493812,1.8876029681056736,1.5473241345465183
1684201154157099300,1.131099365234375,0.8494773328445852,4.121616404393315,2.739244347116351
1684201154167125200,1.141125244140625,0.9617031975768506,5.024411047536135,2.2334464500546454
1684201154177150200,1.151150146484375,0.5352512244306504,3.037447541490197,0.8090256415992975
1684201154187176200,1.16117626953125,0.5472772508542985,1.2862450944304467,-0.02009118639230728
1684201154197202200,1.1712021484375,0.7912087568145245,-0.2169499755322933,0.012034721186757087
1684201154207228200,1.181228271484375,1.1447650781631469,-1.6511738005995749,1.5330752444416285
1684201154217253000,1.191253173828125,0.4707821863252669,-2.189813644555211,5.266973018708825
1684201154227279000,1.201279052734375,-0.8313631456136703,-2.8481857833504676,8.484730950120092
1684201154237305000,1.21130517578125,-0.9670610713481903,-3.5187937188625336,6.1734127403557295
1684201154247330300,1.221330322265625,0.3804301901509985,-3.775622700318694,1.793046615576744
1684201154257356300,1.231356201171875,0.9480067537229507,-3.7646401185333724,-0.21055589058101176
1684201154267382300,1.24138232421875,0.928711832274869,-2.9392110391438004,-1.0034703553348778
1684201154277408000,1.251407958984375,0.8102653394620866,-1.934320880138874,-1.0730915885716676
1684201154287433200,1.26143310546875,0.8025952432256191,-1.10731008451581,-0.8910574435979127
1684201154297459200,1.271459228515625,0.48365080105289815,-1.1623124252915382,-0.1158931550681591
1684201154307485400,1.2814853515625,0.46294593974165615,-0.6179290692478417,0.16069266625940798
1684201154317510100,1.29151025390625,0.47624037866592406,0.33358605792224405,0.41426001557111736
1684201154327536400,1.301536376953125,0.3050244917612523,0.7364420514255762,1.231509880158305
1684201154337562400,1.311562255859375,0.26949725130610164,0.4863987845867872,2.4108400757461785
1684201154347588400,1.32158837890625,0.08758490608111023,-0.2779483418524265,3.4411697964340444
1684201154357613300,1.33161328125,-0.15538696106672287,-1.1093179172068834,3.5492344498336315
1684201154367639300,1.341639404296875,-0.023815906003862616,-2.0217811369270087,3.4065707767397164
1684201154377665300,1.351665283203125,0.39977432103566823,-3.0905308969020844,3.267553935715556
1684201154387690200,1.361690185546875,0.9616519057810305,-3.2876527208924293,2.734290524101257
1684201154397716200,1.37171630859375,0.9322994084380567,-4.220641426768899,2.6124025125324724
1684201154407742200,1.3817421875,0.7664622919622808,-4.958029234611987,1.2731021197408436
1684201154417768200,1.391768310546875,0.45797268137373026,-4.801129530894756,-0.5033902513980865
1684201154427793200,1.401793212890625,-0.003727057699114084,-4.335408792677521,-1.6414543706178664
1684201154437819100,1.411819091796875,-0.3122963093951344,-3.075076138138771,-2.797815194028616
1684201154447845000,1.42184521484375,-0.943831002408266,-1.2908464507460593,-4.166223607882857
1684201154457870300,1.431870361328125,-1.2598024931848049,-0.3485813824802637,-4.330011317548156
1684201154467896300,1.441896240234375,-1.134182893872261,0.0594213262617588,-3.252462165045738
1684201154477922300,1.45192236328125,-0.9249708191156387,0.957536871677637,-1.825865181595087
1684201154487947300,1.461947265625,-0.8158978654563427,1.2331506331026554,0.13566051633358
1684201154497973200,1.47197314453125,-0.6558497807107866,0.40385669497847554,2.665822260291874
1684201154507999200,1.481999267578125,-0.565150834262371,0.6247077696025372,3.233753957444429
1684201154518025200,1.492025146484375,-0.25430107041373845,0.8394792320519685,1.7927414951503275
1684201154528050200,1.50205029296875,0.2002501851439476,0.5317389785259962,1.326530343067646
1684201154538076200,1.512076171875,0.6690320644974708,0.3625315818995237,0.8279404776886105
1684201154548102100,1.52210205078125,1.0195007220290602,-0.1751958233863115,0.6388429701998829
1684201154558127000,1.532127197265625,0.8957821340322494,-1.5441034189343452,1.1706933001458644
1684201154568153000,1.542153076171875,0.46526999877505004,-2.6897698298513886,2.5481962900817394
1684201154578179000,1.552178955078125,0.29318675445131953,-2.9176386742830274,2.718601079799235
1684201154588205300,1.562205322265625,-0.041655441011860965,-1.627382006123662,1.680786264052987
1684201154598230000,1.57222998046875,-0.0347299525976181,-0.9854670811325311,0.18261136033982037
1684201154608256300,1.58225634765625,0.15023388915248215,-1.0740081188946962,-0.8658440918862819
1684201154618282200,1.5922822265625,0.07233933308906852,-1.2410557071387767,-1.2072846627011895
1684201154628307500,1.602307373046875,-0.023732830830290912,-0.5246837993174791,-1.3433639889687299
1684201154638333400,1.61233349609375,-0.22576104023111984,0.1925502782911062,-0.3719523211956024
1684201154648359400,1.622359375,-0.7661316717684269,0.13392273275554178,0.7039572474062442
1684201154658385200,1.63238525390625,-1.1089958456456661,-0.5477899496167898,0.4311595663152635
1684201154668410400,1.642410400390625,-0.7384761145364492,-2.401920271709561,-0.04137845070138573
1684201154678436400,1.652436279296875,-0.08035711025204509,-4.949433255702257,0.2549723938040435
1684201154688462300,1.66246240234375,0.08015033563356846,-5.269702151411772,0.5200273518137634
1684201154698487300,1.6724873046875,-0.22234503950886428,-5.032708335760235,0.004400865307450294
1684201154708513300,1.68251318359375,-0.3664605919115245,-4.424698018458486,-0.06521218462288379
1684201154718539300,1.692539306640625,-0.27195933057069777,-2.5082301903963087,0.5478104078829288
1684201154728564200,1.702564208984375,-1.2009260874547063,0.4864584058195352,3.0526912878513333
1684201154738590200,1.712590087890625,-3.2963305328667163,5.158604413926601,5.211458052235842
1684201154748616200,1.7226162109375,-3.632164077454805,6.574324029532074,4.901797936563193
1684201154758642200,1.73264208984375,-0.7402648245841265,4.116518204471468,0.10029314261525869
1684201154768667100,1.742667236328125,2.3869810612529516,6.370719857785105,-3.772532040826976
1684201154778693000,1.752693115234375,9.134920951503515,11.878361581265926,-3.811465582594275
1684201154788719000,1.762718994140625,20.416000530231,15.487656824308633,0.6870920373231172
1684201154798744300,1.772744384765625,7.268425653356314,12.305761648917198,4.728139698007703
1684201154808770300,1.782770263671875,3.2173043424248693,8.883242192417383,4.843324412545561
1684201154818796000,1.792796142578125,1.4321078558266163,5.089184840741753,3.008078823664784
1684201154828822000,1.802822021484375,-1.7003180629968642,0.9330851519882678,1.6975988671660422
1684201154838847200,1.81284716796875,-4.4324622227191925,-1.814578063905239,3.2400048345327375
1684201154848873200,1.822873291015625,-5.453030427849292,-3.1705601269066332,4.53562039937675
1684201154858899200,1.832899169921875,-5.00884522961378,-3.532011512354016,4.451335850015282
1684201154868924200,1.842924072265625,-3.685115915441513,-3.201228821414709,3.870010126021504
1684201154878950100,1.8529501953125,-3.5629905879855155,-2.5144097558140754,3.5327059243589636
1684201154888976400,1.862976318359375,-3.603987784284353,-1.1252449696570634,3.6061242117911574
1684201154899002400,1.87300244140625,-2.3885014026880262,0.75931848462224,3.362479121556878
1684201154909027300,1.88302734375,-1.9560943205296992,2.435848844796419,2.848347111392021
1684201154919053300,1.89305322265625,-2.2243185562253,3.147923347684741,1.8890356312572956
1684201154929079300,1.903079345703125,-2.178742069312185,3.1908319305628536,0.7627256627172231
1684201154939104300,1.913104248046875,-2.4262284912750123,2.911807483911514,-0.13627601788341998
1684201154949130200,1.923130126953125,-2.552420922039449,2.392825111106038,-0.9514841475099325
1684201154959156200,1.93315625,-2.8686767827153203,2.002225372585654,-1.2893559199273585
1684201154969182200,1.94318212890625,-2.754513227918744,1.7131687767416237,-1.5227461581289767
1684201154979207200,1.953207275390625,-1.870775313553959,1.3826730860501526,-1.8048644791424273
1684201154989233200,1.963233154296875,-1.5303744610503316,1.1729109761953354,-1.6656202591031788
1684201154999259100,1.973259033203125,-1.2904501449048518,1.0144313098102808,-1.3490443726927042
1684201155009284400,1.983284423828125,-1.0193258038535713,0.8654203135162591,-1.1001935305088757
1684201155019310300,1.993310302734375,-1.2373466234877706,0.8970347644418477,-0.8958797491878271
1684201155029336300,2.00333642578125,-1.4267849072381853,0.9727040456712245,-0.895499225437641
1684201155039361300,2.013361328125,-1.7026318928971886,0.9114654408544302,-0.991879286262393
1684201155049387300,2.02338720703125,-1.5091604081079364,0.8123691068083048,-1.301276074823737
1684201155059413200,2.033413330078125,-1.3612816307142377,0.7085358073681592,-1.3043261100441217
1684201155069439200,2.043439208984375,-1.3736059824973343,0.6180997496396303,-1.0488970585137605
1684201155079464200,2.053464111328125,-1.2225757553353904,0.4858984338492155,-1.011266123777628
1684201155089490200,2.063490234375,-1.0579393198862672,0.396278368678689,-1.246221127077937
1684201155099516200,2.07351611328125,-1.007263610137999,0.39780572437644,-1.621199518096447
1684201155109541000,2.083541015625,-0.9098378396525979,0.4975736740738153,-2.003188080137968
1684201155119567000,2.093567138671875,-0.9129884126380086,0.6164139885097741,-2.5578268727362152
1684201155129593000,2.103593017578125,-0.9778700501322746,0.6465256336569786,-2.9308512070775032
1684201155139619000,2.113619140625,-1.050589541645348,0.5857078846007585,-2.939820110952854
1684201155149644000,2.12364404296875,-0.8009615776091814,0.33977614473402495,-2.7336580714166163
1684201155159670000,2.133669921875,-0.8235986490920185,-0.07014204224050044,-2.2218249858438965
1684201155169696000,2.143696044921875,-0.6754357940599321,-0.3724444886267185,-1.696338637971878
1684201155179721200,2.15372119140625,-0.6237465233549475,-0.5233733012408018,-1.3306658354371785
1684201155189747200,2.163747314453125,-0.5903226849198341,-0.7067641215205193,-1.2303858445644378
1684201155199773200,2.173773193359375,-0.8004273246020078,-0.7782628390669822,-1.0615952120453118
1684201155209799200,2.183799072265625,-0.6712298668026924,-0.7544950099885464,-1.127840246847272
1684201155219824000,2.19382421875,-0.6871206788957118,-0.7567986107558011,-1.3101707444190978
1684201155229850000,2.20385009765625,-0.8773810926839709,-0.9027116410344839,-1.375259010401368
1684201155239876000,2.2138759765625,-0.7118772267505526,-1.0250088179260493,-1.3865133948653936
1684201155249901000,2.223901123046875,-0.513896740104258,-1.0564899978607893,-1.3287573714673517
1684201155259927000,2.233927001953125,-0.5010734988883138,-0.9459007944196463,-1.3908096307545899
1684201155269953300,2.243953369140625,-0.4866428224757313,-0.9571896656751632,-1.4322861350029705
1684201155279979300,2.253979248046875,-0.3243608411982655,-0.9558750759452581,-1.5696639766484497
1684201155290004200,2.264004150390625,-0.14988777912855147,-0.9729927994847297,-1.7008885563611984
1684201155300030200,2.2740302734375,-0.011309329521656036,-1.1281798540651797,-1.5495318737238644
1684201155310056200,2.28405615234375,0.020000293238461017,-1.2985592170804738,-1.2425281177788972
1684201155320081200,2.2940810546875,0.016758827099204062,-1.5069173053562641,-0.725899614623189
1684201155330107100,2.304107177734375,0.1999769211605191,-1.532057591831684,0.004105097231268883
1684201155340133000,2.314133056640625,0.5375158083617687,-1.3911813866764307,0.7070873621255159
1684201155350158300,2.324158447265625,0.6361731664687394,-1.2313637496858834,1.2638503072708844
1684201155360184300,2.334184326171875,0.4416737999364733,-1.1846411614775656,1.5299030441462993
1684201155370210000,2.3442099609375,0.0757820939540863,-1.3141887478888035,1.422358030706644
1684201155380236000,2.354236083984375,-0.21626506200805304,-1.4402859015852212,0.9682155020803213
1684201155390261200,2.36426123046875,-0.28021628678441046,-1.47714059125185,0.39220542015135285
1684201155400287200,2.374287353515625,-0.25582199637070296,-1.375350780338049,-0.16995850725471973
1684201155410313200,2.384313232421875,-0.17660846666321156,-1.1822919680029154,-0.7270236502170563
1684201155420338200,2.394338134765625,-0.000350567003339529,-1.0662059207111596,-1.2514549360781908
1684201155430364200,2.4043642578125,0.32953473670482636,-0.8025397867113352,-1.4874755227833985
1684201155440390100,2.41439013671875,0.7677494091633706,-0.5652928730815648,-1.3882330582648514
1684201155450416000,2.424416015625,1.1479612438559532,-0.3865788124412298,-0.9823287831068038
1684201155460441000,2.434441162109375,1.1868670208334922,-0.2470090137094259,-0.5292319641411304
1684201155470467000,2.444467041015625,0.9995687447864562,0.12049509590566157,-0.11387947715818882
1684201155480493000,2.4544931640625,0.6332955652058124,0.7703174330204725,0.24487550881206988
1684201155490518000,2.46451806640625,0.16378186444640158,1.5324544821947812,0.4709603924363851
1684201155500544000,2.4745439453125,-0.2682897021472454,2.3289462209135294,0.7280149993419647
1684201155510570000,2.484570068359375,-0.43228374803960323,3.240321060875058,1.041580013498664
1684201155520596200,2.49459619140625,-0.34779812314808367,4.369974494624137,1.8120026604592798
1684201155530621000,2.504620849609375,0.48002808051109314,5.296679005664586,3.1650890020191667
1684201155540647200,2.514647216796875,3.0469471912413835,5.0878153059542175,4.589229824489355
1684201155550673200,2.524673095703125,5.379371317398548,3.465046346583962,5.455137629261612
1684201155560698000,2.534697998046875,5.554622670364379,1.9258809685736893,5.2380654886543745
1684201155570724400,2.544724365234375,4.695313533204794,0.660907794752717,4.2300972373783585
1684201155580750300,2.554750244140625,3.1472061393260953,-0.8204021911382675,2.3637983385860917
1684201155590776300,2.5647763671875,1.3150187689721584,-2.015146813479066,0.04742284543216228
1684201155600801300,2.57480126953125,-0.6114847154140473,-2.5234248369187116,-1.9767226825386284
1684201155610827300,2.5848271484375,-2.4022516956210134,-2.678361131608486,-3.718309159991145
1684201155620853200,2.594853271484375,-3.372590765726566,-2.679663446378708,-4.7224365179300305
1684201155630878200,2.604878173828125,-3.3151346020579338,-2.3446786275744436,-4.534731926104426
1684201155640904200,2.614904296875,-2.7463912962615487,-1.4734358915150165,-3.3613404729157685
1684201155650930200,2.62493017578125,-1.898460462206602,-0.13760989683568478,-1.5624328563511372
1684201155660956200,2.6349560546875,-0.7488508666217326,0.954620107448101,0.06066986501812935
1684201155670981000,2.644981201171875,0.2940694555699825,1.6494693347692488,1.559407955572009
1684201155681007000,2.655007080078125,0.8366122983135282,1.6045090800583361,2.593464587828517
1684201155691033000,2.665033203125,0.7361427762180567,0.9473200135678053,2.7468203353285787
1684201155701058000,2.67505810546875,0.5494575175028295,-0.059627662488818164,2.388285714110732
1684201155711084000,2.685083984375,0.8572972128152847,-1.034121514186263,1.7579817319363356
1684201155721110000,2.695110107421875,1.4499410341590642,-1.6227946783334015,1.108145366296172
1684201155731135200,2.70513525390625,1.7316589576780794,-1.7098516150176524,0.5810492451399565
1684201155741161200,2.7151611328125,1.28140817579329,-1.1493225953370332,0.28146190293133255
1684201155751187200,2.725187255859375,0.6626678632277995,-0.5993599778562784,-0.060602645000815386
1684201155761213200,2.735213134765625,0.2578933958172798,-0.48053486098945136,-0.5518862790197133
1684201155771238100,2.745238037109375,0.09652969842851161,-0.3164472915947437,-0.7868892131149768
1684201155781264100,2.75526416015625,0.05406600977368652,-0.027115385940670967,-0.7135153493463993
1684201155791290000,2.7652900390625,-0.0061157794665545225,0.3042874827235937,-0.7481886033207178
1684201155801315000,2.775315185546875,-0.16931377961039543,0.47109307890534396,-0.7497440160691737
1684201155811341000,2.785341064453125,-0.6311304961264133,0.46275662771463394,-0.5878606787204742
1684201155821367300,2.7953671875,-1.1932482463032006,0.33538696986436844,-0.4214887977808714
1684201155831393300,2.805393310546875,-1.4813279599390923,0.13731763589084148,-0.22742168518602845
1684201155841418200,2.815418212890625,-1.4781576593399046,0.3466203115403652,0.2701794614166021
1684201155851444200,2.8254443359375,-1.5930653105020522,0.39447628769278525,0.7007417924910784
1684201155861470200,2.83547021484375,-1.1274889491915703,0.6246282746255397,0.8980307897418737
1684201155871495200,2.8454951171875,-0.6506289773225784,0.7630009725272655,0.8673515738397836
1684201155881521200,2.855521240234375,-0.67796706610322,0.7172726560533046,1.066636128821969
1684201155891547100,2.865547119140625,-0.8257441366881132,0.712644996252656,1.3072113100916147
1684201155901573000,2.875572998046875,-0.7884954792678356,0.8724994581222534,1.042130048596859
1684201155911598000,2.88559814453125,-0.3691892862230539,0.6927730055689811,0.48045711957812304
1684201155921624000,2.8956240234375,-0.25371757143735885,-0.04905950672328472,0.16930442726016043
1684201155931650000,2.905650146484375,-0.7349719058077782,-0.5924141042411327,-0.1291378365665674
1684201155941675300,2.91567529296875,-1.2193681914657353,-0.550622542694211,-0.5435100803405046
1684201155951701200,2.925701171875,-1.5694050334513185,-0.299512523406744,-0.8571621882587671
1684201155961727200,2.935727294921875,-1.8094728497207164,-0.06360474942624568,-0.8934428774297237
1684201155971753200,2.945753173828125,-1.814227350771427,0.019257073655724523,-0.9206932879269123
1684201155981778200,2.955778076171875,-1.8776351163208485,0.0502934324324131,-0.8640525322943925
1684201155991804200,2.96580419921875,-1.8838485840082166,-0.11498130092024803,-0.8602075473040341
1684201156001830100,2.975830078125,-1.533126097846031,-0.23450199883580206,-0.7913292413890362
1684201156011855000,2.985855224609375,-0.9395551517199724,-0.2630617383658886,-0.5362836362183093
1684201156021881000,2.995881103515625,-0.2562958974927664,-0.22451485782861708,-0.16468144363462925
1684201156031907000,3.005906982421875,0.27660985979028047,-0.1409761583983898,0.15611118368804455
1684201156041933600,3.01593359375,0.6948083107888698,0.04452770851254463,0.3571463817298412
1684201156051958500,3.02595849609375,1.3605951097548008,0.32381752810180187,0.4479992035657167
1684201156061984500,3.035984619140625,1.9512386971920728,0.47224634059369563,0.24703414815068245
1684201156072010500,3.046010498046875,1.9901392134726046,0.51393970246315,-0.16804127545654773
1684201156082035500,3.056035400390625,1.6382868464976548,0.42855800551474094,-0.4257429480940103
1684201156092061400,3.0660615234375,1.3096546115905046,0.3176554983407259,-0.40513329078555105
1684201156102087400,3.07608740234375,0.7347837628245353,0.13564882589578628,-0.2533177584648132
1684201156112113400,3.086113525390625,0.2211550260066986,-0.03873509658575058,0.008866028022766113
1684201156122138600,3.096138671875,-0.10945340434424579,-0.18159867616593836,0.2746867097079754
1684201156132164400,3.106164306640625,-0.36385610850155353,-0.32501404440999027,0.5896107372581958
1684201156142190300,3.1161904296875,-0.4383745391953736,-0.45421910099387164,0.6924065103441477
1684201156152215600,3.126215576171875,-0.3385842315357178,-0.667110741046071,0.5821680200368166
1684201156162241500,3.136241455078125,-0.2905792753666639,-1.0343161599755286,0.5737058966398239
1684201156172267500,3.146267578125,-0.21053543231487273,-1.3781243367046117,0.6740063457787037
1684201156182293500,3.15629345703125,-0.20890520076453684,-1.5172802939385175,0.867255712249875
1684201156192318500,3.166318359375,-0.21918518723845481,-1.4629805484741925,1.032785881668329
1684201156202344400,3.176344482421875,-0.109273956124112,-1.216326924073696,1.061266710743308
1684201156212370400,3.186370361328125,0.11885375843942164,-0.8928472496241331,0.8990449352204799
1684201156222395400,3.1963955078125,0.4669757067143917,-0.5630050544053316,0.6340004986047745
1684201156232421400,3.20642138671875,0.9542075080592185,-0.30426877802312374,0.3960030588686466
1684201156242447400,3.216447265625,1.2940958079308271,-0.16283669255077837,0.26026070947051044
1684201156252473600,3.2264736328125,1.3799854544013739,-0.061796238699555396,0.311720847594738
1684201156262498300,3.236498291015625,1.2959855672001839,-0.04354337365031242,0.5269716179937124
1684201156272524500,3.246524658203125,1.004677466102317,-0.21585750412046908,0.6709773533463478
1684201156282550500,3.256550537109375,0.746174413954094,-0.49398354062736033,0.7090314819306135
1684201156292575500,3.266575439453125,0.5947229657053947,-0.6715548609733581,0.624058950304985
1684201156302601500,3.2766015625,0.4923381845731288,-0.7237275312811136,0.4886813425660133
1684201156312627500,3.28662744140625,0.48110593887567515,-0.7472516147315502,0.40005145747661586
1684201156322652700,3.296652587890625,0.46259413062930105,-0.6866939779162406,0.3592109130442142
1684201156332678700,3.3066787109375,0.5104238032966852,-0.5126385567367077,0.29147476290166374
1684201156342704600,3.31670458984375,0.6313287951774895,-0.32352176002562044,0.1430062029212713
1684201156352730600,3.326730712890625,0.7557448639191686,-0.03271627468764782,0.03152677264213562
1684201156362755600,3.336755615234375,0.9200140734910964,0.09895371070504189,-0.2631704594373703
1684201156372781600,3.346781494140625,1.068706943746656,0.21008944211304187,-0.6565683042436837
1684201156382807600,3.3568076171875,1.174321427515149,0.21536124503612517,-0.8253840712040662
1684201156392832500,3.36683251953125,1.2283378259934483,0.21307517992556094,-0.9494330601990222
1684201156402858500,3.3768583984375,1.3245616733431815,0.1623006859779358,-1.0726023437499999
1684201156412884500,3.386884521484375,1.2343677538074553,0.07170096212029457,-0.9442138642460107
1684201156422910500,3.396910400390625,1.047660940847546,0.041481764945387835,-0.6668184801012277
1684201156432935400,3.406935302734375,0.8722025210022926,0.12377426370680332,-0.528909892579913
1684201156442961400,3.41696142578125,0.7279425186276436,0.19768822570145128,-0.49456221729815003
1684201156452987400,3.4269873046875,0.5839771152853965,0.23244506630599499,-0.4026332906633615
1684201156463012400,3.437012451171875,0.4420176449380815,0.3179109344065189,-0.18486732257306573
1684201156473038300,3.447038330078125,0.26739070748090743,0.3256494197040796,0.047644963750243186
1684201156483064300,3.457064208984375,0.058341568201035254,0.11998539281785488,0.2459288172572851
1684201156493090300,3.46709033203125,-0.10878639180287718,-0.21243512845635412,0.3921656726628542
1684201156503115500,3.477115478515625,-0.2763004285149276,-0.440161934068799,0.7016933941274881
1684201156513141500,3.4871416015625,-0.4970242234975099,-0.48705461814701556,1.201442074152827
1684201156523167500,3.49716748046875,-0.6925082171529531,-0.4671726905912161,1.785601560267806
1684201156533192400,3.5071923828125,-0.9332686918616294,-0.48163902283906934,2.3271038079172373
1684201156543218400,3.517218505859375,-1.2098112585693597,-0.6015303076326847,2.695731953126192
1684201156553244700,3.52724462890625,-1.333280547980219,-0.7629016038060188,2.6793489736020564
1684201156563270700,3.537270751953125,-1.2408926255315542,-0.9224445155084132,2.3341525573849675
1684201156573295600,3.547295654296875,-0.9639571870487182,-0.9677712654441595,1.9377537771970033
1684201156583321600,3.557321533203125,-0.48044827868454154,-0.7349462599098682,1.6908265965521334
1684201156593347600,3.56734765625,0.1851777036964893,-0.367118909689784,1.4764941100418567
1684201156603372500,3.57737255859375,0.8954676612555981,-0.1591980437874794,1.107228251451254
1684201156613398500,3.5873984375,1.6508299555979669,-0.12685001789033412,0.6293623174101114
1684201156623424500,3.597424560546875,2.616383106601238,-0.1835229222267866,0.32899814561009405
1684201156633450500,3.607450439453125,3.5420524293750524,-0.29374679948687554,0.31563129903674125
1684201156643475500,3.617475341796875,4.117899429696798,-0.38779637153744695,0.5273895511448383
1684201156653501400,3.62750146484375,4.058239033982158,-0.34315468125641346,0.8595265793025493
1684201156663527400,3.63752734375,3.340779330924153,-0.12098843238055705,1.1778846729546784
1684201156673552600,3.647552734375,2.3002847745746373,0.2928653404772281,1.4673223770707844
1684201156683578400,3.657578369140625,1.3493133988924324,0.8398240999668836,1.7666852628737686
1684201156693604400,3.667604248046875,0.6619938364237546,1.2491250318259,1.9876701930105685
1684201156703630300,3.67763037109375,0.22992270822152494,1.370486389172077,2.1000451108247042
1684201156713655600,3.687655517578125,0.07360482298023999,1.286576518341899,2.1126848121672865
1684201156723681500,3.697681640625,0.08132635714299977,0.9096475777775048,1.8959850120037793
1684201156733707500,3.70770751953125,0.5928385401982814,0.3349187678307295,1.4481915601432322
1684201156743732500,3.717732421875,2.107013196271658,-0.22261223907768726,1.2962228830873965
1684201156753758500,3.727758544921875,4.196591858139634,-0.6789081463456154,1.3897691817909479
1684201156763784400,3.737784423828125,5.926194467809796,-0.9171996005922556,1.585024042865634
1684201156773810400,3.747810546875,6.132932261407375,-0.9621066638112068,1.7986153556197881
1684201156783835400,3.75783544921875,4.533433702987432,-0.679210928684473,1.9329209502130746
1684201156793861400,3.767861328125,1.3341899179100989,-0.24210312148928642,1.8940455683737991
1684201156803887400,3.777887451171875,-1.212902794843912,0.07464578340053558,1.6292846248745918
1684201156813912300,3.787912353515625,-2.9476094496548173,0.5180746103107929,1.5384014079004524
1684201156823938300,3.797938232421875,-4.289069650828838,0.6964023019820451,1.8198890297949313
1684201156833964500,3.807964599609375,-4.973052616220713,0.8406196342587471,1.8894792833715677
1684201156843990500,3.817990478515625,-5.0316509356617924,0.9598568390578031,1.6303221512287853
1684201156854015500,3.828015380859375,-4.888913028287887,0.9629349313288926,1.5705390059173105
1684201156864041500,3.83804150390625,-4.44063500778079,0.9473322885274886,1.8863579364806413
1684201156874067500,3.8480673828125,-3.467902905058861,0.9461369412630796,2.333928685501218
1684201156884092700,3.8580927734375,-2.289198294023424,0.9113590578705072,2.9311838000327346
1684201156894118700,3.86811865234375,-2.070133518294245,0.8061649914711714,3.3754730431646105
1684201156904144600,3.87814453125,-1.9679497396267949,0.7022983742833138,3.3809178645670412
1684201156914170600,3.888170654296875,-1.1638099703729152,0.8656868554979562,3.0121552793234585
1684201156924195600,3.898195556640625,-1.3939889914430676,1.3435603883236646,2.3225714251846075
1684201156934221600,3.9082216796875,-1.4074832637883723,1.9763959348022937,1.5016758975714444
1684201156944247600,3.91824755859375,-1.8392929645754397,2.4772879396438596,0.7579419355720282
1684201156954272500,3.9282724609375,-2.0770175787195564,2.610827810561657,-0.15920973422527313
1684201156964298500,3.938298583984375,-2.809955713677406,2.5113269873678683,-0.989182302263379
1684201156974324500,3.948324462890625,-2.7666142923399804,2.1950667427778243,-1.8128835349470376
1684201156984350500,3.9583505859375,-2.829948992653191,1.8125924430459737,-2.152898749133944
1684201156994375400,3.96837548828125,-2.2170663931399583,1.4762819285959004,-2.4888135422646998
1684201157004401400,3.9784013671875,-1.5364511506155132,1.1417647273033857,-2.995221680179238
1684201157014427400,3.988427490234375,-1.0664616490378975,0.8519137662112712,-3.2125060022324323
1684201157024452400,3.998452392578125,-0.6301192732572555,0.5732733504414558,-3.4785224987506864
1684201157034478300,4.008478271484375,-1.1694997064471244,0.4891489600777626,-3.3717315185487267
1684201157044503800,4.01850390625,-1.269948039624095,0.3180962278455496,-3.1170155837237834
1684201157054529800,4.02852978515625,-1.522598274090886,0.14611410580873488,-2.9136323612511155
1684201157064554800,4.0385546875,-1.7104980962276457,0.10554828666448593,-2.7635996206939217
1684201157074580700,4.048580810546875,-1.5650556060701608,0.10353928492963313,-2.5859248399734494
1684201157084606700,4.058606689453125,-1.3450830678462982,0.1893231329381466,-2.407382628768682
1684201157094631700,4.068631591796875,-1.6335212395310401,0.23156068468689917,-2.2621879758924246
1684201157104657700,4.07865771484375,-1.5505059794530271,0.1459966169089079,-2.2918957164138556
1684201157114683600,4.08868359375,-1.7093012876585125,0.03914601547420025,-2.147585445156693
1684201157124709600,4.098709716796875,-1.623647788031399,-0.26880700401961805,-2.097265124717355
1684201157134734600,4.108734619140625,-1.7402207420572637,-0.6714496470332145,-2.1052456020772454
1684201157144760600,4.118760498046875,-1.8258733649015426,-0.9332926572591066,-2.0755442912966013
1684201157154786600,4.12878662109375,-2.1031424923181534,-0.9059311876028776,-1.7270593549281357
1684201157164811500,4.1388115234375,-2.0119909797966478,-0.7855670246005058,-1.653538776165247
1684201157174837500,4.14883740234375,-1.8227546483591197,-0.7023007123708724,-1.9858932464659214
1684201157184863500,4.158863525390625,-1.6167074673742055,-0.7115794128477573,-2.461667761185765
1684201157194889500,4.168889404296875,-1.2804413765877485,-0.8181056046336889,-2.7652117320656773
1684201157204914700,4.178914794921875,-0.9318506417572497,-0.8461059567153454,-2.675640766733885
1684201157214940700,4.188940673828125,-0.8057017578735947,-0.6888526172548533,-2.3295599688977
1684201157224966700,4.198966552734375,-0.8246598485827445,-0.3647527650803327,-1.9333909058123826
1684201157234991600,4.20899169921875,-0.7610127213194966,0.0023737433940172192,-1.6445833162933587
1684201157245017900,4.219017822265625,-0.7087801375180482,0.30946576214432714,-1.362550919997692
1684201157255043800,4.2290439453125,-0.5647308552846312,0.3569873917758465,-1.1763368589907883
1684201157265068800,4.23906884765625,-0.2346595274850726,0.19588322210609913,-1.029660443124175
1684201157275094800,4.2490947265625,0.08967121083587408,-0.0667372022330761,-0.8383370762795209
1684201157285120800,4.259120849609375,0.17516221337765453,-0.32421967916190625,-0.7436269944936037
1684201157295146800,4.269146728515625,0.08515811732560395,-0.5188602077305317,-0.9444295528233051
1684201157305171700,4.279171630859375,0.12598390258029102,-0.542086185017228,-1.3493360491156576
1684201157315197700,4.28919775390625,0.2778314374744892,-0.43047640635669226,-1.7169605702400206
1684201157325223700,4.2992236328125,0.2586507900558412,-0.2747907546043396,-1.895252606076002
1684201157335249700,4.309249755859375,0.24046134563162921,-0.13489713074564932,-1.8246429463237523
1684201157345274600,4.319274658203125,0.3431877067431807,-0.0925040961742401,-1.5282459245890379
1684201157355300600,4.329300537109375,0.4389642487168312,-0.08119768926203251,-0.9265075271636247
1684201157365326600,4.33932666015625,0.5418704233746975,-0.14931670124232768,-0.3270563638925552
1684201157375351600,4.3493515625,0.5415712212324142,-0.029597265884280202,0.026908465191721916
1684201157385377500,4.35937744140625,0.46086160774827,0.39162031373977657,0.563202038282156
1684201157395403500,4.369403564453125,0.2869511479973793,0.8200310197383165,1.2517857754677533
1684201157405429500,4.379429443359375,-0.006482347756624221,1.3126000173926353,2.102219532254338
1684201157415454700,4.389454833984375,-0.2584124147227034,2.154693231335282,3.053100453174114
1684201157425480700,4.399480712890625,-0.3849146786212921,3.5775656413048504,4.390975197076798
1684201157435506700,4.409506591796875,0.2762450450658798,4.835147535830736,6.207133223649859
1684201157445531600,4.41953173828125,2.833059525889158,4.454278333207965,8.048314047798513
1684201157455557600,4.4295576171875,5.077243643057346,1.935436147904396,8.094447437942028
1684201157465583600,4.43958349609375,4.766344633239507,-0.7942945209354162,6.066074063143134
1684201157475608600,4.449608642578125,3.5543595377624033,-2.427627544417977,4.026967112883925
1684201157485634600,4.459634521484375,2.1274562648415563,-3.005967530599236,2.0679127735048533
1684201157495660500,4.46966064453125,0.5950315932631492,-2.440837739124894,0.23187574198544025
1684201157505686800,4.479686767578125,-0.659126756554842,-1.68316819075346,-0.9942851783603429
1684201157515711500,4.48971142578125,-1.6382698953628538,-1.6624106494069097,-2.113057152611017
1684201157525737700,4.49973779296875,-2.6423019762337208,-1.8474755403786896,-2.9971289751052854
1684201157535763700,4.509763671875,-3.041725657200813,-1.7008885563611984,-3.285196559911966
1684201157545789700,4.519789794921875,-2.2950661631435154,-1.2841121740549801,-2.654320915329456
1684201157555814700,4.529814697265625,-0.8558984519332646,-0.4663952764779329,-1.0512316389411687
1684201157565840600,4.539840576171875,0.6542915914833546,0.5607049607694149,0.6469108335822821
1684201157575866600,4.54986669921875,1.7671002734154462,1.3320774558007715,1.58780987419188
1684201157585891800,4.559891845703125,2.017038910835981,1.4528589674323797,1.474704888537526
1684201157595917800,4.569917724609375,1.539901875591278,0.9885504341006278,0.7053443178504705
1684201157605943600,4.579943603515625,0.9744453363806008,0.36680794404447076,-0.042264439755678174
1684201157615968800,4.58996875,0.6082639998018742,-0.10729951424598694,-0.48337680641710756
1684201157625994800,4.599994873046875,0.28353637111783025,-0.29596681362390515,-0.620968583074212
1684201157636020700,4.610020751953125,-0.20644027195572853,-0.33310616545081134,-0.5871253501832485
1684201157646046700,4.620046630859375,-0.6823778682827949,-0.3578495615631342,-0.6097545306205749
1684201157656071700,4.63007177734375,-1.0130588524132966,-0.36225919469892975,-0.6778712045133114
1684201157666097700,4.64009765625,-1.186828442388773,-0.3036193742036819,-0.674395637357235
1684201157676123600,4.65012353515625,-1.2595184155464172,-0.19690438184738157,-0.38977030195891854
1684201157686149600,4.660149658203125,-1.315269528862834,0.14067103797197342,0.13007540967762468
1684201157696174600,4.670174560546875,-1.5652186876773833,0.2668529473423958,0.5589022952616215
1684201157706200600,4.68020068359375,-1.9353087221324443,0.029761516535282133,0.983261095520854
1684201157716226600,4.6902265625,-2.1529951952457425,-0.29426059422791,1.2423241196393966
1684201157726251500,4.70025146484375,-2.075682822984457,-0.6027005204558372,1.3833470397889613
1684201157736277500,4.710277587890625,-1.620162576264143,-0.7320230659395456,1.2917010217487812
1684201157746303500,4.720303466796875,-1.0203460868120193,-0.7050345212489366,0.9490577971458435
1684201157756329500,4.73032958984375,-0.5125123000085353,-0.6090881756663322,0.6159609840452671
1684201157766354700,4.740354736328125,-0.3601882701763883,-0.46786593355238437,0.4202589637249708
1684201157776380400,4.75038037109375,-0.30316582174990325,-0.2825602195620537,0.1688087526977062
1684201157786406700,4.76040673828125,-0.2027548614412546,-0.05400806904137134,0.09228373142182826
1684201157796431600,4.770431640625,-0.012877017229795455,0.45364276241064067,-0.06456628793478011
1684201157806457900,4.780457763671875,0.1506979264676571,0.9173954154253006,-0.011438508859276771
1684201157816483800,4.79048388671875,0.31445246451571585,1.2245078924417494,-0.1384358262658119
1684201157826508800,4.8005087890625,0.6487883178919553,1.2382061629265546,-0.5088076002717018
1684201157836534800,4.81053466796875,1.0531873761188237,0.8351607843309641,-1.036648986837268
1684201157846560800,4.820560791015625,1.1392308249115943,0.3729711428493261,-1.6327163528889417
1684201157856586800,4.830586669921875,0.616535569062829,0.08448387132585049,-1.8658920715570448
1684201157866611700,4.84061181640625,-0.27807686360292133,-0.037084406769275664,-1.612530473950505
1684201157876637700,4.8506376953125,-1.000912999002263,-0.029788989064097403,-1.0448369694679975
1684201157886663700,4.86066357421875,-1.3448288008242846,0.05258884989321232,-0.4774842412471771
1684201157896689700,4.870689697265625,-1.217587080202624,-0.0047357963502407075,-0.051314007651805875
1684201157906714600,4.880714599609375,-1.1746259634196758,-0.12148118433356285,0.12467910359203815
1684201157916740600,4.89074072265625,-0.959714727173373,-0.2004407392799854,0.19047873271405696
1684201157926766600,4.9007666015625,-0.5049795664161444,-0.2622691266834736,0.2920142766058445
1684201157936791600,4.91079150390625,0.157918013914302,-0.25549334893822667,0.294053673478961
1684201157946817500,4.920817626953125,0.8154367507506162,-0.2713853300750255,0.24834230813980102
1684201157956843500,4.930843505859375,1.356683489269018,-0.3742448160469532,0.17783377067446707
1684201157966869500,4.940869384765625,1.6601076331615447,-0.44729134755730626,0.17661562705636025
1684201157976894700,4.950894775390625,1.615011184850335,-0.4460995074242353,0.27014205201566216
1684201157986920700,4.960920654296875,1.2785387578368186,-0.3835673556655645,0.39760347980260846
1684201157996946700,4.97094677734375,0.7436329127777367,-0.3101595896273851,0.5543535459160804
1684201158006971600,4.9809716796875,0.2567454678911716,-0.1345890877097845,0.7508049232989549
1684201158016997600,4.99099755859375,0.033949031352996824,-0.01838555151820183,0.8784721027910709
1684201158027023600,5.001023681640625,0.0732768331348896,-0.103065822198987,0.765909553450346
1684201158037049000,5.011049072265625,0.26204218605980273,-0.37149639412164687,0.4332067081034183
1684201158047075000,5.021074951171875,0.5142337169736624,-0.6439560754299164,0.05909925470054149
1684201158057101000,5.03110107421875,0.7375089500047266,-0.6969570132553577,-0.15167992324233054
1684201158067127300,5.041127197265625,0.850532979377359,-0.5293547137379646,-0.15460779338777064
1684201158077152000,5.051152099609375,0.8863257389008998,-0.28412381561696526,-0.05397299772799015
1684201158087178000,5.061177978515625,0.7878285397917032,-0.07620528780221938,0.0668459233045578
1684201158097204200,5.071204345703125,0.6553438770152628,-0.010576923593878745,0.15897008025050163
1684201158107230200,5.081230224609375,0.5179723189800978,-0.029937457624077794,0.16942600781321523
1684201158117255200,5.091255126953125,0.36266529128178954,-0.1273076985299587,0.14226035299003123
1684201158127281200,5.10128125,0.181066907376796,-0.2138344738602638,0.16189444326460362
1684201158137307100,5.11130712890625,0.0479636743105948,-0.3676052319020033,0.12476327474415301
1684201158147332000,5.12133203125,-0.019680705895274875,-0.4945160400688648,0.1357733290582895
1684201158157358000,5.131358154296875,-0.08555690738484263,-0.4231564387321472,0.33793080912828444
1684201158167384000,5.141384033203125,-0.11057035261020064,-0.39836628086864945,0.5443272419422864
1684201158177410000,5.15141015625,-0.12245017549619078,-0.40512803008854387,0.7293500473380088
1684201158187435300,5.161435302734375,-0.08814180931150913,-0.4198848697155714,0.8447253160119056
1684201158197461200,5.171461181640625,-0.026452976509183643,-0.4366238230705261,0.8837117570102214
1684201158207487200,5.1814873046875,0.10458967076539993,-0.46611061431765555,0.7696680292010307
1684201158217512200,5.19151220703125,0.2734427009962499,-0.5054314018368721,0.5329232198745012
1684201158227538200,5.2015380859375,0.41377705435976386,-0.526188943183422,0.30430677194595335
1684201158237564200,5.211564208984375,0.4591758466184139,-0.4735375494480133,0.21036066026985645
1684201158247590100,5.221590087890625,0.44507440216019745,-0.4850052844017744,0.09840192204117774
1684201158257615000,5.231614990234375,0.4307945323951542,-0.5943664073526859,-0.07031447619795798
1684201158267641000,5.24164111328125,0.37027021332755683,-0.651254415744543,-0.22763503567576407
1684201158277667000,5.2516669921875,0.3166742322184145,-0.5533113433867692,-0.2870335655838251
1684201158287692000,5.261692138671875,0.3242997586607933,-0.31678105359375475,-0.15334054993093013
1684201158297718000,5.271718017578125,0.34358956554234027,-0.10842764149308204,0.09760814131498337
1684201158307744000,5.281743896484375,0.3804268656827509,-0.11006547182798385,0.2716477804034948
1684201158317770000,5.29177001953125,0.46134456895962356,-0.17902794889509677,0.35595921777188777
1684201158327795000,5.301794921875,0.537711038672924,-0.2019663414120674,0.4580909739911556
1684201158337821000,5.311821044921875,0.6359715064167976,-0.2330798570781946,0.6017027415901423
1684201158347847200,5.32184716796875,0.7011879288233817,-0.27466566691994665,0.8239946626722812
1684201158357872000,5.3318720703125,0.6964550550825893,-0.23511340873241424,1.113067040607333
1684201158367898000,5.341898193359375,0.5669448780722915,-0.07056815869808196,1.5048849227458239
1684201158377924000,5.351924072265625,0.39925475414097306,0.2700362535536289,2.0022657045960424
1684201158387950000,5.3619501953125,0.18578809067979454,0.7447574598282575,2.5572353365838527
1684201158397975300,5.371975341796875,-0.020744827995449303,1.118712937539816,3.0439427487283943
1684201158408001300,5.382001220703125,-0.21694880648851395,1.1801117013543843,3.2886294569700953
1684201158418027300,5.39202734375,-0.3007400193750858,1.0280722971498966,3.2529408884733915
1684201158428052200,5.40205224609375,-0.18494316428825258,0.6828039847403764,2.731437472757697
1684201158438078200,5.412078125,0.16561141796112058,0.2604465874314308,1.772896976995468
1684201158448104200,5.422104248046875,0.7722907789200544,-0.021880407896637914,0.906404065811634
1684201158458130200,5.432130126953125,1.679519605118036,-0.10861293493211269,0.29424364309310913
1684201158468155100,5.442155029296875,2.80097745745182,0.008282090654969215,-0.09783902746140956
1684201158478181000,5.45218115234375,4.657276355755329,0.09003273762464523,-0.19400281518697737
1684201158488207000,5.46220703125,7.099485967755317,0.14085574688911437,0.044318449676036833
1684201158498232000,5.472232177734375,8.57891788481474,0.27274492799043654,0.2945399956911802
1684201158508258000,5.482258056640625,8.109127120679616,0.44657823085188864,0.5327572156578302
1684201158518284000,5.492283935546875,5.976052431434392,0.45166181772649283,0.4129039247870445
1684201158528310000,5.50231005859375,3.2723125284194943,0.668507748362422,0.08583411689102649
1684201158538335000,5.5123349609375,0.5226935022830963,0.9664742113709449,0.09115268156528472
1684201158548361000,5.52236083984375,-1.8858079013824462,1.3394284030854702,0.07754033579826354
1684201158558387000,5.532386962890625,-3.6762124780178067,1.6922610132694242,-0.1156838962316513
1684201158568412200,5.542412109375,-6.354198346573114,1.9169412907928227,-0.5723825390815734
1684201158578438100,5.552438232421875,-6.850722803854942,2.5300579913228747,0.47017187240719793
1684201158588464000,5.562464111328125,-4.78825251366496,2.7075328655570745,1.6935966457873581
1684201158598490000,5.572489990234375,-4.198700228595733,2.4835978534430265,2.4697943690180777
1684201158608515000,5.58251513671875,-3.8296798691987988,2.1334856081336735,2.5743378625541924
1684201158618541000,5.592541015625,-3.6160780350506303,1.6646341706752776,2.9993092417538163
1684201158628567300,5.6025673828125,-3.703694359183311,1.0581623149871826,3.3560178165882824
1684201158638593300,5.61259326171875,-3.738544138768315,0.292988674595952,3.843354174286127
1684201158648618200,5.6226181640625,-2.7782962545663117,-0.573064091604948,4.200136983400583
1684201158658644200,5.632644287109375,-1.8355496863938867,-1.5647341190308333,4.142455778804421
1684201158668670200,5.642670166015625,-2.747938525703549,-2.3828502450585365,3.8494495685517784
1684201158678695200,5.652695068359375,-3.762987382890284,-2.923588522598147,3.1609833202660083
1684201158688721200,5.66272119140625,-4.207654811684787,-3.015291823783517,1.8232178819566964
1684201158698747100,5.6727470703125,-4.221007629732787,-2.842671988365054,0.23537001384198664
1684201158708773000,5.682773193359375,-4.324029320529103,-2.406205986204743,-1.0900777946859597
1684201158718798000,5.692798095703125,-3.749661160588264,-1.5492074640750884,-2.2286703216940165
1684201158728824000,5.702823974609375,-2.9075203081116077,-0.5008002349048852,-3.0351603073358535
1684201158738850000,5.71285009765625,-2.3535613144710656,0.4966635734915733,-3.3041537738382813
1684201158748875300,5.722875244140625,-2.1244310718014834,1.3253303196281194,-3.142579648569226
1684201158758901000,5.73290087890625,-2.081134366388619,1.8340782986670732,-2.8627760342389346
1684201158768927000,5.742927001953125,-2.0047443696692584,1.7738941713392733,-2.5652649137824772
1684201158778953000,5.752952880859375,-1.7771239470407365,1.0848732117801905,-2.197864849063754
1684201158788978200,5.762978271484375,-1.5776634509697556,0.18019991528391838,-1.742732140356302
1684201158799004200,5.773004150390625,-1.6477771438986062,-0.5353776272892952,-1.149890166091919
1684201158809030100,5.783030029296875,-1.8739359695419668,-0.9944412457048892,-0.44104105499088764
1684201158819055000,5.79305517578125,-1.9898256174787878,-1.0762643733888864,0.20784253996908664
1684201158829081000,5.8030810546875,-2.0119360347390174,-0.907782368427515,0.5813800845295191
1684201158839107000,5.813107177734375,-2.0330068798184393,-0.6847258927136659,0.7346294490456581
1684201158849133000,5.823133056640625,-2.0294667229935524,-0.4680331068128347,0.6453747100561856
1684201158859158000,5.833157958984375,-2.091938522867113,-0.3538362342685461,0.5338999559521674
1684201158869184000,5.84318408203125,-1.8904618646681308,-0.29735329954624173,0.29814591122865675
1684201158879210000,5.8532099609375,-1.6813257777571677,-0.2239081241071224,0.09223053992986678
1684201158889235000,5.86323486328125,-1.7243140017427503,-0.17558686853051184,-0.031259061616659166
1684201158899261000,5.873260986328125,-1.3764087649583816,-0.14048983618617056,-0.17423311583399773
1684201158909287200,5.883287109375,-0.9440987134337425,-0.07904255705475807,-0.27188217368125916
1684201158919313200,5.893313232421875,-0.4402107416465878,0.06517477522194386,-0.3044482262432575
1684201158929338000,5.903338134765625,-0.040811610598862166,0.22306641258597373,-0.2934299886226654
1684201158939364000,5.913364013671875,0.10367153300717473,0.4471417099535465,-0.18823416865766046
1684201158949390000,5.92339013671875,0.09308379575833678,0.5678945800125599,-0.08151391560435295
1684201158959415300,5.933415283203125,0.0423895274400711,0.5836456913739443,-0.00861468361020088
1684201158969441300,5.943441162109375,-0.12517068650126456,0.5015396550953388,0.05942191078364849
1684201158979467300,5.95346728515625,-0.2131444457694888,0.3122755588680506,0.012326982131600378
1684201158989493200,5.9634931640625,-0.2935083145558834,0.0802390733629465,-0.12013853755295276
1684201158999518200,5.973518310546875,-0.4074000666737556,-0.1018850879818201,-0.31298166131079197
1684201159009544200,5.983544189453125,-0.5112061858460307,-0.16916998722553253,-0.4809703297972679
1684201159019570200,5.993570068359375,-0.5190251890338957,-0.11235913572311401,-0.4892220253139734
1684201159029595100,6.00359521484375,-0.48292964717149733,-0.055282326760888095,-0.3259714912652969
1684201159039620600,6.01362060546875,-0.31633623243570325,-0.07613222256600856,-0.11804244205653666
1684201159049646600,6.023646484375,-0.03679682199954987,-0.06721300305128097,0.13829144935905932
1684201159059672600,6.033672607421875,0.0770215726211667,-0.003751461488008499,0.4181868336260319
1684201159069697500,6.043697509765625,0.0068634560286998745,0.0939034415781498,0.5738058498829602
1684201159079723500,6.0537236328125,0.0713338823735714,0.21324352222979068,0.5385971738576889
1684201159089749500,6.06374951171875,0.08803352663144469,0.35382980452775953,0.39930794563293454
1684201159099775500,6.073775390625,0.09076426676958799,0.427727984431386,0.248694774839282
1684201159109800700,6.08380078125,0.24285686246603727,0.4380722683131695,0.26170740114748475
1684201159119826400,6.093826416015625,0.4685922020003199,0.3554033374547958,0.42279578872621054
1684201159129852400,6.103852294921875,0.5146690396510064,0.15845979264080523,0.6517027440339327
1684201159139877600,6.113877685546875,0.36611397043094035,-0.1377256321698427,0.8231862688988447
1684201159149903600,6.123903564453125,0.02680968099236488,-0.42255262762010093,0.9040870210409164
1684201159159929600,6.1339296875,-0.37666707475781436,-0.6034463703870773,0.7864274408221245
1684201159169955600,6.14395556640625,-0.7151084637567401,-0.7534615752875804,0.5490642073363066
1684201159179980500,6.15398046875,-1.025356754580885,-0.8914818064898252,0.2944523174077272
1684201159190006500,6.164006591796875,-1.3012513787738977,-1.0713438681215046,-0.0745318016320467
1684201159200032800,6.17403271484375,-1.63997436119318,-1.2104396196007727,-0.47505204566419124
1684201159210057500,6.184057373046875,-2.0867411003544927,-1.1614631149858237,-0.8203086676359176
1684201159220083700,6.194083740234375,-2.4827953048884868,-1.055011742001772,-1.0740876138716935
1684201159230109700,6.204109619140625,-2.653679987077415,-0.9192582866877317,-1.2153829212218523
1684201159240135700,6.2141357421875,-2.71162510330677,-0.7028191832870244,-1.3893611855119465
1684201159250160600,6.22416064453125,-2.5872131262183187,-0.5323854597359895,-1.5186509977698326
1684201159260186600,6.2341865234375,-2.108623115686327,-0.39204876828491686,-1.6122738688409328
1684201159270212600,6.244212646484375,-1.1485342214383185,-0.3269493963867426,-1.659709573754668
1684201159280237600,6.254237548828125,-0.176819332934916,-0.25563421871364117,-1.7381898207515478
1684201159290263600,6.264263671875,0.6882064283058047,0.020217443120479583,-2.068700124490261
1684201159300289500,6.27428955078125,1.480398716264963,0.4486217193782329,-2.3917536824822423
1684201159310315500,6.2843154296875,2.0908663635909557,0.9976549470543861,-2.588621239450574
1684201159320340700,6.2943408203125,2.4442076539494098,1.5939736575186252,-2.807610027334094
1684201159330366700,6.30436669921875,2.165247943097353,1.955662358853221,-3.1554940751999614
1684201159340392700,6.314392822265625,1.2311385626278817,1.7885066340595484,-3.504749411419034
1684201159350417700,6.324417724609375,0.2510439683139324,1.4626491245627402,-3.6350785035967825
1684201159360443600,6.334443603515625,-0.5918588084459304,1.588541111075878,-3.431053476089239
1684201159370469600,6.3444697265625,-1.0831645812314004,2.5128543430656194,-2.9172394458323714
1684201159380495600,6.35449560546875,-1.0452865398664026,4.319945850607753,-2.1904799995094537
1684201159390520600,6.3645205078125,0.16679799739718437,7.00593323931098,-0.930251974388957
1684201159400546600,6.374546630859375,4.719428568285704,10.04510921202898,1.2104893039613962
1684201159410572500,6.384572509765625,10.587960536199807,10.378748461443186,3.6488194441795345
1684201159420597500,6.394597412109375,9.375036698567866,5.254827238363028,3.401311833298206
1684201159430623500,6.40462353515625,5.173256039613485,0.6566770253151655,1.4749042105019092
1684201159440649500,6.4146494140625,0.7060907523036003,-1.8505396041244266,0.07110767240226268
1684201159450675700,6.42467578125,-3.8980093090593813,-3.6450282352030277,-1.8105501235634087
1684201159460700400,6.434700439453125,-5.962430733317136,-4.899553080245852,-3.864288825765252
1684201159470726400,6.444726318359375,-4.252263476479054,-5.1149277692854405,-4.247880146828294
1684201159480752600,6.454752685546875,-2.7859891471564766,-4.219815497338772,-2.9527842219442126
1684201159490778600,6.464778564453125,-2.418677929764986,-2.690819046643376,-0.936111806333065
1684201159500803600,6.474803466796875,-2.3515070122897623,-1.125029281079769,1.049181720674038
1684201159510829600,6.48482958984375,-2.3282746052622794,-0.10265841044187546,2.695935366743803
1684201159520855600,6.49485546875,-2.014008749359846,0.012152794608473776,4.168377571046352
1684201159530880800,6.504880859375,-1.210757526443526,-0.34544542254209515,6.324575361725688
1684201159540906800,6.51490673828125,0.2724163901558146,-1.7931892389178274,7.8493726071655745
1684201159550932700,6.5249326171875,0.9381155473709106,-3.9197430019617077,8.121780850547552
1684201159560958700,6.534958740234375,0.5959036999225616,-5.48764990580976,7.564211265194416
1684201159570983700,6.544983642578125,0.07318678023125975,-5.879941250678897,6.9759151176661245
1684201159581009700,6.555009765625,-0.8718097222924232,-4.839423897975683,6.157632987421751
1684201159591035600,6.56503564453125,-1.811987462890148,-3.8437113171607256,4.906611766585708
1684201159601060600,6.575060546875,-2.5706360854268073,-3.3291841701984404,3.8483348853081463
1684201159611086600,6.585086669921875,-2.930355532515049,-2.7595588208705184,3.040981560835242
1684201159621112600,6.595112548828125,-3.0299639077365397,-2.1030565676003694,2.5531103656083345
1684201159631138600,6.605138671875,-3.551189091032743,-1.3645213432878256,2.3404244772613048
1684201159641163500,6.61516357421875,-4.085762416201829,-0.5991887129426002,2.0022429082423447
1684201159651189500,6.625189453125,-3.873610196340084,-0.20176877301335333,1.5912795961290598
1684201159661215500,6.635215576171875,-3.5305016923129555,-0.01052139401435852,1.237923838853836
1684201159671240400,6.645240478515625,-3.228233732718229,0.13472118965685367,0.8432114043176173
1684201159681266400,6.655266357421875,-3.1566181107938287,0.1573983008891344,0.052792263510823244
1684201159691292400,6.66529248046875,-2.939419128936529,0.5342465774327516,-0.6370066946834325
1684201159701318400,6.675318359375,-2.523471014147997,1.0609539915323256,-1.0907248604178428
1684201159711343600,6.685343505859375,-1.9312907186627386,1.415674022898078,-1.4545225167304277
1684201159721369600,6.69536962890625,-1.4077005598008632,1.7375199586659669,-1.8603806146591901
1684201159731395800,6.705395751953125,-0.7913900316655635,2.04384157756567,-2.5049521916389463
1684201159741421800,6.715421875,-0.1356944368694909,2.1502432661890984,-2.855583492386341
1684201159751446800,6.72544677734375,0.3452086911767721,1.9435662628680466,-2.978741085499525
1684201159761472800,6.73547265625,0.458826887050271,1.5807126094073056,-2.969503886076808
1684201159771498800,6.745498779296875,0.1722732139378786,1.1351140372425317,-2.3221260195046662
1684201159781523700,6.755523681640625,-0.16408053686572238,0.6825047095328569,-1.343925129982829
1684201159791549700,6.7655498046875,-0.5416325960308314,0.2988748100250959,-0.4962134916365146
1684201159801575700,6.77557568359375,-0.9470581477612257,-0.01758241844177246,0.10512918446958064
1684201159811601700,6.7856015625,-1.2624825260490178,-0.3086152827948332,0.42930619353353977
1684201159821626600,6.795626708984375,-1.4877911646038293,-0.4323398621410131,0.6849760680824518
1684201159831652600,6.805652587890625,-1.645721964934468,-0.5476420655786991,0.9356050258547067
1684201159841678600,6.8156787109375,-1.6739590483814477,-0.7575789474785327,1.1545043818891048
1684201159851703600,6.82570361328125,-1.4764444256812332,-0.9121300422430038,1.2526818475246428
1684201159861729500,6.8357294921875,-1.1958043605268,-0.9327759399086236,1.2281728446900844
1684201159871755500,6.845755615234375,-0.9469733920872211,-0.8267027525871992,1.0694015018820762
1684201159881781500,6.855781494140625,-0.7979694100558757,-0.6672901892662048,0.8357792084902524
1684201159891806700,6.865806640625,-0.8034218302428722,-0.4978735338032245,0.6820809311628341
1684201159901832700,6.875832763671875,-0.9064286157310009,-0.38529929402470586,0.5701835677325725
1684201159911858400,6.8858583984375,-1.0221750558048486,-0.3876473184555769,0.4840799862504005
1684201159921883600,6.895883544921875,-1.0536918915748597,-0.4358920016646385,0.4455120629251003
1684201159931909600,6.90590966796875,-1.049987191838026,-0.39555414605736733,0.3460509872198105
1684201159941935600,6.915935546875,-1.0488199016243218,-0.3400724973320961,0.24641806207895278
1684201159951961600,6.925961669921875,-1.0349433519631623,-0.279497324860096,0.18651392073631284
1684201159961986600,6.935986572265625,-0.9908253932952881,-0.2218301487892866,0.04179857580959797
1684201159972012500,6.946012451171875,-0.9243523949563502,-0.13941314686536788,-0.11068506503105163
1684201159982038500,6.95603857421875,-0.8687146788865328,0.037926118290424346,-0.2702396671712398
1684201159992063500,6.9660634765625,-0.7289215927928686,0.2297936750143766,-0.4182862023472786
1684201160002089500,6.97608935546875,-0.6225964765369891,0.3654904317051172,-0.4383580995172262
1684201160012115700,6.98611572265625,-0.6472504408001899,0.41898470600545407,-0.32778234007954593
1684201160022141700,6.9961416015625,-0.7241875500082969,0.516914334359765,-0.12003098552525043
1684201160032166700,7.006166748046875,-0.7387737092435359,0.6675777740359305,0.02018003371953964
1684201160042193000,7.01619287109375,-0.6121949460426345,0.6434305902510881,-0.003926233533024788
1684201160052219000,7.026218994140625,-0.34866559016499665,0.5371703559249639,-0.06985562651455401
1684201160062244900,7.036244873046875,-0.05606620714757591,0.41292262948751446,-0.021776363000273705
1684201160072269800,7.046269775390625,0.29102230642642823,0.3029045039325952,0.08965162935256958
1684201160082295800,7.0562958984375,0.7271019761502743,0.17913374735713003,0.2455196519345045
1684201160092321800,7.06632177734375,1.2668266927331686,0.019622399836778638,0.3695458445757627
1684201160102347000,7.076346923828125,1.9086188681274652,-0.170133279299736,0.4359370098501444
1684201160112373000,7.086373046875,2.660800924998522,-0.30660803462564945,0.3788707222819328
1684201160122399000,7.09639892578125,3.5062703373759985,-0.42514381315708155,0.24967209543883798
1684201160132425000,7.106425048828125,4.150598753249645,-0.6286755041897296,0.13323591953516006
1684201160142450200,7.1164501953125,4.242951458254456,-0.7903887456685305,0.029829321074485778
1684201160152476200,7.12647607421875,3.643190498381853,-0.8659954830557107,-0.07650047135651111
1684201160162502100,7.136502197265625,2.3661492856264115,-0.8394003215968608,0.04433832342028617
1684201160172527000,7.146527099609375,0.7238719081878662,-0.800040955632925,0.2924117514908314
1684201160182553000,7.156552978515625,-0.8462100016117096,-0.6734680011183023,0.5114654213041067
1684201160192579000,7.1665791015625,-2.2172857349790633,-0.4309551297843456,0.7405559164851904
1684201160202605000,7.17660498046875,-2.9091163451313973,-0.01462181507050991,0.8617717278808354
1684201160212630000,7.186630126953125,-3.1881916451871395,0.6479220564514399,1.1864724685579537
1684201160222656000,7.196656005859375,-2.818442971515655,1.6346674869567155,1.704395103177428
1684201160232682000,7.206681884765625,-1.9547722781457006,2.49865981349647,2.354869766721129
1684201160242707000,7.21670703125,-0.8195544882677495,2.9537545282810926,3.3652082542598247
1684201160252733000,7.22673291015625,0.7707027790762484,2.860124058425426,4.163189939275384
1684201160262759000,7.236759033203125,2.2486907809376717,2.17351483618319,4.785467266860604
1684201160272785000,7.246784912109375,2.339060203170776,1.4892097992300986,5.358117516967654
1684201160282809900,7.256809814453125,0.5115785262897611,0.9718138188332319,5.274000140866637
1684201160292835800,7.2668359375,-1.3079261803627014,0.7427221546083689,4.5515784314870835
1684201160302861800,7.27686181640625,-3.0418197652250525,0.7572030999034642,3.2985493779599664
1684201160312887800,7.2868876953125,-4.450122674833238,0.8813006042152642,1.3149480418235062
1684201160322913000,7.2969130859375,-4.611072530724108,1.0922884564727544,-0.890340819761157
1684201160332939000,7.30693896484375,-4.03275797124505,1.240312779816985,-2.317916877377033
1684201160342965000,7.316965087890625,-4.029890599115193,1.3943740452378988,-2.6860832502931355
1684201160352990000,7.326989990234375,-3.6391362545549866,1.3453805894881485,-2.568890703064203
1684201160363016000,7.337015869140625,-2.7960087291285394,1.0468249284148217,-1.8992320311009883
1684201160373042000,7.3470419921875,-2.2834046591833235,0.7524801630347967,-0.8002911310017109
1684201160383068200,7.357068115234375,-2.6992709409072995,0.5344616814881563,0.590429067903757
1684201160393092900,7.3670927734375,-2.6519851658582687,0.29738077207505703,1.3617840272784232
1684201160403119000,7.377119140625,-2.1339947266995907,0.34754736325740815,1.3458446998685598
1684201160413145000,7.38714501953125,-2.405352291984856,0.8246107487440109,0.6077367610573768
1684201160423170000,7.397170166015625,-2.0753654275983573,1.520770474141836,-0.8237368885189295
1684201160433196000,7.407196044921875,-1.6141688888072967,2.0251701948434113,-1.982571993088722
1684201160443222000,7.417221923828125,-1.2489827007457612,2.114251330831647,-2.7448212704658506
1684201160453248000,7.427248046875,-1.405985280315578,1.9013637824326752,-3.062430591577291
1684201160463273000,7.43727294921875,-1.818065906020999,1.4462182142436504,-3.079956311395764
1684201160473299000,7.447298828125,-1.4468962596356867,0.9012111733436584,-3.105276046091318
1684201160483325000,7.457324951171875,-1.0730518410831689,0.2006459064632654,-3.0267636503905058
1684201160493350100,7.46735009765625,-0.8100695976942777,-0.41134734299480913,-3.2030256417036056
1684201160503376100,7.477376220703125,-0.5757984850049018,-0.8194488359361887,-3.6483144172668456
1684201160513402000,7.487402099609375,-0.5008358907401561,-0.9007739509701729,-4.036886449351907
1684201160523427800,7.497427734375,-0.3180336840033531,-0.8645166426748037,-4.2549125296831125
1684201160533453000,7.507453125,-0.17470248691141604,-0.6881003375828266,-4.089495757511258
1684201160543479000,7.51747900390625,-0.5144850613862276,-0.4322492612481117,-3.5449013890653847
1684201160553505000,7.527505126953125,-1.1036281811326742,-0.24930326212644577,-2.75342017198503
1684201160563530000,7.537530029296875,-1.2172536835297942,-0.21734628137350082,-1.8709131145894526
1684201160573556000,7.547555908203125,-0.9269912190273404,-0.3037649201542139,-0.9125853847950697
1684201160583582000,7.55758203125,-0.6992822413325309,-0.4625912080198526,-0.03844342016279697
1684201160593608000,7.56760791015625,-0.5317483308762312,-0.707003190973401,0.5097866744369268
1684201160603633000,7.5776328125,-0.446226933196187,-0.9920394452601671,0.7228337973117828
1684201160613659000,7.587658935546875,-0.3738514328151941,-1.1442197192400694,0.7009463751524686
1684201160623684900,7.597684814453125,-0.05889174942970275,-1.0787935996055602,0.5695300722599029
1684201160633711000,7.607711181640625,0.12199907072782516,-0.7748229277461767,0.3471639168977737
1684201160643735800,7.61773583984375,-0.0473000958353281,-0.34066461800634856,0.0891582928776741
1684201160653762000,7.627761962890625,-0.07981266464442015,0.11092354996204376,-0.09453180260956287
1684201160663788000,7.6377880859375,0.29016572612971064,0.5443886167407036,-0.24738603032827375
1684201160673813000,7.64781298828125,0.977651146684587,0.9281710764616727,-0.12636720280945302
1684201160683839000,7.6578388671875,1.4492425305008887,1.186917874237895,0.12835983793139458
1684201160693865000,7.667864990234375,1.374611944669485,1.1230401530891656,0.09090718237161635
1684201160703891000,7.677890869140625,1.188590483625233,0.9039788844913244,-0.23816344395279884
1684201160713916200,7.687916259765625,0.8601450034618378,0.5828735379576683,-1.0910609605044126
1684201160723942100,7.697942138671875,0.6284633227437735,0.25194296298027036,-1.9524866514265535
1684201160733968100,7.707968017578125,0.6965934406399726,0.14548282216787337,-2.4425790298342704
1684201160743993000,7.7179931640625,0.8081523658961057,0.25145021102726456,-2.4699533589720724
1684201160754019000,7.72801904296875,0.9377990287676453,0.5282902993768454,-2.2182255000472066
1684201160764045000,7.738045166015625,0.6952165993288159,0.9726906016677618,-2.011119457659125
1684201160774071000,7.748071044921875,-0.07158493452519178,1.2693944973945617,-1.7937281681001185
1684201160784096000,7.758095947265625,-0.5879819670125842,1.2734691994875669,-1.3759814794570207
1684201160794122000,7.7681220703125,-0.5724176103949546,0.9863397723138332,-0.8289239357680082
1684201160804148000,7.77814794921875,-0.2944401885785162,0.5154138666689395,-0.212254511192441
1684201160814173000,7.7881728515625,0.07843816142082213,0.0519008676290512,0.2786263872444629
1684201160824199000,7.798198974609375,0.43739305387735367,-0.20401567515730856,0.4652016827791929
1684201160834225000,7.808224853515625,0.5915301610134541,-0.29355916796028614,0.2743359965741634
1684201160844251000,7.8182509765625,0.4137747162722051,-0.3021896336615085,-0.19297464118301869
1684201160854275800,7.82827587890625,0.13151391804814339,-0.2810240960359573,-0.7684376106232405
1684201160864301800,7.8383017578125,0.0005751695394515991,-0.22723463818132875,-1.1970073065757751
1684201160874327800,7.848327880859375,0.16273907739520072,-0.10705576861798763,-1.3442875335544346
1684201160884353800,7.858353759765625,0.5893885458748788,0.09092179541885852,-1.248705345109105
1684201160894379000,7.86837890625,0.9645523033976554,0.38261224689781664,-1.0810194589614868
1684201160904405000,7.878405029296875,1.0439397283673286,0.7003840650945902,-0.9688654904216527
1684201160914431000,7.888430908203125,0.9800515588898211,0.9841530759245156,-0.8850947358012199
1684201160924456000,7.8984560546875,0.9326022638421505,1.1846177806019782,-0.8446785542607307
1684201160934482200,7.908482177734375,0.7584522962469608,1.3118968375593423,-0.8157061422765255
1684201160944508200,7.918508056640625,0.7640683825630694,1.4410983870118856,-0.7276502576828002
1684201160954534100,7.9285341796875,0.9311959772408008,1.6978244926154613,-0.48417000262141224
1684201160964559000,7.93855908203125,1.1306629030525683,1.8768816676050424,-0.10965922911465167
1684201160974585000,7.948585205078125,1.4694903687596321,1.7048767492145298,0.32846506164669986
1684201160984611000,7.958611083984375,1.8983119936466215,1.2364923447459935,0.9051409140080213
1684201160994636000,7.968635986328125,2.121857714182138,0.9291910671591758,1.7298709052175283
1684201161004662000,7.978662109375,1.7873907817721366,0.8737497504442929,2.5411399418294427
1684201161014688000,7.98868798828125,1.1894693122863769,0.829994779869914,3.269665228781104
1684201161024714000,7.9987138671875,0.7765700636744499,0.7148655949115753,3.8886896920502183
1684201161034739000,8.008739013671875,0.5461702394604683,0.22204057666957377,3.9839322732776403
1684201161044764700,8.0187646484375,0.21286416752338408,-0.6314893925666809,3.3242823696315287
1684201161054791000,8.028791015625,-0.0535351908326149,-1.6268921767801046,2.268720008009672
1684201161064817000,8.03881689453125,-0.13263152390122412,-2.4487065728038546,1.3653992951661347
1684201161074841900,8.048841796875,-0.123217214345932,-2.8485195453494785,0.6889736132860184
1684201161084867800,8.058867919921875,-0.35248306609392166,-2.7246722164064643,0.20411679744422434
1684201161094893800,8.068893798828125,-0.6540577827274799,-2.0901018089592456,-0.1755798542678356
1684201161104919000,8.0789189453125,-0.734058955681324,-1.0117933625221252,-0.5095616335093974
1684201161114945000,8.088945068359376,-0.19938392370343208,0.20872516802251337,-0.717048199647665
1684201161124971000,8.098970947265625,0.6573468874007463,1.0901666420131921,-0.6671656861037015
1684201161134997000,8.1089970703125,1.2700474083453417,1.7961662089020012,-0.541857052436471
1684201161145022000,8.11902197265625,1.0556927100032567,2.023620627313852,-0.6277127966374159
1684201161155048000,8.1290478515625,0.358911053314805,1.6459358999460936,-1.0201239684939385
1684201161165074000,8.139073974609374,-0.11354334053900092,0.9878647899240255,-1.3605974478423595
1684201161175099000,8.149098876953126,-0.3637444648206234,0.3650689914226532,-1.4791957702159881
1684201161185124900,8.159124755859375,-0.5206710565447807,-0.1954267105102539,-1.4628718274027108
1684201161195150800,8.16915087890625,-0.6711515408694744,-0.5821458082050085,-1.39672148514688
1684201161205176800,8.1791767578125,-0.8526467566609383,-0.711473614385724,-1.2808756763517857
1684201161215201800,8.189201904296874,-0.7674901006400585,-0.7647995463818311,-1.1865794360637665
1684201161225227800,8.199227783203124,-0.5410802228450775,-0.7678712089121341,-1.050807860571146
1684201161235253800,8.209253662109376,-0.46492871105670924,-0.4543734147727489,-0.6831506062209606
1684201161245279700,8.21927978515625,-0.6423965710282326,0.16980886965095995,0.09963000253140926
1684201161255304700,8.2293046875,-0.5566414011249319,0.8549789990007877,0.8367366553455591
1684201161265330700,8.23933056640625,-0.6179506965577602,1.1362988631129265,1.1849737544327974
1684201161275356700,8.249356689453125,-2.3623054696798325,0.8549386669903993,1.5233376942813395
1684201161285382000,8.2593818359375,-3.9281490112572905,0.2791419355511665,2.165790379410982
1684201161295407900,8.269407958984376,-3.9363533605009313,-0.20954232962429523,2.5276865860164164
1684201161305433900,8.279433837890625,-2.131761268559098,0.019014497071504592,2.008820533066988
1684201161315459800,8.2894599609375,-0.08164951554960571,0.1091267296731472,0.9992483537256717
1684201161325484800,8.29948486328125,0.40323359464406966,-0.20338497603833675,0.12025135027766228
1684201161335511000,8.309510986328124,0.26144378177523614,-0.38247371520996093,-0.3792752114295959
1684201161345537000,8.319537109375,0.12766893305778504,0.03180149793028831,-0.30289924323558803
1684201161355562000,8.32956201171875,0.1303110450644046,0.6878279503822327,-0.2853068879216909
1684201161365588000,8.339587890625,0.1465577944556251,1.259162441715598,-0.5109907895296811
1684201161375614000,8.349614013671875,-0.07836213704254477,1.4141151030182837,-1.0529197381585835
1684201161385640000,8.359639892578125,-0.4254909826269373,1.0935831724584102,-1.6777584406644106
1684201161395665000,8.369664794921874,-0.6370242303401231,0.6302876155614853,-2.0111071826994418
1684201161405691000,8.37969091796875,-1.1416986763298511,0.04825520460307598,-2.0566887841790913
1684201161415716900,8.389716796875,-1.9835481446444987,-0.22935586811900138,-1.8723282420843839
1684201161425742800,8.399742919921875,-2.5136954700648784,-0.2585603352934122,-1.3480927710562944
1684201161435767800,8.409767822265625,-2.726991014742851,-0.2544254274457693,-0.8423807987123727
1684201161445793800,8.419793701171875,-2.7865216465979814,-0.29264906737804414,-0.4762047228306532
1684201161455819800,8.42981982421875,-2.4223604176700113,-0.23672084392905235,-0.052690556702017784
1684201161465845000,8.439844970703126,-1.629106930220127,-0.05349252073466777,0.36540275342166423
1684201161475870700,8.44987060546875,-0.60095404211469,0.1270645374238491,0.5957172374397516
1684201161485896700,8.459896728515625,0.4710528199601918,0.1484960325092077,0.5762468132942915
1684201161495922700,8.469922607421875,1.4435200612008572,-0.08955985941588879,0.4215560177981853
1684201161505948000,8.479947998046875,2.0801859796226023,-0.45768239319026466,0.30911738709807396
1684201161515974000,8.489973876953124,2.356597028905153,-0.714094026017189,0.3236497703194618
1684201161525999900,8.499999755859376,2.20460497097373,-0.9811322667986154,0.446491721612215
1684201161536024800,8.51002490234375,1.5079612614512443,-1.3233937986075877,0.5931301435559988
1684201161546050800,8.52005078125,0.541172577303648,-1.5260937149912117,0.7659060463190078
1684201161556076800,8.530076904296875,-0.1876752926658839,-1.611848336905241,0.8815221380114555
1684201161566102800,8.540102783203125,-0.5928987459529191,-1.4794944609016178,0.9492360763221979
1684201161576127700,8.550127685546874,-0.7533183674246072,-1.2200146726757288,1.1262333961725235
1684201161586153700,8.56015380859375,-0.8099264628965407,-1.1982692893356084,1.207574293297529
1684201161596180000,8.570179931640626,-0.7946803784478456,-1.476819688734412,0.9649678984612226
1684201161606206000,8.5802060546875,-0.46851541043706235,-1.6814625558793543,0.5654565392106771
1684201161616231000,8.59023095703125,-0.053629298856854433,-1.5350795700013637,0.4426537508845329
1684201161626257000,8.6002568359375,0.23689050140753387,-0.9496773903489112,0.7502811916857958
1684201161636283000,8.610282958984374,0.4378185858130455,-0.1205938801050186,1.3443740427941082
1684201161646307800,8.620307861328126,0.7282090606093407,0.6043547174036502,1.7755816860347986
1684201161656333800,8.630333740234375,1.3562357455015182,0.9836503870993852,1.6724375379025935
1684201161666359800,8.64035986328125,2.183556922248006,0.8675865516394377,0.9139917444616555
1684201161676385800,8.6503857421875,2.8515134664684534,0.36047348032593723,-0.131757079154253
1684201161686411000,8.660410888671874,2.7388234913557765,-0.1593015041619539,-0.9650649290949106
1684201161696437000,8.67043701171875,1.9967489870011805,-0.4157932164877653,-1.372929690670967
1684201161706463000,8.680462890625,1.3427321208059786,-0.41389176678061484,-1.2465741782993078
1684201161716489000,8.690489013671876,0.7910578771017491,-0.3406038277298212,-0.7591372828364372
1684201161726514000,8.700513916015625,0.40764622345454987,-0.26515491125285623,-0.3215583509981632
1684201161736540000,8.710539794921875,0.13557298418059943,-0.2407178046107292,-0.0999766240119934
1684201161746566000,8.72056591796875,-0.04222578824572265,-0.2569412096589804,-0.026797406032681464
1684201161756590800,8.7305908203125,-0.1654014284722507,-0.24212241071164606,0.009392682245373726
1684201161766616800,8.740616943359376,-0.2161654740910977,-0.07916121499836444,0.09129822751581668
1684201161776642800,8.750642822265625,-0.16715514027178285,0.2666033564954996,0.18321955536603926
1684201161786668800,8.760668701171875,-0.04018251891508698,0.5575608175247907,0.11552373723387717
1684201161796693800,8.77069384765625,0.09245324276983738,0.5743044470548629,-0.05270984592437744
1684201161806719700,8.7807197265625,0.14504852240383626,0.40593525481820103,-0.3550900337219238
1684201161816745700,8.790745849609374,0.08536810681447386,0.17231120786070822,-0.715701461213827
1684201161826770700,8.800770751953126,0.039086394241452216,0.09865092836618423,-0.9627993222504854
1684201161836796700,8.810796630859375,0.10611980294212699,0.1899193452656269,-1.1337059240102767
1684201161846823000,8.820822998046875,0.14710019423663614,0.4098655800044536,-1.1575509099781514
1684201161856849000,8.830848876953125,0.20714754344224928,0.6840121914863586,-1.1217857691138982
1684201161866873900,8.840873779296874,0.2772407050397247,0.8905576773822307,-1.1478221276462077
1684201161876899800,8.85089990234375,0.32598442381210624,0.9450994149088859,-1.1683967136412858
1684201161886925800,8.86092578125,0.4013631245970726,0.8645932150423526,-1.0871569388031959
1684201161896951800,8.870951904296875,0.43479602312147614,0.725110510072112,-0.8792144455909728
1684201161906977000,8.88097705078125,0.42957507360279557,0.5938327388674021,-0.5754945336222649
1684201161917003000,8.8910029296875,0.3384335710186511,0.5096908128470182,-0.22185762131810188
1684201161927029000,8.901029052734375,0.19919336956739425,0.4184790945708751,0.09944354004859923
1684201161937054000,8.911053955078126,0.06237257728278636,0.3483411439836025,0.3973217402517795
1684201161947080000,8.921079833984376,-0.057264221293106675,0.33970775567293165,0.7329127082556486
1684201161957106000,8.93110595703125,-0.14149404479265212,0.3746837919861078,1.126079666915536
1684201161967132000,8.9411318359375,-0.231808083576709,0.5000900408089161,1.5785568926781415
1684201161977156900,8.951156982421875,-0.3331289618045091,0.6975514720171689,2.053037860456109
1684201161987182800,8.961182861328124,-0.41629181365966794,0.8536421974390744,2.4618016166985033
1684201161997208800,8.971208740234376,-0.42966815871372815,0.8241682656735181,2.5867455087065694
1684201162007233800,8.98123388671875,-0.34292920193746684,0.6051788932681084,2.359038576838374
1684201162017259800,8.991259765625,-0.08178688732683657,0.25595336766541005,1.8590818070203066
1684201162027285800,9.00128564453125,0.3735264386445284,-0.023170447707176207,1.346084938365221
1684201162037311700,9.011311767578125,0.9544996959388256,-0.12606442047059535,0.9386386944621801
1684201162047336700,9.021336669921874,1.5922062094546854,-0.12176876910328864,0.6499672985434531
1684201162057362700,9.03136279296875,2.2428714271344243,-0.13867840285003186,0.4137538196146488
1684201162067388700,9.041388671875,3.1414637962818146,-0.27289222750663755,0.2585480603337288
1684201162077414700,9.05141455078125,4.827043724352121,-0.6568973900675773,0.03879822494983673
1684201162087440000,9.06143994140625,7.281386257216334,-1.0654682540863751,0.24970482866466043
1684201162097465900,9.0714658203125,8.381088789337873,-0.9472937100827693,0.7392448338866233
1684201162107492000,9.0814921875,7.495747385299206,-0.376048650598526,0.9436573994070291
1684201162117516800,9.091516845703126,5.3372015701889985,0.33406478134989737,0.8104132965654134
1684201162127543000,9.10154296875,2.62816589885354,0.9847995571345091,0.6424035852909088
1684201162137569000,9.111569091796875,-0.24900572221828624,1.7461971861183643,0.7362807233840226
1684201162147595000,9.121594970703125,-1.6070143408775328,2.539815415227413,1.0544570307284593
1684201162157620000,9.131619873046875,-0.23497664887653663,3.242548089274764,2.036263835787773
1684201162167646000,9.14164599609375,0.5227484108081087,4.127663867864013,2.324297518324852
1684201162177672000,9.151671875,-1.7934768236875533,4.282060064327717,1.6765782909691334
1684201162187697000,9.16169677734375,-4.8250808998465535,3.943471668073535,1.4080015885740518
1684201162197723000,9.171722900390625,-6.991529450905323,3.560436227327585,1.4759218631118536
1684201162207748900,9.181748779296875,-8.115285643309354,2.9416543406426903,1.5769722538352011
1684201162217774800,9.19177490234375,-7.473789235991239,1.8720996940255163,1.9862749392598866
1684201162227799800,9.2017998046875,-5.63379148414731,0.6467559352815151,2.9742484502553936
1684201162237825800,9.21182568359375,-2.9993872754260895,-0.25974633020758625,4.111644460955262
1684201162247851800,9.221851806640625,-1.2785787975862621,-0.8040747411936521,5.35178305324912
1684201162257877800,9.231877685546875,-1.2004442952871321,-1.0962614517569542,4.976369193422794
1684201162267903000,9.241903076171875,-1.7459727297127245,-0.8174462639421224,3.2713065662473437
1684201162277928700,9.2519287109375,-2.5295211079671978,-0.05089724354445934,1.489630654990673
1684201162287954700,9.26195458984375,-2.4712881147071717,0.6709826140433549,0.12355156086683272
1684201162297980000,9.27197998046875,-2.8770158642545343,1.0796440789550543,-0.9604472061663866
1684201162308006000,9.282005859375,-2.2988471429869533,1.2923691302686928,-2.1760879015415906
1684201162318032000,9.292031982421875,-2.289071014381945,1.3212795829325914,-2.6784119850128887
1684201162328057900,9.302057861328125,-2.528554308761656,1.2291846520811318,-2.7899159652113914
1684201162338082800,9.312082763671874,-2.0488161511078475,1.0096867456316947,-2.8317472742468115
1684201162348108800,9.32210888671875,-2.72316999514997,0.8779220676928758,-2.627453366670012
1684201162358134800,9.332134765625,-2.300439672875404,0.800794404348731,-2.95189399510622
1684201162368161000,9.3421611328125,-2.629357738986611,0.6965981168150901,-3.0072429573625326
1684201162378185700,9.352185791015625,-2.049343389852345,0.5364601618289947,-3.16392638798058
1684201162388212000,9.3622119140625,-2.0434023093655704,0.5607417856484651,-3.0102737033605576
1684201162398238000,9.372238037109375,-1.716363188868761,0.6543102961838245,-2.803632940396666
1684201162408263000,9.382262939453126,-1.492948401236534,0.8268067974835633,-2.6592460967719553
1684201162418289000,9.392288818359376,-1.554430167159438,0.9112409844487905,-2.530356097486615
1684201162428315000,9.40231494140625,-1.827023411719501,0.770706140077114,-2.816142877879739
1684201162438340900,9.4123408203125,-1.873853551955521,0.46035541179180145,-3.0105513512581585
1684201162448365800,9.42236572265625,-1.92186997936666,0.13566636155247688,-3.0331080509811637
1684201162458391800,9.432391845703124,-1.7482646400421857,-0.08749006740450858,-3.0537095249831676
1684201162468417800,9.442417724609374,-1.9728411649301647,-0.39047172822654247,-2.646098445907235
1684201162478443000,9.452443115234376,-1.8820155233621596,-0.6931681423664092,-2.2417881619423627
1684201162488469000,9.462468994140625,-2.163746890884638,-0.9068845428049563,-1.4915379499167203
1684201162498495000,9.472494873046875,-2.226291317602992,-0.9805430687338114,-1.0035510193556547
1684201162508521000,9.48252099609375,-2.376554359784722,-1.0895844582110643,-0.940593335661292
1684201162518546000,9.4925458984375,-2.223402318163216,-1.2603034284442662,-1.3001461940109729
1684201162528572000,9.502572021484376,-1.7815940781921147,-1.4592355167269706,-1.7662398571938276
1684201162538598000,9.512597900390626,-1.3566311745598911,-1.535181861332059,-2.1430589076429603
1684201162548624000,9.522623779296875,-1.0801982057064772,-1.378935068565607,-2.362684239864349
1684201162558648800,9.53264892578125,-0.9751841720491647,-1.0344114370435475,-2.449170683184266
1684201162568674800,9.5426748046875,-0.854935452120006,-0.5397276391923427,-2.4483453382760283
1684201162578700800,9.55270068359375,-0.7146379236355423,-0.04038637092411518,-2.3692934288710354
1684201162588725800,9.562725830078126,-0.7145081597760319,0.4036164564818144,-2.1194518220841885
1684201162598751700,9.572751708984375,-0.755497172768414,0.5382254179358482,-1.8748311648160219
1684201162608777700,9.58277783203125,-0.8209539798021316,0.39897652172148224,-1.611275505453348
1684201162618803700,9.5928037109375,-0.7181438859298824,0.17898937045037747,-1.3336422208994627
1684201162628828700,9.60282861328125,-0.49384413215667006,-0.012593524113297462,-1.0721727201610802
1684201162638854700,9.612854736328124,-0.2791699926018715,-0.0657826779872179,-0.7175123100280761
1684201162648881000,9.622880859375,-0.26599735342636704,0.047265024521946905,-0.25503333021104335
1684201162658907000,9.632906982421876,-0.27413842817544937,0.16308043817877768,0.009984218397736548
1684201162668931800,9.642931884765625,-0.24212284910306334,0.40174774000048635,0.15732348208725452
1684201162678957800,9.652957763671875,-0.3426746426545083,0.9986936424523591,0.5699275471448898
1684201162688983800,9.66298388671875,-0.4250796618796885,1.274102821215987,0.7615501891970634
1684201162699009000,9.673009033203124,-0.4300783469498157,1.2744096952080726,0.7564584190160035
1684201162709035000,9.683034912109376,-0.2979519960917532,1.1231249087631703,0.6277940451800823
1684201162719061000,9.69306103515625,0.1765701074142009,0.9421773899823427,0.4282236589938402
1684201162729087000,9.7030869140625,0.8915033607345074,0.8038824334919452,0.23314473900794982
1684201162739112000,9.71311181640625,1.5080477706909179,0.6992810722887516,0.0580664045214653
1684201162749138000,9.723137939453125,1.7826269283711909,0.9438713344186543,0.20785890658199785
1684201162759164000,9.733163818359374,1.7283949874460696,1.2284265271902084,0.6240753169178962
1684201162769188900,9.74318896484375,1.6827227850735187,1.3924316789984703,1.062874145939946
1684201162779214800,9.75321484375,1.519955650627613,1.3859218587130306,1.4117881213754415
1684201162789240800,9.76324072265625,1.1516647745490074,1.24032213216722,1.7489836019665002
1684201162799266800,9.773266845703125,0.7617676313400268,1.0290572165340184,1.9978543178945778
1684201162809291800,9.783291748046874,0.35733693586587906,0.8874398376226424,2.146892202195525
1684201162819317800,9.79331787109375,0.06925769715402275,0.9573492401510476,2.4702982268869875
1684201162829343700,9.80334375,0.06910977658331394,1.0370189891934394,2.8900796362280845
1684201162839369700,9.81336962890625,0.42144203602969643,0.844355313655734,3.260554870608449
1684201162849394700,9.823394775390625,1.042786466678977,0.5013420866966247,3.5030507908076047
1684201162859420700,9.833420654296875,1.6009645393192766,0.11576514477431774,3.611609949725866
1684201162869446700,9.84344677734375,1.7480249860674142,-0.3416144660770893,3.4984570332765577
1684201162879471900,9.853471923828126,1.3082768934965132,-0.849549375167489,3.1271406718969343
1684201162889497900,9.863497802734376,0.47247835925128306,-1.4092641558557748,2.307882974618673
1684201162899524000,9.873524169921875,-0.36520050884783267,-1.9394155729293823,1.328165835314989
1684201162909549800,9.8835498046875,-0.9985738154649734,-2.226553767931461,0.39502456922531126
1684201162919575000,9.893574951171875,-1.2690554746985434,-2.090934752652049,-0.31576515454947945
1684201162929601000,9.90360107421875,-1.142295400113985,-1.5103092858821152,-0.6940291431099176
1684201162939627000,9.913626953125,-0.6708616180121898,-0.8294681256473064,-0.7615981199920177
1684201162949653000,9.923653076171876,0.14230952589400112,-0.015606149932742118,-0.43426878437697886
1684201162959678000,9.933677978515625,1.2387702265501022,0.8239268581330775,0.20376725335419177
1684201162969704000,9.943703857421875,2.235780445960164,1.3705080164819956,0.765959822332859
1684201162979730000,9.95372998046875,2.7236335210084914,1.302993984657526,1.009193993678689
1684201162989755000,9.9637548828125,2.4757442173331974,0.5963502746462822,0.9294728067100048
1684201162999780900,9.97378076171875,1.5869167247444391,-0.30662966193556784,0.6524146916955709
1684201163009806800,9.983806884765626,0.4278285952616483,-0.9613274961322545,0.31438860549926756
1684201163019832800,9.993832763671875,-0.6048223349153995,-1.3192220658808946,0.04493102861642837
1684201163029857800,10.00385791015625,-1.045427336576581,-1.3789999504953623,-0.15893793154656885
1684201163039883800,10.0138837890625,-1.0758300736248492,-1.298154143410921,-0.29007191036641594
1684201163049910300,10.02391015625,-0.8121306218773127,-0.9661433719813823,-0.2735673502892256
1684201163059936300,10.033936279296874,-0.5153191741228104,-0.5202607221782207,-0.1215484043508768
1684201163069961200,10.043961181640626,-0.24075525054428726,-0.15642390289902686,0.015153729990124702
1684201163079987200,10.0539873046875,0.014766191977262496,0.08585866681039332,0.028179800301790237
1684201163090013200,10.06401318359375,0.1269727674871683,0.1816939532339573,-0.13353811735212803
1684201163100038400,10.074038330078125,-0.024475758152082562,0.09879355170726775,-0.17878712587654588
1684201163110064400,10.084064453125,-0.5513433312494307,-0.09203414057493209,-0.06215455061793327
1684201163120090400,10.09409033203125,-1.178183948162198,-0.019435352832078933,0.3796925600588322
1684201163130116400,10.104116455078126,-1.2951193057596684,0.15714286482334136,0.45326983744502064
1684201163140141300,10.114141357421875,-1.151145134589076,0.3304407456338405,0.20609365047514439
1684201163150167300,10.124167236328125,-1.1433937898099422,0.39570787531435486,-0.12383914563655853
1684201163160193300,10.134193359375,-1.2177660169661044,0.41085342199802394,-0.16745967617630958
1684201163170218200,10.14421826171875,-1.050980879050493,0.6471838053047657,0.0390086528301239
1684201163180244200,10.154244140625,-0.5407307883528992,0.6148527305424213,0.03510229304134845
1684201163190270200,10.164270263671876,-0.02355919129643589,0.7467319747716188,-0.13704115703701972
1684201163200296200,10.174296142578125,0.529023874348402,0.8845669125348329,-0.36186464242339134
1684201163210321200,10.184321044921875,0.9722130472838878,0.9274199658334255,-0.5764402900397777
1684201163220347100,10.19434716796875,1.2658850279688834,0.8867723136246204,-0.5823281790345907
1684201163230373400,10.204373291015624,1.4038304403692483,0.7164560789734125,-0.7632949870377779
1684201163240399400,10.2143994140625,1.2317366746515035,0.5616548088401556,-0.8949088583290576
1684201163250424300,10.22442431640625,0.6672685619562864,0.4294645989656448,-0.9579261632561683
1684201163260450300,10.2344501953125,-0.042075639185309405,0.2865267851054668,-1.1290788487315178
1684201163270476300,10.244476318359375,-0.8142798358004539,0.11607611041963099,-1.368116152909398
1684201163280502300,10.254502197265625,-1.4845160884559154,-0.03695756551921368,-1.4340186578840017
1684201163290527200,10.26452734375,-1.9484955359637737,-0.059224926906824106,-1.225596272200346
1684201163300553200,10.27455322265625,-2.288610703393817,0.017107786667346952,-0.9149784174114465
1684201163310579200,10.2845791015625,-2.381837853145599,0.1707224773645401,-0.7231652212232351
1684201163320604400,10.2946044921875,-2.1364625781178472,0.3343903600424528,-0.6067477500200271
1684201163330630400,10.30463037109375,-1.4514841719478369,0.3503577445030212,-0.8116887233287096
1684201163340656400,10.314656494140625,-0.8086071969915181,0.3965992711961269,-0.9384557391107082
1684201163350682400,10.324682373046874,-0.41435865364000196,0.3278676802754402,-0.9476642969608307
1684201163360707300,10.334707275390626,0.028897154790908097,0.1830570582807064,-0.9266051423192023
1684201163370733300,10.3447333984375,0.35552608705163,0.12752981684803963,-0.7539782926380634
1684201163380759300,10.35475927734375,0.65036959573403,0.21770926946699617,-0.394508436396718
1684201163390784300,10.3647841796875,0.8576100050915032,0.3065694561809301,-0.010390461111068726
1684201163400810200,10.374810302734375,0.8896160856831818,0.22299568543732165,0.20044599997699258
1684201163410836200,10.384836181640624,0.7177520370680839,0.08383271394073963,0.27052666741907594
1684201163420862200,10.3948623046875,0.4429298644121736,0.034680268236994743,0.3831330559015274
1684201163430887200,10.40488720703125,0.22575652845278382,-0.011378303104639052,0.4356009097635746
1684201163440913200,10.4149130859375,0.1041607778288424,-0.0960638344824314,0.4619102400183677
1684201163450939100,10.424939208984375,0.11921557748913764,-0.21174071645140646,0.4842535892516374
1684201163460965000,10.434965087890625,0.2369669276446104,-0.40458734734058377,0.5004904383033514
1684201163470990000,10.444989990234374,0.35907998014092446,-0.5777087025403976,0.4604179556339979
1684201163481016000,10.45501611328125,0.3899661167919636,-0.6439110672444105,0.3629518531382084
1684201163491042300,10.465042236328125,0.35688729240223765,-0.5686246478527784,0.24092530988156793
1684201163501067300,10.4750673828125,0.2658879017025232,-0.41513738292753694,0.11206687477827071
1684201163511093500,10.485093505859375,0.3267277164600789,-0.24909166520237921,-0.055550622308254236
1684201163521119200,10.495119140625,0.3245984493464231,-0.10322305858731269,-0.09550269346833229
1684201163531145200,10.505145263671874,0.2661119197167456,-0.07559329338371754,-0.08734218336641789
1684201163541170400,10.51517041015625,0.20692074894905088,-0.08091770327687263,-0.043674306553602216
1684201163551196400,10.525196533203125,0.1881803926438093,-0.06142740538716316,0.015517887127399444
1684201163561222400,10.535222412109375,0.18610358636975288,-0.055465282112359994,0.07187982581853866
1684201163571248400,10.545248291015625,0.2107809315085411,-0.07394844878613949,0.1454337223291397
1684201163581273300,10.5552734375,0.256056974170357,-0.1766734947234392,0.2198819373309612
1684201163591299300,10.56529931640625,0.34698052315488453,-0.36552725658416746,0.2863222024440765
1684201163601325300,10.5753251953125,0.4572860873490572,-0.5565151078641414,0.40272856773138044
1684201163611350300,10.585350341796875,0.5824427453249692,-0.7126637009531259,0.5547451755821704
1684201163621376300,10.595376220703125,0.7179005786933005,-0.7868705084145069,0.7348673494547605
1684201163631402200,10.60540234375,0.8864601789355278,-0.8682593363344668,0.8815086940079927
1684201163641428200,10.61542822265625,1.0179776041150093,-0.9274579597562551,0.9280413126021623
1684201163651453200,10.625453125,1.0985504394769667,-0.8562982649058103,0.8907160828143358
1684201163661479200,10.635479248046876,1.1554875477075577,-0.6596569179087877,0.7747188828498125
1684201163671505200,10.645505126953125,1.1734452292025088,-0.4092874878555536,0.6452537140250205
1684201163681531100,10.65553125,1.071836473944038,-0.1882896982371807,0.554193971440196
1684201163691556000,10.66555615234375,0.9187653886042535,0.005841711765527725,0.48810441946089267
1684201163701582000,10.67558203125,0.7473029065273702,0.14306465511023997,0.4120405859559774
1684201163711608000,10.685608154296874,0.6359763287223875,0.1910731914758682,0.307192556515336
1684201163721633300,10.69563330078125,0.5247196012832224,0.22749767303168772,0.3484598019272089
1684201163731659300,10.7056591796875,0.4168870030738413,0.2603214997470379,0.501065607842803
1684201163741685500,10.715685546875,0.30785598886013027,0.25917992849647997,0.6468640718311071
1684201163751711500,10.72571142578125,0.21794074013531206,0.34416824221312997,0.7718067947953939
1684201163761736400,10.735736328125,0.07078326275348663,0.6578554214447736,1.1173825657188892
1684201163771762400,10.745762451171874,-0.10975158357322215,1.122418221798539,1.5472820489704608
1684201163781788400,10.755788330078126,-0.26201778227090833,1.4519944595575331,1.719708992165327
1684201163791813400,10.7658134765625,-0.4213431787651032,1.4796072736263275,1.5572954934626817
1684201163801839400,10.77583935546875,-0.5854523754697293,1.1528168671935797,0.9145441176474094
1684201163811865300,10.785865234375,-0.6404325774788856,0.6732686791539192,0.09134908092021941
1684201163821891300,10.795891357421874,-0.4580927275568247,0.1740595128327608,-0.6436702442258596
1684201163831916300,10.805916259765626,-0.02980002191476524,-0.08086334274113177,-1.041753031978011
1684201163841942300,10.8159423828125,0.7680150743622333,-0.12120119834840297,-0.9979057069450616
1684201163851968300,10.82596826171875,2.1493080311656,-0.09674655604958533,-0.6382178240388632
1684201163861994200,10.835994140625,5.465467884618044,-0.12892214798927307,0.11329495526850222
1684201163872019200,10.846019287109375,9.65864262779057,-0.12548399023413656,1.14811614215672
1684201163882045200,10.856045166015624,10.59606785480976,-0.06798632551133632,1.7299387097567318
1684201163892071200,10.8660712890625,7.798966362008452,0.07102876194715499,1.5336059903174637
1684201163902096400,10.876096435546875,3.99721144156754,0.3789525553464889,1.212080372545123
1684201163912122400,10.886122314453125,0.6981541140854358,0.5987129121243954,1.2714333097457886
1684201163922148400,10.8961484375,-2.1180454624176024,0.6639005468279123,1.4365239187031984
1684201163932174000,10.906174072265625,-4.417165284866094,0.5087006327658892,1.3262176238566636
1684201163942199300,10.91619921875,-6.561707124543189,0.677194912686944,0.7759709287375212
1684201163952225300,10.926225341796876,-7.696174096053838,1.3691051639467477,1.031712114956975
1684201163962251300,10.936251220703125,-5.518887340116501,2.1435265251547095,2.3050006971806285
1684201163972277200,10.94627734375,-4.2811680839240545,2.4942016650438306,3.2580688990116116
1684201163982302200,10.95630224609375,-4.390295105858147,2.449180620056391,3.5728245842576025
1684201163992328200,10.966328125,-4.865892218184471,2.13893861284256,3.9953643523961304
1684201164002354400,10.9763544921875,-3.8969980861902234,1.6036673685371874,4.527229587650298
1684201164012379100,10.986379150390626,-2.17433126713261,1.006800961062312,5.023333189171552
1684201164022405400,10.9964052734375,-1.4831165969215332,0.21421324404478073,4.970124746075272
1684201164032431400,11.006431396484375,-2.7022224841892717,-0.7052747597455978,4.277389149907231
1684201164042457300,11.016457275390625,-3.905134630894661,-1.3306494688242674,3.3707828395217656
1684201164052481500,11.0264814453125,-3.864400469446182,-1.1709265243798495,2.626967044457793
1684201164062507300,11.03650732421875,-2.3287169422022997,-0.14110709130167962,1.1800702003002166
1684201164072533200,11.046533203125,-1.924889327187836,1.2648130148231982,0.13507365635633467
1684201164082559200,11.056559326171875,-1.9952830061018465,2.3239158255308867,-1.0825111588239669
1684201164092584400,11.06658447265625,-2.0768790470317007,3.03460676510632,-2.1685306180298327
1684201164102610400,11.0766103515625,-2.546228789401054,3.352738064265251,-2.9325778847396373
1684201164112636400,11.086636474609374,-2.3545558784663676,3.1920278623491525,-3.663649349042773
1684201164122661400,11.096661376953126,-2.1862521526813508,2.5708961976677176,-4.034924793890118
1684201164132687400,11.106687255859375,-1.865020841680467,1.8668389970183372,-3.834071382156014
1684201164142713300,11.11671337890625,-1.9215774261608718,1.2457178537309168,-3.5550960353434085
1684201164152739300,11.1267392578125,-1.9107029809251426,0.7932651778876781,-3.34589506650269
1684201164162764300,11.136764404296875,-1.9948148040682077,0.7267372344911098,-3.225838946536183
1684201164172790300,11.146790283203124,-1.6819547233104706,0.6634598173230886,-3.122221920195222
1684201164182816300,11.156816162109376,-1.5457330659627913,0.47820144960582256,-2.965448473206162
1684201164192842200,11.16684228515625,-1.8679554338276385,0.3063128510713577,-2.6228151854753494
1684201164202867200,11.1768671875,-1.5848422565579414,0.1976350342094898,-2.633843359968066
1684201164212893200,11.18689306640625,-2.111287512589991,0.28485096084773537,-2.503697807663679
1684201164222919400,11.19691943359375,-1.786283989574015,0.310831205278635,-2.7528134382635354
1684201164232944000,11.206944091796874,-1.8435972376406191,0.13319324943721295,-2.683812967273593
1684201164242970400,11.216970458984376,-1.5628995970800519,-0.21283903308212757,-2.5314269415885207
1684201164252996400,11.226996337890625,-1.2970660559132694,-0.6050859542876482,-2.529739426892996
1684201164263022300,11.237022216796875,-1.361681735947728,-0.8248761216819286,-2.6393875500917434
1684201164273047600,11.247047607421875,-1.3965508047550916,-0.8202946391105651,-2.8705601122438904
1684201164283073500,11.257073486328125,-1.3532175667241215,-0.4559428560465574,-3.1256682612568136
1684201164293099500,11.267099609375,-1.0879469201371073,-0.050532501885294914,-3.3474481411635875
1684201164303125500,11.27712548828125,-0.8128641968488692,0.1591711557805538,-3.3560639938175676
1684201164313150500,11.287150390625,-0.6145853117778897,0.21877836000323295,-3.088746351572871
1684201164323176400,11.297176513671875,-0.5325079170718788,0.2545148592948913,-2.6726018374294043
1684201164333202400,11.307202392578125,-0.5272898901626467,0.3586673076868057,-2.25177062677443
1684201164343227400,11.317227294921874,-0.46441754666417834,0.6125362702935934,-1.8769295983999967
1684201164353253400,11.32725341796875,-0.39200405236035585,0.9156085320085287,-1.5193004015892744
1684201164363279400,11.337279296875,-0.3361772434592247,1.2147598208874464,-1.1178221261799335
1684201164373305300,11.347305419921875,-0.3066360916763544,1.3678525335371494,-0.8502332657784223
1684201164383330300,11.357330322265625,-0.19248276601284742,1.3320406309217214,-0.8232558270037174
1684201164393356300,11.367356201171875,-0.08642302269488572,1.0488567265033721,-0.8872820167124271
1684201164403382300,11.37738232421875,0.06756605427265167,0.5855892266571522,-0.9930980144023894
1684201164413408300,11.387408203125,0.24346067357808351,0.1395306357651949,-1.219355916506052
1684201164423433200,11.39743310546875,0.3763736447691917,-0.15805471897125242,-1.5348480993330478
1684201164433459200,11.407459228515625,0.4993512051403522,-0.2764332611143589,-1.8464087879300117
1684201164443485200,11.417485107421875,0.5556688662983477,-0.3195587016135454,-1.97962950989604
1684201164453510400,11.427510498046875,0.4596481403052807,-0.2966495351910591,-1.9413637843877076
1684201164463536400,11.437536376953124,0.2742329745911062,-0.2606540927022695,-1.7667589126318692
1684201164473562400,11.447562255859374,-0.020540245334058998,-0.21391981405615806,-1.5231658448457717
1684201164483588400,11.45758837890625,-0.35663550959825513,-0.21907120546996592,-1.1568401313602923
1684201164493613300,11.46761328125,-0.6440637005228549,-0.22865268828570842,-0.7482154913276433
1684201164503639600,11.4776396484375,-0.9417069229263811,-0.22494214332997797,-0.16868424953520297
1684201164513665500,11.48766552734375,-1.3830711454570292,-0.18630057024657726,0.5946276886373758
1684201164523691500,11.49769140625,-1.656186660325527,0.15103168846666812,1.4816490085870027
1684201164533716500,11.507716552734376,-1.4939397503614424,1.3307429923266172,2.718985987463593
1684201164543742500,11.517742431640626,-1.3313947342336176,3.5869682604223487,4.347243607378005
1684201164553768400,11.5277685546875,-0.6545896976470947,5.833419153478741,6.311894159328937
1684201164563793400,11.53779345703125,3.4119022008955477,6.508368333065509,9.401266533845662
1684201164573819400,11.5478193359375,7.717346647942065,4.707431256499886,11.58702184292078
1684201164583845400,11.557845458984374,5.970181493574381,1.3418950854599474,9.504453936597704
1684201164593871400,11.567871337890624,3.4206419721901415,-1.4102455681085586,6.1544718930423254
1684201164603896300,11.577896240234375,1.4343921673715114,-3.1368390590906143,3.282562119755149
1684201164613922300,11.58792236328125,-0.09839609508858993,-3.650347968921065,0.837906283646822
1684201164623948300,11.5979482421875,-0.9121171827614307,-2.9673768109202383,-0.8718664209157228
1684201164633974300,11.607974365234375,-1.3775450755119323,-2.549188808250427,-2.0368851825565097
1684201164643999200,11.617999267578124,-2.146642611348629,-2.5952391962856054,-2.946052867862582
1684201164654025200,11.628025146484376,-2.610956405377388,-2.526314128619432,-3.4904841547012326
1684201164664051200,11.63805126953125,-2.2072294742584226,-1.9632810171633959,-3.798325530514121
1684201164674076400,11.648076416015625,-2.269080073493719,-1.5335563059568404,-3.1289100196570154
1684201164684102400,11.658102294921875,-2.162297276598215,-0.32728900360465046,-2.041630915778875
1684201164694128400,11.66812841796875,-1.5474422079682348,1.235926527556777,-0.819421947929263
1684201164704154400,11.678154296875,-0.328938524377346,2.551855981633067,0.27229192352592946
1684201164714179300,11.688179443359376,0.4835036476671695,2.8811545714944597,0.8356079435765743
1684201164724205300,11.698205322265625,0.19988544348478315,1.6836165190428494,0.6335562619686126
1684201164734231600,11.7082314453125,-0.28179449588656424,0.4081447475612163,0.24950024600327014
1684201164744257500,11.718257568359375,-0.9032733665704726,-0.17074527371823786,0.391153280749917
1684201164754282500,11.728282470703125,-1.1836077267765999,-0.4126104947984218,0.5809983917355537
1684201164764308500,11.73830859375,-0.9881821853101252,-0.48950668747425075,0.3259054402917623
1684201164774334500,11.74833447265625,-0.5697989523291588,-0.48376902060508725,-0.01727086827456951
1684201164784359400,11.758359375,-0.4853916533708572,-0.4728910682380199,-0.13310089497864244
1684201164794385400,11.768385498046875,-0.7978788091629743,-0.7359960612237453,-0.054414896276593204
1684201164804411400,11.778411376953125,-1.1835615495473146,-0.31937282365262504,-0.5583627815574407
1684201164814437400,11.788437255859375,-1.4466840781897305,0.32660219038426874,-1.123138352766633
1684201164824462300,11.79846240234375,-1.6321429369151592,0.06980535763204097,-0.26927637509703634
1684201164834488300,11.80848828125,-1.3965057965695857,-0.3067687781453132,0.5503033937424421
1684201164844514300,11.818514404296875,-0.9995347694516181,-0.7027899571925401,0.2635895616322756
1684201164854540300,11.828540283203125,-0.9949041870415211,-0.5587666861832141,-0.19922376470565795
1684201164864565200,11.838565185546875,-1.036068556600809,-0.3503425469338894,0.18213176012933252
1684201164874591200,11.84859130859375,-0.8834978219985962,-0.4082622364610433,1.4852110849827527
1684201164884617200,11.8586171875,-0.2814040352642536,0.686801529943943,2.010567668995261
1684201164894642400,11.868642333984376,0.8839666085541248,1.4372878888130187,2.9939240415841337
1684201164904668400,11.87866845703125,1.5998820047795772,1.4961416443198918,4.26418655398488
1684201164914694400,11.8886943359375,1.4391957682609557,0.6884253317534923,3.8914386984974145
1684201164924720400,11.898720458984375,0.9409855498492717,0.2785714421868324,2.0639467924833297
1684201164934745300,11.908745361328124,0.3567944995522499,0.835401607349515,0.45461599135696884
1684201164944771300,11.918771240234374,0.5563298144251108,1.0158920300126075,-0.5372095188915729
1684201164954797300,11.92879736328125,1.5668571025341749,-0.33077567667663094,-1.2875631912916898
1684201164964823300,11.9388232421875,1.811797493276,-1.4422487260907888,-3.1163357847660778
1684201164974848300,11.94884814453125,1.617857221931219,-2.170297627702355,-4.003753118295967
1684201164984874200,11.958874267578125,1.1482827308952808,-2.513153618273139,-3.5465798436716196
1684201164994900500,11.968900390625,0.8408627953648566,-2.3179367511212825,-3.0095085642069574
1684201165004925200,11.97892529296875,0.34936288824677464,-1.5603788464307784,-2.742857276916504
1684201165014951400,11.988951416015626,-0.5334019433021545,-0.7095803479850292,-2.017417973281443
1684201165024977400,11.998977294921875,-1.0962965230703354,-0.1720107636094093,-0.7990545749440788
1684201165035003400,12.00900341796875,-0.9784592481970786,0.8419365620762109,0.5744388870894909
1684201165045029000,12.019029052734375,-0.7195885317802428,1.7518910138458013,0.6134650755763054
1684201165055055000,12.02905517578125,-0.39956981143951414,1.1717998000830412,-0.6032751054733991
1684201165065081000,12.0390810546875,-0.25410098126437514,0.18989011917114257,-1.90456287073493
1684201165075107000,12.049107177734374,-0.3085539079964161,-0.38039749345779417,-2.5792221274644134
1684201165085132000,12.059132080078125,-0.35275432078335434,-0.5786433530420064,-2.602835642763972
1684201165095158000,12.069157958984375,-0.2781447777399793,-0.1579085884988308,-2.0724515859782695
1684201165105184000,12.07918408203125,-0.0548374690702185,0.7351525961369275,-1.534502646896243
1684201165115209200,12.089209228515625,-0.07954056970477104,1.566159183397889,-1.389268831053376
1684201165125235200,12.099235107421874,-0.2875076128363609,1.8020067516237497,-1.4115122270435094
1684201165135261200,12.10926123046875,-0.27605334015237165,2.051377818289399,-1.1644476837545632
1684201165145287000,12.119286865234375,-0.4008136740207672,1.7335259205937386,-0.6921475671470165
1684201165155312000,12.12931201171875,-0.5814110641896725,1.0345903007417916,-0.3683738781869411
1684201165165338000,12.139338134765625,-0.685441932028532,1.3005009987980127,-0.41158641244769095
1684201165175364000,12.149364013671875,-0.6519032350420951,1.5061352150678633,-0.6678039840072393
1684201165185390000,12.15939013671875,-0.4174012362062931,2.424002339658141,-0.7781418430358171
1684201165195415000,12.1694150390625,-0.23826281267404556,1.4741893402308224,-0.14370938275456427
1684201165205441000,12.17944091796875,0.10029577296376228,-3.312545170086622,0.8503039929270744
1684201165215467300,12.18946728515625,0.18400507972054184,-2.724104645651579,-0.8567395789325237
1684201165225492000,12.199491943359375,0.03592603051438927,-0.2306231115758419,-1.967480222418904
1684201165235518200,12.209518310546875,-0.6914997707627714,1.3039946861326694,-0.911226955923438
1684201165245544200,12.219544189453124,-1.8395709047339857,1.926761843061447,1.048838021802902
1684201165255570200,12.229570068359376,-3.483948615452647,2.05777307228446,2.5770050359368324
1684201165265595100,12.23959521484375,-4.582071769428253,1.4790315195649861,3.233079419183731
1684201165275621000,12.24962109375,-4.783636544302106,0.33130583803057667,2.741361485400796
1684201165285647000,12.259647216796875,-4.183406797873974,-1.3210399289578199,1.2416729622542857
1684201165295673000,12.269673095703125,-3.639256666064262,-1.8335609967947004,0.22181085956692695
1684201165305698000,12.279697998046874,-3.0865093863010404,-0.8391390403121709,0.45518180854618545
1684201165315724000,12.28972412109375,-2.5599241372764108,0.8667629602968693,0.837234667995572
1684201165325750000,12.29975,-2.2233248690128327,2.12263805090487,0.7356558694839477
1684201165335776000,12.30977587890625,-1.9223814360201357,1.8775193809866904,0.15910276671946047
1684201165345801200,12.31980126953125,-1.0043582440853118,0.9280635244339704,-0.4641904599100351
1684201165355827200,12.3298271484375,0.0751110628247261,0.3942676133781671,-1.0854366908818482
1684201165365853200,12.339853271484374,1.0568775358736515,0.24990122801959513,-0.9665285719066857
1684201165375878100,12.349878173828126,2.2555049909971654,0.6897323226988316,0.34026246694624424
1684201165385904000,12.359904052734375,3.9811867739617823,1.3879770376771687,1.507531053340435
1684201165395930000,12.36993017578125,6.052168871909379,1.0529174000710249,2.536974638843536
1684201165405956000,12.3799560546875,6.635663756635784,-0.4625824401915073,2.578098676392436
1684201165415981000,12.38998095703125,7.407883808407187,-1.6756179215043783,2.2681781562179326
1684201165426007000,12.400007080078124,5.36912815580368,-1.241691082432866,0.865084797951579
1684201165436033000,12.410032958984376,-1.4077093276292085,-0.1641992130756378,-1.6615584164917467
1684201165446059300,12.420059326171875,-4.457791894286871,0.06721300305128097,-3.0923966907739637
1684201165456084000,12.430083984375,-4.624493153311312,0.3170914347171783,-2.950664745572209
1684201165466110000,12.44010986328125,-4.1008159006878735,1.0217886868357657,-1.9364459094688296
1684201165476136200,12.45013623046875,-2.1354307508520782,0.5478998397320508,-0.2681576002001762
1684201165486161000,12.460160888671876,3.502054180985689,-1.051048099067807,2.02840815385133
1684201165496187100,12.470187255859376,1.190909720353037,-3.257451059374213,0.8868538544282316
1684201165506213000,12.480213134765625,-0.5918523787051438,-3.112549836486578,2.3813918629437683
1684201165516239000,12.490239013671875,0.4976680743589997,-1.790282996082306,4.0649461304053665
1684201165526264000,12.50026416015625,1.2912486018061637,-0.259023276630044,3.3263930781751867
1684201165536290000,12.5102900390625,0.13643515396788716,0.3839642460286617,2.1614286770701407
1684201165546316000,12.52031591796875,-0.41061084541380405,0.18954232864677906,1.3574375225067137
1684201165556342000,12.530342041015626,-0.4679845914959907,0.5290858336687088,-0.006487023931741714
1684201165566367200,12.5403671875,-0.15685513392314315,0.15957447588443754,0.30517127982079983
1684201165576393200,12.550393310546875,-0.3347802361428737,-0.48593408968448637,1.9059189615190029
1684201165586419200,12.560419189453125,0.7068430319756269,-0.5294909073382615,0.6912526641339063
1684201165596444200,12.570444091796874,1.5275906755506992,1.1220353599607944,0.4288105189710855
1684201165606470100,12.58047021484375,1.386418263927847,0.8336480416804551,-1.074478659015894
1684201165616496000,12.59049609375,0.8406193419978022,1.0596095911860466,-1.3924427849143743
1684201165626522000,12.600522216796875,-0.10535393313616513,0.5964858837246895,-0.4810498247742653
