time,seconds_elapsed,z,y,x
1684200472808506000,0.028506103515625,2.177629285764694,0.916988003668189,1.34423112719208
1684200472818531000,0.038531005859375,2.8727187515825032,1.1238958931356668,0.9867857625156641
1684200472828557000,0.04855712890625,3.952594885727763,1.4815449636906384,0.5038301041200757
1684200472838583000,0.0585830078125,4.73286438844204,1.779486292257905,0.6996059203289449
1684200472848608000,0.06860791015625,5.185938411054015,1.9392875626355408,0.9419149396538734
1684200472858634000,0.078634033203125,5.595754306697845,2.2215064214140177,0.7665984124973416
1684200472868660000,0.088659912109375,5.764692823255062,2.7628941027730702,0.7875850864246488
1684200472878685000,0.098684814453125,5.966486146187782,3.142147102370858,1.2234987153992056
1684200472888711000,0.1087109375,5.9620572238296266,3.182617059925198,1.311632633665204
1684200472898737200,0.118737060546875,5.246449870640039,3.1482763989061113,1.576226403903961
1684200472908761900,0.128761962890625,4.939669402056932,3.280913183504343,1.9196259998321532
1684200472918788000,0.1387880859375,5.192125575256347,3.5684944460988044,1.0809545770317315
1684200472928813000,0.14881298828125,4.473252498269081,4.053308007320761,0.3112883013963699
1684200472938839300,0.15883935546875,3.4504823991805313,4.574409856498241,0.31490736867636443
1684200472948865300,0.168865234375,4.093547663250566,4.939110014608502,-0.734034698022902
1684200472958890200,0.17889013671875,4.919056822139025,4.49794796358645,-1.9064719192266464
1684200472968916200,0.188916259765625,5.123547129070759,4.5288300085842605,-2.5928178143575784
1684200472978942200,0.198942138671875,4.71120902147293,5.509952338510751,-2.6055361338943244
1684200472988967200,0.20896728515625,3.8439158998221155,6.147036774605512,-2.033537041172385
1684200472998993200,0.2189931640625,2.6088071183890102,5.246713490012287,-1.1489674982890485
1684200473009019100,0.22901904296875,0.8646078280895948,3.5950659344211218,-0.6921703635007143
1684200473019044000,0.239044189453125,0.29075112480223175,2.914416789627075,0.5499129331201315
1684200473029070000,0.249070068359375,0.5673316854327917,4.085335715222358,1.9829121848285196
1684200473039096000,0.259095947265625,-0.7280757896184921,5.37088230599463,1.4161112452715634
1684200473049121000,0.26912109375,-3.4197605131804942,5.372487987625599,-2.498926940000057
1684200473059147000,0.27914697265625,-4.729419216424226,5.804427452272177,-4.443162480431795
1684200473069173000,0.289173095703125,-3.37674262470901,7.452117502409219,-3.9501340485721825
1684200473079198200,0.2991982421875,-2.655968098014593,7.952027510476112,-5.753011153289675
1684200473089224200,0.30922412109375,-1.7313047374129293,8.148217606574297,-6.1796028271675105
1684200473099250200,0.319250244140625,-1.8642752840101717,8.273784598916768,-4.638246076592803
1684200473109275100,0.329275146484375,-2.6130498705253005,8.695306129923463,-1.783634059587121
1684200473119301000,0.339301025390625,-3.1531495579004285,8.686334887960554,-0.010057868155837058
1684200473129327000,0.3493271484375,-4.391986419945955,7.9510466827452175,0.36882980526089665
1684200473139352000,0.35935205078125,-4.89966823105812,7.6610279638707635,2.3252304152607914
1684200473149378000,0.3693779296875,-4.449840058499574,7.829483665347099,3.5780548861265182
1684200473159404000,0.379404052734375,-4.617846847164631,7.663976876804232,4.237733431345224
1684200473169429000,0.389428955078125,-5.956391453152895,7.482564078599214,6.40252778545618
1684200473179455000,0.399455078125,-6.63403177151978,7.4078189264774315,9.28927506239116
1684200473189481000,0.40948095703125,-6.70549834036231,7.091782553771138,11.697683527076244
1684200473199506000,0.419505859375,-6.5283940530061715,6.799183755275607,13.683140720212458
1684200473209532000,0.429531982421875,-5.326020835483074,6.530204317298531,14.824976174664496
1684200473219558000,0.439557861328125,-3.96233594301939,5.921236553141474,15.836806946587561
1684200473229583000,0.4495830078125,-3.5514369283139704,4.715602872517705,16.386061123538017
1684200473239609600,0.459609619140625,-2.4001420099906623,3.582944996255636,16.964495802265404
1684200473249635600,0.469635498046875,-0.47168169244825836,2.0815970154643058,17.918426173883674
1684200473259660800,0.479660888671875,2.6943933979988097,0.19485797071158883,20.095825158023832
1684200473269686800,0.489686767578125,7.622077763229608,-2.188663305476308,21.294268050360678
1684200473279712800,0.499712646484375,3.5922543841317296,-0.9437468312561511,18.21065087836981
1684200473289737700,0.50973779296875,1.927054396267235,0.2568646372914314,16.151197890174387
1684200473299763700,0.519763671875,1.5687588445022702,-0.7936386873751878,12.945200539183617
1684200473309789700,0.529789794921875,1.9463579394131898,-2.42159878564775,10.542179612755774
1684200473319814700,0.539814697265625,5.11668016591072,-4.2125685949504375,9.680554015347361
1684200473329840600,0.549840576171875,4.145720625819266,-4.939842420536279,8.79635418255925
1684200473339866600,0.55986669921875,3.989282986655831,-5.267413748213649,7.63848646171689
1684200473349891600,0.5698916015625,3.4862884565770624,-5.4171255862534045,6.974846027129888
1684200473359917600,0.57991748046875,2.5658409601047634,-5.2942947408765555,6.5159513355404135
1684200473369942800,0.58994287109375,3.0667677439987657,-5.401044220024347,6.19825375162363
1684200473379968800,0.59996875,5.195446244111657,-6.425223601388931,5.158210446172952
1684200473389994500,0.609994384765625,5.548024587273598,-7.419705763626098,3.7405297596275804
1684200473400019700,0.620019775390625,8.337439032703637,-7.493788652446866,1.1887708086282014
1684200473410045700,0.630045654296875,11.107125864356755,-6.73024758169353,-2.4716303522735834
1684200473420071700,0.64007177734375,10.080061282944678,-5.138778015950322,-4.285474841207265
1684200473430096600,0.6500966796875,8.004813344246148,-3.5974130820691586,-4.527839243981242
1684200473440122600,0.66012255859375,4.495091405111551,-2.6910218757390973,-2.9989100133031603
1684200473450148900,0.67014892578125,1.7268588639199733,-2.495456049019098,-2.674620191514492
1684200473460173600,0.680173583984375,1.8369146911367773,-1.9462796134799718,-3.0158599790602922
1684200473470199800,0.69019970703125,2.2081953966811296,-1.6511223626732825,-1.744888441607356
1684200473480225800,0.700225830078125,1.9233909053236244,-2.5072645602345465,-0.42212534211874003
1684200473490250800,0.710250732421875,2.7708745801329613,-4.427908797198533,2.521414666140079
1684200473500276700,0.72027685546875,-3.1260356332644816,-7.4305392923295495,5.681305514994263
1684200473510302700,0.730302734375,0.3023530075296759,-0.15932546955943105,-6.902306276097893
1684200473520327700,0.74032763671875,1.0441562937274576,5.780419969218969,-6.730142367753386
1684200473530353700,0.750353759765625,-2.641027718514204,4.599041024407744,-2.8729361937254665
1684200473540379600,0.760379638671875,-2.9395208357453346,1.5442553946256636,-1.1921686343729496
1684200473550404900,0.77040478515625,-4.9066883389532565,-5.639460177433491,3.5699089890718456
1684200473560430800,0.780430908203125,-5.606532890343666,-4.142704492868483,2.7196920899063346
1684200473570456800,0.790456787109375,-2.73678409448266,-0.22246552408337592,1.2352315310299395
1684200473580481800,0.800481689453125,-2.425238603454828,4.473720408041775,-4.053127974578738
1684200473590507800,0.8105078125,-0.8422912207327783,7.170472644126415,-6.250994577208161
1684200473600533800,0.82053369140625,-0.0030789690539240835,7.504335180902481,-4.9697547437191005
1684200473610558700,0.830558837890625,0.553362196791172,5.708358941614628,-2.5279069507688283
1684200473620584700,0.840584716796875,1.5903285790145396,3.956498030646145,-0.5360796380788088
1684200473630610700,0.850610595703125,2.5347078629553317,2.970276331754029,-0.1430722538948059
1684200473640635600,0.8606357421875,3.5317794571638106,2.2019036030605434,-1.689085305842757
1684200473650661600,0.87066162109375,0.7579891357146203,0.36914281673282384,1.8443115233898162
1684200473660687600,0.8806875,-3.0335061103880405,2.8897341837912798,2.164307447376847
1684200473670712800,0.890712890625,-2.6844085950791836,4.80696861231178,2.1399211941391227
1684200473680738600,0.900738525390625,-0.45713411165773865,2.386467558772862,1.9843261432796715
1684200473690764500,0.9107646484375,-1.0545699895836411,0.3376701123654842,1.2388789476215838
1684200473700789800,0.920789794921875,-0.27673487440943717,-0.45008828479945656,1.5770324595898388
1684200473710815700,0.930815673828125,0.27543270576968787,-0.5615609930768609,-0.09566460603177547
1684200473720841700,0.940841796875,0.5895559383310377,-0.8560647484108805,-1.6935007841974496
1684200473730866700,0.95086669921875,0.52593175355196,-1.433589034295082,-3.1709178543031213
1684200473740892700,0.960892578125,1.2485568765491246,-1.5524807866573334,-3.987806484362483
1684200473750918700,0.970918701171875,1.4023738118201494,-0.9807038122534751,-5.111153511443734
1684200473760943600,0.980943603515625,0.7680016303587704,-0.8169707553848624,-4.474266643747687
1684200473770969600,0.990969482421875,1.5835136383026838,-0.3507642794772982,-3.074508567383885
1684200473780995600,1.00099560546875,2.5549510250389575,-0.23444383890777826,-2.310304064285755
1684200473791020500,1.0110205078125,3.399786231166124,0.85849957434237,-4.9140480540663
1684200473801046500,1.021046630859375,5.088396320712566,2.665481776291132,-7.825973026877641
1684200473811072500,1.031072509765625,3.5359038436174393,3.1218343821823593,-5.341673162645101
1684200473821097700,1.04109765625,2.762400181776285,3.2864106118768452,-3.3659114340931175
1684200473831123700,1.051123779296875,0.1030651646118611,3.8341099606007334,-1.6898884389191864
1684200473841149700,1.061149658203125,-6.208080733633041,4.5687762345254415,3.519290562468767
1684200473851174700,1.071174560546875,-8.029235837841034,4.031238798853755,7.622159011772275
1684200473861201000,1.081200927734375,-6.271240661901235,0.3504033372104168,9.29168036996722
1684200473871227000,1.091226806640625,-4.907104518538713,-0.332440979540348,10.805604923737048
1684200473881251800,1.101251953125,-0.4911749129474163,1.1789835741072892,12.76510934497118
1684200473891277800,1.11127783203125,-2.4807886412411926,-0.7074643787443637,10.655389812350272
1684200473901303800,1.1213037109375,-2.588281632232666,-3.5958594228863716,5.717050782114267
1684200473911328800,1.131328857421875,0.3797583187714219,-0.03820201262235641,2.1237264306634662
1684200473921354800,1.141354736328125,9.278812705087661,4.983362413311005,-0.3405868765950203
1684200473931380700,1.151380615234375,11.331878038072585,2.8244518565416334,-4.2844355612874025
1684200473941405700,1.16140576171875,5.738887350869178,3.0649282536119222,-2.8916420632392166
1684200473951431700,1.171431640625,1.891750150913,2.517157593217492,3.1946538269385694
1684200473961457700,1.181457763671875,0.36124446469843385,1.629336647322774,6.614070933508873
1684200473971483000,1.19148291015625,1.1409309068277478,1.4637719911128282,7.363297063183784
1684200473981508600,1.201508544921875,1.3666086709558962,1.5754647718816994,7.507719562643766
1684200473991533800,1.211533935546875,1.2953855554804206,1.2192559632629156,5.484580581367015
1684200474001559800,1.221559814453125,0.7538903220936656,0.413132472845912,2.6780136333450675
1684200474011585800,1.231585693359375,-0.35869039630144833,-0.16950900992155074,1.2154328978434203
1684200474021610800,1.24161083984375,-1.1153069284886121,-1.2032143445223569,-0.6777198133438825
1684200474031636700,1.25163671875,-2.309839661644399,-2.1020190412461757,-3.2273826688468454
1684200474041662700,1.261662841796875,-4.848999243311583,-2.201106607463956,-6.355556190922856
1684200474051687700,1.271687744140625,-5.690839651536941,-2.361243393406272,-7.393798584431409
1684200474061713700,1.281713623046875,-4.775903611962497,-3.504656472438574,-6.897772139799595
1684200474071739600,1.29173974609375,-2.6718729386329647,-4.638445398557186,-6.0222495344638824
1684200474081764600,1.3017646484375,-0.563162875315547,-4.254291767436266,-4.402958480337262
1684200474091790600,1.31179052734375,0.17536226599439977,-3.5175481027156112,-2.1266899566441775
1684200474101816600,1.321816650390625,-0.05226823963671923,-3.0092782625824213,-0.00640226825773716
1684200474111841800,1.331841796875,0.7161614799410104,-2.446322892537713,2.062730402430892
1684200474121867800,1.34186767578125,1.7641089826449752,-1.39744863037765,2.465131053382158
1684200474131893800,1.351893798828125,2.3377459057018157,-0.7346282800018787,0.6221086930200457
1684200474141918700,1.361918701171875,2.2972739023208617,-0.3286819192677736,-3.529962178608775
1684200474151944700,1.37194482421875,-0.20708207699060438,-1.5831529882967472,-6.265949569755792
1684200474161970700,1.381970703125,-0.1554689402617514,-1.6207728171169757,-4.8457989859655495
1684200474171995600,1.39199560546875,1.4980477702021597,1.6389403419703243,-0.7041600765019654
1684200474182021600,1.402021728515625,0.29935820962786674,2.079763370296359,2.3645336671233177
1684200474192047600,1.412047607421875,-1.2797507639750838,1.7302023291289805,4.077706535518169
1684200474202072600,1.422072509765625,-1.5053016868531703,0.23302082036733626,4.777387420779466
1684200474212098600,1.4320986328125,-1.313967798614502,-2.0633254457145926,4.702493800097703
1684200474222124800,1.442124755859375,-0.7603297074913978,-3.1432050869911907,4.453125656041503
1684200474232149500,1.4521494140625,-0.6069082012787461,-1.9187544776946306,3.7674452390819786
1684200474242175000,1.462175048828125,-1.2347820336967705,-0.3890396495968103,2.427458325330913
1684200474252201000,1.472200927734375,-1.4383829905733465,-0.37875440242588515,1.4728355875343084
1684200474262226000,1.482225830078125,-1.802475830440223,-1.8054402332037687,-0.17750643841624258
1684200474272252000,1.492251953125,-4.336369162142277,-7.149800442975759,-1.7622157162442802
1684200474282278000,1.50227783203125,-3.0225767200946807,-5.8732765320926905,-0.1870373600885272
1684200474292302800,1.512302734375,1.1559005124226212,0.7386369311213493,0.8570946759805083
1684200474302328800,1.522328857421875,0.3680281334891915,6.554747806924581,-2.9446678432449698
1684200474312354800,1.532354736328125,-3.4621742982789874,8.4199045499444,-6.892759280073642
1684200474322379800,1.5423798828125,-5.402146628308296,8.60179899418652,-6.5205497692465775
1684200474332405800,1.55240576171875,-4.949310506105423,6.116752695500851,-3.6370179472267625
1684200474342431700,1.562431640625,-4.525076501269639,1.6498118645966051,-3.3481793780475853
1684200474352456700,1.572456787109375,-2.954683625824749,-1.450486393082142,-1.186589665196836
1684200474362482700,1.582482666015625,-1.9912898448124527,-2.7443782028734685,0.6124091367825866
1684200474372508700,1.5925087890625,-2.8672590248718857,-2.527950789910555,2.525887719900906
1684200474382534000,1.602533935546875,-2.7991999263852834,-2.9698931776553392,4.9608548134267325
1684200474392559900,1.612559814453125,0.5306865468636155,-4.6547909686803814,2.058876941873133
1684200474402585900,1.6225859375,3.1113609189629554,-4.363942813244462,0.8033616244882344
1684200474412610800,1.63261083984375,7.485484349960088,-3.0369805085003376,-0.011884206800162792
1684200474422636800,1.64263671875,14.142871862626075,-0.6922329073429108,-2.2097025863736866
1684200474432662800,1.652662841796875,11.551840639424324,2.3046330329120157,-2.5568817008405924
1684200474442687700,1.662687744140625,3.759299926549196,0.770849932461977,-0.731897393733263
1684200474452713700,1.672713623046875,0.31173955229520794,-1.221975743615627,0.3730477152168751
1684200474462740000,1.682739990234375,-0.9411091762289404,-1.048237717822194,0.085570205257833
1684200474472764700,1.6927646484375,-1.6018845767736434,-0.6878443169951438,0.3360410498589277
1684200474482791000,1.702791015625,-1.4250447855725883,0.30945173361897466,1.1903422957286238
1684200474492817000,1.71281689453125,-0.886901785223186,1.0656874497950077,1.8137945123121142
1684200474502841900,1.722841796875,-0.4321186206057667,0.9697633160442113,1.274494743143022
1684200474512867800,1.732867919921875,0.87203943939507,-0.1638824022114277,0.24853432358056304
1684200474522893800,1.742893798828125,2.2377058610647915,-0.9284346958339214,-0.7843339756742119
1684200474532919000,1.7529189453125,1.7846069962725042,-0.18781565098464487,-1.2087483055129646
1684200474542945000,1.762945068359375,0.6395835594341158,0.7392489255398511,-1.3098691311240196
1684200474552971000,1.772970947265625,-1.3791022418260575,1.9955594849556684,-1.0951122817218304
1684200474562996000,1.782995849609375,-1.5869202318757771,3.1395687763154503,-0.5192728801846503
1684200474573022000,1.79302197265625,0.46841363056302066,3.067756170514226,0.9990516621097921
1684200474583048000,1.8030478515625,0.7436191034480929,1.0981570562452077,1.930445207749307
1684200474593073000,1.813072998046875,0.2525210551291704,3.038126171404123,0.7507157837107777
1684200474603099000,1.823098876953125,3.549167814338207,2.7618951548635957,0.5231017908230423
1684200474613124900,1.833124755859375,4.715186108410358,-0.7017647057980299,0.4914563602373004
1684200474623149800,1.84314990234375,1.3832184449732303,-0.4289899671912193,-0.2135892669275403
1684200474633175800,1.85317578125,-1.5465817917466163,-0.6017863282203674,-1.266314943818748
1684200474643201800,1.863201904296875,-2.9205069231957195,0.7001689610391855,-1.2889543533891439
1684200474653226800,1.873226806640625,-2.6631942498758434,1.9146832827329634,-1.0934291509404779
1684200474663252700,1.883252685546875,-2.7584903148561715,0.7985738056898116,-0.24496786327064035
1684200474673278700,1.89327880859375,-3.379635423541069,-2.2925012810915706,0.5966390284597873
1684200474683304000,1.903303955078125,-3.1668437367320057,-5.189295320266485,2.5659599103093145
1684200474693330000,1.913329833984375,-2.329071308597922,-4.2419414044290775,4.3641359977290035
1684200474703356000,1.92335595703125,-0.8738719155192375,-2.0691034445941447,3.5465076552182433
1684200474713380900,1.933380859375,0.17938129237741232,-0.6303507439255714,2.138654242943227
1684200474723406800,1.94340673828125,0.5799857075616717,0.21495617136657236,1.139324640674889
1684200474733432800,1.953432861328125,0.9439058212101459,0.34636896712779996,0.3809884450882673
1684200474743457800,1.963457763671875,2.011683229021728,0.5567115072190761,0.26403818218261
1684200474753483800,1.97348388671875,2.329041497981548,-0.11434884823560713,-0.5629179606437683
1684200474763509800,1.983509765625,2.7187583161875604,0.0894850406140089,-0.6311138372525572
1684200474773534700,1.99353466796875,3.1849580700933933,0.19151041384935377,-0.6432882591709495
1684200474783560700,2.003560791015625,2.8293565797179934,-0.4630658397942781,-0.9941384633660316
1684200474793586700,2.013586669921875,2.015424461376667,-0.779881964701414,-1.2993623501569032
1684200474803611600,2.023611572265625,1.4865353193238378,-1.9170272155106067,-2.1886372942522168
1684200474813637600,2.0336376953125,0.6631637569859623,-1.9558429761171339,-2.8521459191530942
1684200474823663900,2.043663818359375,-1.1897779398441315,-0.18322072440981862,-2.7106168030470608
1684200474833688800,2.053688720703125,-3.0566295040830966,1.4271429268956184,-2.7237527634739873
1684200474843714800,2.06371484375,-3.1868507519721985,1.1304577358692884,-4.759584345324337
1684200474853741000,2.073740966796875,-1.5791127729952334,0.2783668595254421,-7.326169986316561
1684200474863765800,2.083765869140625,-0.6214385386735201,1.8095576053947209,-5.890093811380863
1684200474873792000,2.0937919921875,-1.4490177818343042,1.9551351201087235,-1.9983932470768688
1684200474883818000,2.10381787109375,-3.0027073597595093,2.593827575922012,2.2347575326532123
1684200474893843000,2.113843017578125,-3.166496530729532,2.846514050745964,5.512540601438284
1684200474903869000,2.123868896484375,-2.9201845593735576,-1.3614929353773593,9.771130942851304
1684200474913895000,2.13389501953125,-3.6470986117362973,0.9421920030295848,10.022081387662887
1684200474923920000,2.143919921875,-0.4993399530939758,3.5787890456199642,5.586391435068846
1684200474933945900,2.15394580078125,0.3024045915864408,-0.3795487676739692,5.434779316365718
1684200474943971800,2.163971923828125,1.5579342297576366,4.338292823681235,5.309213493067026
1684200474953996800,2.173996826171875,0.14367197335362433,8.211216206800938,1.231478608237207
1684200474964022800,2.184022705078125,-0.6977707407910376,9.56358358643651,-4.06171197078973
1684200474974048800,2.194048828125,2.5016063883423802,5.929777002471685,-6.5965808695256705
1684200474984074000,2.204073974609375,5.572541773414612,0.8286603163957595,-7.75974786581993
1684200474994100000,2.214099853515625,6.675093265226483,-2.1688351539343595,-6.473275392374396
1684200475004126000,2.2241259765625,7.281680856248736,-3.1301065359652043,-4.997789582592248
1684200475014151000,2.23415087890625,7.0366942882776256,-2.3777479534834622,-3.049463557976484
1684200475024177000,2.244177001953125,5.970110181903839,-1.6096499500781296,-2.3052622707262636
1684200475034203000,2.254202880859375,4.275923169007897,-1.40483464897573,-1.3981541482985018
1684200475044227800,2.264227783203125,1.8342741135001182,-0.9490338317483663,-1.2278548647820948
1684200475054253800,2.27425390625,-0.26626484525613486,-0.4976221893906593,-1.4436214757487178
1684200475064279800,2.28427978515625,-1.6825369071125984,0.11201835946142673,-1.150503621815145
1684200475074304800,2.2943046875,-2.732068171876669,-0.18991700717806814,-0.36903657987937327
1684200475084330800,2.304330810546875,-3.609674597749114,-1.1392758330971002,1.1945070141926406
1684200475094356700,2.314356689453125,-3.6356197708666325,-1.8628338530302047,2.4878122562676666
1684200475104381700,2.324381591796875,-3.0529502310484644,-1.1565005241423845,3.0959254494220017
1684200475114407700,2.33440771484375,-2.7373294534057377,-0.6619885757267475,3.5962265026330944
1684200475124433700,2.34443359375,-2.0130472108513118,-0.8156932827949523,4.216420594203472
1684200475134459000,2.354458984375,-0.5576058257102966,-0.9243664234817027,4.454181302574277
1684200475144484900,2.36448486328125,1.1731067910283803,-0.8719991073846817,4.067172282022238
1684200475154510800,2.3745107421875,2.0380887131273746,-1.0115653989851474,3.9642391462922095
1684200475164535800,2.384535888671875,1.7612421950370072,-1.331658938127756,4.426221574763954
1684200475174561800,2.394561767578125,1.7473697370290755,-1.2133926241874695,4.8000657010555265
1684200475184587800,2.404587890625,2.9151638086020943,-0.549274050694704,4.740821484926343
1684200475194612700,2.41461279296875,3.4470687913447615,-0.6711790133982897,4.735421379448473
1684200475204638700,2.424638671875,2.939890838101506,-2.642010884332657,5.35829228901267
1684200475214665000,2.4346650390625,2.1333552597522734,-5.205615171426534,5.548151428523659
1684200475224689700,2.444689697265625,1.6182909371733665,-5.725459714019299,4.401514419008791
1684200475234716000,2.4547158203125,1.159149577346444,-4.9629725362330674,3.533734682884812
1684200475244742400,2.464742431640625,1.2986656000643968,-4.29924909953773,3.4760622461169954
1684200475254767400,2.474767333984375,1.7261743887871503,-3.9894986752331256,3.589623743367195
1684200475264793300,2.48479345703125,1.0857326050885021,-3.5729514255076644,3.234223913043737
1684200475274819300,2.4948193359375,0.029196941455081102,-2.1504647999852895,2.0017431420266627
1684200475284844300,2.50484423828125,-0.8617061883639544,0.15595862347483633,2.2376576380088924
1684200475294870300,2.514870361328125,-1.4538906485676764,1.725643642911315,2.290753560641408
1684200475304896300,2.524896240234375,-1.1352373713612556,2.3690344856739043,0.9946646791972219
1684200475314921500,2.53492138671875,-0.6014624665608629,3.2847201745718717,-1.4099458545096217
1684200475324947500,2.544947509765625,-0.3292360094865784,3.946434025010466,-3.4047762945383786
1684200475334973400,2.554973388671875,-0.3646890521943569,4.688769810649752,-4.261255761229991
1684200475344998400,2.564998291015625,-1.2002642625451088,5.519388275375962,-4.076341384644806
1684200475355024400,2.5750244140625,-2.0920587882459163,5.84407148039639,-3.5660774480849504
1684200475365050400,2.58505029296875,-2.13556241440773,5.021148830869794,-3.1773163231685757
1684200475375075300,2.595075439453125,-1.3961293644726276,3.7036791616141795,-3.3007442576557398
1684200475385101300,2.605101318359375,-0.45096568868849424,2.2836264852404593,-3.676195526883006
1684200475395127300,2.615127197265625,0.21573647155668585,1.145183011314273,-4.550635597679019
1684200475405152300,2.62515234375,0.5165045479824766,0.6729647277712821,-5.617634714594483
1684200475415178200,2.63517822265625,0.7386147192895413,1.1791694520682097,-5.199827235674857
1684200475425204200,2.645204345703125,1.1137784037470817,2.082566152757406,-3.516695869800448
1684200475435229200,2.655229248046875,0.8818974010646343,2.429527240559459,-1.6872921388156712
1684200475445255200,2.665255126953125,-0.33855741659402844,1.8301473889589308,0.5872029454641043
1684200475455281200,2.67528125,-1.1823100881814956,1.7736200305730103,1.8495498624347149
1684200475465306400,2.685306396484375,-1.7394880438685416,2.4093659115403887,2.305122131603211
1684200475475332400,2.695332275390625,-3.228468710517883,0.8033797446668147,3.337067616924643
1684200475485358300,2.7053583984375,-2.8887457572758195,-0.0329044907361269,3.01297302544713
1684200475495383300,2.71538330078125,-1.9812708473622798,-0.679113898050785,2.9399641955986615
1684200475505409300,2.7254091796875,-1.1817810958713293,-1.0589239470094443,3.284497471731901
1684200475515435300,2.735435302734375,-0.08496142570972443,-0.7177841127067804,3.6304718865841625
1684200475525460200,2.745460205078125,1.2961954105585813,-0.4848603229731321,3.829574070736766
1684200475535486200,2.755486328125,2.221969947272539,-1.873103902631998,3.9752345875591035
1684200475545512400,2.765512451171875,3.171994543623924,-3.724843530195951,3.818157773709297
1684200475555537200,2.775537109375,3.401817444732785,-4.933132109242678,3.610295359995961
1684200475565563400,2.7855634765625,4.049332089427113,-3.8024382265299557,2.9021760244742034
1684200475575589400,2.79558935546875,4.622549910289049,-0.34015783752799034,1.8012725921303032
1684200475585614300,2.8056142578125,3.285963452631235,0.5133049116909504,1.9934573981098829
1684200475595640300,2.815640380859375,2.3180723601996895,-1.1844494382977484,2.841030358637869
1684200475605666300,2.825666259765625,2.095357829791307,-2.869420294559002,2.9067189286008475
1684200475615691500,2.83569140625,3.776444538095593,-1.9929186150580644,1.597497155469656
1684200475625717500,2.845717529296875,4.476537511289119,-1.3692010255366562,1.222664602662623
1684200475635743500,2.855743408203125,3.3164754952728748,-0.7173498129427432,1.1804063003867864
1684200475645768400,2.8657685546875,1.788645165747404,-0.7404992178618908,0.9255775528371334
1684200475655794400,2.87579443359375,0.5968985561788082,-0.8642541923463344,1.017795233285427
1684200475665820400,2.8858203125,-0.5447064505182206,-0.8827648315489292,1.426979553027451
1684200475675845400,2.895845458984375,-1.6873334937393665,-0.30163726047575473,2.2648323529213665
1684200475685871400,2.905871337890625,-2.5863199767708775,0.7708657145529985,2.6940321634709834
1684200475695897300,2.9158974609375,-3.727926590903103,1.8971780211806297,2.6675910235300657
1684200475705922300,2.92592236328125,-4.67719218558073,3.5290754589021205,2.937137740001082
1684200475715948300,2.9359482421875,-4.595555520379543,5.136866044849157,2.262803769703209
1684200475725974300,2.945974365234375,-3.8063995313763614,5.611277454522252,0.8269365613430738
1684200475736000300,2.956000244140625,-2.692731017744541,5.284696891447902,0.44479485456645484
1684200475746025200,2.966025146484375,-1.194491524362564,3.7751977529048917,1.4286007244884966
1684200475756051200,2.97605126953125,1.086227475933358,1.936853613486886,2.4611545509666204
1684200475766076400,2.986076416015625,2.0696423737764356,0.8543453772723675,2.558827574211359
1684200475776102400,2.996102294921875,0.9521407117225229,0.5687848068505525,1.4789175377964972
1684200475786128400,3.00612841796875,-0.42241745693311095,0.1055751746714115,0.17874036412537098
1684200475796154400,3.016154296875,-1.2750959239065647,-0.11962065115869044,-0.5050900410532951
1684200475806179300,3.026179443359375,-1.6913047354578972,-0.0971054524898529,-0.993415994310379
1684200475816205300,3.036205322265625,-2.1682386493459345,0.11793021385371684,-1.736818532398343
1684200475826231300,3.046231201171875,-2.3887822654560207,0.3267652719914913,-2.4205735342532395
1684200475836256300,3.05625634765625,-1.9142378770530222,0.45937867571413515,-2.6707863124400375
1684200475846282200,3.0662822265625,-1.1023710206784307,0.6669347999572753,-2.397235913285613
1684200475856308200,3.07630810546875,-0.6252960908845067,1.153032555770874,-1.9345786542922256
1684200475866333200,3.086333251953125,-0.7156678512051701,1.7708225088089704,-1.6867606622874736
1684200475876359200,3.096359130859375,-1.2455894050456582,2.1871324426472185,-1.5891086818307638
1684200475886385400,3.106385498046875,-1.4113982452750204,2.1109189715385437,-1.6355588828384875
1684200475896410000,3.11641015625,-1.1771150037564337,1.565476461830735,-1.632051751500368
1684200475906436400,3.126436279296875,-0.8242462993457913,0.8746639426797628,-1.6818348963230847
1684200475916462300,3.13646240234375,-0.5188746746473014,0.2380079611301422,-1.8506851500749586
1684200475926487600,3.146487548828125,-0.374015683466196,0.00007364975810050964,-1.8122937523603437
1684200475936513500,3.156513427734375,-0.3297827201165259,0.06956395009160041,-1.708134874227643
1684200475946539500,3.16653955078125,-0.4206362726047635,0.31724633301794525,-1.7749796284884214
1684200475956564500,3.176564453125,-0.4822590544335544,0.6472153694868087,-2.0391455287039277
1684200475966590500,3.186590576171875,-0.39752515386939047,0.8779951329290866,-2.412991700822115
1684200475976616400,3.196616455078125,-0.38472266318053006,0.9229226544141769,-2.636243406847119
1684200475986641400,3.206641357421875,-0.5252183445855975,0.7463713247656821,-2.611802793073654
1684200475996667400,3.21666748046875,-0.689899203698337,0.3481137649685144,-2.441294835242629
1684200476006693400,3.226693359375,-0.8422712008580565,-0.1719686780333519,-2.3761972169101235
1684200476016718300,3.23671826171875,-0.9654736560262739,-0.634620676329732,-2.343240119203925
1684200476026744300,3.246744384765625,-0.8493851245164871,-0.9534165768772364,-2.3517513424396514
1684200476036770300,3.256770263671875,-0.7438600725971162,-1.1235042634695769,-2.18630943582654
1684200476046795300,3.266795166015625,-0.6765246122099459,-1.106381279233098,-1.9934774179846046
1684200476056821200,3.2768212890625,-0.4956326230086386,-0.9765046069979667,-1.958886581596732
1684200476066847200,3.28684716796875,-0.275460470559448,-0.8452595690190792,-2.041003139269352
1684200476076872400,3.29687255859375,-0.030709611040353774,-0.7359311792939901,-2.185480583786964
1684200476086898400,3.3068984375,0.18401348222270608,-0.6501835716426372,-2.2993846108645197
1684200476096924400,3.31692431640625,0.3257728999532759,-0.5744283656954765,-2.2592875782757997
1684200476106949400,3.326949462890625,0.2181016297854483,-0.47475861567556854,-2.066982214656472
1684200476116975400,3.336975341796875,0.2570271343767643,-0.47854573299884795,-1.8457991315990685
1684200476127001300,3.34700146484375,0.08382628419995307,-0.575833556318283,-1.4707856692671775
1684200476137026300,3.3570263671875,-0.1775192978978157,-0.6908592809021472,-0.828251151072979
1684200476147052300,3.36705224609375,-0.2904407436788082,-0.822628050494194,-0.06553951688110828
1684200476157078300,3.377078369140625,-0.23129063557386398,-0.9639192661911249,0.6725503017514943
1684200476167103200,3.387103271484375,-0.29701785704679784,-0.8947580516815185,1.4339952770084141
1684200476177129200,3.397129150390625,-0.6884802768111229,-0.7864268563002348,2.0709394278496505
1684200476187155200,3.4071552734375,-0.9618401218295097,-0.7557523165732621,2.4668068776398897
1684200476197180200,3.41718017578125,-0.9142097711265087,-0.8568301798254251,2.5643653345942496
1684200476207206100,3.4272060546875,-0.5516331810414791,-0.962208955141902,2.424200492578745
1684200476217232100,3.437232177734375,0.022719196808338164,-1.2193541629403828,2.0679975291788577
1684200476227257300,3.44725732421875,0.49854339588880536,-1.438883633571863,1.6524328607499599
1684200476237283300,3.457283447265625,0.7121206801176071,-1.4828472784608602,1.192141746366024
1684200476247309300,3.467309326171875,0.870875656312704,-1.3485475290864706,0.7607347811609506
1684200476257334300,3.477334228515625,1.0662135194957256,-0.9589514146506786,0.37569618389904497
1684200476267360300,3.4873603515625,1.2619815907895564,-0.5238625460624694,0.1557072790622711
1684200476277386200,3.49738623046875,1.5036170947670935,-0.12042670684456824,0.13573650417923927
1684200476287411200,3.5074111328125,1.415580499395728,0.17231296142637728,0.26294483398795127
1684200476297437200,3.517437255859375,1.16721422585845,0.5542079999655485,0.4739724337339401
1684200476307463200,3.527463134765625,0.93371526658535,0.9930079980313777,0.6727870331168174
1684200476317489200,3.5374892578125,0.7160854920953512,1.4168863212972878,0.8512123399436473
1684200476327514000,3.54751416015625,0.4971487631926313,1.7849053946971891,0.977111925241351
1684200476337540000,3.5575400390625,0.37700843554139135,1.9881378105223177,1.1080921748042105
1684200476347566000,3.567566162109375,0.41747652993220835,1.6288690298110247,1.330515613311529
1684200476357591000,3.577591064453125,0.5241852752108127,0.5955389582633972,1.550166664496064
1684200476367617000,3.587616943359375,0.4553320306718349,-0.4742027353584766,1.900409258186817
1684200476377643000,3.59764306640625,0.29860417639017106,-0.8598995042681693,2.523196288859844
1684200476387668200,3.607668212890625,0.230984273038432,-0.36670214558243747,3.235360223597288
1684200476397694200,3.617694091796875,0.14496077105514704,0.5176894103854894,3.5643127764999862
1684200476407720200,3.62772021484375,0.10497530908212065,0.9673445644646882,3.397733390289545
1684200476417745200,3.6377451171875,0.23620003492534158,0.6879787570297717,2.855937128129601
1684200476427771100,3.647771240234375,0.6546142475664615,0.10620353570282459,2.157474386486411
1684200476437797000,3.657797119140625,1.0820290013302116,-0.3578518996506929,1.4240548977524041
1684200476447822000,3.667822021484375,1.0624901881236581,-0.65215516397655,0.5485083270192146
1684200476457848000,3.67784814453125,0.4471131414461881,-0.8623527426391839,-0.3491349247097969
1684200476467874000,3.6878740234375,-0.31673721445202824,-0.8989677783310412,-1.0723328791588544
1684200476477899000,3.69789892578125,-0.8292828322082757,-0.6602215660542249,-1.3297370301544666
1684200476487925000,3.707925048828125,-0.9650690207481384,-0.24079496150016783,-1.2188427062869072
1684200476497951000,3.717950927734375,-0.9072995533466338,0.08884791175425052,-0.8842077238336205
1684200476507976000,3.727975830078125,-0.8220265774697065,0.2590332135021686,-0.5306602433785795
1684200476518002000,3.738001953125,-0.7148141569852828,0.31305121941566466,-0.1495937646180391
1684200476528028000,3.74802783203125,-0.5943185496229678,0.2694517316639423,0.0007139934882521629
1684200476538053000,3.75805322265625,-0.250240835237503,0.28604981524348255,0.08093933058679104
1684200476548079000,3.7680791015625,0.20808573760781435,0.24139117382764816,0.07290303138643503
1684200476558105300,3.778105224609375,0.6455038893938064,-0.020924130085110664,-0.22313480164706706
1684200476568130000,3.788130126953125,0.9873077405631542,-0.2660778713166714,-0.7280220136046409
1684200476578156300,3.79815625,1.1920061372876167,-0.4263905983477831,-1.223690146318078
1684200476588182300,3.808182373046875,1.036903838381171,-0.386515099555254,-1.5274275939434765
1684200476598207200,3.818207275390625,0.48749125599861143,-0.14469137952923775,-1.4995043987512588
1684200476608233200,3.828233154296875,-0.7999100227296352,0.1045347257077694,-1.2696338591083884
1684200476618259200,3.83825927734375,-2.37657657161653,0.5334574728816748,-0.8595207340836525
1684200476628284200,3.8482841796875,-1.9399591782867907,1.1142004285514353,-0.886424230839312
1684200476638310100,3.85831005859375,-0.9088456137448548,1.527792335602641,-0.6175999834239483
1684200476648336100,3.868336181640625,0.5094775354225188,1.8766905289471147,-0.2597296713337302
1684200476658361000,3.878361083984375,1.3770815496534108,1.8135592422515152,-0.02157470294833183
1684200476668387000,3.888386962890625,1.0936445472568272,1.2405804908424616,0.05713087723702192
1684200476678413000,3.8984130859375,-0.014971359160542487,0.4988040926516056,-0.24411855296492574
1684200476688438300,3.908438232421875,-0.8884124820470809,-0.1265636021643877,-0.38013475086838006
1684200476698464300,3.91846435546875,-1.2339929291456937,-0.5301064088881016,-0.30453970391899343
1684200476708490200,3.928490234375,-1.3762106120377777,-0.7429851894587278,-0.3658610185831785
1684200476718516200,3.93851611328125,-1.440038064303994,-0.8456810093015432,-0.30525077479779716
1684200476728541200,3.948541259765625,-1.351489427757263,-0.8894839106708764,-0.3215831931784749
1684200476738567200,3.958567138671875,-1.2500059063136577,-0.9349339947253466,-0.3637991176173091
1684200476748593200,3.96859326171875,-1.1254331857055424,-0.8213193059831857,-0.14270868127942085
1684200476758618000,3.9786181640625,-0.8615846808761358,-0.5016308405101298,0.28092648088037964
1684200476768644000,3.98864404296875,-0.7042290500849485,-0.21483926698863506,0.4656891740351915
1684200476778670000,3.998670166015625,-0.5152934551596641,-0.07068155594468116,0.5275198995262385
1684200476788695000,4.008695068359375,-0.2778004578143358,-0.10501870983242988,0.46785365859270095
1684200476798721000,4.018720947265625,0.07552198171317577,-0.11623802298307419,0.3087836250990629
1684200476808747000,4.0287470703125,0.238784206199646,-0.1109083523929119,0.17334230447411536
1684200476818772000,4.03877197265625,0.09622523558922111,-0.07300561497807502,0.036734862679243085
1684200476828798000,4.0487978515625,-0.011363178600743413,0.11950725391209124,-0.06794073280394076
1684200476838824000,4.058823974609375,-0.036007717448472976,0.190812494713068,-0.1943026749163866
1684200476848849200,4.06884912109375,-0.13446867620050906,0.09046469930112361,-0.31168869889080525
1684200476858875100,4.078875244140625,-0.20477504215724765,-0.0005699088424444198,-0.4058966763734817
1684200476868901000,4.088901123046875,-0.13917992263138293,-0.03755202428102493,-0.2730789822503924
1684200476878926000,4.098926025390625,-0.0050064299851655955,0.03367605963051319,-0.11766922482997179
1684200476888952000,4.1089521484375,0.04859188921153545,0.10052782815396785,0.041864626783132554
1684200476898978300,4.118978271484375,0.09663783497810363,0.026970424512028694,0.13826163874268532
1684200476909003000,4.1290029296875,0.1661831534344703,-0.07962123372554779,0.1275020520582795
1684200476919029200,4.139029296875,0.2544113258551806,-0.14523381584286688,0.11340835251510142
1684200476929055200,4.14905517578125,0.3180863640386611,-0.16095920824110507,0.17775661378502844
1684200476939080200,4.159080078125,0.17614267578236759,-0.20439444534182546,0.3112707657396793
1684200476949106200,4.169106201171875,0.06809855371415614,-0.23831834225356577,0.3220931885272264
1684200476959132200,4.179132080078125,0.046123307140916586,-0.31067163080275056,0.2540419810861349
1684200476969157000,4.1891572265625,0.216807425256446,-0.32625323081612584,0.14011983382999896
1684200476979183000,4.19918310546875,0.5456440236292779,-0.1187993979036808,-0.028845570734143254
1684200476989209000,4.209208984375,0.8636597335845232,0.23997253920137881,-0.08153992682844399
1684200476999234300,4.219234375,1.093632710688561,0.31447569926083085,-0.10445639977455139
1684200477009260300,4.22926025390625,0.9092571171551942,0.20714929700791834,0.052558454754948615
1684200477019286300,4.239286376953125,0.41800095566511153,-0.001056231054663658,0.17378361850082874
1684200477029312300,4.249312255859375,0.019539543858915567,-0.17600421715974807,0.4230898032367229
1684200477039337200,4.259337158203125,-0.1560737742871046,-0.29416297907233235,0.7103624382734298
1684200477049363200,4.26936328125,-0.01801489157490432,-0.3971265099406242,1.0438125948563217
1684200477059389200,4.27938916015625,0.32543906488902863,-0.5280155740886926,1.3839610800340771
1684200477069414100,4.2894140625,0.6409272291280329,-0.6462029775738716,1.5916393693521618
1684200477079440100,4.299440185546875,0.7210311318039894,-0.8505600135147571,1.562604705786705
1684200477089466000,4.309466064453125,0.6606044278919696,-0.9903174437731503,1.317658469825983
1684200477099491000,4.319490966796875,0.6753175745077431,-0.8532739486485719,1.0024120784536004
1684200477109517000,4.32951708984375,0.7303356243092566,-0.5857295119106769,0.6918532603755593
1684200477119543000,4.33954296875,0.7435792098291217,-0.48872225909829137,0.5362222614198923
1684200477129568000,4.349568115234375,0.5572540165979415,-0.4812836335301399,0.4224725481212139
1684200477139594000,4.359593994140625,0.36668534057810903,-0.4703080660074949,0.3134428490817547
1684200477149620000,4.369619873046875,0.2616502641327679,-0.41208267153203487,0.2281482458949089
1684200477159645200,4.379645263671875,0.22195523647367954,-0.34789924543499945,0.13583762646615505
1684200477169671200,4.389671142578125,0.21172961053550243,-0.2912923920720816,0.016951719322800634
1684200477179697200,4.399697265625,0.23853593052700162,-0.34279227768480774,-0.28737229601889847
1684200477189722000,4.40972216796875,0.3843734113514423,-0.3863952725678682,-0.49520548363775013
1684200477199748000,4.419748046875,0.5024509247213602,-0.3747504274815321,-0.6239192495733499
1684200477209774000,4.429774169921875,0.5078139130592346,-0.3433557567864656,-0.6774862968489528
1684200477219799000,4.439799072265625,0.4207832798600197,-0.37792613490819926,-0.7370873635917902
1684200477229825000,4.449824951171875,0.2570329795956611,-0.42082302734851834,-0.6704851859152317
1684200477239851300,4.459851318359375,0.08041106892898678,-0.5063970319986343,-0.6152011055886745
1684200477249876200,4.469876220703125,-0.0918235665641725,-0.5279343255460262,-0.4336182115137577
1684200477259902200,4.479902099609375,-0.2379072772346437,-0.43893034644722934,-0.2415676994383335
1684200477269928200,4.48992822265625,-0.3720123808197677,-0.23159517147839068,-0.033493981061875816
1684200477279953200,4.499953125,-0.5249906733095646,-0.04474164352416992,0.19142039747834205
1684200477289979100,4.509979248046875,-0.7156850946009159,0.15736498314142225,0.4620464336186647
1684200477300005000,4.520005126953125,-1.0129285040318965,0.47431437903940676,0.7943319303363561
1684200477310031000,4.530031005859375,-1.283914897917211,0.7310632809966802,1.0293184978187084
1684200477320056300,4.540056396484375,-1.5720874044030904,0.8507733640044927,1.1849135486781597
1684200477330082300,4.550082275390625,-1.718347348423302,0.9368611633956432,1.2942033599585294
1684200477340108000,4.56010791015625,-1.6044804384857416,0.8930103312313556,1.0575397991746665
1684200477350133200,4.57013330078125,-1.1183598863184452,0.8400731062918901,0.6250502994298934
1684200477360159200,4.5801591796875,-0.13297989894747733,0.7921043174147605,0.03580021217763424
1684200477370185200,4.590185302734375,1.4594431681282818,0.8035743904560804,-0.5928942889735103
1684200477380210200,4.600210205078125,2.9247458759397267,0.9311234965264796,-0.7749281416863203
1684200477390236200,4.610236083984375,3.165927498669922,0.9913292511641979,-0.5002630592882633
1684200477400262100,4.62026220703125,2.2979811738073823,0.8938537963181734,-0.0712704617485404
1684200477410287000,4.630287109375,1.2097709265589713,0.6267237856000661,0.10930530111044645
1684200477420313000,4.64031298828125,0.3849265151895582,0.19477555312514305,0.1877753189742565
1684200477430339000,4.650339111328125,-0.13399462894797323,-0.25249007546901703,0.3488777350783348
1684200477440364000,4.660364013671875,-0.4370004012979567,-0.5949515137642621,0.5584451991438866
1684200477450390000,4.67039013671875,-0.550133882394433,-0.8035743904560804,0.7669283751040696
1684200477460416300,4.680416259765625,-0.5401894114851952,-0.861209417822957,1.0115157146245242
1684200477470441200,4.690441162109375,-0.3914611776553094,-0.8201105147153138,1.317203127273917
1684200477480467200,4.70046728515625,-0.11393149960637092,-0.7843973962992429,1.690540180826187
1684200477490493200,4.7104931640625,0.19803718526959418,-0.7980489050328731,2.053238935986161
1684200477500518400,4.720518310546875,0.48471010084748267,-0.7984440418303013,2.4084788995727897
1684200477510544400,4.73054443359375,0.8615548702597617,-0.8753156845867633,2.6659111076191064
1684200477520570400,4.7405703125,1.5270342107117174,-0.9799018482208252,2.89032981159687
1684200477530595300,4.75059521484375,2.4233694485820827,-1.095681606042385,3.1897531954154372
1684200477540621300,4.760621337890625,3.345955272257328,-1.2382114236235617,3.440350881266594
1684200477550647300,4.770647216796875,3.8619109907180067,-1.3064987779080868,3.542538167065382
1684200477560672300,4.78067236328125,3.3456928219288584,-1.2359984237492083,3.4104128391206263
1684200477570698200,4.7906982421875,2.1277876887530085,-1.0428057559013366,2.9379461337745187
1684200477580724200,4.80072412109375,1.0990911222249269,-0.5990408289045095,2.4190362416833637
1684200477590750200,4.810750244140625,0.44715281586945055,-0.0841869342058897,1.884398619106412
1684200477600775200,4.820775146484375,-0.3835644695887342,0.4202297376304865,1.2114327222913504
1684200477610801200,4.83080126953125,-0.3815502071568742,1.204981938716769,0.8311667462587357
1684200477620827100,4.8408271484375,-0.36710889975242317,2.221264429351687,0.41275837883651256
1684200477630852000,4.85085205078125,-0.7657891419410705,3.060859396737814,0.32491058403551576
1684200477640878000,4.860878173828125,-1.8392776208758352,4.004399891766906,0.726324562036991
1684200477650904000,4.870904052734375,-2.882518261063099,4.618393959653377,1.581838398566842
1684200477660929300,4.88092919921875,-3.8209704930424686,4.841450435367227,2.336118304499984
1684200477670955300,4.890955322265625,-3.5997944242477415,4.252451692527532,2.646773568689823
1684200477680981200,4.900981201171875,-2.683755099606514,3.11993117890954,3.2115204983264207
1684200477691006200,4.911006103515625,-1.9818015932381152,2.1318150445729493,3.299171309250593
1684200477701032200,4.9210322265625,-2.028828863481432,1.274901278117299,2.856396562334895
1684200477711058200,4.93105810546875,-2.6759447181165217,0.8614613467574119,1.5328805986523628
1684200477721083100,4.941083251953125,-3.0700784759819504,0.6290577815055847,-0.3090250326395035
1684200477731109000,4.951109130859375,-3.1336487386167047,0.48393034864664075,-1.7005787597596644
1684200477741135000,4.961135009765625,-2.943040534304082,0.36619302701652046,-2.448462242653966
1684200477751160000,4.97116015625,-2.3672528629541394,0.20355974808335303,-2.596925541937351
1684200477761186000,4.98118603515625,-1.7307240149155259,0.21364859589934349,-2.795985055992007
1684200477771212000,4.9912119140625,-1.237811902911961,0.22066461214125155,-3.1687557078331707
1684200477781237200,5.0012373046875,-1.2426529132023454,0.1431371358245611,-3.365903250786662
1684200477791263000,5.011262939453125,-1.3135586332917213,0.034223756641149516,-3.165843619778752
1684200477801289200,5.021289306640625,-1.3840356065750121,0.023905191722512244,-2.918974891322851
1684200477811315200,5.031315185546875,-1.4639561155080794,0.11444120269417762,-2.6869138558983803
1684200477821340400,5.04134033203125,-1.536794557225704,0.30549159781634805,-2.515516255751252
1684200477831366400,5.051366455078125,-1.7723314520671962,0.5645014304429292,-2.538911159864068
1684200477841392400,5.061392333984375,-1.9573446128517389,0.6524585308372974,-2.752316010135412
1684200477851417300,5.071417236328125,-2.0252599189534783,0.5897580367743969,-3.0282015742391346
1684200477861443300,5.081443359375,-1.960999628227949,0.5170774159669875,-3.2142133906722066
1684200477871469300,5.09146923828125,-1.7084586993545292,0.4330874656379223,-3.3571167177408934
1684200477881494300,5.101494384765625,-1.2264657485112547,0.2883066542595625,-3.4585943939656016
1684200477891520300,5.111520263671875,-0.5495411771982908,0.17035890474915502,-3.6181104176610708
1684200477901546200,5.121546142578125,-0.028817805944383143,0.019436521875858304,-3.579427928045392
1684200477911571200,5.1315712890625,0.10447247412651776,-0.2038397340685129,-3.134374130281806
1684200477921597200,5.14159716796875,-0.01814355945587158,-0.4150006048053503,-2.380368365114927
1684200477931623200,5.151623046875,-0.1502247559979558,-0.6240168647289276,-1.5795844821602105
1684200477941648100,5.161648193359375,-0.46669192133694887,-0.623706483605504,-1.0100415504187346
1684200477951674000,5.171674072265625,-0.8594853705093264,-0.3899889131456613,-0.770234430912137
1684200477961700000,5.1817001953125,-1.2163777774780988,-0.21584990533590315,-0.8224427570551633
1684200477971725300,5.191725341796875,-1.4659563494145869,-0.3225345025539398,-1.0302151543974876
1684200477981751300,5.201751220703125,-1.3813259092248975,-0.5922632975935935,-1.307710491785407
1684200477991777300,5.21177734375,-0.9538847789108753,-0.790980866342783,-1.5499194117367268
1684200478001803300,5.22180322265625,-0.4835903030373156,-0.7082429619014263,-1.7207465185195208
1684200478011828200,5.231828125,-0.2377846737682819,-0.43507951623797414,-1.7251871313154696
1684200478021854200,5.241854248046875,-0.09132570004463195,-0.1852344023197889,-1.6337930422097444
1684200478031880200,5.251880126953125,0.21516250759363173,0.005680968245863914,-1.6199153235048054
1684200478041905200,5.2619052734375,0.4686214280948043,0.1731318765938282,-1.569022171613574
1684200478051931100,5.27193115234375,0.6284624459609389,0.3853676830857992,-1.306589963322878
1684200478061957000,5.28195703125,0.7343978322468697,0.5389800356954336,-0.886146290680766
1684200478071982000,5.291982177734375,0.645356443747133,0.5430331104785203,-0.5091624050587416
1684200478082008000,5.302008056640625,0.5260473427556455,0.37702597119808196,-0.208323016962409
1684200478092034000,5.312033935546875,0.1928021341603249,0.05124912572205066,-0.1138712938517332
1684200478102059000,5.32205908203125,-0.2672715380806476,-0.49446635570824143,-0.08558394152224064
1684200478112085000,5.3320849609375,-0.5868225678443908,-1.022055228817463,0.17608605022430418
1684200478122111200,5.342111328125,-0.8379389438074082,-1.5378677394151687,0.42465281476974487
1684200478132136200,5.35213623046875,-0.9091326870579272,-1.6416303117066622,0.7012649395823478
1684200478142162400,5.362162353515625,-0.7602033776979893,-1.4425854106992482,1.0338818602114914
1684200478152188400,5.3721884765625,-0.7001658922992646,-1.09557931471169,1.3823691346675158
1684200478162213400,5.38221337890625,-0.6564028845489025,-0.7758768207132816,1.6543635365515947
1684200478172239400,5.3922392578125,-0.40132454615235325,-0.6907961525380611,1.8027602003395555
1684200478182265300,5.402265380859375,-0.07515316666709258,-0.6031997021496296,1.8256635215431452
1684200478192291300,5.412291259765625,0.26562545137405397,-0.39059681591093537,1.7793150273442266
1684200478202316300,5.42231640625,0.7439455589234828,-0.21360241867005825,1.6407640502661465
1684200478212342300,5.43234228515625,1.0615618942975997,0.030448914277553557,1.4809423216223716
1684200478222368300,5.4423681640625,1.318952601289749,0.6137468151271342,1.4677753815352916
1684200478232393200,5.452393310546875,1.754758093714714,1.152698793771863,1.3429004631102084
1684200478242419000,5.4624189453125,2.153849181726575,1.661942447373271,1.1372013649106025
1684200478252445000,5.47244482421875,2.422446926909685,2.1255799495756627,1.1029033739894627
1684200478262470000,5.482469970703125,2.5429028598487378,2.255256715324521,1.1861258470773697
1684200478272495900,5.492495849609375,2.314461183965206,1.7362082915455102,1.1682353855997323
1684200478282521900,5.50252197265625,1.8901508990228175,0.7281453477233648,0.9931517904162407
1684200478292547000,5.512547119140625,1.461948282817006,-0.12343290292322635,0.981395886170864
1684200478302573000,5.522572998046875,1.0070277555555105,-0.5619704506605864,1.2659557551175356
1684200478312599300,5.532599365234375,0.5305986128518357,-0.6774754831939935,1.6499994961231945
1684200478322624000,5.5426240234375,0.08829846117794513,-0.5631640443593263,2.159557037979364
1684200478332650200,5.552650146484375,-0.4685942478269338,-0.3609031039148569,2.7244226255595683
1684200478342676200,5.56267626953125,-0.9692682260036468,-0.2185533190757036,3.089891429954767
1684200478352701200,5.572701171875,-1.143429445645213,-0.3732406074404716,3.228486246174574
1684200478362727200,5.58272705078125,-1.154461127269268,-0.7877835316061973,3.111307142949104
1684200478372753200,5.592753173828125,-0.9918751946091652,-1.1972978139549493,2.8090596416205167
1684200478382779100,5.602779052734375,-0.6294413009304552,-1.6494547217220068,2.3655168329417706
1684200478392804000,5.61280419921875,-0.2907802778314799,-1.9137977320700883,1.659228512239456
1684200478402830000,5.622830078125,-0.056824880027770995,-1.7293910127460956,0.667140551662445
1684200478412856000,5.63285595703125,0.31040691545195875,-1.2348252883166073,-0.36494799539148803
1684200478422881000,5.642881103515625,0.8201303884595632,-0.6248240894585847,-1.091192477929592
1684200478432907000,5.652906982421875,1.12206224796772,0.054341246518492696,-1.4138123206794262
1684200478442933000,5.66293310546875,1.2192735719848424,0.7523240956902504,-1.431494692364335
1684200478452958200,5.672958251953125,1.3435130420506,1.313068803948164,-1.3395137432813644
1684200478462984200,5.682984130859375,1.5225807384341954,1.56677293138206,-1.2458189760178326
1684200478473010200,5.69301025390625,1.6476754370898008,1.3948597829282283,-1.1514274586617945
1684200478483035100,5.70303515625,1.6873574591368437,0.9396686220318079,-1.1151853479355573
1684200478493061000,5.71306103515625,1.5153860046245158,0.5080301861584187,-1.2986071478754282
1684200478503087000,5.723087158203125,0.9514273027561604,0.1159282263815403,-1.6403420254617929
1684200478513112000,5.733112060546875,0.3770242176324129,-0.047858898761868475,-2.0312088904857633
1684200478523138000,5.743137939453125,-0.18920206384174523,0.24784955618679522,-2.2109826893121003
1684200478533164000,5.7531640625,-0.5305809675972908,0.706287151658535,-2.1825129661530256
1684200478543190000,5.76318994140625,-0.7545277432143688,1.217431085923314,-2.0063930136591197
1684200478553215000,5.773215087890625,-1.0120136542093008,1.6497738706737757,-1.6532669734865426
1684200478563241000,5.783240966796875,-1.1832020685851574,1.7471446961015462,-1.3288660925388336
1684200478573267000,5.793266845703125,-1.1876771681725977,1.4576502933621405,-1.1389134295254946
1684200478583292000,5.8032919921875,-1.1205261244416236,0.8259639169186354,-0.934073286242783
1684200478593318000,5.81331787109375,-0.9298268808446823,-0.010096446600556372,-0.7299027127847075
1684200478603344000,5.82334375,-0.7693523873806,-0.6557850449115038,-0.5551783063024283
1684200478613369000,5.833369140625,-0.9024776861481368,-1.1268185025840998,-0.3218471048116684
1684200478623395000,5.84339501953125,-1.1856155594676732,-1.397535139617324,-0.11275544156432152
1684200478633421000,5.853421142578125,-1.480865164732933,-1.4899562336832284,0.12705986124873161
1684200478643446000,5.863446044921875,-1.8791968126796186,-1.3020096497952938,0.5201137149229645
1684200478653472300,5.87347216796875,-2.0275643965035677,-0.8310206157863139,1.2328367448478936
1684200478663498200,5.883498291015625,-1.540011035054177,-0.3477057686895132,1.7781182187750935
1684200478673523200,5.893523193359375,-0.4439262550383806,0.16202303808033466,2.5608196248114106
1684200478683549200,5.903549072265625,1.0499264015614986,0.4242342970967293,2.982625817978382
1684200478693575200,5.9135751953125,1.4904725126422942,0.35188977637588975,2.645145090705156
1684200478703600000,5.92360009765625,0.8618523919016122,0.11936463057100773,1.897503599873185
1684200478713626000,5.933626220703125,0.19660028433427212,0.05308277088999748,1.0285708943217993
1684200478723652000,5.943652099609375,0.07776720335669815,0.14098551074862478,0.25994740573763847
1684200478733678000,5.953677978515625,-0.07514496509432793,0.1981757169574499,-0.16417261732965707
1684200478743703000,5.963703125,0.06974580946452916,0.1592231782287359,-0.69208502330482
1684200478753729000,5.97372900390625,0.43198863755054767,0.15468144314587115,-1.0595572764769197
1684200478763755000,5.983755126953125,0.4710689673773944,0.135895494133234,-1.1923086273655294
1684200478773780200,5.9937802734375,0.15464586037583647,0.04584522085189819,-1.358468619120121
1684200478783806200,6.00380615234375,-0.3041207478545606,-0.04589315164685249,-1.4823638788580893
1684200478793832000,6.01383203125,-0.8371148410081863,-0.23993688336610794,-1.5119222740367053
1684200478803857200,6.023857177734375,-1.0881161392241716,-0.2798971378326416,-1.2249348856821656
1684200478813883100,6.033883056640625,-1.0256868633180856,-0.2266097842812538,-0.7159218259662389
1684200478823909000,6.0439091796875,-0.8676127820592373,-0.053532268223166465,0.016243571053445337
1684200478833934000,6.05393408203125,-0.6033697249542922,-0.21949615288376806,0.7852481679096818
1684200478843960000,6.0639599609375,-0.20822014110982418,-0.47202831392884254,1.4858926375061272
1684200478853986000,6.073986083984375,0.2077881794333458,-0.610265402752161,1.9160703531771897
1684200478864011000,6.084010986328125,0.7375999892890452,-0.7603396443635225,1.928108581495285
1684200478874037000,6.094037109375,1.3907016403354704,-0.8764420582681893,1.6681684822812675
1684200478884063000,6.10406298828125,1.7848628707297145,-0.9361655823469162,1.4478010995209216
1684200478894088000,6.114087890625,1.7110196358837186,-0.8673241013109684,1.3023022030010818
1684200478904114000,6.124114013671875,1.2603098581850527,-0.6854033535838127,1.0590092872053385
1684200478914140000,6.134139892578125,0.6250228269010781,-0.5818821888327598,0.8139750807002186
1684200478924166000,6.144165771484375,-0.001919716016203165,-0.6028863984167575,0.5787497360259294
1684200478934191000,6.154191162109375,-0.3967870488531887,-0.6168073717415332,0.30541853258013724
1684200478944217000,6.164217041015625,-0.5363976179867983,-0.5758943465948104,0.1752227113932371
1684200478954243000,6.1742431640625,-0.32872385871335863,-0.5036649766862392,0.14125263725221157
1684200478964268000,6.18426806640625,0.11948387303650379,-0.4306751437991857,0.10101005871295929
1684200478974294300,6.194294189453125,0.6104774380676448,-0.2993114478766918,0.15254092398583888
1684200478984320300,6.2043203125,0.9617208793640136,0.03679682199954987,0.38664310984909533
1684200478994345200,6.21434521484375,1.1418262482322752,0.32085575568675995,0.6635548021301627
1684200479004371200,6.22437109375,0.910059665709734,0.3061398325920105,0.6281102715224027
1684200479014397200,6.234397216796875,0.610774521318078,0.1801899784117937,0.41744741343557834
1684200479024422100,6.244422119140625,0.5888211943157017,0.20775369264185428,0.2764712550371885
1684200479034448100,6.2544482421875,0.8930775512486696,0.2821528078049421,0.04965016609281301
1684200479044474000,6.26447412109375,1.2354998265773056,0.3224076613038778,-0.282667771589756
1684200479054500000,6.2745,1.3131452301852404,0.2963917610377073,-0.6035305415391922
1684200479064525000,6.284525146484375,0.9414642732769251,0.0682926149815321,-0.619414923891425
1684200479074551000,6.294551025390625,0.23868834460973737,-0.16953882053792477,-0.28650749588310714
1684200479084577000,6.304576904296875,-0.317366160005331,-0.2592980019181967,-0.02084112797677517
1684200479094602000,6.31460205078125,-0.5080898073911666,-0.2787818700671196,0.0240945768147707
1684200479104628000,6.3246279296875,-0.41680970005393025,-0.19217033906280992,-0.07284165658801793
1684200479114654000,6.334654052734375,-0.31658523876070976,0.0753811119377613,-0.08585399063527584
1684200479124679200,6.34467919921875,-0.1982094730965793,0.19796762716472147,-0.32572336172312494
1684200479134705200,6.354705078125,0.005291238275915384,0.1453513047426939,-0.5691463336393237
1684200479144731100,6.364731201171875,0.24331600441038606,0.05689151552319526,-0.917961524875462
1684200479154756000,6.374756103515625,0.45239363913238045,0.03063128510713577,-1.1402911476194857
1684200479164782000,6.384781982421875,0.6527277031674981,0.06366378613710404,-1.2149626499831676
1684200479174808000,6.39480810546875,0.7840069356769322,0.32845103312134744,-1.271275488835573
1684200479184833000,6.4048330078125,0.8496402683213352,0.5771463924825191,-1.3575035734802483
1684200479194859000,6.41485888671875,0.9058993311598896,0.6540870088219642,-1.5052753833681345
1684200479204885000,6.424885009765625,0.8786506742283702,0.7412251940488815,-1.6086699991300701
1684200479214911000,6.434910888671875,0.8325915183648467,0.7018798566102982,-1.8028870415896177
1684200479224936000,6.44493603515625,0.8453460782587527,0.8284569027781487,-2.0966502076894042
1684200479234962000,6.4549619140625,0.6733432056948542,1.2512468462854622,-2.3271605065405367
1684200479244988200,6.46498828125,0.4357382724076509,1.5916677186638115,-2.349802838720381
1684200479255013000,6.47501318359375,0.20760493182092904,2.049021610552072,-2.3945704934686423
1684200479265039000,6.4850390625,-0.4345777041956782,2.662396085235476,-1.875146222114563
1684200479275065000,6.495065185546875,-1.0625284012421965,2.818704837322235,-1.134167696303129
1684200479285090300,6.50509033203125,-1.7348332038000225,2.982081628099084,-0.43190877724736926
1684200479295116300,6.5151162109375,-2.34205587785542,2.718762700101733,0.09866174202114343
1684200479305142300,6.525142333984375,-2.8325498228013513,2.1004659665852783,0.24299919354617594
1684200479315167200,6.535167236328125,-2.909670764143765,1.2726140439629554,0.08708703956156968
1684200479325193200,6.545193115234375,-2.227420029371977,0.3135737819850445,-0.39028263539522884
1684200479335219200,6.55521923828125,-1.1034656840473414,-0.4969336226046085,-0.8591460555523633
1684200479345244200,6.565244140625,-0.49583559823483225,-1.019091118314862,-0.9470824054196476
1684200479355270100,6.575270263671875,-0.2175466262511909,-1.3068851468771696,-0.9063838998064399
1684200479365296000,6.585296142578125,-0.042302872069925064,-1.5123136114418505,-0.949435398286581
1684200479375322000,6.595322021484375,0.22591551840677856,-1.516263225850463,-1.1185434261918068
1684200479385347000,6.60534716796875,0.39132483792454004,-1.3031231639951466,-1.1305179416239262
1684200479395373000,6.615373046875,0.3663545011885464,-0.817769504547119,-0.9059624595239758
1684200479405399300,6.6253994140625,0.18934797511845827,-0.09843991596400738,-0.6393748851194977
1684200479415424000,6.635424072265625,-0.10070260019898414,0.6960983505994081,-0.48031040458381175
1684200479425450200,6.6454501953125,-0.4500944222792983,1.4304934063673018,-0.444496163880825
1684200479435476200,6.655476318359375,-0.7289717155449092,1.837873599296808,-0.5933616142243147
1684200479445501200,6.665501220703125,-1.014303153385967,1.9378993231475352,-0.9676403325408697
1684200479455527400,6.67552734375,-1.320463590374589,1.8320225351810455,-1.4438772040754555
1684200479465553400,6.685553466796875,-1.489919408804178,1.4733014514803886,-1.8733850576609372
1684200479475578400,6.695578369140625,-1.5484408636167644,1.1277052222907542,-2.185598364947736
1684200479485604400,6.705604248046875,-1.6311096483446657,0.8654396027386188,-2.438698973530531
1684200479495630300,6.71563037109375,-1.7663121917776763,0.6209457867205143,-2.6159745258003473
1684200479505656300,6.72565625,-1.9789964726895093,0.3600929565757513,-2.6993542352765796
1684200479515681300,6.735681396484375,-2.175242536758631,0.2099824746072292,-2.6502278007969258
1684200479525707300,6.745707275390625,-2.284624848628044,0.15596563773751257,-2.465994976735115
1684200479535733200,6.755733154296875,-2.2902730836480854,0.15005962856411934,-2.3110510832607747
1684200479545758200,6.76575830078125,-2.242666552212089,0.1702905156880617,-2.281560492621362
1684200479555784200,6.7757841796875,-2.2466535760216413,0.25450550694465635,-2.2773466743186117
1684200479565810200,6.78581005859375,-2.258011566990614,0.4393704914301634,-2.304187042710185
1684200479575835100,6.795835205078125,-2.313217321383953,0.6997825920701026,-2.3238617572560907
1684200479585861000,6.805861083984375,-2.4372505282878874,0.9607125791043043,-2.321421378366649
1684200479595887000,6.81588720703125,-2.599915371403098,1.1984779636502265,-2.3552356774240732
1684200479605912300,6.825912353515625,-2.7258880219370125,1.367073365858197,-2.4336174324825404
1684200479615938300,6.835938232421875,-2.755152694866061,1.4368372224360704,-2.427788287937641
1684200479625964300,6.84596435546875,-2.7082845607072112,1.3933353498399257,-2.218967550586164
1684200479635989200,6.8559892578125,-2.745724941307306,1.1940279985040425,-1.804475479824841
1684200479646015200,6.86601513671875,-3.1286826406419275,0.8936579814851283,-1.364531572420895
1684200479656041200,6.876041259765625,-3.681736209875345,0.6077303313165903,-0.9510212061733007
1684200479666067200,6.886067138671875,-4.200605769956112,0.35219489680230615,-0.6114671797573566
1684200479676092200,6.896092041015625,-4.567012147462368,0.13856792821288108,-0.36123160521686076
1684200479686118100,6.9061181640625,-4.777927519005536,-0.06915244668126105,-0.1096142209291458
1684200479696144100,6.91614404296875,-4.880841950035095,-0.34043548542559143,0.14045184226334095
1684200479706169000,6.926169189453125,-4.909761755049228,-0.6030372050642967,0.36915713751912116
1684200479716195000,6.936195068359375,-4.701091532084345,-0.8218886303037405,0.6987570484146476
1684200479726221300,6.94622119140625,-3.908304493102431,-0.8878151006758213,1.2770789144173265
1684200479736246000,6.95624609375,-2.1200784295499324,-0.7621218516051769,2.2500638228565455
1684200479746272300,6.966272216796875,-0.9446434878349304,-0.6998258466899394,2.7920681748092173
1684200479756298200,6.97629833984375,-1.453278069627285,-0.6459890425622463,2.5858336545586584
1684200479766324200,6.98632421875,-1.993586723577976,-0.47385202222466466,2.3515640031740066
1684200479776349200,6.99634912109375,-1.923895347714424,-0.13387187935113906,2.044029793614149
1684200479786375200,7.006375244140625,-1.8918986194729803,0.3234884422779083,1.1334589635118841
1684200479796401200,7.016401123046875,-1.8781997644662856,0.7138900278776884,-0.23770459426939486
1684200479806426400,7.02642626953125,-1.8733248519062995,1.054405592802167,-1.2930340239182114
1684200479816452400,7.036452392578125,-2.191648458766937,1.2295137379050254,-1.9733912000283598
1684200479826478300,7.046478271484375,-2.870526209974289,1.1451894410550594,-2.321488306123018
1684200479836503300,7.05650341796875,-3.1892078364923595,0.8269207792520522,-2.588111536362767
1684200479846529300,7.066529296875,-3.221607592576742,0.38292730419635773,-2.833495579218864
1684200479856555300,7.07655517578125,-3.4450317325592037,0.011538462102413176,-3.180441469451785
1684200479866580200,7.086580322265625,-4.162259964948892,-0.2313508413285017,-3.7670588701128955
1684200479876606200,7.096606201171875,-4.919446113717556,-0.2927016743481159,-4.399299373307824
1684200479886632200,7.106632080078125,-5.2468087670803065,-0.14310966329574584,-4.745514903439581
1684200479896658200,7.116658203125,-5.445610506981611,-0.11457798081636428,-4.655724157877266
1684200479906683100,7.12668310546875,-5.8601768120229245,-0.7224760699152946,-4.086975591383874
1684200479916709000,7.136709228515625,-6.24437486680746,-1.3859762192487717,-3.5626746539041396
1684200479926735000,7.146735107421875,-6.051362231701612,-1.8422101671963929,-3.116853963421285
1684200479936760000,7.156760009765625,-5.8514335335969925,-2.2316595666378736,-2.1539964812427757
1684200479946786000,7.1667861328125,-5.829178447169065,-2.702545140272379,-0.9074962449625134
1684200479956812000,7.17681201171875,-5.447126756763458,-3.1513521530896424,0.3471630401149392
1684200479966837200,7.186837158203125,-4.681364502829313,-3.822959621033072,1.662192330481112
1684200479976863200,7.19686328125,-3.8719863945305346,-4.5499943771660325,3.128307085327804
1684200479986889200,7.20688916015625,-2.7368706037223336,-4.931473820641637,4.896978845843672
1684200479996914200,7.2169140625,-1.4178361693680286,-5.017789583569765,6.5578814287751905
1684200480006940200,7.226940185546875,-0.5498340591976418,-4.789485270330309,7.986919375637173
1684200480016966100,7.236966064453125,-0.04691376339886337,-4.552302069586515,8.95378229406476
1684200480026992400,7.246992431640625,0.9058055153965949,-4.275542645257711,8.890349978595971
1684200480037017000,7.25701708984375,2.367231820166111,-3.58276963968873,7.731524226376414
1684200480047043300,7.267043212890625,2.0777111139416693,-2.513038467460871,6.818771083799004
1684200480057069300,7.2770693359375,0.5824293013215065,-1.6375766524016857,6.9564774267464875
1684200480067094300,7.28709423828125,-0.028545711004734037,-1.2967489527881144,7.39338766554296
1684200480077120300,7.297120361328125,0.30605102179739624,-1.2315122182458638,7.137820666846633
1684200480087146200,7.307146240234375,1.044558152526617,-1.0420172358721493,5.879326918172836
1684200480097171200,7.317171142578125,1.9231728786587714,-0.8889274458318949,3.844536662068963
1684200480107197200,7.327197265625,2.1987258498072624,-0.7673059762448072,1.4000941764503716
1684200480117223200,7.33722314453125,1.5649895550966262,-0.6053560034006834,-1.137704053735733
1684200480127248400,7.347248291015625,0.22753097251309082,-0.3146995711445808,-3.1145424716085195
1684200480137274400,7.3572744140625,-0.978663830858469,0.18013970952928066,-3.8947283876925702
1684200480147300400,7.36730029296875,-1.7372200989365576,0.8522843530893325,-3.3971187655225394
1684200480157326300,7.377326416015625,-2.376177343165874,1.5323253028571604,-2.154541255643964
1684200480167351300,7.387351318359375,-2.691865925347805,1.9348364284455775,-0.9885828750655055
1684200480177377300,7.397377197265625,-2.246239296132326,2.094673939180374,-0.6286164674788713
1684200480187403300,7.4074033203125,-1.1695225028008223,2.166892787694931,-0.8236272906646132
1684200480197428200,7.41742822265625,-0.1016366661787033,2.359372923359275,-1.1882160973548888
1684200480207454200,7.4274541015625,0.7080810493379831,2.5416835471868513,-1.5957786611139773
1684200480217480200,7.437480224609375,1.3717910420298576,2.714892580670118,-1.8595400721818207
1684200480227505200,7.447505126953125,1.7980805180907249,2.8485329893529414,-2.0092919499710202
1684200480237531100,7.45753125,2.663808290120959,2.613158883857727,-2.238426576554775
1684200480247557000,7.46755712890625,3.942227220970392,1.8738433228224516,-2.138682299993932
1684200480257582000,7.47758203125,4.734040446484089,0.7089087323337793,-1.3876821463838218
1684200480267608000,7.487608154296875,4.291780078831315,-0.13004326097369193,-0.11606500450372695
1684200480277634000,7.497634033203125,2.612718154352903,-0.28442542891204353,1.199372282141447
1684200480287660000,7.507659912109375,1.1870335365068168,-0.0009679682493209838,1.888555446524918
1684200480297685200,7.517685302734375,0.26924123071841893,0.2990887450367212,1.8453765222728251
1684200480307711200,7.527711181640625,-0.12863741276375948,0.4258049074143171,1.3802712856054304
1684200480317737200,7.5377373046875,0.12260814253687857,0.27203356485068797,0.7767179477125405
1684200480327762200,7.54776220703125,0.41094877213127906,0.0186176067084074,0.250063725104928
1684200480337788200,7.5577880859375,0.3825270528323948,-0.3444692709863186,0.019390929168462752
1684200480347814400,7.567814453125,0.06004976035840809,-0.6763339119434356,0.05384381839036941
1684200480357839000,7.577839111328125,-0.4003817123442888,-0.8541799575775861,0.6304492358639836
1684200480367865300,7.587865234375,-0.7815957098167389,-0.8736006973624229,1.8390914506539702
1684200480377891300,7.597891357421875,-0.8439465867243706,-0.7318494629383087,3.076988109239936
1684200480387917300,7.607917236328125,-0.7417980255007743,-0.6047638827264309,3.780716516326368
1684200480397942300,7.6179423828125,-0.4910645113755017,-0.6670727471232414,4.104847932682931
1684200480407968300,7.62796826171875,-0.013266235743090509,-1.1237585304915905,4.021570222276449
1684200480417994200,7.637994140625,0.5652157161921263,-1.8351129024118185,3.6973303771093486
1684200480428019200,7.648019287109375,1.0538280851751565,-2.4047470195680853,3.0631872551634904
1684200480438045200,7.658045166015625,1.434183346926421,-2.4260586876660586,2.2272601626351474
1684200480448071200,7.6680712890625,1.7585333744697271,-1.9524118326246738,1.4653808876141905
1684200480458096400,7.678096435546875,1.6587112103670834,-1.2601923692852257,0.8508572428956628
1684200480468122400,7.688122314453125,1.262631579130888,-0.5928764610558748,0.4556543944939971
1684200480478148000,7.698148193359375,0.7898661830991506,0.029319617986679074,0.3068786682605743
1684200480488173300,7.70817333984375,0.49210664083957667,0.5229150360792875,0.11661620864570141
1684200480498199300,7.71819921875,0.42936354974396523,0.7552262468725442,-0.15218670372068882
1684200480508225300,7.728225341796875,0.32766433972306547,0.8039590058594942,-0.23098989906162024
1684200480518251300,7.738251220703125,-0.045433498245850204,0.6547387507289648,-0.20199556750655173
1684200480528276200,7.748276123046875,-0.5974163695078343,0.32933716830611226,-0.16023703144639728
1684200480538302200,7.75830224609375,-1.0283772714458406,0.1046346789509058,0.01730360150039196
1684200480548328200,7.768328125,-1.3200922728441655,0.11899170560538769,0.4909527946293354
1684200480558353200,7.778353271484375,-1.3629986637651919,0.18460954841971397,1.0830541796594857
1684200480568379100,7.788379150390625,-0.9499199669331312,0.43792146166563034,1.261366673761606
1684200480578405000,7.798405029296875,-0.10953918293155729,0.5927180556237698,0.9516989593043923
1684200480588430000,7.80843017578125,0.3860850375749171,0.5822223805725574,0.6043155544370412
1684200480598456000,7.8184560546875,0.2567653416354209,0.3718009300261736,0.2949807251960039
1684200480608482000,7.82848193359375,0.09303308848440646,0.2287701771855354,-0.2049737065345049
1684200480618508000,7.838508056640625,-0.23302681171670556,0.09726970314085483,-0.46714375675767655
1684200480628533200,7.848533203125,-0.5316828644245862,-0.10569149452745914,-0.6497773289293051
1684200480638559000,7.85855908203125,-0.6053459934633225,-0.20442308691442013,-0.8724661403745412
1684200480648585200,7.868585205078125,-0.6677595603436232,-0.26535306417346,-0.9999176312893628
1684200480658610200,7.878610107421875,-0.8534405373871325,-0.35778584867715835,-0.9589259879484772
1684200480668636400,7.888636474609375,-1.1108804903484881,-0.39036709880828857,-0.9453761860236525
1684200480678662400,7.898662353515625,-1.3530078694961964,-0.32552140941023827,-1.0294202046275138
1684200480688687400,7.908687255859375,-1.5084572282746433,-0.24420740029215812,-1.193698912680149
1684200480698713300,7.91871337890625,-1.4830015922397375,-0.17108721902370452,-1.3826155106440186
1684200480708739300,7.9287392578125,-1.4395968964077532,-0.08908639668524265,-1.355536949582398
1684200480718765300,7.938765380859375,-1.288390874287486,-0.0538660302221775,-1.3048039566889404
1684200480728790300,7.948790283203125,-0.7918225778639316,-0.016322189247608185,-1.1756938849121332
1684200480738816300,7.958816162109375,-0.1617708168849349,0.11946458381414413,-0.7923644296556711
1684200480748842200,7.96884228515625,0.47884033203125,0.21861644743978975,-0.42079000186175103
1684200480758867200,7.9788671875,0.7602420292079448,0.3449731288552284,0.15140461343228817
1684200480768893200,7.98889306640625,0.6710369745790958,0.1999263600170612,0.5184405210137367
1684200480778919200,7.998919189453125,0.25399711903110145,0.011937106031179428,0.8043015356868505
1684200480788944100,8.008944091796875,-0.2069498289130628,-0.22523089714348316,0.9035811173453927
1684200480798970000,8.01897021484375,-0.5223975880764424,-0.48663551595211024,0.924259748236835
1684200480808996000,8.02899609375,-0.5517896867774427,-0.7615747391164303,0.8891086476176977
1684200480819021300,8.039021240234375,-0.28496012031063434,-0.9163824389904737,0.819895702920854
1684200480829047300,8.04904736328125,0.31318346749320625,-0.9160977768301963,0.7295876554861664
1684200480839073300,8.0590732421875,1.059942768663168,-0.8112363033860921,0.7367302207171916
1684200480849099300,8.069099365234376,1.5988417019464074,-0.6333990255802869,0.7583624990716576
1684200480859124200,8.079124267578125,1.785584609133005,-0.4428957429468631,0.8513158003181218
1684200480869150200,8.089150146484375,1.4464851946167647,-0.3071153996258974,1.0069985294610262
1684200480879176200,8.09917626953125,0.7341016257792711,-0.3455564817011356,1.2028715224340558
1684200480889201200,8.109201171875,0.06596314912065863,-0.536075546425581,1.3854469346776603
1684200480899227100,8.11922705078125,-0.31244960026070473,-0.6832797855585813,1.4545397601261734
1684200480909253000,8.129253173828126,-0.3773129714459181,-0.688123718458414,1.5097943220973014
1684200480919278000,8.139278076171875,-0.18592369975820183,-0.6491939760833978,1.5210434458643196
1684200480929304000,8.149303955078125,0.16580270274952053,-0.623784809538722,1.4983520138457416
1684200480939330000,8.159330078125,0.6654249799162149,-0.6076163495481014,1.4421671852871776
1684200480949355000,8.16935498046875,1.1450474022358654,-0.6756628808140754,1.286102763350308
1684200480959381000,8.179381103515626,1.5452257009625434,-0.7627958053439855,1.0371922999337315
1684200480969407200,8.1894072265625,1.7502808021701872,-0.6547954493522644,0.8758169121071696
1684200480979433200,8.19943310546875,1.727836769041419,-0.367255103290081,0.9073854780644178
1684200480989458400,8.20945849609375,1.407844352185726,-0.2156739642471075,1.0501499811843038
1684200480999484400,8.219484375,0.9067338822878896,-0.29099662399590015,1.1782701651409269
1684200481009510400,8.229510498046874,0.4281868341147899,-0.4643552950829267,1.2492448588132858
1684200481019535400,8.239535400390626,0.032863135812431575,-0.6633475891202688,1.23181792319417
1684200481029561300,8.249561279296875,-0.21651202250644563,-0.7615934438169002,1.1525389270350337
1684200481039587300,8.25958740234375,-0.30668913703784345,-0.7516209158569573,1.0628715155914426
1684200481049612300,8.2696123046875,-0.34582200076952574,-0.669898910459876,1.1290870320379733
1684200481059638300,8.27963818359375,-0.37406697526201604,-0.5113724823236465,1.3783137217968702
1684200481069664300,8.289664306640624,-0.448642177644372,-0.2999164280325174,1.6994328045949338
1684200481079690200,8.299690185546876,-0.541897968968749,-0.015296937853097915,2.1193997996360063
1684200481089715200,8.309715087890625,-0.4676625199347734,0.3043599634379148,2.4924434231996533
1684200481099741200,8.3197412109375,-0.17358181231841444,0.6096861415594815,2.7061992788657543
1684200481109767200,8.32976708984375,0.3714782739430666,0.958659738227725,2.7327532315313814
1684200481119792000,8.339792236328124,1.1069326295055448,1.3358598969489335,2.623533270616829
1684200481129818000,8.349818115234376,2.0770546958595513,1.6736872457027434,2.254652319690585
1684200481139844000,8.359843994140626,3.271501796558499,2.0119728596180675,1.7492480981215834
1684200481149869300,8.369869384765625,4.666086269676685,2.284362398299575,1.2899141383320092
1684200481159895300,8.379895263671875,6.539668311214447,2.3135949225246906,1.220913082820177
1684200481169921300,8.38992138671875,7.27950877290666,1.8765642722189426,1.6649071423977613
1684200481179947300,8.399947265625,5.736112040936947,1.2201216401815413,1.9763573563575743
1684200481189972200,8.40997216796875,3.2187890280246734,0.6884732625484467,1.5099600340530275
1684200481199998200,8.419998291015625,0.9319068289238959,0.38554771582782266,1.2888763197168707
1684200481210024200,8.430024169921875,-1.024969581894204,-0.12186579973697662,0.9831675720185041
1684200481220049200,8.440049072265625,-2.3169845649629828,-0.5910860705077647,0.3690022392183542
1684200481230075100,8.4500751953125,-2.7465111232489345,-0.8462392277061939,-0.11131108797490596
1684200481240101000,8.46010107421875,-2.6787650362342594,-0.6060638594090938,-0.08555529994964599
1684200481250126300,8.470126220703126,-2.8638071308523414,-0.07794424042403697,-0.3783987208560109
1684200481260152300,8.48015234375,-3.084699706530571,0.8951678015261888,-0.7589666024446488
1684200481270178600,8.490178466796875,-3.371991046267748,1.985110571655631,-0.8040905232846737
1684200481280204500,8.50020458984375,-3.615782266974449,2.995580576619506,-0.66597501501441
1684200481290229500,8.5102294921875,-3.3023581225931644,3.8085219303578137,-0.40413960357308387
1684200481300255500,8.52025537109375,-2.799054380434751,4.053467581796646,-0.14468670335412023
1684200481310281500,8.530281494140626,-2.1176094090878963,3.5219477989792822,0.1881277856737375
1684200481320306400,8.540306396484375,-1.6216718117833138,2.602405434653163,0.35190731203258035
1684200481330332400,8.55033251953125,-1.7926222526848314,1.567306015345454,0.8286398581296205
1684200481340358400,8.5603583984375,-1.4712649772167206,0.7474135272949933,1.4950328062951563
1684200481350383600,8.570383544921874,-1.2374714189112186,0.45232525007128715,1.5313409679949284
1684200481360409600,8.58040966796875,-1.2593163171030581,0.4319879799634218,1.1330541821032762
1684200481370435600,8.590435546875,-1.2874587080039084,0.30616438251137734,0.20166297455132007
1684200481380461600,8.600461669921875,-1.2129182846739888,0.5573772776514292,-0.5109124635964631
1684200481390486500,8.610486572265625,-1.3754761602833867,0.7588064434468745,-1.411477740252018
1684200481400512500,8.620512451171875,-1.55527509355098,1.032249290573597,-2.2241268330454824
1684200481410538500,8.63053857421875,-1.646502740048617,1.1256535504579543,-2.9642338367193934
1684200481420563500,8.6405634765625,-1.683493331054598,1.094840479043126,-3.279064340767264
1684200481430589400,8.65058935546875,-1.6538381975032388,1.0961772806048393,-3.0436949114471674
1684200481440615400,8.660615478515625,-1.1839249760322272,1.0244283876895903,-2.6577181565523147
1684200481450640400,8.670640380859375,-0.7581292748376727,0.9088841921895742,-2.863409071445465
1684200481460666400,8.680666259765625,-0.5895215976700187,0.7171621814161538,-3.3020383891195055
1684200481470692400,8.6906923828125,-0.5059808524131775,0.5903226849198341,-3.5166450163960454
1684200481480718300,8.70071826171875,-0.6180635092824697,0.550616697475314,-3.462392617204785
1684200481490743300,8.710743408203125,-0.832719528658688,0.44004035351574416,-3.3518659576058387
1684200481500769300,8.720769287109375,-1.3704349512457847,0.18409633820056914,-3.257876006788015
1684200481510795300,8.730795166015625,-1.7193100559756158,-0.11694120281636715,-3.12696239272058
1684200481520820500,8.740820556640625,-1.4878890720203517,-0.32530513631105423,-2.9256752657443283
1684200481530846500,8.750846435546874,-0.955539560380578,-0.44199265662729736,-2.6260142737776038
1684200481540872400,8.76087255859375,-0.5339516861394047,-0.6182318515866995,-2.24942084877789
1684200481550897400,8.7708974609375,-0.6400163978934288,-0.835707312297821,-1.745352551987767
1684200481560923400,8.78092333984375,-1.1646437908485532,-1.054371690532565,-1.1446183631688356
1684200481570949600,8.79094970703125,-1.6753019874230026,-1.2411182509809733,-0.5913379994422197
1684200481580975600,8.8009755859375,-2.1045944446921347,-1.3817144701510666,-0.38466801038384435
1684200481591000600,8.81100048828125,-2.282676344908774,-1.5356827965915203,-0.4500321706980467
1684200481601026600,8.821026611328126,-2.1601161331668495,-1.7425579528331756,-0.7017115143060684
1684200481611052500,8.831052490234375,-1.8282887554801999,-2.0361235505342483,-1.017124202156067
1684200481621077500,8.841077392578125,-1.452026608261466,-2.288871400156617,-1.314912970510125
1684200481631103500,8.851103515625,-0.9553329318925737,-2.2866882108986375,-1.5858073021978139
1684200481641129500,8.86112939453125,-0.44802901418209073,-1.9879232909888027,-1.7172124991744755
1684200481651154400,8.871154541015626,-0.1093792431294918,-1.450717279228568,-1.7233511480599641
1684200481661180400,8.881180419921876,0.14194091177731752,-0.8034440420746802,-1.6898679806530474
1684200481671206400,8.891206298828125,0.3331190249323845,-0.18993103570342063,-1.5650526834607124
1684200481681232400,8.901232421875,0.4444854963563382,0.16585457906723022,-1.3532657897800207
1684200481691257600,8.911257568359375,0.3945684960208833,0.1462748493283987,-1.1327397093266247
1684200481701283300,8.921283447265624,0.190550482776016,-0.11293898143768309,-1.0452952346295117
1684200481711309300,8.931309326171874,-0.08246434819698334,-0.4489145648449659,-1.066807393735647
1684200481721334500,8.94133447265625,-0.26230200603976844,-0.6601333032488823,-1.1347300063610075
1684200481731360500,8.951360595703125,-0.30894210359640417,-0.6425017849683762,-1.202037117436528
1684200481741386500,8.961386474609375,-0.3157960611443966,-0.5152513695836067,-1.2659855657339096
1684200481751411500,8.971411376953125,-0.2584007608175278,-0.17948621405661105,-1.3220271864295006
1684200481761437400,8.9814375,-0.34052846093866973,0.23796236842274665,-1.3268956692487002
1684200481771463400,8.99146337890625,-0.5161258143305778,0.8084136471807957,-1.1942314121216535
1684200481781489400,9.001489501953126,-0.3363502619385719,1.4734575188249348,-0.8980155921727418
1684200481791514400,9.011514404296875,0.04611698699798435,1.8141636378854513,-0.7532230903565883
1684200481801540400,9.021540283203125,0.5141378188511356,2.241945982852578,-0.5432195729613304
1684200481811566300,9.03156640625,1.772803453493118,4.026348688724637,0.01761690523326397
1684200481821591300,9.04159130859375,5.29917316056788,8.062695624372363,2.174440134334564
1684200481831617300,9.0516171875,4.920205407652259,11.579474496281147,6.349534446415305
1684200481841643500,9.0616435546875,-0.6524468403995036,10.096531940752268,8.615127262315154
1684200481851668500,9.07166845703125,-2.7121967657148836,4.877797175511717,8.111316155156493
1684200481861694500,9.081694580078125,-2.22211724678874,-0.024758593681454655,5.322131426829099
1684200481871720400,9.091720458984375,-1.5031746116966007,-3.749590433439612,2.089750511303544
1684200481881746400,9.101746337890624,0.35876492284238337,-6.511880725100636,-0.34647768819928165
1684200481891771600,9.111771728515626,4.8522506463229655,-7.927920074179768,-2.735122883272171
1684200481901797600,9.121797607421875,6.102116851904988,-6.6125482539862395,-4.213255408170819
1684200481911823600,9.13182373046875,1.8543162000536917,-4.768150221356749,-3.246324392943084
1684200481921848600,9.1418486328125,-1.6171031886935232,-2.836843720602989,-2.236056924813986
1684200481931874600,9.15187451171875,-2.7125498169362543,-0.4592570951610803,-1.9168559505969285
1684200481941900500,9.161900634765624,-3.324085970276594,2.0023627352297306,-1.0106967994570732
1684200481951926500,9.171926513671876,-3.4645062483578917,3.9540450845360753,0.0024409634113311766
1684200481961951500,9.181951416015625,-3.1111434768199917,4.5062598648577925,0.5054910230696201
1684200481971977500,9.1919775390625,-2.600519182515144,3.8996225894749164,0.6993211120381951
1684200481982003500,9.20200341796875,-1.9388129308611153,2.1253648455202576,0.392380484457314
1684200481992028400,9.2120283203125,-1.161816093141958,-0.2059007582515478,-0.21372136887460946
1684200482002054400,9.222054443359376,0.28756328854635355,-1.7086217809617519,-0.6250742648273706
1684200482012080400,9.232080322265626,3.3267893840163945,-2.3358412411242724,-0.8989695318967104
1684200482022105300,9.242105224609375,5.8693543902128935,-1.977178609612584,-0.9953139368861913
1684200482032131300,9.25213134765625,4.1317455842196935,-1.2756219936072826,-0.7597606754317879
1684200482042157300,9.2621572265625,1.2725135061979294,-0.6174544374734163,-0.4665373152971267
1684200482052183300,9.272183349609374,-0.2332784483902156,0.16736498363018035,-0.08452887951135635
1684200482062208500,9.28220849609375,-1.2573077537596224,0.9339601812571287,0.6348381184726953
1684200482072234500,9.292234375,-1.6806220134019851,1.2802578367143869,1.1254930991992353
1684200482082260500,9.302260498046875,-1.5553823533177376,1.2464140193015336,1.3455559460550546
1684200482092285400,9.312285400390625,-1.0661059674680233,1.0254086308985948,1.3416288357391952
1684200482102311400,9.3223115234375,-0.12660101156532763,0.6346662690371274,1.1792033543378113
1684200482112337400,9.33233740234375,0.3937900589942932,0.11535948658287525,0.997358594456315
1684200482122362400,9.3423623046875,0.16627200076170265,-0.2930377744346857,0.8066197495013475
1684200482132388400,9.352388427734375,-0.6222620569508522,-0.4870651395410299,0.7746703675329685
1684200482142414600,9.36241455078125,-1.1892600534498692,-0.4317307903319597,0.568925676625967
1684200482152440600,9.372440673828125,-1.2265116334795951,-0.34220892483890053,0.236490250043571
1684200482162465500,9.382465576171874,-0.9144523477107286,-0.21500760929286478,-0.03977116163522005
1684200482172491500,9.392491455078124,-0.3584382481712848,-0.010607318732142448,-0.3874827755436301
1684200482182517500,9.402517578125,0.08410561259798705,0.2992845598697662,-0.533710570859909
1684200482192542500,9.41254248046875,0.3161380795150995,0.4960334588944912,-0.7601382765725254
1684200482202568400,9.422568359375,0.38325397886745627,0.5837918218463659,-1.000939375552535
1684200482212594400,9.432594482421875,0.275879134362936,0.48741643719673156,-1.2556231616735458
1684200482222619600,9.44261962890625,-0.06550144989304243,0.14364859247803688,-1.3196543198183177
1684200482232645600,9.452645751953124,-0.4354553638130426,-0.3441372625529766,-1.161137536293268
1684200482242671600,9.462671630859376,-0.737863608661294,-0.6763204679399728,-1.1115165962949394
1684200482252697900,9.47269775390625,-1.0877058048576116,-0.7934358582794666,-1.0485141966760159
1684200482262723000,9.48272314453125,-1.4050941766947507,-0.6347264747917651,-0.9518453820377588
1684200482272749000,9.4927490234375,-1.5802210264980792,-0.35284897679686544,-0.6348226286426186
1684200482282775000,9.502775146484375,-1.5617631403960286,-0.05917524254620075,-0.002261222930252552
1684200482292800000,9.512800048828124,-1.1527128222972154,0.10489829832315445,0.45593730308860536
1684200482302826000,9.522825927734376,-0.3488115379743278,0.19025778343975544,0.7466659237980842
1684200482312852000,9.53285205078125,0.6273176598399877,0.1170125144869089,0.8223354972884058
1684200482322878000,9.5428779296875,1.4083680837988852,-0.048043023157119745,0.6587570464596152
1684200482332903000,9.55290283203125,1.4771259782046078,-0.14040683407783508,0.4845227615818381
1684200482342929000,9.562928955078124,0.9194325472760945,-0.17353519669771195,0.4346791187435388
1684200482352955000,9.572954833984374,0.284271699655056,-0.36680560595691203,0.373898194566369
1684200482362979800,9.582979736328125,-0.15528350069224833,-0.6344815601199865,0.2748509603589773
1684200482373005800,9.593005859375,-0.3715881640583277,-0.6698246761798858,0.17955986381471156
1684200482383031800,9.60303173828125,-0.3566851939588785,-0.39729076059162616,0.2976864770233631
1684200482393056800,9.613056884765625,-0.010356485776230693,-0.2993038490921259,0.361453139013052
1684200482403082800,9.623082763671874,-0.049043067045137285,-0.33833412923216816,0.12001461891233921
1684200482413108700,9.633108642578126,-0.33172143309414387,-0.4374567667633295,-0.013353402569890021
1684200482423134700,9.643134765625,-0.4211879151381552,-0.49164253045916556,-0.21429332354366779
1684200482433160000,9.653159912109375,-0.3109318891741335,-0.429842784628272,-0.3629810792326927
1684200482443186000,9.66318603515625,-0.11049567993879318,-0.31564298947453495,-0.4420999163940549
1684200482453212000,9.6732119140625,0.06693769324123859,-0.2529442489773035,-0.3803846339762211
1684200482463236900,9.68323681640625,0.22171032180190084,-0.27594869246780873,-0.27393004612177607
1684200482473262800,9.693262939453126,0.4081919477038085,-0.31964871798455713,-0.16512158861756324
1684200482483288800,9.703288818359376,0.5535768624551594,-0.2675824306607246,-0.14238017997741698
1684200482493315000,9.713315185546875,0.6729349171549082,-0.05497837537825107,-0.04599252036809921
1684200482503339800,9.72333984375,0.8184031262755393,0.018608254358172416,-0.04004004170447588
1684200482513366000,9.733365966796875,0.9257352276168763,0.016211130088567734,-0.10815554655343293
1684200482523392000,9.74339208984375,0.9797687233604491,0.049423663860559464,-0.09202917213886976
1684200482533417000,9.7534169921875,1.0618069550998508,0.08368892155587673,-0.012250409764051437
1684200482543443000,9.76344287109375,1.095477754033357,0.10505611923336983,0.08554507081657647
1684200482553469000,9.773468994140625,1.0186702625542878,0.02495090138316154,0.21616437811255454
1684200482563494000,9.783493896484375,0.806183257780224,-0.0774941585689783,0.454440342529118
1684200482573520000,9.793519775390624,0.49610316312983627,-0.18854104264974594,0.743902304303646
1684200482583545900,9.8035458984375,0.14154752854555844,-0.2754465881645679,0.9360495547518134
1684200482593571800,9.81357177734375,-0.06452171814069152,-0.2951818007260561,0.9867404620692133
1684200482603596800,9.8235966796875,-0.0013828326605260371,-0.23483751440048217,0.9718637954548001
1684200482613622800,9.833622802734375,0.3950404974468052,-0.25665187132358547,0.7412211023956536
1684200482623648800,9.843648681640625,1.0457651902288199,-0.22551088312864304,0.42362990146279333
1684200482633674000,9.853674072265624,1.675415092408657,-0.155293437564373,0.10525076502263546
1684200482643700000,9.863699951171874,1.9717304272092877,-0.1592278544038534,-0.20391659869700668
1684200482653726000,9.873725830078126,1.8445698820650576,-0.24894962638318538,-0.31355127789229154
1684200482663751000,9.8837509765625,1.4026416689760983,-0.3506985207647085,-0.01447714590281248
1684200482673777000,9.89377685546875,0.8971740267820656,-0.4418476951986551,0.44424335816353555
1684200482683803000,9.903802978515625,0.45852731958180665,-0.4153115704506635,0.8160787749812006
1684200482693828900,9.913828857421874,0.15496566691473126,-0.23997896894216536,1.0482406404316424
1684200482703853800,9.923853759765626,0.03423077090382576,-0.06010404782891273,1.2082353875547647
1684200482713879800,9.9338798828125,0.0353321562744677,0.07356149529516696,1.2710308664247394
1684200482723905800,9.94390576171875,0.13643924562111495,0.15823650527894495,1.3735425618723034
1684200482733930800,9.9539306640625,0.19916648156046865,0.2054343097835779,1.5641557346209882
1684200482743956700,9.963956787109375,0.16488018107712268,0.18205401871800422,1.824585663178563
1684200482753982700,9.973982666015624,-0.004987725284695625,0.2280833639651537,2.0951029782474038
1684200482764008700,9.9840087890625,-0.2971130610495806,0.5328495701164007,2.5170441959708927
1684200482774033700,9.99403369140625,-0.5814039037965237,1.2499690814346074,3.112284755809605
1684200482784059600,10.0040595703125,-0.7411039057567715,2.108465148645639,3.6674662769824264
1684200482794086000,10.0140859375,-0.5980354512542486,2.768252414935827,3.8686651411533353
1684200482804110800,10.02411083984375,0.3843132055968046,3.075798022672534,3.695372521039843
1684200482814137000,10.03413720703125,2.501424602034688,2.813091089093685,3.203578599411249
1684200482824163000,10.0441630859375,4.5629374453693625,2.0533821438491344,2.825385045738518
1684200482834188000,10.05418798828125,7.5918796088427305,1.2424404394954442,2.887723136229813
1684200482844214000,10.064214111328125,12.744743433290719,0.984713632416725,3.5039483241692184
1684200482854240000,10.074239990234375,8.23704155293107,1.3243933310389517,2.4077532156467436
1684200482864266000,10.084265869140625,1.7321086011417208,1.4527794724553822,-0.05023147311210632
1684200482874291000,10.094291015625,-1.0239501757185905,1.431006032064557,-2.4484964371845126
1684200482884317000,10.10431689453125,-3.148529496884346,0.9550339489459991,-3.074171298253536
1684200482894343000,10.114343017578125,-3.205044580310583,0.5051888252526522,-2.6090543711483476
1684200482904367900,10.124367919921875,-1.5570347966998814,0.7944728001117706,-2.214616369639337
1684200482914393900,10.134393798828125,-1.3965671713680028,1.2352584190368652,-1.9104887536525725
1684200482924419800,10.144419921875,-2.5883681414723396,1.490734816840291,-1.9447493351727723
1684200482934444800,10.15444482421875,-4.0945653158605095,2.141591757699847,-2.1528689385175706
1684200482944470800,10.164470703125,-5.259862309920788,3.2928853608489033,-1.7840999235332011
1684200482954496800,10.174496826171875,-4.2608021722435945,4.717192772057652,-0.8396504969656466
1684200482964522800,10.184522705078125,-3.5553041251361366,5.365580107933282,0.5813309846907854
1684200482974548000,10.1945478515625,-3.15892814130187,4.717354684621095,2.350452534800768
1684200482984574000,10.204573974609374,-2.7695044608235357,3.012463906881213,3.158212101987004
1684200482994600000,10.214599853515624,-2.754863356530666,1.4908996520131825,3.245144535508752
1684200483004625000,10.224625,-3.0341011536717413,0.4369365422815084,3.5353169836401936
1684200483014651000,10.23465087890625,-3.02701674836874,-0.28463293418288227,3.471582470354438
1684200483024676900,10.2446767578125,-2.5231077337935566,-0.673477937990427,2.833475120952725
1684200483034702800,10.254702880859375,-2.51318927410841,-0.5888222172290086,1.462636265081167
1684200483044727800,10.264727783203124,-2.7120424519360062,-0.2581558461457491,-0.24747429313361644
1684200483054753800,10.27475390625,-2.982672579729557,0.0022936638951301575,-1.978635238161683
1684200483064779800,10.28477978515625,-3.0537635932579636,0.06812953337430953,-3.4278871210128066
1684200483074804700,10.2948046875,-2.872853191617131,0.13444587984681128,-4.222440000623465
1684200483084830700,10.304830810546875,-2.3570193459704516,0.2796007852345705,-4.474488762065768
1684200483094857000,10.31485693359375,-1.8561387393057345,0.4951730426728725,-4.496804054248333
1684200483104881700,10.324881591796874,-1.707998680627346,0.617962386995554,-4.457750393232703
1684200483114908000,10.334907958984376,-1.4104407984197138,0.5811275710731745,-4.544807914438843
1684200483124934000,10.344933837890625,-1.3595233888700604,0.5059247383117675,-4.7163405391424895
1684200483134959900,10.3549599609375,-1.6669234506562352,0.37658582621514797,-4.659488771107792
1684200483144985000,10.364985107421875,-1.7924881049111485,0.07659048772752285,-4.35023811301887
1684200483155010800,10.3750107421875,-1.724380491107702,-0.3439847023397684,-3.8838837530732153
1684200483165036800,10.385036865234374,-1.5209361860975623,-0.7629583024293184,-3.3258816215217113
1684200483175062000,10.39506201171875,-1.2036734864667058,-1.1069897665202617,-2.783299177420139
1684200483185088000,10.405087890625,-0.721272247083485,-1.2830296395152807,-2.3238749089986084
1684200483195114000,10.415114013671875,-0.4370072694301605,-1.2366542573094368,-1.8222119197845459
1684200483205140000,10.425139892578125,-0.5110176775366068,-0.9796686239868402,-1.3183230712145566
1684200483215165000,10.4351650390625,-0.8307479363247752,-0.6145552089005708,-1.2045061378985642
1684200483225191000,10.44519091796875,-1.345913381190598,-0.24469079989492892,-1.4661492416381836
1684200483235217000,10.455216796875,-1.6673758705988526,-0.10631751747131347,-1.9787369449704884
1684200483245241000,10.465240966796875,-1.5555670622348785,-0.38375031101703644,-2.6885692218899724
1684200483255267000,10.47526708984375,-1.349501468810439,-0.7230325347542762,-3.117474433407187
1684200483265293300,10.485293212890625,-1.0806585166946052,-1.0068687656015156,-3.2763001367509363
1684200483275319300,10.4953193359375,-0.7276248309805989,-1.221638474485278,-3.324308088594675
1684200483285344300,10.50534423828125,-0.46405017465651033,-1.367799342045188,-3.1790619977921244
1684200483295370200,10.515370361328126,-0.27249329131692646,-1.395871005797386,-2.752558586719632
1684200483305396200,10.525396240234375,-0.035019144802540536,-1.262343994361162,-1.9871791946232318
1684200483315421400,10.53542138671875,0.07881926969289779,-0.9067296445041895,-0.9695166478067636
1684200483325447400,10.545447509765625,0.10449249400123953,-0.4403080645412206,0.04536357481479644
1684200483335473400,10.555473388671874,0.06719532126411795,0.03581014904975891,0.9374801720768213
1684200483345499400,10.56549951171875,-0.07764101969376205,0.36696810304224486,1.503062383493781
1684200483355524400,10.5755244140625,-0.20849661996364593,0.5111392580896615,1.7450526922583578
1684200483365550300,10.58555029296875,-0.3169618169881403,0.4552940367490053,1.8320663743227719
1684200483375576300,10.595576416015625,-0.3616891397260129,0.14572773683965207,1.845681058177352
1684200483385601300,10.605601318359374,-0.6038672261476516,-0.009268179082870483,1.918931003305316
1684200483395627300,10.615627197265624,-1.0433047914646565,-0.1862678370207548,1.9407985517203807
1684200483405653200,10.6256533203125,-1.3232804013609885,-0.2409095277905464,1.8390332907259463
1684200483415678200,10.63567822265625,-1.3877216016113758,-0.20467852298021316,1.579573960766196
1684200483425704200,10.6457041015625,-1.1070167275924234,-0.18051321901679038,1.203850304338336
1684200483435730200,10.655730224609375,-0.41228659660629924,-0.13233517130315303,0.7367179457575083
1684200483445756200,10.665756103515625,0.3018962036728859,-0.04479366597235203,0.18495616990029812
1684200483455781000,10.675781005859376,1.0618377886295318,-0.10397709182500839,-0.3287619987666607
1684200483465807000,10.68580712890625,1.743568006658554,-0.2510147422194481,-0.6979080303698778
1684200483475833000,10.6958330078125,2.1077800889909266,-0.45745150704383847,-0.8999977059006691
1684200483485858300,10.7058583984375,2.264468195784092,-0.7093126369595527,-1.0572177276134491
1684200483495884300,10.71588427734375,2.32109316932559,-0.7093003619998693,-1.162288459894061
1684200483505910300,10.72591015625,2.60990777310729,-0.17759470122158527,-1.4321978721976278
1684200483515936300,10.735936279296874,2.747195013859868,0.7646312040776014,-1.7876251750499008
1684200483525961200,10.745961181640626,2.669579274737835,1.9066449377059935,-1.9106658637851475
1684200483535987200,10.7559873046875,2.791748441335559,3.255132845559716,-1.726933682721853
1684200483546013400,10.766013427734375,3.137941467374563,4.75447766983509,-0.9360574457973241
1684200483556038100,10.7760380859375,3.3807425080001354,5.895157524511218,0.9856155496925115
1684200483566064400,10.786064453125,2.8222020317882297,5.795332291668653,3.793865920756757
1684200483576090400,10.79609033203125,1.5111328772246837,4.248796677151322,5.459010086780786
1684200483586115300,10.806115234375,0.06591302636861801,2.9047119726926085,6.125694711369276
1684200483596141300,10.816141357421875,-1.6810960606545209,1.7694243324488401,6.584236936259269
1684200483606167300,10.826167236328125,-3.18265154671669,-0.0017447978407144546,5.598735368335246
1684200483616193300,10.836193359375,-3.5587867065548893,-2.4115882637649775,3.1837419723019003
1684200483626218200,10.84621826171875,-3.367961936882138,-4.2471039017587895,0.9878536840081215
1684200483636244200,10.856244140625,-2.566473705050349,-5.024775204673409,-0.20360183365941045
1684200483646270200,10.866270263671876,-0.934770913118124,-5.293495699453354,-0.8464017247915268
1684200483656295400,10.87629541015625,1.2980325628578662,-5.063106981155276,-0.967980816541612
1684200483666321200,10.886321044921875,2.2803385496109723,-3.7191660690814254,-1.0490151319354772
1684200483676347100,10.89634716796875,1.2271113529384134,-1.7134715590804814,-0.9603492987498641
1684200483686373000,10.906373046875,0.32522030757181347,0.4977870245635509,-0.6597144933149218
1684200483696398300,10.9163984375,-0.1627261448483914,2.438709494924545,-0.5109884514421225
1684200483706424300,10.92642431640625,-0.44914303983859716,3.760661278030276,-0.6208277132987976
1684200483716450300,10.9364501953125,0.1246248161215335,4.145716241905093,-1.21141460211277
1684200483726475300,10.946475341796875,2.352632216927409,3.2288919043660163,-2.6019749342814085
1684200483736501200,10.956501220703124,3.68916840570271,1.824846944463253,-3.6528769028767942
1684200483746527200,10.96652734375,1.8119938926309347,0.5298614942163229,-3.4021602668210864
1684200483756553200,10.97655322265625,-0.4697294624019414,-0.5202104532957077,-2.46579857738018
1684200483766578200,10.986578125,-1.8547563450366258,-1.1263491315066814,-1.5770347976773977
1684200483776604200,10.996604248046875,-3.0578707363158464,-1.0880915893048047,-0.6073667587012053
1684200483786630100,11.006630126953125,-3.2488013044506308,-0.15936170991659163,0.09329816916137933
1684200483796655000,11.016655029296874,-1.981872904908657,0.6394447354853153,0.23138006742298603
1684200483806681000,11.02668115234375,-1.0274421825528144,0.9998580100566148,0.41530104905664916
1684200483816707000,11.03670703125,-0.7014420497149229,0.7808002485901117,0.482764227476716
1684200483826732000,11.04673193359375,-0.4897749830216169,0.15202245306968687,0.25057167462706564
1684200483836758000,11.056758056640625,-0.6240460908234119,-0.27873686188161373,0.20567717862874269
1684200483846784300,11.0667841796875,-0.8272890280425548,-0.38367023151814933,0.1473231893375516
1684200483856810200,11.076810302734375,-0.9305407282024621,-0.3638052550971508,0.09361614906936884
1684200483866835500,11.08683544921875,-0.9198141670048237,-0.23986966334879398,0.15466244618445635
1684200483876861400,11.096861328125,-0.7137234391391277,-0.2317342876881361,0.1662406557753682
1684200483886887400,11.106887451171875,-0.6586234832078218,-0.27761984055042266,0.1810775749012828
1684200483896912400,11.116912353515625,-0.6523883151452988,-0.19989479583501815,0.27233751623332497
1684200483906938400,11.1269384765625,-0.8310089253485202,-0.16859540220797062,0.41820056989043947
1684200483916964400,11.13696435546875,-1.0020821158468722,-0.26240473576188084,0.43923926626592874
1684200483926990300,11.146990234375,-1.130960863085836,-0.35327743134200573,0.40979748320430515
1684200483937015300,11.157015380859375,-1.2180822433084249,-0.49523675555884833,0.4648492160797119
1684200483947041300,11.167041259765625,-1.1408639790713786,-0.5488736532002687,0.6244771757170557
1684200483957067300,11.1770673828125,-0.9066588442903012,-0.458435257384181,0.8397884441316127
1684200483967092200,11.18709228515625,-0.5256446802388877,-0.28529987365901466,0.9753054603412746
1684200483977118200,11.1971181640625,-0.13033311076574028,-0.10562661259770392,1.0137266686722635
1684200483987144200,11.207144287109376,0.15766542739272116,0.14566694656312465,0.9312959304839372
1684200483997170200,11.217170166015626,0.46881519710123537,0.40197453449368475,0.804468416686356
1684200484007195100,11.227195068359375,0.7833481795072555,0.5502414344221354,0.690177143856883
1684200484017221000,11.23722119140625,1.036632035702467,0.5577180539131165,0.38100568848401306
1684200484027247000,11.2472470703125,1.0310535049177705,0.40927345933020115,-0.05195289007723331
1684200484037272300,11.257272216796874,0.9005530747611075,0.11213058766424655,-0.26672669061422344
1684200484047298300,11.26729833984375,0.659439037374407,-0.17856617660224436,-0.26262071660012004
1684200484057324300,11.27732421875,0.14524492175877093,-0.5310322915613651,-0.34019057075381276
1684200484067350300,11.287350341796875,-0.442640964468196,-0.8117536052584647,-0.36688743902146814
1684200484077375200,11.297375244140625,-0.9392757502567023,-0.9456558797478676,-0.20403174950927494
1684200484087401200,11.307401123046875,-1.3787363311231136,-0.9315653950750827,0.02704319748729467
1684200484097427200,11.31742724609375,-1.5987661524921655,-0.8654752585738896,0.07984978178441524
1684200484107452200,11.3274521484375,-1.669001133713126,-0.8535749774217605,0.07144318796694278
1684200484117478100,11.33747802734375,-1.682654980534315,-0.8148357891827821,0.12504822916537522
1684200484127504400,11.34750439453125,-1.6268834089517592,-0.5948164892077445,0.2748313788756728
1684200484137530400,11.3575302734375,-1.2324959685862065,-0.11560907742977142,0.3061068071052432
1684200484147555300,11.367555419921874,-0.5873602549176663,0.3806342248231172,0.27845161519944667
1684200484157581300,11.377581298828124,0.17461071697473524,0.6328004751652478,0.13063128999471663
1684200484167607300,11.387607177734376,1.0359224261283875,0.6136252345740795,-0.2896703438282013
1684200484177632300,11.39763232421875,1.7925279985301195,0.5063800808638333,-0.7092302193731069
1684200484187658200,11.407658203125,2.1999603600382804,0.41639761212170123,-0.9726111066907643
1684200484197684200,11.417684326171875,2.2104361613452435,0.3298158917337656,-1.1180892526835202
1684200484207709400,11.42770947265625,1.724380491107702,0.2666284909367561,-1.0118930235043166
1684200484217735200,11.437735107421876,1.1061502469561992,0.27262217839360237,-0.6401391474902629
1684200484227761200,11.44776123046875,0.4425666571229696,0.153835055449605,0.0076245035290718076
1684200484237787100,11.457787109375,0.060495677495002745,-0.017605799317359925,0.17266981204003096
1684200484247812000,11.46781201171875,0.08758074136264622,-0.5042909996300935,0.2587804077848792
1684200484257838000,11.477838134765625,0.6169769561547785,-1.1171645390540361,0.49587388441860675
1684200484267864300,11.4878642578125,1.340593501342088,-1.294664547729492,1.5500839546486735
1684200484277889000,11.497888916015626,0.695712566152215,-0.614422522431612,2.7462472116157413
1684200484287915300,11.507915283203126,0.9599760815232992,-0.4134977990269661,2.205866953733563
1684200484297941200,11.517941162109375,0.882373859469965,-0.383443437024951,1.2474904163613916
1684200484307967200,11.52796728515625,0.36461364887058734,-0.39509062019884583,-0.4672843342721462
1684200484317992200,11.5379921875,-0.2382388472765684,0.0359194546431303,-2.5036738422662017
1684200484328018200,11.54801806640625,0.6173007812816649,0.3610194237709045,-2.9532527162387967
1684200484338044200,11.558044189453126,0.8099597075790166,0.5833844100892543,-2.0325135433435437
1684200484348069000,11.568069091796875,0.5860486608624458,0.6599930179953575,-0.8084940189406276
1684200484358095000,11.57809521484375,0.5960832942731679,0.17903730124533176,0.40251609402447935
1684200484368121000,11.58812109375,0.7996540752071887,-0.17473346657156943,0.8180895302817225
1684200484378147000,11.59814697265625,1.0339258454836904,-0.3737251760870218,0.6641612435907125
1684200484388172000,11.608172119140624,1.247583793733269,-0.36923195632100103,0.6244575942337512
1684200484398198000,11.618197998046876,1.1299066047925501,-0.18942542426884174,0.8421560500457882
1684200484408224000,11.62822412109375,0.7981693165421485,0.12469313211739062,1.0584332408830524
1684200484418249200,11.638249267578125,0.31833712392933666,0.43325697698593135,1.3075459488734602
1684200484428275200,11.648275146484375,-0.17038002060241997,0.7307371177822352,1.6811667878031729
1684200484438301200,11.65830126953125,-0.7046388729948551,1.3486018896222114,2.1672063836887476
1684200484448327200,11.6683271484375,-1.1010919406533242,2.099628931239247,2.5890467713862657
1684200484458352000,11.67835205078125,-1.2415496281355618,2.4100796127676962,2.724740897728503
1684200484468378000,11.688378173828125,-1.3429039702415466,1.640439056095481,2.6932579642280934
1684200484478404000,11.698404052734375,-0.9119477444786578,0.64322191593647,2.10210379692018
1684200484488429000,11.708428955078125,0.6262193432092666,0.2615828979849815,1.002651440167427
1684200484498455000,11.718455078125,2.4682921477615833,-0.29590251621603963,0.856864082095027
1684200484508481000,11.72848095703125,3.8782144752651453,-0.553009730091691,0.8428656596198677
1684200484518507300,11.73850732421875,5.178261300554872,-0.30780688902139663,0.5486413057491183
1684200484528532000,11.748531982421875,6.4658355977624655,0.35872634439766404,0.42945524661540985
1684200484538558000,11.758557861328125,7.854511139097809,1.0387982738256454,0.8282774545580148
1684200484548584200,11.768584228515625,6.253105870273709,1.6873849316656588,1.101700135679543
1684200484558609000,11.77860888671875,2.729932328891754,2.737328868883848,1.3353203832447529
1684200484568635100,11.78863525390625,0.30075989311933515,3.2978011899411674,1.6789613867133855
1684200484578661000,11.7986611328125,-1.2650713734984398,3.1393472425192592,1.3963734023615717
1684200484588687000,11.80868701171875,-2.3663399858929215,2.3662083223372696,1.0961731889516115
1684200484598712300,11.81871240234375,-3.595683189536631,1.712694729489088,1.3429077696338294
1684200484608738300,11.82873828125,-5.069686944067477,0.685218060144782,2.37253533340171
1684200484618764300,11.838764404296874,-5.4829871746957295,-0.13000292896330357,3.0802856894806028
1684200484628789200,11.848789306640626,-5.693829481002688,-0.6168664084523916,3.0316356403410434
1684200484638815200,11.858815185546876,-5.621987649106979,-0.8718208282083273,1.7503249335728586
1684200484648841200,11.86884130859375,-5.554959354972839,-0.4326110802978277,0.8608281634204089
1684200484658866200,11.8788662109375,-6.195079797762632,0.25320436121821405,0.3958098743841052
1684200484668892200,11.88889208984375,-7.07784696739912,0.8551923494905233,-0.23683862508982417
1684200484678918100,11.898918212890624,-7.627329107886553,0.6955623440265655,-1.1154102427326142
1684200484688944000,11.908944091796876,-7.524164501488208,0.12326689870655536,-2.0987341743566095
1684200484698969000,11.918968994140625,-6.510593023377656,-0.2772562679350376,-2.9111908133178948
1684200484708995000,11.9289951171875,-5.022558113145828,-0.9027116410344839,-3.657526482248306
1684200484719021000,11.93902099609375,-3.4678020750328895,-1.1364724661141634,-4.074808475989103
1684200484729047000,11.949047119140625,-1.5741802850291131,-0.969030910116434,-4.519098303642869
1684200484739072000,11.959072021484374,0.26152327675223347,-0.7053887415140867,-4.6491909567162395
1684200484749098000,11.969097900390626,1.4814453027084469,-0.21850305019319055,-4.211528730508685
1684200484759124000,11.9791240234375,2.1483573063120245,0.11378244652450084,-3.678144322863221
1684200484769149200,11.989149169921875,1.420394037157297,-0.3485632623016834,-3.320609234076738
1684200484779175200,11.999175048828125,0.21014994012862442,-1.2536515693396328,-2.7030770551919936
1684200484789201000,12.009200927734375,-0.7036497888922691,-1.9073685758054255,-2.1600974284663796
1684200484799227100,12.01922705078125,-1.1764053941823542,-1.86828802678287,-2.2291836780436336
1684200484809252000,12.029252197265626,-1.5612475920893252,-0.4862602528989315,-3.2526609024882314
1684200484819278300,12.0392783203125,-1.6558381391488015,0.11170797833800315,-4.000663627848029
1684200484829304300,12.04930419921875,-1.477113557114452,-0.7118991463214158,-3.7335412159144874
1684200484839329300,12.059329345703125,-1.4340752103768288,-1.303778997555375,-2.9167563384905457
1684200484849355300,12.069355224609374,-1.254843409472704,-1.0464356368362904,-2.2657450838521123
1684200484859381200,12.07938134765625,-0.7308242115437984,-0.019633505752682686,-1.5076125941440461
1684200484869406200,12.08940625,0.02870017091408372,0.9535463407367467,-0.6586690759152174
1684200484879432200,12.09943212890625,0.6952817735195159,1.7657845146417617,0.4163111028820276
1684200484889458200,12.109458251953125,0.8565748898901044,1.1665391030758618,1.6163991320773958
1684200484899484200,12.119484130859375,1.5963362949967383,4.08979094106555,0.41338031012713905
1684200484909509000,12.129509033203124,1.3761911766849457,5.640948370164632,-1.4768557829611002
1684200484919535000,12.13953515625,0.7208554829761386,1.7539461928099394,-1.1699949426181613
1684200484929561000,12.14956103515625,-0.975220996928215,-1.6029349626094103,-0.27848522520810365
1684200484939586000,12.1595859375,-3.4569279220581053,-3.315225202950835,0.13466624459922313
1684200484949612000,12.169612060546875,-4.263345134724676,-3.453821188214421,-0.6277949219629169
1684200484959638000,12.179637939453125,-2.978334258264303,-2.4112638541162013,-1.4679942849829792
1684200484969664000,12.1896640625,-0.6831457839153706,-0.22680735267996788,-1.2088127490513025
1684200484979689200,12.199689208984376,-0.44439898711666465,-0.2863981902897358,0.7474209799490868
1684200484989715200,12.209715087890626,-0.5187294209577142,0.2786602895140648,1.6420977830879389
1684200484999741200,12.2197412109375,-0.035989158878475425,1.8374211793541908,1.0397218184113501
1684200485009766100,12.22976611328125,1.0733096152365207,2.1333763025403023,0.460382299798727
1684200485019792100,12.239792236328125,2.0082465325713157,1.8425521125018596,0.856125246426463
1684200485029818000,12.249818115234374,2.1383704575657845,1.4962263999938965,1.9120519113160668
1684200485039844000,12.259843994140626,2.633165899097919,2.417219547650218,2.191766532188654
1684200485049869000,12.269869140625,3.1972166631639003,2.7756144681364296,3.061349810603261
1684200485059895000,12.27989501953125,2.668930455440283,2.4083769005030393,2.476901570674777
1684200485069921000,12.289921142578125,0.7009644222658127,0.5592039085566998,1.0113980065289885
1684200485079946000,12.299946044921874,0.06532265926003455,1.8920605320364237,0.6139274323910474
1684200485089972000,12.309971923828124,0.331685777258873,3.1656150717198845,0.07863792177662253
1684200485099998200,12.319998291015626,0.884844560432434,3.139481682553887,-1.111618303103745
1684200485110024200,12.330024169921876,1.4679215120077131,3.365837784335017,-1.749465978655964
1684200485120049200,12.340049072265625,1.8405694142520426,4.014821332538127,-1.5804769009552895
1684200485130075100,12.3500751953125,1.8086591952502726,3.6618040134370324,-1.047421871394664
1684200485140101000,12.36010107421875,1.1838117249161004,2.729654096472263,0.372602017275989
1684200485150126300,12.370126220703124,0.8751958575993776,2.3920967968314883,1.918138391622901
1684200485160152300,12.38015234375,1.140385840165615,2.9894828442662953,2.9996073479175567
1684200485170178000,12.390177978515625,1.4809516739726065,4.126148787125945,3.3513106618106363
1684200485180204000,12.4002041015625,1.1247124702155589,4.8317257446885105,3.239742968726158
1684200485190229200,12.410229248046875,-0.1752057967910543,5.4309828466922045,3.067931527081132
1684200485200255200,12.420255126953125,-2.2250363491058347,5.208426721715927,2.171560048853606
1684200485210281200,12.43028125,-2.771275562149286,5.25153871821165,1.1970480769775806
1684200485220306200,12.44030615234375,-3.2703730847895143,4.4836797842592,0.6700298433631658
1684200485230332200,12.450332275390625,-3.2844518790245054,3.8199709606111045,1.0652800380378962
1684200485240358100,12.460358154296875,-3.315436215353012,2.7119366534739733,0.16837416067272423
1684200485250385200,12.47038525390625,-2.8422774360895153,0.6577958002120255,-1.7794962291300296
1684200485260410000,12.48041015625,-2.303493215227127,1.045069024658203,-3.434945807352662
1684200485270436000,12.49043603515625,-0.9614321255505084,2.3082108913987875,-5.297506688660383
1684200485280462000,12.500462158203124,0.8914286880630999,-0.39336101992726324,-6.2252703533649445
1684200485290487000,12.510487060546875,2.1360966674149036,-0.7113818444490432,-5.931728721061349
1684200485300513000,12.520512939453125,0.695993648115918,-0.29464579415321346,-4.77732429241538
1684200485310539000,12.5305390625,-0.49401335124373436,1.5823200446039438,-3.770025903224945
1684200485320565000,12.54056494140625,-0.9328162719190121,0.4212608342438936,-1.8601742784321307
1684200485330590000,12.55058984375,-1.5497031386375426,-1.0913093823075293,-0.4190329290613532
1684200485340616000,12.560615966796876,0.9871149214047938,-0.3988087639391422,0.22708120118528602
1684200485350642000,12.570641845703125,2.1598738488435743,1.2470371196359396,-2.0665432387173173
1684200485360667000,12.5806669921875,1.8876105668902396,4.346092683777213,-2.9039006563097236
1684200485370692900,12.59069287109375,1.8540999269545078,2.8582401443749665,-1.0521756417930126
1684200485380718800,12.60071875,-0.8919336419105529,2.007503020727634,-3.765523915630579
1684200485390744800,12.610744873046874,-1.5084844085425138,5.903017005839944,-8.424143502688407
