time,seconds_elapsed,z,y,x
1684200785360361500,0.027361572265625,5.478524350067973,6.8665329519271845,-1.608970443381369
1684200785370387500,0.037387451171875,5.561069946807622,8.0812775752455,-2.471524846072495
1684200785380413400,0.047413330078125,5.686148278850316,8.981652297765017,-3.613069793145358
1684200785390439400,0.057439453125,5.518402186948061,9.716042677357793,-4.541345499025285
1684200785400465400,0.06746533203125,5.021622878122329,10.508528687566518,-5.388410363900661
1684200785410491400,0.077491455078125,4.570456150436401,11.262834312462806,-6.086867844846845
1684200785420517400,0.087517333984375,4.103758091619611,12.48147828130722,-6.457603191468119
1684200785430543400,0.09754345703125,3.9401948383599517,13.739867400562762,-6.094627372932433
1684200785440569300,0.1075693359375,4.367010968643426,14.52128899592161,-6.044268474048375
1684200785450596600,0.1175966796875,4.678020453098416,14.53468156145811,-5.675434577134252
1684200785460622600,0.12762255859375,4.284882136011124,14.06567054952383,-5.057638778877258
1684200785470648600,0.137648681640625,3.4295383953511713,13.838970748871564,-3.9512621758192776
1684200785480674600,0.147674560546875,2.374794656635821,14.258009815412759,-2.505876320746541
1684200785490700500,0.157700439453125,0.8528386259712278,14.692511824023724,-1.2226993817150593
1684200785500726500,0.1677265625,-1.2413000372886658,14.77564135813117,0.7365472653657198
1684200785510752500,0.17775244140625,-3.9391149341687557,14.880423921120165,3.8229268878072498
1684200785520778500,0.187778564453125,-6.1367661404818294,14.261423423248528,6.475466180416941
1684200785530804500,0.197804443359375,-6.50413288745284,12.945200539183617,8.811531877946853
1684200785540830000,0.207829833984375,-6.005073943257331,11.35402557247281,11.385628332960605
1684200785550856000,0.21785595703125,-6.098361298763751,9.462864619624614,13.465311623758076
1684200785560882000,0.2278818359375,-6.938730173131823,8.179229415431617,15.200861159133911
1684200785570908700,0.23790869140625,-7.971132023918628,7.6330048154354095,15.816865397799013
1684200785580934700,0.2479345703125,-8.408143969523906,8.04904996085763,16.834300565600394
1684200785590960600,0.257960693359375,-7.890102092438935,8.70478532140851,16.944618550884723
1684200785600986600,0.267986572265625,-5.458544807356596,9.367768168869613,16.56710976460576
1684200785611012900,0.278012939453125,-2.005374192005396,9.333922013369202,16.520323463511467
1684200785621038800,0.288038818359375,0.8098883959084748,8.02799314430356,16.530300083124637
1684200785631064800,0.29806494140625,3.2594027779638766,5.844896825304627,17.723031027555464
1684200785641090800,0.3080908203125,6.55001201057434,3.4399802943885325,19.904522833967206
1684200785651116800,0.31811669921875,8.334304826331138,0.3404465913414955,21.87501159055233
1684200785661142800,0.328142822265625,7.1885694418311115,-1.2724708360999821,23.6487643075943
1684200785671168800,0.338168701171875,4.931688924697041,-2.0738953550457953,22.73936047544479
1684200785681194800,0.34819482421875,3.2887732493549584,-3.20993585948348,22.352486479449272
1684200785691220700,0.358220703125,1.7360832038611174,-3.113867348825931,20.398532678079604
1684200785701248000,0.368248046875,-0.30250498322099445,-2.0649112536013123,16.883232062029837
1684200785711274000,0.37827392578125,-3.209149677541852,-1.7242904747366905,12.89243107202649
1684200785721300000,0.388300048828125,-1.825195319509506,-0.9547475332200527,11.904036120748518
1684200785731326000,0.398325927734375,0.008482581663131714,0.9246522546857595,10.935712482118605
1684200785741352000,0.40835205078125,0.7193707973763346,1.602586587563157,8.887575253185629
1684200785751378000,0.4183779296875,0.7574532752722501,0.908800605559349,6.482950983214378
1684200785761404000,0.42840380859375,-0.012081482937932014,0.16001988156437874,5.594954680752754
1684200785771430000,0.438429931640625,-0.5075099616765976,0.051315176695585246,5.271728104281425
1684200785781456000,0.448455810546875,-1.094062772668898,-0.4036930288493633,5.586954914170503
1684200785791481900,0.45848193359375,-0.9798854816079139,-1.4625561855822802,5.741890039816498
1684200785801507800,0.4685078125,0.8634960674554109,-3.067650956574082,5.749557797965407
1684200785811533800,0.478533935546875,1.5422364560186863,-3.7731811523854732,6.233022867187858
1684200785821559800,0.488559814453125,2.588340668943524,-4.192536445268988,6.200950735622644
1684200785831586800,0.4985869140625,3.8139562303662298,-5.048023978313803,6.081261110880971
1684200785841612800,0.50861279296875,5.818613798534869,-5.30946717556715,3.177051242491603
1684200785851638800,0.518638671875,10.273764822924136,-4.664551315194368,-3.140300597721338
1684200785861664800,0.528664794921875,9.901118089723587,-2.313168806067109,-5.507895405980944
1684200785871690800,0.538690673828125,4.594942941439151,-0.29437457599639894,-5.262862660780549
1684200785881716700,0.548716796875,2.3592168560147284,-0.7312211019068956,-5.175777667045593
1684200785891743000,0.558742919921875,3.494489883211255,-2.6211568968743086,-4.95686778961718
1684200785901769000,0.56876904296875,2.528996499571204,-3.2119203112989663,-2.9334143355637785
1684200785911795000,0.578794921875,1.060632504492998,-3.73092606498003,-0.8377145604670048
1684200785921821000,0.588821044921875,-2.0843501135647298,-5.2128439536362885,1.33471014239192
1684200785931847000,0.598846923828125,0.827672766663134,-5.222444141152501,-1.8843448430925607
1684200785941873000,0.608872802734375,0.43840106187611816,-2.9127637617230415,-1.8856003961116075
1684200785951899000,0.61889892578125,-4.127297372639179,1.7316455136746167,-2.4557822102785107
1684200785961925600,0.628925537109375,-4.762141628591716,3.5266657674118873,-4.460056332087516
1684200785971951600,0.63895166015625,-4.146316545885801,3.1581361141413447,-5.398868045029044
1684200785981977900,0.648977783203125,-2.2543325862169263,2.874276210157573,-4.9119934596240515
1684200785992003800,0.65900390625,-0.9971855759769678,1.2148436997786163,-2.6875392943203447
1684200786002029800,0.66902978515625,-0.6600234131336212,-0.9361819489598273,1.6245605189621448
1684200786012055800,0.679055908203125,-0.6117699620962143,-2.3494863201171157,6.428440809869766
1684200786022081800,0.689081787109375,-1.2556504880718886,-3.660357321760058,8.809895801177621
1684200786032107800,0.699107666015625,-1.4742846172988413,-2.6129475791946053,3.4494226609945295
1684200786042133800,0.7091337890625,-4.510789324980974,-0.13845511548817158,2.381815641313791
1684200786052159700,0.71915966796875,-3.522708846479654,3.952270476078987,-6.706454618173837
1684200786062185700,0.729185791015625,-1.1757348014444111,7.2780363622665405,-9.34574747571945
1684200786072211700,0.739211669921875,0.44763270834088326,5.586034876716137,-11.08076392713189
1684200786082237700,0.74923779296875,3.104524350941181,3.1536572151616213,-10.608834981924295
1684200786092265000,0.759264892578125,4.3681390958905215,0.8408253859639168,-7.925088650146126
1684200786102291000,0.769291015625,4.614724331229925,-0.5184229853570461,-4.971206696093082
1684200786112317000,0.77931689453125,3.9715158592969177,-1.625938529317081,-3.8549382290959358
1684200786122343000,0.789343017578125,3.5112358508288857,-1.2561182517141103,-3.3139526987969874
1684200786132369000,0.799368896484375,3.14523980768919,1.9254089671477674,-5.507332511401176
1684200786142395000,0.809394775390625,1.9245019353054462,4.886753219905495,-5.840935520458221
1684200786152420900,0.8194208984375,3.36881592336297,3.766279117912054,-5.233396327799558
1684200786162446800,0.82944677734375,2.0383026481389996,1.8021593118369579,-4.780716272941231
1684200786172472800,0.839472900390625,-1.6388228530704974,1.4795511595249176,-1.777210748541355
1684200786182498800,0.849498779296875,-4.348158384135365,0.6464280185014009,0.659076487672329
1684200786192524800,0.85952490234375,-4.340866473561525,-3.241538619971275,2.494260701754689
1684200786202550800,0.86955078125,-3.118743430429697,-5.6931175333410495,1.3532102602005005
1684200786212576800,0.87957666015625,-1.4158523020744322,-3.6299440633177755,-0.810040956121683
1684200786222603800,0.889603759765625,-0.05183543771002441,-0.17423954557478427,-2.0327415068805217
1684200786232629800,0.899629638671875,-0.22207975790249182,2.463503159919381,-2.361938974454999
1684200786242655700,0.90965576171875,-4.508248992848396,4.916511813831329,-5.041000947809219
1684200786252681700,0.919681640625,-8.210943819600343,8.169391327506304,-3.503522499972582
1684200786262708000,0.9297080078125,-5.798680433052778,9.623223523885011,3.9019215140670536
1684200786272734000,0.93973388671875,-3.6900469421029087,7.283816114711761,8.635843887129425
1684200786282760000,0.949760009765625,-0.753372727960348,5.150837287056445,11.79758065611124
1684200786292786000,0.959785888671875,1.7791478540837764,2.695533800205588,12.700827134674787
1684200786302812000,0.96981201171875,3.55697702678442,-0.9187474145561456,11.50973635866642
1684200786312838000,0.979837890625,4.330308839190006,-3.207172239989042,8.84029561561644
1684200786322863900,0.98986376953125,3.3579204353392123,-1.974483379179239,7.583920174270868
1684200786332889900,0.999889892578125,1.3964555276870727,-0.2141840179502964,8.431089960825442
1684200786342915800,1.009915771484375,1.9517896090731024,3.040496407666802,8.75465614451468
1684200786352942800,1.01994287109375,3.15208455901742,3.45647199498415,6.611977176100015
1684200786362968800,1.02996875,2.9919278993308542,1.7480226479798555,2.8488433704763647
1684200786372994800,1.039994873046875,2.7980361433029173,0.4126888207316398,-0.02636193722486496
1684200786383020800,1.050020751953125,1.8682237293750046,-0.6565425852805375,-2.6537615278810263
1684200786393046800,1.060046875,1.8457669828951357,-1.2679548199802637,-5.389509849575162
1684200786403072800,1.07007275390625,1.7973147944152355,-1.318396720972657,-7.030125431281328
1684200786413098800,1.0800986328125,1.5714526136308908,-1.6801052960515022,-8.076647577357292
1684200786423124700,1.090124755859375,1.5633347736269234,-2.2188339873343703,-8.559339908641576
1684200786433150700,1.100150634765625,1.7916268119066954,-1.6525205390334128,-9.436244323724507
1684200786443176700,1.1101767578125,2.0697043330967424,-1.23459674025774,-10.39485437759161
1684200786453202700,1.12020263671875,1.905013098720461,-1.5987006860405206,-10.512301191842555
1684200786463229000,1.13022900390625,1.2004391076553613,-2.1620167060911655,-8.239320603778959
1684200786473255000,1.1402548828125,-0.06682721860408783,-2.5450959859788416,-5.748363619744778
1684200786483282000,1.150281982421875,-0.08179214802384376,-1.2557803980618714,-4.800267945629358
1684200786493308000,1.160307861328125,-0.5253355412244797,-0.6751876645177602,-3.1795804687082767
1684200786503334000,1.170333984375,-1.4955506926894186,-0.28007015631198884,-0.8748001362800598
1684200786513360000,1.18035986328125,-2.742571445712447,0.0852846663147211,2.3565923527300354
1684200786523385900,1.1903857421875,-3.360304115605354,0.10667173773646355,5.650820360359549
1684200786533411800,1.200411865234375,-2.27786193036437,1.5213240163713693,7.789928484550118
1684200786543438600,1.2104384765625,-1.194053132945299,0.926458427324891,10.89922545672059
1684200786553464600,1.220464599609375,0.11475852501504123,-0.2925228106498718,12.411924852609634
1684200786563490600,1.230490478515625,0.44574243761487303,-1.506380129739642,12.067592359745502
1684200786573516500,1.2405166015625,-0.05611702401936054,-2.262622860178351,9.618318216186761
1684200786583542500,1.25054248046875,-0.274033287300542,-2.4101591077446938,5.65934210498929
1684200786593568500,1.260568603515625,0.16223923811428248,-2.498222591122985,2.558381876270473
1684200786603594500,1.270594482421875,0.7399772398144007,-3.0886604268550872,1.705788603362441
1684200786613621800,1.280621826171875,0.8382675181746483,-4.274268972060084,2.244359473735094
1684200786623647700,1.290647705078125,0.547991025146842,-4.919147423031926,2.3204677309036255
1684200786633673700,1.300673828125,0.5694710355490445,-4.811159341999888,1.715158489254117
1684200786643699700,1.31069970703125,0.7676689643383026,-4.181229453834891,0.10479016177356243
1684200786653725700,1.3207255859375,1.2095581605911254,-3.7036779925704,-2.197978830832243
1684200786663751700,1.330751708984375,1.778705517143756,-2.825638435977697,-3.5492820883676406
1684200786673777700,1.340777587890625,2.0698311743468043,-2.0950585545837876,-4.327632605718076
1684200786683803600,1.3508037109375,1.7974053953081368,-1.3213228375524282,-4.286889091919362
1684200786693829600,1.36082958984375,0.7333978614240885,-1.6273597942918538,-3.364586615230143
1684200786703855600,1.370855712890625,-0.07814239334464072,-1.6809750646233557,-2.2603394254162907
1684200786713881900,1.3808818359375,-0.4682599013060331,0.7224345688611269,-2.290489941269159
1684200786723907600,1.390907470703125,-0.3941641530036926,3.7176235158145428,-3.1371941561385985
1684200786733933600,1.40093359375,-0.8855576771378517,4.966937932732701,-3.1824753133669494
1684200786743959600,1.41095947265625,-1.288871935802698,4.5969659716993565,-2.5646453205794093
1684200786753986600,1.420986572265625,-1.3260896135628222,3.4793040045171972,-2.2249144762918354
1684200786764012500,1.431012451171875,-1.1511702690303325,2.0774515862226486,-1.793645458252728
1684200786774038500,1.44103857421875,-0.6924620399236678,0.7750842090308666,-1.2148007374197245
1684200786784064500,1.451064453125,-0.23112229326963424,0.20975801820158957,-0.6140203713715076
1684200786794090500,1.461090576171875,-0.23509585480941458,0.4486959536582231,0.033650048406422134
1684200786804116700,1.47111669921875,-0.6261562148451805,0.8277496312916278,0.23186551285237073
1684200786814142700,1.481142822265625,-1.0419278040230273,-0.17380992198586462,0.6521963727697729
1684200786824168700,1.491168701171875,-0.8729472018897533,-1.3948054223924875,1.1111685135096312
1684200786834194700,1.501194580078125,-0.43044484217464923,-1.4190209952384232,0.961981283865869
1684200786844220700,1.511220703125,-0.21495323049081488,-1.662749672102928,0.6971057740762829
1684200786854246700,1.52124658203125,0.10623455189559608,-3.1081250057816505,0.2464411506935954
1684200786864272600,1.531272705078125,-0.06939728828780353,-3.241487182044983,0.7880167558401823
1684200786874298600,1.541298583984375,0.24626257925629613,-4.402510152047872,-0.1895765231773257
1684200786884324600,1.55132470703125,0.5229518609583378,-5.89718581546843,-0.9329302536875009
1684200786894351600,1.5613515625,0.6160544344823807,-5.519830758446455,-0.03585135784298182
1684200786904377600,1.571377685546875,0.6627057840853929,-4.442562760972977,0.2945749939393252
1684200786914403600,1.581403564453125,0.3788515791900456,-2.2221312753140925,0.12685922411009667
1684200786924429600,1.5914296875,0.05777312066331505,0.7594570163100958,-0.4510389000551775
1684200786934455600,1.60145556640625,0.33220191008746625,3.656992813763022,-1.4285465100832282
1684200786944481500,1.6114814453125,-0.28018238451480865,6.584633242100477,-2.124178850606084
1684200786954507500,1.621507568359375,-1.7952172376140951,10.599569140928983,-2.0957436142385006
1684200786964533500,1.631533447265625,-2.1431588608860968,10.88124673243761,-0.5751734849743545
1684200786974559500,1.6415595703125,-2.320360178875923,9.472730180078745,2.961530422979593
1684200786984585500,1.65158544921875,-0.6860697085380554,7.809262130573392,4.303135001060366
1684200786994611700,1.66161181640625,3.8468238962233063,6.242781460136174,1.7444336835771799
1684200787004637700,1.6716376953125,6.43712388254106,3.1822306909561155,-1.51646883142516
1684200787014663700,1.68166357421875,5.5618771715372795,0.5783148517400026,-2.8646038341879843
1684200787024689700,1.691689697265625,2.142097953656316,-0.40331659675240517,-1.9017596498824656
1684200787034716700,1.701716552734375,-0.8748357921153307,-0.6058008245587349,0.5963378535561263
1684200787044742700,1.71174267578125,-2.055560656931996,-0.7101935114473104,2.289697329586744
1684200787054768600,1.7217685546875,-2.2561951652184127,-0.6807184106379747,2.6264599717184898
1684200787064794600,1.731794677734375,-1.4394287002339958,-1.0118138207882643,2.3957827918678523
1684200787074820600,1.741820556640625,-0.26271570140719414,-1.2918477367430925,2.4958976553067562
1684200787084846800,1.751846923828125,0.904740516513586,-1.6061737984001636,3.175240393677354
1684200787094872800,1.761872802734375,2.1270228418603536,-1.6916718152046202,3.7408284503132103
1684200787104898800,1.77189892578125,3.2694454485505817,-0.6233563549935818,4.064625520148873
1684200787114924500,1.781924560546875,5.7526972650349135,1.0636825397133827,3.8368513682633636
1684200787124950500,1.791950439453125,4.670679150424897,2.1897253817498683,2.771039415305853
1684200787134976500,1.8019765625,2.0639345175236463,2.2803414722204205,2.2049634290225804
1684200787145002500,1.81200244140625,2.7554776890367267,2.27375917122066,2.107248904723674
1684200787155028500,1.822028564453125,5.090927300494909,3.5615240225642917,1.200703823006153
1684200787165055500,1.832055419921875,5.538997815731167,4.320410545510053,1.202950286758691
1684200787175081700,1.842081787109375,5.0315515669405455,4.60350677164495,1.6709531445637344
1684200787185107700,1.852107666015625,5.20569758901298,4.793601473477483,1.9142371464006602
1684200787195133700,1.8621337890625,4.524387642222643,3.8392999304592608,1.3135253155440092
1684200787205159700,1.87215966796875,3.9301018988907335,2.560646021810174,0.7019593515872955
1684200787215185700,1.882185546875,3.2461516667246815,1.8152590319067239,0.3158323745667934
1684200787225211600,1.892211669921875,2.500039285156131,1.4423895958662032,-0.0008346972584724426
1684200787235237600,1.902237548828125,0.31643560115694996,1.1110995399266481,-0.028553602050244806
1684200787245263600,1.912263671875,-1.6326888803601265,0.8131085269987582,0.07783142769932747
1684200787255289600,1.92228955078125,-2.5012568442523477,0.6658756462931633,0.03528407934904098
1684200787265315600,1.932315673828125,-3.524538399994373,0.6820026052296161,0.46401130395084617
1684200787275341600,1.942341552734375,-4.6696097676277155,0.948223099887371,1.1430147273644804
1684200787285367800,1.952367919921875,-5.502429541790485,1.9734575432628392,2.0395131929725405
1684200787295393800,1.962393798828125,-5.710796397894621,3.274870396208763,3.475161205624044
1684200787305420500,1.972420654296875,-4.711738598304986,4.286991090989113,5.298185318574309
1684200787315446500,1.982446533203125,-3.1646587939083575,4.483285816505551,5.621338245287538
1684200787325472500,1.992472412109375,-3.223540021944046,3.177927440804243,4.0983603242293
1684200787335498500,2.00249853515625,-3.8103614207446572,2.1114783589869734,2.5439833485618233
1684200787345524500,2.0125244140625,-3.341763081264496,1.6429840644031761,1.2230825358137487
1684200787355550500,2.022550537109375,-2.4886609820514916,1.4668728797376156,0.02731909181922674
1684200787365576700,2.03257666015625,-1.9684888149395583,1.1679238354325294,-0.5529834266066551
1684200787375602700,2.042602783203125,-1.6992542331576346,0.8105605960816145,-0.9354591876432299
1684200787385628700,2.052628662109375,-1.877098525226116,0.3489496312707662,-1.2870078954964876
1684200787395654700,2.062654541015625,-2.5934274706885216,-0.017544424518942833,-1.4662202610477804
1684200787405680600,2.0726806640625,-3.092976244227588,-0.13293255267441273,-1.5159902541279793
1684200787415706600,2.08270654296875,-3.2045547509670254,-0.14278583816885948,-1.3879834674179554
1684200787425732600,2.092732666015625,-3.2789629262194033,0.051209378233551976,-1.2916972223564982
1684200787435758600,2.102758544921875,-3.2815757390663025,0.4777501987069845,-1.6500997416272758
1684200787445785600,2.11278564453125,-3.236609639136493,0.954442997315526,-2.1977073204144832
1684200787455811800,2.122811767578125,-3.079885876508057,1.169427810254693,-2.7608202191084623
1684200787465837800,2.132837890625,-2.9788521446585654,1.0352139855980873,-3.0710411835342644
1684200787475863800,2.14286376953125,-2.6043606603741645,0.5639572405636311,-3.2886855710715053
1684200787485889800,2.152889892578125,-2.002979113562405,-0.07448503988087177,-3.5048484878793356
1684200787495915800,2.162915771484375,-1.97328803191483,-0.7466834594547748,-3.079090926738083
1684200787505941500,2.17294140625,-2.3043238208323715,-1.4288117368906736,-2.4391847112208604
1684200787515967500,2.182967529296875,-2.488069738160074,-1.77569099162817,-2.0192574636682865
1684200787525993500,2.192993408203125,-2.684979965226352,-1.5492688388735054,-1.8135156953707336
1684200787536019500,2.20301953125,-2.711608736693859,-1.4465478845894335,-2.221037342597544
1684200787546045200,2.213045166015625,-2.4161475345045327,-1.43124276342988,-2.6792762006267905
1684200787556071200,2.2230712890625,-1.9768071459516883,-1.3409779706150293,-2.666534792475402
1684200787566097200,2.23309716796875,-1.7244252070322632,-1.5526888764500617,-2.392446340921521
1684200787576123400,2.243123291015625,-1.7956155892819166,-2.0374410628736017,-2.2438711056962606
1684200787586150400,2.253150390625,-2.0997461278781295,-2.387012040913105,-2.3377301236107946
1684200787596176400,2.26317626953125,-2.2598747305139897,-2.4669781425535677,-2.5794413231730458
1684200787606202400,2.273202392578125,-2.145381797632575,-2.4568583150774237,-2.7891175083100794
1684200787616228400,2.283228271484375,-1.8643021720170974,-2.359146713387966,-2.7694243813246486
1684200787626254300,2.29325439453125,-1.6136112549245356,-2.1077765818595884,-2.6213921669349074
1684200787636280300,2.3032802734375,-1.4615776959389448,-1.700505110001564,-2.478656305387616
1684200787646306300,2.313306396484375,-1.1975187632292508,-1.254499710601568,-2.2159178076267243
1684200787656332500,2.32333251953125,-0.8232432597830891,-0.9061614892274141,-1.7306559181153773
1684200787666358500,2.333358642578125,-0.5210241077661514,-0.6560398964554071,-1.0900704881623386
1684200787676384500,2.343384521484375,-0.42686961403638124,-0.41768999001979823,-0.4506830358222127
1684200787686410500,2.353410400390625,-0.2610167885348201,-0.048920975035429,0.0485483423307538
1684200787696436500,2.3634365234375,0.04186784165352583,0.5105576588094234,0.492389549434185
1684200787706462500,2.37346240234375,0.5100093772768974,1.2203355751931666,0.873401083137095
1684200787716488400,2.383488525390625,1.0174854366838932,1.9982734200894832,1.207100830566883
1684200787726514400,2.393514404296875,1.3474375220179557,2.6316063946962354,1.6034566483959554
1684200787736541200,2.403541259765625,1.9147826514542101,2.800966351535916,2.1996058475121854
1684200787746567400,2.4135673828125,2.165043068175018,2.5053321308672425,2.720310514065623
1684200787756593400,2.423593505859375,1.102650129880756,1.5464344922304152,2.411049626843631
1684200787766619400,2.433619384765625,-0.6975706151090562,0.07105097377896308,1.2959680315434932
1684200787776645400,2.443645263671875,-2.1123440359055996,-1.2943944986164568,0.19328852943778038
1684200787786671400,2.45367138671875,-2.804982601439953,-2.2000211503148077,-0.4379688079386949
1684200787796697300,2.463697265625,-2.8839491706490517,-2.5414368789494035,-0.7818658319950104
1684200787806723300,2.473723388671875,-2.5454525443315505,-2.506080903407931,-0.7861082918703556
1684200787816749300,2.483749267578125,-1.931805097925663,-2.12963243983686,-0.4849029930710792
1684200787826775300,2.493775390625,-0.9919196182727813,-1.435498667308688,-0.05896481466591358
1684200787836801300,2.50380126953125,0.10153379032611846,-0.44761283459663387,0.4692962586164474
1684200787846827300,2.5138271484375,1.1121195306241511,0.7098281852662562,0.7597282344669103
1684200787856853500,2.523853515625,1.7716525298923254,1.8403239150583743,0.5181280940636992
1684200787866879500,2.53387939453125,2.063524767678976,3.0402795500457285,0.10680150159597396
1684200787876906500,2.543906494140625,2.216328141993284,4.359996121445298,-0.06507949815392494
1684200787886932500,2.553932373046875,2.6269495088011023,5.641248229894042,0.1986333975970745
1684200787896958500,2.56395849609375,3.7789854547500608,6.604778204506635,1.3328884799227119
1684200787906984400,2.573984375,4.570723861461878,5.9838429391801355,2.9954744858965276
1684200787917010400,2.584010498046875,4.102626457241177,3.641446285063028,3.5439655695199965
1684200787927036200,2.5940361328125,3.091373777467012,1.4192033660680055,3.1401468684643503
1684200787937062100,2.604062255859375,2.1576362990498543,-0.20122809026539323,2.3577768863394857
1684200787947088400,2.61408837890625,1.380126908698678,-1.4990847120344637,1.4060337956324218
1684200787957114400,2.6241142578125,0.2953636600989848,-2.368106264913082,0.43227731829881666
1684200787967140400,2.634140380859375,-1.0036884550649672,-2.783030297350883,-0.4871811671361327
1684200787977166300,2.644166259765625,-1.9059096091687677,-2.979624882596731,-1.3095046817258
1684200787987192300,2.6541923828125,-2.074071296134591,-3.0582682112008333,-1.7193290529370306
1684200787997218300,2.66421826171875,-1.9460403978966176,-2.747705885991454,-1.7421140084579585
1684200788007244300,2.674244384765625,-1.8345973541051148,-1.7635434577167033,-1.4597627554714678
1684200788017270300,2.684270263671875,-1.6312240685045718,-0.23424247111678123,-0.9339356313377618
1684200788027297300,2.69429736328125,-1.3251193072259426,1.2977099067747593,-0.3417091586232185
1684200788037323500,2.704323486328125,-0.9668670831460505,2.4058809920340773,0.14872896448224782
1684200788047349500,2.714349609375,-0.5104979645114391,2.7533897768467663,0.4891229488536715
1684200788057375500,2.72437548828125,0.03528707502372563,2.142619347181916,0.5297857986316085
1684200788067401500,2.7344013671875,0.8391659283190965,0.9041209233105182,0.19715660304278135
1684200788077427500,2.744427490234375,2.0105296750724313,-0.0755599756360054,-0.1920385293766856
1684200788087453400,2.754453369140625,2.450086775115877,-0.6185632754981517,-0.33883126509934663
1684200788097479400,2.7644794921875,1.5515122338861227,-0.9637953475505113,-0.12652531598061323
1684200788107505400,2.77450537109375,0.3485335978157818,-1.1368576660394667,0.21643033557236194
1684200788117531400,2.784531494140625,-0.4030944784343242,-1.200623743507266,0.41528906635791063
1684200788127557400,2.794557373046875,-0.5443780953466892,-1.217168051072955,0.3720189566910267
1684200788137583600,2.80458349609375,-0.518518262425065,-1.0064993477672337,0.291202083440125
1684200788147609600,2.814609619140625,-0.5460878218740225,-0.480757563829422,0.3400438557595014
1684200788157635300,2.82463525390625,-0.6014443829149008,0.18713643654882905,0.49931496478319165
1684200788167662300,2.834662353515625,-0.6827215671539306,0.7835019087642431,0.8114075682997703
1684200788177688300,2.844688232421875,-0.6555663606595248,1.1232833141952752,1.0867508422203362
1684200788187714300,2.85471435546875,-0.28502470997944473,1.154416119083762,1.1688612624131143
1684200788197740300,2.864740234375,0.8616203367114067,0.7850240037649869,1.10192020817101
1684200788207766300,2.874766357421875,2.32052895957157,0.3891887026786804,1.086394868389517
1684200788217792300,2.884792236328125,2.170150912708044,-0.0472784685254097,1.3210495735689998
1684200788227818500,2.894818603515625,1.0391408036530017,-0.3665449091941118,1.9755437018871307
1684200788237844500,2.904844482421875,-0.014067688319087028,-0.5141396089494228,2.6298610123336315
1684200788247870500,2.914870361328125,-0.7184830547563731,-0.22764146541655061,2.821215358838439
1684200788257896400,2.924896484375,-0.8591022164106369,0.24818916340470312,2.454458268198371
1684200788267922400,2.93492236328125,-0.6445376016449182,0.36337329342067237,1.871068451281637
1684200788277948400,2.944948486328125,-0.453642177888751,0.2553191614151001,0.8170521500580012
1684200788287974400,2.954974365234375,-0.6271726253461092,0.3005108867943287,0.18559899784848094
1684200788298000400,2.96500048828125,-0.9504465480905026,0.12555062572956086,-0.27159327373728154
1684200788308026400,2.9750263671875,-1.1225299385447054,-0.332487741291523,-0.40578532495349645
1684200788318053400,2.985053466796875,-1.224470994497463,-0.8040612971901893,-0.3664893796145916
1684200788328079400,2.995079345703125,-1.4141513433754442,-0.8563017720371484,-0.4847285132870078
1684200788338105300,3.005105224609375,-1.5267225144140422,-0.7247317398875951,-0.722350397709012
1684200788348131300,3.01513134765625,-1.6106833847790956,-0.5072679696142673,-0.9465805933773517
1684200788358157300,3.0251572265625,-1.6670739650428295,-0.30046412504315373,-1.0790805998533963
1684200788368183300,3.035183349609375,-1.630093603169918,-0.08840952033698558,-1.1001271872743963
1684200788378209300,3.045209228515625,-1.5303677390486001,0.11240589747428893,-1.1292544975593686
1684200788388235300,3.0552353515625,-1.3958230750024319,0.21883038245141506,-1.1552762430444359
1684200788398261200,3.06526123046875,-1.2743705322414636,0.08488602238595486,-1.2186726104170083
1684200788408287200,3.075287353515625,-1.1600583627544343,-0.11218728628754615,-1.243617666581273
1684200788418313200,3.085313232421875,-1.1217179645746946,-0.2185012966275215,-1.2103414199233054
1684200788428339500,3.09533935546875,-1.0751192950069903,-0.3075590517401695,-1.1464981855660676
1684200788438365400,3.105365478515625,-0.8742974474549293,-0.43289281984865663,-0.8513584704160689
1684200788448391400,3.115391357421875,-0.41990766606926916,-0.5625754308164119,-0.4302975426584482
1684200788458417400,3.12541748046875,0.3121967945434153,-0.5266185667723416,0.0360983183413744
1684200788468444400,3.1354443359375,1.1832947153046727,-0.41488019329607484,0.6251636966764926
1684200788478470400,3.145470458984375,1.7617710412167011,-0.23343115473389625,1.1916992632955312
1684200788488496400,3.155496337890625,1.8966922834903002,-0.15356500633656978,1.5649983229249715
1684200788498522400,3.1655224609375,1.725552895887941,-0.16290683517754076,1.6629989706888795
1684200788508548400,3.17554833984375,1.39123866982162,-0.10775134966671467,1.4742916315615175
1684200788518574600,3.18557470703125,1.01525314758718,0.05095394216775894,1.053480002389848
1684200788528600600,3.1956005859375,0.7197988135300576,0.2318991228610277,0.7091346500441431
1684200788538626600,3.20562646484375,0.6240278245143592,0.44469139419198034,0.6065180329173803
1684200788548651800,3.21565185546875,0.678653294801712,0.42660570240318774,0.6912102862969041
1684200788558677800,3.225677734375,0.6899509338855743,0.19498072030842303,0.6662059011608362
1684200788568703700,3.235703857421875,0.6062757485941052,-0.014683774390816688,0.39268268227428194
1684200788578729700,3.245729736328125,0.5656823107905685,-0.07970482035577296,0.012723580233752727
1684200788588755700,3.255755615234375,0.5635705793336033,-0.015208090525865555,-0.3713733522638678
1684200788598782000,3.265781982421875,0.5909207969434559,-0.02709434315264225,-0.7568933033019304
1684200788608807700,3.2758076171875,0.6320034795686602,0.02792085710465908,-1.0140358807519079
1684200788618834700,3.285834716796875,0.6912029797732829,0.2045551888614893,-1.1901169625401495
1684200788628860700,3.295860595703125,0.7446756267637014,0.40499709718525406,-1.2654296854168177
1684200788638886700,3.30588671875,0.7320406015962362,0.41304362551867957,-1.232522564332187
1684200788648912600,3.31591259765625,0.6580174801386892,0.1612766036272049,-1.1680898396492003
1684200788658938600,3.325938720703125,0.48442865355759857,-0.057416416180133815,-1.1251026385769247
1684200788668964600,3.335964599609375,0.23689503145217894,-0.13585574664473532,-0.9585179916694759
1684200788678990600,3.345990478515625,0.0008301672138273715,-0.1069698439002037,-0.6962541256830096
1684200788689016800,3.356016845703125,-0.1512974997960031,0.028595979887247085,-0.32168431546539067
1684200788699042800,3.366042724609375,-0.2823397086791694,0.19711247164011,0.07448357857614755
1684200788709068800,3.37606884765625,-0.3269192935094237,0.2781359733790159,0.4012316071718931
1684200788719094800,3.3860947265625,-0.28507541725337504,0.2446779404133558,0.5964020048335195
1684200788729120800,3.396120849609375,-0.18999854798167942,0.07231237201690674,0.5966811140358448
1684200788739146800,3.406146728515625,-0.042246611838042736,-0.2515454880952835,0.6114001058705151
1684200788749172700,3.4161728515625,0.10957520409300922,-0.5148100555568933,0.7157001460395753
1684200788759198700,3.42619873046875,0.26547771346643567,-0.6792571059137582,0.7757765752092003
1684200788769225500,3.4362255859375,0.40964609203487634,-0.7645020247399806,0.736406980112195
1684200788779251700,3.446251708984375,0.5938023437291383,-0.7588128731876611,0.6183923028454185
1684200788789277700,3.456277587890625,0.7119765954717994,-0.5308429064691066,0.534160068193078
1684200788799303700,3.4663037109375,0.7610057070568204,-0.09528525132536887,0.4795864742234349
1684200788809329700,3.47632958984375,0.7465045957565307,0.4188333148360252,0.44047874493300915
1684200788819355600,3.486355712890625,0.7428907891735435,0.8546002288162707,0.41358547731041906
1684200788829381600,3.496381591796875,0.7884870037004351,1.1299965480983256,0.3898597338080406
1684200788839407600,3.50640771484375,0.8903060407087207,1.1131482891499995,0.44577436712309715
1684200788849433600,3.51643359375,1.027067065630108,0.7564268548339604,0.5728950186483561
1684200788859459600,3.52645947265625,1.0789143033757804,0.3866787656843662,0.7447662276566028
1684200788869485600,3.536485595703125,1.0365198074996471,0.1452946061193943,0.8838755692698061
1684200788879511600,3.546511474609375,0.8890379204690456,0.04139233309626579,1.1186198524288833
1684200788889537800,3.556537841796875,0.7002439259715378,0.23297230505049227,1.4591884627148508
1684200788899563800,3.566563720703125,0.5330576599091291,0.6195329973131418,1.7526210816860197
1684200788909589800,3.57658984375,0.4176141483046114,0.8383429214984178,1.9888782536260783
1684200788919616800,3.58661669921875,0.35051322732567786,0.7201561025351285,2.091173529843986
1684200788929642800,3.596642822265625,0.32831615469530223,0.4474380625516176,2.022012753725797
1684200788939668700,3.606668701171875,0.3027449294567108,0.12449673276245593,1.821449118718505
1684200788949694700,3.61669482421875,0.2912725183278322,-0.08569090902805328,1.5670672381535171
1684200788959720700,3.626720703125,0.31027795531004665,-0.07930734547078609,1.1921019988775252
1684200788969747000,3.636746826171875,0.3664005322873592,0.0027846622824668882,0.5852754845328628
1684200788979773000,3.64677294921875,0.5248673391908407,0.10136310993432998,-0.07726809472814201
1684200788989799000,3.656798828125,1.0431523773819207,0.17675065161287784,-0.646285979682207
1684200788999824600,3.66682470703125,4.91996049298048,0.3764087160825729,-1.122112516850233
1684200789009850600,3.6768505859375,13.966250390350817,1.1400947482645511,-1.0165227291315793
1684200789019876600,3.686876708984375,11.039859085291624,1.5489362459182738,-0.7283923082217574
1684200789029902600,3.696902587890625,4.254624360391498,1.3927227708995342,-1.0890668640777468
1684200789039928600,3.706928466796875,1.0173428133428095,1.0550023896515368,-1.1105600262224673
1684200789049954600,3.71695458984375,-0.43683490853793916,1.0588134723722935,-0.6498100621551275
1684200789059980500,3.72698046875,-0.8053799785733222,1.0838304247289896,-0.15880553733855485
1684200789070007800,3.7370078125,-0.3107242377728224,1.129975505310297,0.04911532856374979
1684200789080033800,3.74703369140625,-0.33643209500312804,1.439812438854575,0.26175182481110093
1684200789090059800,3.757059814453125,-2.1495348256587983,1.4950982727468012,0.9051435443565249
1684200789100085800,3.767085693359375,-4.152556901580095,1.8809709827452896,1.5726564364627003
1684200789110111700,3.77711181640625,-6.153191790103912,2.4297113649547097,1.9344968212276696
1684200789120137700,3.7871376953125,-5.938358952856063,3.058158321085572,2.640311094677448
1684200789130163700,3.797163818359375,-4.558620751214027,3.497546932694316,4.265110098570585
1684200789140189700,3.807189697265625,-2.7942367510199544,3.006255699890852,5.805280269709229
1684200789150215700,3.817215576171875,-2.0115994962610304,2.096727364578843,6.686931002536416
1684200789160241700,3.82724169921875,-1.9664006104886531,1.3402104933738708,6.485305437386035
1684200789170268000,3.837267822265625,-1.6807156830348073,0.8299170384585857,4.658634492366016
1684200789180294000,3.8472939453125,-1.6554299967393278,0.571872251471877,2.6919921820759773
1684200789190319900,3.85731982421875,-1.9090172197952866,0.6581546966522932,1.0769789513990282
1684200789200345900,3.867345947265625,-1.8023732468485831,0.8726730611234903,-0.16747107435315847
1684200789210371800,3.877371826171875,-2.028585848505795,1.1288684208512305,-0.6089931908592582
1684200789220398600,3.887398681640625,-1.9703855884715913,1.1890987254083156,-0.7953618579059839
1684200789230424600,3.897424560546875,-2.023980400536954,1.1262725591391325,-1.113673189806938
1684200789240450600,3.907450439453125,-2.142246714477241,0.9443751922875642,-1.3657780653506517
1684200789250476500,3.9174765625,-2.069981396472454,0.7249667176872492,-1.4617197347581385
1684200789260502800,3.927502685546875,-2.1937574137449265,0.7640390834033489,-1.4711287836164235
1684200789270528800,3.93752880859375,-2.612399005401134,0.8721902460426092,-1.4856892238885164
1684200789280554800,3.9475546875,-3.060406100012362,0.9733791684538126,-1.413689278821647
1684200789290580700,3.957580810546875,-2.974583673559129,0.9714923317939043,-1.4441276717051863
1684200789300606700,3.967606689453125,-2.9593010564923286,0.81996847589612,-1.289084701770544
1684200789310632700,3.9776328125,-2.5442759017676115,0.3639841187953949,-1.5539026361539958
1684200789320658700,3.98765869140625,-2.143193347677588,0.0503846178472042,-1.8523299946725367
1684200789330684700,3.9976845703125,-1.8399509900927542,-0.18897183528244493,-1.974039727064967
1684200789340710700,4.007710693359375,-1.6850351536691188,-0.3963818290531635,-2.072966549763083
1684200789350736600,4.017736572265625,-1.7957082360014318,-0.6676286274403334,-1.9747022826269267
1684200789360762600,4.0277626953125,-1.9145166939944027,-0.9669225396603345,-2.199291959257424
1684200789370788900,4.037788818359375,-2.3287182573765515,-1.412079797798395,-2.557857852396369
1684200789380816000,4.04781591796875,-2.78271991622746,-1.85027247762084,-2.60349206084609
1684200789390841600,4.057841552734375,-2.9044980376809835,-2.0208862339138984,-2.8247841572359205
1684200789400867600,4.06786767578125,-2.9390397742301224,-2.049037392643094,-2.9153450103878975
1684200789410893600,4.0778935546875,-2.734744113087654,-1.9907330877125262,-2.9855154019400474
1684200789420919600,4.08791943359375,-2.3982711015522478,-1.972943163999915,-2.6618358210042117
1684200789430945500,4.097945556640625,-2.2773095571786164,-1.965294695073366,-1.9303861710384487
1684200789440971500,4.107971435546875,-2.289384610375762,-1.9775094490021465,-1.4179776236653328
1684200789450997800,4.117997802734375,-2.38060509648025,-2.0676275268226862,-1.403473005233705
1684200789461023700,4.128023681640625,-2.3041169000834225,-2.2127777560353277,-1.6208245473042129
1684200789471049700,4.1380498046875,-2.0071920550823212,-2.341885781985521,-1.8847534238934516
1684200789481075700,4.14807568359375,-1.7374834260478615,-2.3955711949437855,-2.028533826057613
1684200789491101700,4.158101806640625,-1.4942966009750962,-2.252091529291868,-2.0147125137150286
1684200789501127700,4.168127685546875,-1.2658289138674734,-1.9457102891594171,-2.1336852223590017
1684200789511153700,4.178153564453125,-1.2975687447384,-1.625486986157298,-2.3881503972932694
1684200789521179600,4.1881796875,-1.278086922416091,-1.2490081274479627,-2.344944877295196
1684200789531205600,4.19820556640625,-1.0464812295436858,-0.8259609943091869,-2.0660726985961197
1684200789541233000,4.20823291015625,-0.7939888159871101,-0.3284405117273331,-1.6401973562940955
1684200789551258600,4.218258544921875,-0.7683870494797825,0.20017770442962646,-1.0116393410041928
1684200789561284600,4.22828466796875,-0.585429067659378,0.626750089085102,-0.13011778751462696
1684200789571310600,4.238310546875,-0.23361703269481657,0.9793804546952247,0.875484026890993
1684200789581336800,4.2483369140625,0.08688552564010024,1.3462573723226785,1.6073513177469372
1684200789591362800,4.25836279296875,0.480084194612503,1.5423761567503214,1.8928908453807234
1684200789601388800,4.268388916015625,0.997005104843527,1.4738374580532312,1.8274679406166077
1684200789611414800,4.278414794921875,1.1883071366392075,1.1558645643264054,1.666724128691852
1684200789621440800,4.288440673828125,1.036397057902813,0.7427303379148245,1.4316791090205312
1684200789631466800,4.298466796875,0.7123332999549805,0.4000947120964527,1.1278992835581303
1684200789641492500,4.308492431640625,0.5320435144305229,0.21031156043112276,0.6974050492838024
1684200789651518500,4.3185185546875,0.6497053596716373,0.20745850908756255,0.11208820982724428
1684200789661544400,4.32854443359375,0.9933611223179847,0.3554337325930595,-0.4483142608642578
1684200789671570400,4.3385703125,1.2868436448454856,0.5138473480045795,-0.7136956743493675
1684200789681596400,4.348596435546875,1.3714029194951056,0.7916396225124597,-0.7242904258608818
1684200789691622700,4.35862255859375,1.4482862526893614,1.0459528217554093,-0.48610067842304705
1684200789701649700,4.368649658203125,1.3788906449019909,1.3069348312377929,-0.006634615708887577
1684200789711675600,4.378675537109375,1.1187819111227988,1.6009177775681018,0.6075716336235404
1684200789721701600,4.38870166015625,0.8443927230566739,1.67042970521152,1.1238166904196143
1684200789731727600,4.3987275390625,0.6266121419191361,1.8153350197523832,1.5111121266975998
1684200789741753600,4.408753662109375,0.6981131975531578,2.1022434976518154,1.8911565689340233
1684200789751779600,4.418779541015625,1.4977052403748035,2.378061257216334,2.6264275307536122
1684200789761805600,4.4288056640625,3.197839763498306,2.2828771281778812,3.656199033036828
1684200789771831600,4.43883154296875,4.342528269293904,1.6686328849226235,4.353898681353033
1684200789781857800,4.44885791015625,4.286158147296309,0.9429249934792518,4.187276917305589
1684200789791883800,4.4588837890625,3.6940503325253724,0.36614509622156616,3.262162598066032
1684200789801909800,4.46890966796875,2.7895371950268744,-0.13864333153665065,2.218057157742977
1684200789811935700,4.478935791015625,1.6818647069394588,-0.7678624410837889,1.4906728575199841
1684200789821961700,4.488961669921875,0.5039064207592979,-1.3151263209998607,1.0521545990049839
1684200789831987700,4.49898779296875,-0.6322650531142949,-1.6723071895211934,0.7222475218564272
1684200789842013700,4.509013671875,-1.724434851643443,-1.7465806324779987,0.5717047859504819
1684200789852039700,4.519039794921875,-2.6217607079863545,-1.4174796110153198,0.6798389974549413
1684200789862066700,4.529066650390625,-2.8773113400697707,-0.8781383407920599,0.8087024009943008
1684200789872092700,4.5390927734375,-2.4290052625119687,-0.10900105746686457,0.9280907047018409
1684200789882118700,4.54911865234375,-1.626113593623042,0.6118383511573076,1.133584343457222
1684200789892144600,4.55914453125,-0.6266881297647953,0.8483639647752046,1.1456570585668087
1684200789902170600,4.569170654296875,0.42992059910483654,0.7250929744154214,0.9231190537691116
1684200789912196600,4.579196533203125,1.4828595534205435,0.5347200401633978,0.25094343054890633
1684200789922222600,4.58922265625,2.110754136365652,0.16619418628513813,-0.7505863121122122
1684200789932248600,4.59924853515625,1.9560791229605674,-0.20148411085307597,-1.5815815011963248
1684200789942274600,4.609274658203125,1.2890467078477144,-0.3579267184525728,-2.1468390107035638
1684200789952300500,4.619300537109375,0.48060909526944157,-0.3220376589477062,-2.4296555431142446
1684200789962326500,4.629326416015625,-0.18820552708506583,-0.13302782974243163,-2.507599199016392
1684200789972352800,4.639352783203125,-0.4386222303461283,0.11632628578841686,-2.5615958698809145
1684200789982378800,4.649378662109375,-0.5872258148830384,0.3698310912579298,-2.4568814036920665
1684200789992404700,4.65940478515625,-0.7807762831926346,0.5388549480110406,-2.194246366305649
1684200790002430700,4.6694306640625,-1.0664682979743927,0.5261117862939835,-1.9754341040328145
1684200790012456700,4.679456787109375,-1.3718921643167734,0.2647211960107088,-1.8745543937012552
1684200790022483700,4.689483642578125,-1.8760837952256202,0.22844284492731093,-1.4682891762763262
1684200790032509400,4.699509521484375,-2.1645921095371246,0.18096505443751812,-0.8687363061964511
1684200790042535400,4.709535400390625,-2.0996225014984606,0.354371656319499,0.16837825232595205
1684200790052561400,4.7195615234375,-1.6090911471515894,0.5759650737434625,1.1782345093056559
1684200790062587600,4.729587646484375,-0.9297136297285556,0.3777525319069624,1.8171715875297785
1684200790072613600,4.739613525390625,-0.6483212849020957,0.17466390846669672,2.178058032570779
1684200790082639600,4.7496396484375,-0.5979770721305161,0.05918225680887699,2.244785005670786
1684200790092665600,4.75966552734375,-0.7587491603016853,0.14435937109589575,1.7514178433761
1684200790102691600,4.769691650390625,-1.0322592274457216,0.30304011301100253,0.997405063946545
1684200790112717600,4.779717529296875,-1.1912783344697206,0.4281757281988859,0.44627954016625876
1684200790122743600,4.78974365234375,-1.2757394825071096,0.5576309601515531,0.133933546410501
1684200790132769500,4.79976953125,-1.171306975064799,0.6231821674704552,-0.027466975857317447
1684200790142795500,4.80979541015625,-0.92149240241535,0.5419359628915786,-0.314740195415914
1684200790152821500,4.819821533203125,-0.6846270354490727,0.2986936082392931,-0.6254205940470099
1684200790162847500,4.829847412109375,-0.4919662825208157,0.021666472885012625,-0.7418459562957287
1684200790172873700,4.839873779296875,-0.3980979122560471,-0.3601765432059765,-0.8110866657823324
1684200790182900700,4.849900634765625,-0.4516208281289786,-0.638173400375247,-0.7900786568060517
1684200790192926700,4.8599267578125,-0.6832674375336617,-0.9236948078304529,-0.7672045616969466
1684200790202952700,4.86995263671875,-1.0556727631937712,-1.128177515977621,-0.6754653124153613
1684200790212978700,4.879978759765625,-1.3102630988776682,-1.0528045873463152,-0.4092302047103643
1684200790223004700,4.890004638671875,-1.407449215388298,-0.7754840220034122,-0.1255941726103425
1684200790233030700,4.90003076171875,-1.408972041041404,-0.38203240118324755,0.1488110898077488
1684200790243056600,4.910056640625,-1.257303077584505,-0.13673895922005175,0.40295419318079945
1684200790253082600,4.92008251953125,-0.996783278786391,-0.1454074188441038,0.42981034366339443
1684200790263108600,4.930108642578125,-0.6214975753843784,-0.1578419530034065,0.231301741489768
1684200790273134600,4.940134521484375,-0.1103298218525946,-0.04085398843586445,-0.1691509902641177
1684200790283160600,4.95016064453125,0.45755774389728904,0.06592588585019112,-0.454513115504384
1684200790293186600,4.9601865234375,1.0913953070253133,0.13136661853194237,-0.6959919676154851
1684200790303212500,4.970212646484375,1.6696316867016254,0.31482991952598094,-0.813534351195395
1684200790313238500,4.980238525390625,2.0396504094861445,0.5087877265274524,-0.7807415041401982
1684200790323264500,4.990264404296875,2.25807411083281,0.5780173300981521,-0.666014177981019
1684200790333290500,5.00029052734375,2.17299768044129,0.5342337179511785,-0.3673746380165219
1684200790343317500,5.0103173828125,1.7718876538224517,0.4285685269087553,0.012761574156582354
1684200790353343700,5.02034375,1.3379109842598438,0.3013958529353142,0.4083186428233981
1684200790363369700,5.03036962890625,0.9910657779224217,0.1811135229974985,0.8117346082970499
1684200790373395700,5.040395751953125,0.7155411560855806,0.08814940809607505,1.114656063364446
1684200790383421700,5.050421630859375,0.5266154980324208,0.04960661921203136,1.2194213829576968
1684200790393447700,5.06044775390625,0.42911987718120215,-0.05319850622415542,1.0302353204026817
1684200790403473700,5.0704736328125,0.3544102347642183,-0.27151334036886693,0.7116369882538914
1684200790413499600,5.080499755859375,0.3160628223218024,-0.3892372179955244,0.41202655743062494
1684200790423525600,5.090525634765625,0.3847837457180023,-0.46440030326843257,0.10275164168328046
1684200790433551600,5.100551513671875,0.471210567805171,-0.4696767823666334,-0.15622136606425047
1684200790443577600,5.11057763671875,0.5746754723243415,-0.40036651477515695,-0.2430927170485258
1684200790453603800,5.120603759765625,0.6373334424197673,-0.32930735768973823,-0.1887163992166519
1684200790463629800,5.1306298828125,0.613659721365571,-0.258251123213768,-0.003937339448928833
1684200790473655800,5.14065576171875,0.4829248248659074,-0.20486147833168505,0.3375800959944725
1684200790483681800,5.150681884765625,0.30257205710783597,-0.12659165921509266,0.6100286713868379
1684200790493707800,5.160707763671875,0.07933554865196346,-0.04863982000648975,0.7364806298702955
1684200790503734500,5.170734619140625,-0.054844373735040426,0.06291618264019488,0.7416273451089859
1684200790513760500,5.180760498046875,-0.09753858321011066,0.11275719512999056,0.6407993649646639
1684200790523786500,5.190786376953125,-0.017635463803261517,0.048618777218461036,0.5134457814663649
1684200790533812500,5.2008125,0.09935878437459468,-0.06201309632062912,0.35431846482753754
1684200790543838700,5.210838623046875,0.26868089342191814,-0.14826397731900215,0.18817016351073979
1684200790553865500,5.220865478515625,0.4115327825643122,-0.1557990489989519,-0.005191138902306556
1684200790563891500,5.230891357421875,0.5563865130484104,-0.08346680323779583,-0.25589754582494495
1684200790573917400,5.24091748046875,0.7168968084782361,0.03045183688700199,-0.5196835068121552
1684200790583943700,5.250943603515625,0.880206379237771,0.020835282757878302,-0.7620362191483377
1684200790593969700,5.2609697265625,1.1036913094967602,-0.20278467205762862,-0.9257245600923896
1684200790603995600,5.27099560546875,1.260774991478771,-0.4861509473055601,-0.8238657755956054
1684200790614021600,5.281021728515625,1.1890443648725748,-0.5779816742628813,-0.4698381104081869
1684200790624047600,5.291047607421875,0.8677112009324133,-0.3641092064797878,0.00929448256790638
1684200790634073600,5.301073486328125,0.4969371297359466,-0.05135433966219425,0.4724459548190236
1684200790644099600,5.311099609375,0.20292612635493276,0.22247779904305934,0.8355712648279965
1684200790654125600,5.32112548828125,-0.023090952730178832,0.38137832118868825,1.1475642073623835
1684200790664151600,5.331151611328125,-0.10896773971915244,0.25723288608193395,1.3820127224452792
1684200790674178600,5.341178466796875,-0.0915022256553173,-0.20283494094014168,1.5330093395985662
1684200790684204500,5.35120458984375,-0.04002762061432004,-0.7147662261903286,1.5823434254795312
1684200790694230500,5.36123046875,-0.01664849859252572,-0.9933329922020435,1.7251128970354794
1684200790704256500,5.371256591796875,-0.05948693884387612,-0.942165699544549,2.04404674474895
1684200790714282500,5.381282470703125,-0.1625472080849111,-0.49136429803967474,2.582056181846559
1684200790724308500,5.39130859375,-0.2640608324058354,0.3924427360385656,3.2112244379892942
1684200790734334500,5.40133447265625,-0.1679552046082914,1.2386667661756277,3.6392648493707176
1684200790744360400,5.4113603515625,0.20137889691293237,1.752383765798807,3.631841421371698
1684200790754386400,5.421386474609375,0.7831494420647621,1.844395694541931,3.132624656265974
1684200790764412400,5.431412353515625,1.5093321114130318,1.5230197143733502,2.2688376430399715
1684200790774438700,5.441438720703125,2.545197692787647,1.0880804833889006,1.3606914097361267
1684200790784464600,5.451464599609375,7.454097862571477,0.8932663518190384,0.4285219112880528
1684200790794490600,5.46149072265625,12.44699382790327,1.115408050775528,-0.21863997444584965
1684200790804516600,5.4715166015625,9.600337738338112,1.487857215577364,-0.7115947565473616
1684200790814542600,5.48154248046875,4.863279989859461,1.6756489011645317,-1.337988725671172
1684200790824568600,5.491568603515625,1.66548757263422,1.5390508117198942,-2.1743376968733963
1684200790834594600,5.501594482421875,0.5498679249346256,1.289338384270668,-2.1414703232772645
1684200790844621300,5.511621337890625,0.38940380673408503,0.775439598339796,-1.2697703449696303
1684200790854647300,5.521647216796875,-0.5046282687604428,0.1336655431240797,-0.31558819054737686
1684200790864673500,5.531673583984375,-2.1026690295875072,-0.12963409565091133,1.0433724498733878
1684200790874699500,5.541699462890625,-3.8060453111112116,-0.042401217877864834,2.2595322006866336
1684200790884725500,5.5517255859375,-4.920880530434847,0.5238321509242058,2.9297815320193767
1684200790894751500,5.56175146484375,-5.754895067340136,1.7384873423933982,3.413106315988302
1684200790904777500,5.571777587890625,-5.750007295298576,3.127985890549421,4.171563215345144
1684200790914803500,5.581803466796875,-5.1051732679903505,3.9793741715818642,5.328175383168459
1684200790924829400,5.591829345703125,-4.363431356590986,3.6625147920548913,6.117317343646287
1684200790934855400,5.60185546875,-4.213979338531196,2.0538503458827733,7.3911840180188415
1684200790944881400,5.61188134765625,-4.157505463898182,0.2091162131667137,7.552761650419235
1684200790954907400,5.621907470703125,-3.64662748709321,-1.022234092515707,6.693198830759525
1684200790964933400,5.631933349609375,-3.4466660557627677,-1.7660183233976363,5.863811369132995
1684200790974959600,5.641959716796875,-3.187046859066188,-2.0069190833598376,4.816022856383025
1684200790984985600,5.651985595703125,-2.905636686322093,-1.850712622603774,3.430094567929208
1684200790995011600,5.662011474609375,-2.7356322940990325,-1.5960113008260726,2.1576950434997677
1684200791005038600,5.67203857421875,-2.622773099899292,-1.2972709308356045,1.044023022736609
1684200791015064600,5.682064697265625,-3.0187495630219576,-1.013110290339589,0.24685265410393475
1684200791025090600,5.692090576171875,-3.874137435084581,-0.6864180835843086,-0.1684299825131893
1684200791035116500,5.702116455078125,-4.5058644357994195,-0.3562877190738916,-0.6226446995928884
1684200791045142500,5.712142578125,-4.520212694625556,-0.15891279710531234,-1.1775941655755042
1684200791055168500,5.72216845703125,-4.183296907758712,-0.22815935181081293,-1.7328922988653181
1684200791065194500,5.732194580078125,-3.840310861067474,-0.22810732936263084,-1.9683415154233574
1684200791075220500,5.742220458984375,-3.2953868222758174,-0.0019856208592653273,-2.0460966630160806
1684200791085246500,5.75224658203125,-2.6875027617022393,0.1815057371854782,-1.9312498021304607
1684200791095272400,5.7622724609375,-2.4138187992960214,0.408799996599555,-1.6944056240826844
1684200791105298400,5.77229833984375,-2.3579060656771063,0.5228010543107986,-1.3334873225986956
1684200791115324400,5.782324462890625,-2.407909575252235,0.5887877304375171,-0.828653886654973
1684200791125350400,5.792350341796875,-2.5137118366777895,0.4299713794440031,-0.5211953726798295
1684200791135376400,5.80237646484375,-2.5855790952757,0.1607183852225542,-0.4938786189481616
1684200791145402400,5.81240234375,-2.4540520254850384,-0.02053600755035877,-0.7095631045892834
1684200791155428400,5.822428466796875,-2.091024184501171,-0.07426350608468055,-1.083228951704502
1684200791165454300,5.832454345703125,-1.7870938446521758,-0.028290859460830688,-1.4320353751122952
1684200791175480600,5.84248046875,-1.5876669585898517,0.10413199012577533,-1.6497668564110994
1684200791185507600,5.852507568359375,-1.2323276262819767,0.18700667268931864,-1.726486523476243
1684200791195533600,5.862533447265625,-0.8914610559627413,0.331696883174777,-1.7056816358566282
1684200791205559600,5.8725595703125,-0.672882894706726,0.47980011697411534,-1.6459055048078297
1684200791215585500,5.88258544921875,-0.49476007795780896,0.49014264729022977,-1.611466059589386
1684200791225611500,5.892611572265625,-0.46778702309727666,0.24937223570942876,-1.466310861940682
1684200791235637500,5.902637451171875,-0.5207274629071355,-0.014402034839987754,-1.3982710526764393
1684200791245663500,5.91266357421875,-0.5351220450930297,-0.03490764725208282,-1.3840578184068202
1684200791255689700,5.922689697265625,-0.36758944981098174,0.17493688018918035,-1.1427575377330184
1684200791265715700,5.9327158203125,-0.10938304252177476,0.4766822772145271,-0.8070034881219267
1684200791275741700,5.94274169921875,-0.042917058445513245,0.5560001440793275,-0.6828954624161124
1684200791285767700,5.952767578125,0.13619593838453292,0.5093161343157291,-0.8987754706293344
1684200791295793400,5.96279345703125,0.210701874922961,0.39637130765914913,-1.0240762132510541
1684200791305819400,5.9728193359375,0.1186205342054367,0.1545049175351858,-1.198546060450375
1684200791315845400,5.982845458984375,0.04515080884695053,-0.18793664701581,-1.4907996987700463
1684200791325871400,5.992871337890625,-0.3391127123892307,-0.25936054576039314,-1.7536828656986354
1684200791335897300,6.0028974609375,-0.8370363689444958,-0.11602759510278701,-1.8440040648758411
1684200791345923300,6.01292333984375,-1.0971041861914097,-0.06419453201293945,-1.725982957868278
1684200791355949300,6.02294921875,-0.9537257889568805,-0.2284007593512535,-1.5925290116682649
1684200791365976600,6.0329765625,-0.5594169667854905,-0.4986550395697355,-1.428359609209001
1684200791376002600,6.04300244140625,-0.12954524832367897,-0.7081810025811195,-1.340528765542805
1684200791386028500,6.053028564453125,0.1427516436383128,-0.7912514999777078,-1.2554285158842802
1684200791396054500,6.063054443359375,0.2534766022883356,-0.8260270452827214,-1.267577218839526
1684200791406080500,6.07308056640625,0.2675496974349022,-0.9034896396696567,-1.4276891626015304
1684200791416106500,6.0831064453125,0.14069646467417476,-1.0388304225295781,-1.566370195800066
1684200791426132500,6.093132568359375,0.08658522751927375,-1.211446166294813,-1.6825032971039413
1684200791436158500,6.103158447265625,-0.10098097874894738,-1.2394792516022919,-1.6149936491936445
1684200791446184400,6.113184326171875,-0.4687552105423063,-1.098975386890769,-1.4704071913436054
1684200791456210700,6.123210693359375,-0.8785692795552312,-0.7729881135344505,-1.3559537136897444
1684200791466236700,6.133236572265625,-1.2002620705880225,-0.4212561580687761,-1.1778621688619255
1684200791476262700,6.1432626953125,-1.524540786460787,-0.20647417422533035,-1.0435013369500636
1684200791486288600,6.15328857421875,-1.8112462891340255,-0.21279285585284233,-0.9901526086002588
1684200791496314600,6.163314697265625,-1.817632775300741,-0.2913502597391605,-0.9760670923635363
1684200791506340600,6.173340576171875,-1.674575718975067,-0.25894144356548787,-0.8674190861180424
1684200791516366600,6.18336669921875,-1.4748013346493243,0.47264498452246184,-0.8438032327309251
1684200791526393300,6.193393310546875,-1.5479671086251734,2.2982442086577413,-0.8551730602681636
1684200791536419300,6.20341943359375,-0.922640914863348,5.5379889309495685,-0.9452620581246912
1684200791546444500,6.213444580078125,3.9046401253759857,9.860795431685448,-0.6583494885720312
1684200791556470500,6.223470458984375,11.840931137537956,11.77967558158636,2.056700474616885
1684200791566496500,6.23349658203125,9.937718512368201,7.008777522826194,4.010877563348412
1684200791576522800,6.243522705078125,3.9513761575877666,1.6276853729844092,2.7610066815912724
1684200791586548700,6.253548828125,-0.34274025523662566,-1.58725048674345,1.2696411656320095
1684200791596574700,6.26357470703125,-2.9528923584938047,-3.5670074224114416,-0.12164309689700603
1684200791606600700,6.2736005859375,-3.6480104658842083,-4.687265251305699,-0.8179930841699242
1684200791616626700,6.283626708984375,-3.5720787343263622,-5.057517782846093,-1.0204127223074435
1684200791626652700,6.293652587890625,-3.499006483852863,-4.404830703949928,-1.0431421482488512
1684200791636678700,6.3036787109375,-3.5992496498465534,-3.242728706538677,-0.6689063922911882
1684200791646704600,6.31370458984375,-3.919078985095024,-1.799331394934654,0.2700295315518975
1684200791656730600,6.323730712890625,-4.118005812680721,-0.24827216551303863,1.644956679650396
1684200791666756600,6.333756591796875,-4.264475307798385,1.0032757095456122,3.19243264375776
1684200791676782600,6.343782470703125,-4.137471560651064,1.7211638671487568,4.681219249139726
1684200791686808800,6.353808837890625,-3.1914532773315907,1.6878700848340986,5.603344323435425
1684200791696834800,6.363834716796875,-1.101750112301111,0.5088321501910686,5.53136571341753
1684200791706861800,6.37386181640625,0.3060860565781593,-1.0207517450034618,4.6876580500155685
1684200791716887800,6.3838876953125,0.39037995828986166,-1.8706816439211367,3.8052225965514777
1684200791726913800,6.393913818359375,0.7384533912479877,-2.047978238978982,2.840594597569108
1684200791736939800,6.403939697265625,1.7152391532748936,-1.4570821380853651,1.9113687513574957
1684200791746965800,6.4139658203125,2.399136193948984,-0.42445641541481016,1.154157175886631
1684200791756991700,6.42399169921875,2.1780139011681077,0.3988771530002355,0.5207767088763415
1684200791767017700,6.434017822265625,1.1144991192370652,0.7936790193855762,0.0819368171915412
1684200791777043700,6.444043701171875,-0.016262568014860153,0.8413432723581791,-0.25424071852862834
1684200791787069700,6.454069580078125,-0.8044575299661606,0.5899912610083818,-0.4913892863504588
1684200791797095700,6.464095703125,-1.2269395035028456,0.1768260549366474,-0.5803387587830424
1684200791807121700,6.47412158203125,-1.4220909042030572,-0.27483108661472794,-0.39170536167472597
1684200791817147600,6.484147705078125,-1.539237858724594,-0.537379030239582,0.10359145350828766
1684200791827173600,6.494173583984375,-1.6232622958451508,-0.597333440464735,0.5554580000266433
1684200791837199600,6.50419970703125,-1.6595581825852392,-0.705690354809165,0.9599433482974767
1684200791847225600,6.5142255859375,-1.685109387949109,-0.7465817526459694,1.320645961204171
1684200791857251600,6.52425146484375,-1.7745161026299,-0.7027700834482908,1.5394059087678789
1684200791867277600,6.534277587890625,-1.8750227418653667,-0.5756260510474444,1.581522026094049
1684200791877304800,6.544304931640625,-1.8196213187694548,-0.4709124616414308,1.5173122965119779
1684200791887330800,6.554330810546875,-1.6596306632995605,-0.2991536269664764,1.4178963751226663
1684200791897356800,6.564356689453125,-1.4657202025711535,-0.22132804448604582,1.3710541060574353
1684200791907382800,6.5743828125,-1.310285164579004,-0.2834977926731109,1.3780864889122544
1684200791917408800,6.58440869140625,-1.1738741221390663,-0.4370727358818054,1.3735691576182842
1684200791927434800,6.594434814453125,-1.012743283658102,-0.6852794349431991,1.2553181873776018
1684200791937460700,6.604460693359375,-0.7797983780711889,-0.8496843997240066,1.163271333451569
1684200791947486700,6.61448681640625,-0.6476811603676528,-0.6791969001591205,0.9905109205186367
1684200791957512700,6.6245126953125,-0.7489121683549136,-0.1331815589994192,0.6279448518276214
1684200791967538700,6.63453857421875,-0.9830758020818233,0.38352117843627925,0.11406214024871587
1684200791977565000,6.64456494140625,-1.1568102476786821,0.7757768674701452,-0.4655211239919066
1684200791987591000,6.6545908203125,-1.2770442814953624,1.038166405662894,-1.1230696714445947
1684200791997616600,6.66461669921875,-1.260299190660566,1.166753038087487,-1.8288944662883877
1684200792007642600,6.674642578125,-1.0151372661225497,0.9364747944265603,-2.295175176475942
1684200792017668600,6.684668701171875,-0.579917537696287,0.4108820635706186,-2.4181961375974117
1684200792027694600,6.694694580078125,-0.0943072000734508,-0.12714578596651555,-2.2289278035864233
1684200792037720600,6.704720458984375,0.41732875549197196,-0.374181687682867,-1.8298147960036992
1684200792047746600,6.71474658203125,0.874905934742093,-0.37075638940930367,-0.9776600606434047
1684200792057773800,6.72477392578125,1.1074872677136212,-0.37438042512536046,0.059928691262006756
1684200792067799800,6.7347998046875,0.9795512812174856,-0.28790099606812,0.8426808045722544
1684200792077825800,6.74482568359375,0.586986233973503,-0.13670447242856024,1.2319506096631287
1684200792087851800,6.754851806640625,0.12810564397461713,0.012633856123685836,1.3119314704813063
1684200792097877800,6.764877685546875,-0.1411347099609673,0.10341770437657832,1.320594961669296
1684200792107903700,6.77490380859375,-0.12821312293708323,0.15499182426929473,1.3114033549539743
1684200792117929700,6.7849296875,0.056721273522824044,0.21516893733441828,1.3437195244081317
1684200792127955700,6.794955810546875,0.2870038280326873,0.23564532365202903,1.3307913615129887
1684200792137981700,6.804981689453125,0.44795945607721804,0.200193486520648,1.2133898477084935
1684200792148007700,6.815007568359375,0.46017786326780913,0.21978256860971448,1.0111343140915034
1684200792158033700,6.82503369140625,0.36257498264983296,0.3375017700612545,0.8246892208077014
1684200792168060000,6.835059814453125,0.2351706918776035,0.3858645266920328,0.7084339544288814
1684200792178086000,6.8450859375,0.15993234941139817,0.40445524539351463,0.6763854960002005
1684200792188112000,6.85511181640625,0.1462606746725738,0.5645633897632361,0.7284699035026133
1684200792198137900,6.865137939453125,0.205792694767192,0.7581915264189243,0.8163635832719505
1684200792208163800,6.875163818359375,0.37561910007484256,0.8359007890433072,1.040383643320948
1684200792218189800,6.88518994140625,0.6901977482534944,0.71202189591825,1.325643477230519
1684200792228215800,6.8952158203125,1.2292512875765562,0.3586111935853958,1.5643737612858413
1684200792238241800,6.90524169921875,1.958040193900466,-0.06857260096669196,1.6266208124928176
1684200792248268500,6.9152685546875,3.256678905957937,-0.4611024307668209,1.253588148714602
1684200792258294800,6.925294677734375,5.693132146388292,-0.6446919884890318,0.44534065188094973
1684200792268320800,6.93532080078125,8.313155655318498,-0.6214426303267478,-0.3270360517568886
1684200792278346800,6.9453466796875,7.697351323139667,-0.5636772545784712,-0.7858703914612531
1684200792288372700,6.955372802734375,4.911618781092763,-0.48580432582497596,-0.8068149798125028
1684200792298398700,6.965398681640625,2.906431051570177,-0.2274333756238222,-0.22963307762518523
1684200792308424700,6.9754248046875,1.258008010983467,0.1871481269866228,0.36437078002542256
1684200792318450700,6.98545068359375,-1.009634211726859,0.8815215534895658,0.8839157551497221
1684200792328476700,6.9954765625,-3.426971175211668,2.0138608653217553,1.6393286106355487
1684200792338502700,7.005502685546875,-5.416899960803986,3.347385012799501,2.309722465005517
1684200792348528600,7.015528564453125,-6.795376764208078,4.655891623398661,2.6795845359236
1684200792358554600,7.0255546875,-6.55790188704133,5.487086426708102,1.8634264120958743
1684200792368580900,7.035580810546875,-4.69227986459732,5.0146939556419845,0.8992715835832059
1684200792378606800,7.04560693359375,-2.758417249619961,3.621159283837676,1.0996139770552515
1684200792388632800,7.0556328125,-1.9008650391303001,2.027651490265131,1.8703848529316485
1684200792398658800,7.065658935546875,-1.2737024237215517,0.9587930092185735,2.3764821713313458
1684200792408684800,7.075684814453125,-0.95519995316267,0.4180407031536102,2.9132874933362007
1684200792418710800,7.085710693359375,-0.9360214977011084,0.15799626678228376,3.2549472598597404
1684200792428737500,7.095737548828125,-1.3812015521928667,-0.16795359717309474,3.13967252895087
1684200792438763500,7.105763427734375,-1.7618553584992884,-0.3747884214043617,2.6533409643813965
1684200792448789500,7.11578955078125,-1.8149270234733819,-0.5947673893690109,1.6715318212345243
1684200792458815700,7.125815673828125,-1.9736448825284838,-0.6099491764098406,0.5372285158529877
1684200792468841700,7.135841796875,-2.178853274601698,-0.5234276617765427,-0.46864159409999845
1684200792478867700,7.14586767578125,-2.5806892774075267,-0.36545769847929477,-1.2568474427714944
1684200792488893700,7.155893798828125,-2.9808900802269576,-0.15164602097272872,-1.7571403126761316
1684200792498919700,7.165919677734375,-3.042947307950258,0.06728314567804336,-1.9872730103865264
1684200792508945700,7.175945556640625,-2.8133842268213627,0.24719489167034625,-2.0666405616119503
1684200792518971600,7.1859716796875,-2.5889313283130524,0.41981706517636774,-2.1018813863411543
1684200792528997600,7.19599755859375,-2.349638588069379,0.4514467136710882,-2.1550880758717654
1684200792539023600,7.206023681640625,-2.012824800272286,0.3990297132134437,-2.2414862563863394
1684200792549050600,7.216050537109375,-1.7054539645805953,0.23183014927804468,-2.447655017924309
1684200792559076600,7.22607666015625,-1.365564714860916,0.042163317468762396,-2.6652321854442356
1684200792569102600,7.2361025390625,-0.9863558466657996,-0.1102683009237051,-2.696401522950828
1684200792579128800,7.24612890625,-0.720692401368916,-0.3089887922823429,-2.5253721715942024
1684200792589154800,7.25615478515625,-0.6613616760000586,-0.5502186380684375,-2.337192071211338
1684200792599180800,7.266180908203125,-0.7534256271913647,-0.7734738512247801,-2.0648539704561233
1684200792609207600,7.27620751953125,-0.805248168887198,-0.9151748167663812,-1.8745339354351163
1684200792619233500,7.286233642578125,-0.8182374143198132,-0.8906962090700864,-1.7666227190315722
1684200792629259500,7.296259521484375,-0.8737561801850795,-0.7278583474755287,-1.5496253972262144
1684200792639285500,7.306285400390625,-1.062473456184566,-0.5193588049024344,-1.2389464598998428
1684200792649311500,7.3163115234375,-1.218206746470928,-0.4157891248345375,-1.0703221238583325
1684200792659337500,7.32633740234375,-1.440129834240675,-0.48900633673667904,-1.0492881036579609
1684200792669363700,7.33636376953125,-1.7617767403051257,-0.6759878749847412,-1.1065557590171695
1684200792679389700,7.3463896484375,-1.8552189941123127,-0.9803396551162004,-1.3238973642155527
1684200792689415700,7.356415771484375,-1.7197697824418543,-1.322374976953864,-1.4326964693695305
1684200792699441700,7.366441650390625,-1.4516355631172657,-1.6168068360954522,-1.4333318446636198
1684200792709467600,7.376467529296875,-1.2703583739906548,-1.8057307405829428,-1.3958549314454196
1684200792719493600,7.38649365234375,-1.1659618877097964,-1.8663620271563528,-1.4938964957416057
1684200792729519600,7.39651953125,-1.1722840764686464,-1.7931757949143647,-1.7032064779147504
1684200792739545600,7.406545654296875,-1.1999728783831,-1.6189865182220935,-1.789663402879238
1684200792749571600,7.416571533203125,-1.2077248076841234,-1.363158822762966,-1.5819219851970672
1684200792759597600,7.42659765625,-1.148502511125803,-1.0856202307552099,-1.0666764608323573
1684200792769623600,7.43662353515625,-1.0443184985518454,-0.8046779677838086,-0.4078030945166945
1684200792779649800,7.44664990234375,-0.9365504900112748,-0.5585603499561548,0.2564157244801521
1684200792789675800,7.45667578125,-0.8342641277521848,-0.35540976719558237,0.7906795453086495
1684200792799702500,7.46670263671875,-0.9163795163810252,-0.16595044065713882,0.9794625800207256
1684200792809728500,7.476728515625,-0.9529612343251704,-0.034275779089331625,1.0319219583153725
1684200792819754500,7.48675439453125,-0.6500364182569086,0.2262304295748472,0.8866133236706256
1684200792829780500,7.496780517578125,-0.3628919396445155,0.5591173993170261,0.7106091065108776
1684200792839806500,7.506806396484375,0.1049418452039361,0.8776631244957447,0.6709744307368993
1684200792849832400,7.51683251953125,0.3479837088480592,0.9573170914471149,0.4979875155717134
1684200792859858400,7.5268583984375,0.30299086704179645,1.0174901128590106,0.1280947572544217
1684200792869884700,7.536884765625,0.4319241209469735,0.8444862465590238,-0.40351708776056766
1684200792879910700,7.54691064453125,0.8363925180830061,0.3829138601928949,-0.8541565767019986
1684200792889936600,7.5569365234375,1.156567598029226,-0.08279752567410469,-1.4168191012799738
1684200792899962600,7.566962646484375,1.225177608396858,-0.42589959996044635,-1.9138719663500785
1684200792909988600,7.576988525390625,0.9887957871638238,-0.5448217474609613,-2.2603186748892066
1684200792920014600,7.5870146484375,0.721380675894022,-0.2027080996900797,-2.576098734746873
1684200792930040600,7.59704052734375,0.5585410607337952,0.48369887797832484,-2.5760908437013623
1684200792940066600,7.607066650390625,0.5377905336499214,1.2099532973885536,-2.3059750951707363
1684200792950092500,7.617092529296875,0.5655762931328266,2.2097043399393557,-1.7066560338467358
1684200792960118500,7.627118408203125,0.681038071046397,2.8246248750209806,-1.1743953695341944
1684200792970144500,7.63714453125,0.7698293572425842,3.191937261456251,-0.6834159791588783
1684200792980171800,7.647171875,0.9074866003513335,3.3226515535593033,-0.17163959220945835
1684200792990197800,7.65719775390625,1.2146598676443099,3.077039547166228,0.3333773836076259
1684200793000223700,7.6672236328125,1.9160370354294776,2.5494839918047187,0.9838257436662912
1684200793010249700,7.677249755859375,3.050127574843168,2.095822524693608,1.7971368074998257
1684200793020275700,7.687275634765625,4.142118509674072,1.6820780574291943,2.6530554254382848
1684200793030301700,7.6973017578125,4.458231454747915,1.1224141301453112,3.158195443113148
1684200793040327400,7.707327392578125,3.4912264975011347,0.3324292891025543,3.074833269293606
1684200793050353400,7.717353515625,1.7198785035133362,-0.63663844589293,2.319036529056728
1684200793060379600,7.727379638671875,-0.16603694989681242,-1.6248393359035254,1.275817223918438
1684200793070405600,7.737405517578125,-1.8688018215239046,-2.2418495367407796,0.3667538757696748
1684200793080431600,7.747431640625,-2.830336822926998,-2.440406361970305,-0.26731442737430333
1684200793090457600,7.75745751953125,-2.9394577073812482,-2.236604621824622,-0.8696002295494079
1684200793100483600,7.767483642578125,-2.5912977651834486,-1.7241916905373333,-1.3283134270921348
1684200793110509600,7.777509521484375,-2.06133514868021,-1.1088806948333978,-1.381635267435014
1684200793120535600,7.78753564453125,-1.5957283922314642,-0.46110710694193835,-1.0893898124217987
1684200793130561500,7.7975615234375,-1.1846680494844912,0.16347908210754394,-0.8018167331337929
1684200793140587500,7.80758740234375,-0.7992068428963423,0.7359469613850116,-0.48752603505104775
1684200793150613500,7.817613525390625,-0.24086802673637867,1.0643541553646325,-0.14897417141497135
1684200793160639500,7.827639404296875,0.49384325537383555,1.0892021808952093,0.1254544718787074
1684200793170665700,7.837665771484375,1.2072411158204077,0.8406576281815766,0.11883768408745526
1684200793180692700,7.847692626953125,1.740576423627138,0.476063268533349,-0.07475450447201729
1684200793190718700,7.85771875,2.230854679995775,0.1576683500021696,-0.48912177980989213
1684200793200744700,7.86774462890625,2.3293559707581997,-0.07582710213959216,-0.8228732574269175
1684200793210770700,7.877770751953125,1.8126871355921028,-0.3984522055864334,-0.8625485574722289
1684200793220796700,7.887796630859375,1.048829253974557,-0.5969008942663669,-0.7001040791094303
1684200793230822700,7.89782275390625,0.45394430264048274,-0.5140186129182577,-0.41434184863567347
1684200793240848600,7.9078486328125,-0.04822539398670196,-0.2297422370880842,-0.3478407932460308
1684200793250874600,7.91787451171875,-0.581937681879662,0.1225678105264902,-0.218354873894155
1684200793260900600,7.927900634765625,-1.2743383835375308,0.5069879836291075,0.19055764316916465
1684200793270926600,7.937926513671875,-2.1117776341944934,0.9867349091112613,0.6299222893804312
1684200793280952600,7.94795263671875,-2.775074954432249,1.2612182052016256,0.9544906358495354
1684200793290978600,7.957978515625,-2.4448411295473575,1.217224165174365,1.2392483654558657
1684200793301004500,7.968004638671875,-1.5432430027127264,0.7975333567261695,1.4420306994259358
1684200793311030500,7.978030517578125,-0.7566781992465257,0.37638591972887514,1.6060802748978138
1684200793321056500,7.988056396484375,-0.22981296423673628,0.18426058885157107,1.5547276888012884
1684200793331082500,7.99808251953125,-0.004437690186500549,0.0830061999887228,0.9678639121636747
1684200793341108500,8.0081083984375,0.06497139813695102,-0.0005851064115762711,0.1567360375881195
1684200793351134500,8.018134521484376,0.011985000293515622,0.08144026584625244,-0.36424189294874665
1684200793361160400,8.028160400390625,-0.11484978349506854,0.21026713676750658,-0.748704736149311
1684200793371187700,8.038187744140625,-0.27604977822210636,0.26380232760012146,-1.0554919267341494
1684200793381213700,8.048213623046875,-0.37111068273968995,0.06332885509431362,-1.3687848459511995
1684200793391239700,8.05823974609375,-0.4209726649522781,-0.26625615049302576,-1.6859288876384495
1684200793401265700,8.068265625,-0.4945154555469751,-0.586378331208229,-1.8310183265745639
1684200793411291600,8.078291748046874,-0.5594605136662721,-0.775976773956418,-1.825975071710348
1684200793421317600,8.088317626953126,-0.6691150666058063,-0.8033692232728004,-1.627659946282208
1684200793431343600,8.098343505859376,-0.8613824363023043,-0.7290045949012041,-1.0517007177576423
1684200793441369600,8.10836962890625,-1.1702905645638704,-0.45399172197878357,-0.2805643695697188
1684200793451395600,8.1183955078125,-1.4425737202614546,-0.000263034850358963,0.3878644683375954
1684200793461421800,8.128421875,-1.578448609998077,0.3941033627271652,0.8024418792948126
1684200793471447800,8.13844775390625,-1.5110294168502092,0.6617588586241007,1.0886419166639447
1684200793481473800,8.148473876953124,-1.2047118165384978,0.7767816605985164,1.2639385700762271
1684200793491499800,8.158499755859374,-0.7323357851505279,0.7315338211178779,1.1842436865925787
1684200793501525800,8.16852587890625,-0.20869988745078444,0.5062473943948745,0.8320733397096395
1684200793511551700,8.1785517578125,0.22928221836090087,0.2279308037519455,0.39770694017708297
1684200793521577500,8.188577392578125,0.5148013607937842,0.052695232877135276,0.051281274425983424
1684200793531603500,8.198603515625,0.6777672326821833,-0.007363806766271591,-0.10262421591132878
1684200793541629400,8.20862939453125,0.7385095784146338,-0.049537645629048346,-0.1307505324602127
1684200793551655400,8.218655517578124,0.7151193504769354,-0.08709902226030826,-0.18436551053076983
1684200793561682700,8.2286826171875,0.6113340548969804,-0.20212533136606214,-0.2995134001895785
1684200793571708700,8.238708740234374,0.4376830497998744,-0.2580693369060755,-0.47521571179330346
1684200793581734700,8.248734619140626,0.22025486229658126,-0.16273440122008323,-0.62787295563519
1684200793591760600,8.2587607421875,0.05316628445498645,-0.015184709650278091,-0.6832555279001593
1684200793601786600,8.26878662109375,0.012984642322733997,-0.03770107736289501,-0.5664966959133744
1684200793611812600,8.2788125,0.03866261587142944,-0.36625557085871696,-0.2886523989573121
1684200793621838600,8.288838623046875,0.07716974892020224,-0.7309627432316541,0.09373129988163709
1684200793631864600,8.298864501953124,0.08970767038874328,-0.9907733708471059,0.4659726671516895
1684200793641890600,8.308890625,0.07244498542062938,-1.0797323417603968,0.804487121386826
1684200793651916500,8.31891650390625,0.04351999277472496,-0.93030224327147,1.1028098504871129
1684200793661942500,8.328942626953125,0.018381459864974022,-0.6214882230341434,1.4296376663208008
1684200793671968800,8.33896875,0.0486934498898685,-0.2886585364371538,1.7211071685254573
1684200793681994800,8.348994873046875,0.17605799317359924,-0.008611176478862762,1.9197844052642583
1684200793692020700,8.359020751953125,0.4143067773222923,0.16814590487480163,1.9759546207755803
1684200793702046700,8.369046630859375,0.6876514978367835,0.2668704829990864,1.8071584352985024
1684200793712072700,8.37907275390625,0.991705683261156,0.38301322891414163,1.3946248051285743
1684200793722098700,8.3890986328125,1.3015361870646476,0.3597930968463421,0.8483484749451279
1684200793732124700,8.399124755859376,1.5541466740429402,0.2610463068902492,0.31310674899518487
1684200793742150700,8.409150634765625,1.6759161737985908,0.18409984533190726,-0.14996990445405245
1684200793752176600,8.4191767578125,1.6782554304011166,-0.02197919209599495,-0.5594467774018645
1684200793762202600,8.42920263671875,1.54048069839254,-0.34781624332666394,-0.9392565340995788
1684200793772229600,8.439229736328125,1.2981233098812401,-0.6685615243762731,-1.2497323500692843
1684200793782255600,8.449255615234375,0.9881472601272165,-0.8719733884215355,-1.3883099228933453
1684200793792281600,8.459281494140624,0.6788783357292413,-0.8637392285615205,-1.3266504623159765
1684200793802307600,8.4693076171875,0.373561656088382,-0.6166121414303779,-1.1505971453174948
1684200793812333600,8.47933349609375,0.18169146901592612,-0.2686164498835802,-1.0128732667133211
1684200793822359600,8.489359619140625,0.11635784997045993,0.0019715923339128495,-0.8794754346147179
1684200793832385500,8.499385498046875,0.12912526934593915,0.17718670494258404,-0.7474591200023889
1684200793842411500,8.50941162109375,0.19518354940414429,0.17348317424952983,-0.582821807770431
1684200793852437500,8.5194375,0.24099720607399938,0.01615676955282688,-0.5020975812390447
1684200793862463500,8.52946337890625,0.24502236993685364,-0.05854162081778049,-0.45946927660703657
1684200793872489700,8.53948974609375,0.219048701377213,0.01618248851597309,-0.4126256923675537
1684200793882515700,8.549515625,0.21477438505887983,0.14449322660863398,-0.23422318189442157
1684200793892541700,8.559541748046875,0.24245690336301923,0.16310031192302704,-0.0009320201531052589
1684200793902567700,8.569567626953125,0.26745982719436284,0.003972995284199714,0.25368513047248126
1684200793912593700,8.57959375,0.25544030357673764,-0.07953472448587418,0.6029144554674625
1684200793922619600,8.58961962890625,0.14644041515365241,0.21754911046922207,1.096077035100758
1684200793932645600,8.599645751953124,-0.023160510835051534,0.843454565423727,1.6050564848080275
1684200793942671600,8.609671630859374,-0.22394611802995204,1.4287053539067507,1.9980659148186444
1684200793952697600,8.619697509765626,-0.38554771582782266,1.70230251481235,2.1719345812544226
1684200793962724600,8.629724609375,-0.4667190285395831,1.4440338559418915,2.048615660099685
1684200793972750600,8.63975048828125,-0.4910450029574334,0.739799545159936,1.6584315166428685
1684200793982776600,8.649776611328125,-0.5480266079168766,0.022715105155110358,1.2047373163059354
1684200793992802600,8.659802490234375,-0.5784666813008487,-0.4683282903671264,0.7658715595275163
1684200794002828500,8.66982861328125,-0.4678483248304575,-0.7915279788315296,0.15331220061928033
1684200794012854500,8.6798544921875,-0.12134133747145533,-0.868115543949604,-0.6494824376359581
1684200794022880500,8.689880615234374,0.6028897594176232,-0.5705646760046482,-1.2724500855728984
1684200794032906500,8.699906494140626,1.8941706560581921,0.0035632454395294185,-1.5968462903454899
1684200794042932500,8.709932373046875,4.300235187965631,0.7084060435086489,-1.6226444562077522
1684200794052958500,8.71995849609375,10.552008932852745,1.367525201278925,-1.3303569156184791
1684200794062984400,8.729984375,12.375296372914313,1.6517302654385566,-0.6672369977742433
1684200794073010700,8.7400107421875,6.926282194969057,1.7071084537893533,-0.4475967602446675
1684200794083036700,8.75003662109375,2.066648452657461,1.720842964631319,-0.6100672498315572
1684200794093062700,8.760062744140624,-0.30778818432092664,1.5309733037263153,-0.6437509082466364
1684200794103088600,8.770088623046876,-0.08463292440772056,1.3054630051195621,0.06610153467804193
1684200794113114600,8.780114501953125,0.6200117207407951,1.0626122801333666,1.0376523186609148
1684200794123140600,8.790140625,0.5189571652989834,0.7292711368829011,1.868724956895411
1684200794133166600,8.80016650390625,-0.8918892182469368,0.30544892771840093,2.4423364532500504
1684200794143192600,8.810192626953125,-2.9155250431299207,0.4000461967796087,3.1469349211692808
1684200794153218600,8.820218505859375,-3.914705592316389,1.09436701631248,4.2954336329028004
1684200794163245600,8.83024560546875,-4.589595735192298,1.7333073094069957,5.59900892457962
1684200794173271600,8.840271484375,-4.5858922044992445,2.529445996904373,6.905313056698441
1684200794183297500,8.850297607421876,-3.3484234159365296,2.9875965921282766,7.738962267422676
1684200794193323500,8.860323486328125,-1.8540613485097883,2.978782002031803,7.70862908847928
1684200794203349500,8.870349609375,-1.3224173547908662,3.0847920609891415,6.493691572937369
1684200794213375500,8.88037548828125,-2.2930900407649575,2.917824552243948,4.398928494168818
1684200794223401500,8.8904013671875,-3.3666987850785253,2.801297190925479,1.8900488999530671
1684200794233427500,8.900427490234375,-3.7613916381314394,2.785067356136441,-0.4508215675100684
1684200794243453400,8.910453369140624,-4.1989048112571234,2.3287626810401676,-2.4314018022596833
1684200794253479400,8.9204794921875,-4.945527480435371,1.7141870138734578,-3.4626042141288518
1684200794263505700,8.930505615234376,-4.5919721089348196,1.2258382642626762,-3.648067749029398
1684200794273531600,8.94053173828125,-2.800715299384296,0.9302776933521032,-3.1406150704979896
1684200794283557600,8.9505576171875,-1.3070929444089532,0.9540431843429803,-2.3141519718855617
1684200794293583600,8.96058349609375,-0.8713681160047649,1.1985042671352624,-1.6417682588726281
1684200794303609600,8.970609619140625,-1.4956161591410635,1.4744208108991383,-1.00449209959805
1684200794313635600,8.980635498046874,-2.278024427449703,1.621414037629962,-0.9738283735260367
1684200794323661600,8.99066162109375,-2.7784365398198365,1.5010674102842807,-1.395007959227264
1684200794333687600,9.0006875,-3.2045477367043493,1.2241723768770694,-1.9388149766877292
1684200794343713500,9.010713623046875,-3.3470448210597037,0.820908387094736,-2.677799990594387
1684200794353739500,9.020739501953125,-3.1109874094754457,0.16862521282434462,-2.846081212286651
1684200794363765500,9.030765625,-2.701196063750982,-0.2974637741833925,-2.8743776247054336
1684200794373792800,9.040792724609375,-2.3724819957792755,-0.5555062230825424,-2.872939116334915
1684200794383818800,9.05081884765625,-2.2546385834261775,-0.8970698357552289,-2.9602544116944074
1684200794393844500,9.060844482421874,-2.1368226436018944,-1.284931089222431,-3.024857232247293
1684200794403870500,9.070870361328126,-2.1147031662523745,-1.453967805457115,-2.961683859975636
1684200794413896400,9.080896484375,-2.2706647123366595,-1.4407254620462655,-2.7595228727743026
1684200794423922400,9.09092236328125,-2.591679457977414,-1.2709955028504132,-2.5151822014912963
1684200794433948400,9.100948486328125,-2.7173855665296314,-1.0403922650188207,-2.3547294814676043
1684200794443974400,9.110974365234375,-2.330151505050063,-1.0017091908812523,-2.421833763447404
1684200794454000400,9.12100048828125,-1.9233236853063105,-1.1384884821116923,-2.483117084188759
1684200794464026600,9.131026611328124,-1.5418419037431477,-1.4229898988693952,-2.0990955550149084
1684200794474052600,9.141052490234374,-1.1772735553190112,-1.5656617552697658,-0.9595409049764275
1684200794484078600,9.15107861328125,-1.137987546852231,-1.4616174434274434,0.41033407429903745
1684200794494104600,9.1611044921875,-1.6931898185521363,-1.3813199178755282,0.9925681453093885
1684200794504130600,9.171130615234375,-2.3438877694576976,-1.3292694126427174,0.4331120155572891
1684200794514156500,9.181156494140625,-2.288891858422756,-1.2640776862859726,-0.6573609159260988
1684200794524182500,9.1911826171875,-1.8905913362666964,-1.1208148782551288,-1.6701006193876264
1684200794534208500,9.20120849609375,-1.564318523967266,-0.8113193054944277,-2.3161592200547454
1684200794544234500,9.211234375,-1.3054688503384588,-0.5129612128198147,-2.5835847065880895
1684200794554260200,9.22126025390625,-1.0263841979324817,-0.42380233542025086,-2.602861946249008
1684200794564287500,9.23128759765625,-0.6664882252335548,-0.5596802938967943,-2.4483660888031125
1684200794574313500,9.2413134765625,-0.3375184289351105,-0.7785054156512021,-2.1829589563548564
1684200794584339500,9.25133935546875,-0.16241057609319687,-0.884872617483139,-1.781863835044205
1684200794594365400,9.261365478515625,-0.20964695904254912,-0.7526888373494148,-1.2810022253409028
1684200794604391400,9.271391357421875,-0.13567922103404997,-0.506595184919238,-0.8171592636942863
1684200794614417400,9.28141748046875,0.21044190881252287,-0.19417291105687617,-0.42052258309721946
1684200794624443400,9.291443359375,0.6989937797799706,0.10002104767560958,-0.061245034557580944
1684200794634469400,9.301469482421876,1.2452373767375946,0.30819501155614853,0.44690322502255436
1684200794644495400,9.311495361328125,1.6232055972218513,0.3255675866395235,1.3062316514045
1684200794654521300,9.321521240234375,1.5307400794923305,0.3140226947963238,2.276454401654005
1684200794664547300,9.33154736328125,1.076608364520967,0.3828261819094419,3.1781577424287795
1684200794674573300,9.3415732421875,0.36278701796531676,0.4698468782365322,3.6175025148957967
1684200794684599300,9.351599365234375,-0.32153993855863805,0.4357166450977325,3.1536107456713913
1684200794694625300,9.361625244140624,-0.8231473981931805,0.2688181099355221,2.6162498356103896
1684200794704651300,9.3716513671875,-0.843748433803767,0.2341074465602636,2.1269833866328
1684200794714677200,9.38167724609375,-0.3648632397174835,0.2386094341546297,1.743079346358776
1684200794724703200,9.391703125,0.5836541669413448,0.26683716525137424,1.6040812100350856
1684200794734729200,9.401729248046875,1.6306018449530004,0.2855634930312633,1.6756249357670545
1684200794744755200,9.411755126953125,2.165874258302152,0.18111176943182944,1.6988514975756406
1684200794754781200,9.42178125,2.2828782972216604,-0.1314998895227909,1.3146516892254352
1684200794764807200,9.43180712890625,2.1235772314511236,-0.6048638359695673,0.19595394925475118
1684200794774833400,9.44183349609375,1.3892331752181053,-1.1063485460072755,-1.527527547186613
1684200794784860400,9.4518603515625,0.42016368665695186,-1.5242343508601188,-2.794765451069176
1684200794794886400,9.461886474609376,-0.4652865845836699,-1.7315999209672213,-3.4026015808477994
1684200794804912400,9.471912353515625,-1.1532866766624152,-1.5085048668086527,-3.702700379709899
1684200794814938400,9.4819384765625,-1.2195195826351641,-0.8777385278195142,-3.7187726858496664
1684200794824964400,9.49196435546875,-1.059115231797844,-0.15215338597297667,-3.426265657290816
1684200794834990300,9.501990234375,-0.8863574492134153,0.28637597845792767,-2.9602763312652707
1684200794845016300,9.512016357421874,-0.6077614571072161,0.6241875451207161,-2.2859125503510236
1684200794855042300,9.522042236328126,-0.12620667848549783,1.1810276471555232,-1.5590812078356742
1684200794865068500,9.532068603515626,0.6229040081162005,2.2004858452171088,-0.7376338915586471
1684200794875094500,9.542094482421875,1.9111714752197264,4.0255087307691575,0.14925620322674513
1684200794885120500,9.55212060546875,4.639083696460723,6.430605294427275,1.634015745049715
1684200794895146500,9.562146484375,8.279959488159417,7.929894004601239,4.471525528346002
1684200794905172200,9.572172119140625,7.828298254954815,6.706634650915861,6.377087054729461
1684200794915198200,9.5821982421875,5.205667778396606,3.6825954570531843,6.30884996932745
1684200794925224200,9.59222412109375,2.6776889314353465,0.6162392164647579,4.927683196187019
1684200794935250200,9.602250244140626,0.7913128747761249,-2.0707149714440107,2.6631729148268697
1684200794945276200,9.612276123046875,-0.9459293629270047,-4.02257559992671,0.8122609702587127
1684200794955302100,9.62230224609375,-2.2726900806844235,-4.859246788820624,-0.5970359188228845
1684200794965328100,9.632328125,-3.09618906879425,-4.57685374251902,-1.6153104600578545
1684200794975354400,9.642354248046875,-3.2953076195597646,-3.939885041758418,-2.2664199143737553
1684200794985380400,9.65238037109375,-3.040208238375187,-2.979073093932867,-2.6577032512441274
1684200794995406300,9.66240625,-2.9170506452620026,-1.4050088364988564,-2.549337861332297
1684200795005433300,9.672433349609374,-2.7055741327047347,0.5288549475222826,-2.0297291733220217
1684200795015459300,9.682459228515626,-2.2155717706680296,2.30016728567481,-1.2785817201957106
1684200795025485300,9.6924853515625,-1.2728244718432427,3.269764012980461,-0.48422202506959433
1684200795035511300,9.70251123046875,0.3395534053614363,2.9778169563919303,-0.029813246722519397
1684200795045537300,9.712537353515625,2.386888122272491,1.7436890026897192,-0.16366203745901584
1684200795055563500,9.7225634765625,3.445592873573303,0.3893886091649532,-0.5867334282562137
1684200795065589500,9.732589599609375,3.276217134642601,-0.4413467599391937,-0.7145110823854803
1684200795075615500,9.742615478515624,1.842454497346282,-0.7207932313948869,-0.6709259154200553
1684200795085641500,9.752641357421876,0.11038754338920116,-0.6770248168170452,-0.6846387989521027
1684200795095667500,9.76266748046875,-0.833760269883275,-0.6106950263410806,-0.841507523009181
1684200795105693400,9.772693359375,-0.8993401187747716,-0.5442518386185169,-0.9016217999711632
1684200795115719400,9.782719482421875,-0.8370072889804839,-0.43698798020780083,-0.9273656052976846
1684200795125745400,9.792745361328125,-0.8279951304852962,-0.3414227428972721,-1.024367597413063
1684200795135771400,9.802771484375,-0.9884259309381246,-0.15456395424604416,-0.9738061616942286
1684200795145797400,9.81279736328125,-1.2997796987861394,0.1159147823780775,-0.6861889510035515
1684200795155823000,9.822822998046876,-1.7037825242370366,0.43566403812766075,-0.11154840386211871
1684200795165849300,9.832849365234376,-2.2378514070153237,0.6540320637643336,0.5366027851700782
1684200795175875300,9.842875244140625,-2.5607155799150467,0.7328349668443203,0.961002209700644
1684200795185901300,9.8529013671875,-2.3018460325419903,0.6055594170182943,1.3222618719682098
1684200795195927300,9.86292724609375,-1.5564029285371304,0.47516544291079044,1.486025616236031
1684200795205954300,9.872954345703125,-0.7089876427888869,0.2645107681304216,1.181593172083795
1684200795215980300,9.882980224609375,-0.11656710880696773,0.2329191135585308,0.9235738117992878
1684200795226006300,9.89300634765625,0.2745464427207596,0.27293606664836406,0.6255988732233643
1684200795236032300,9.9030322265625,0.46631461245715616,0.4638023373752832,0.37350744168311356
1684200795246058200,9.913058349609376,0.5026216051131487,0.43401451735496516,0.15796061094701289
1684200795256084500,9.92308447265625,0.4646563603887334,0.256421569699049,0.09688801034688949
1684200795266110500,9.9331103515625,0.28015728660617023,0.278245863494277,0.06172580381184816
1684200795276136400,9.943136474609375,-0.08000818721652031,0.368361018705368,-0.06344196007996797
1684200795286162400,9.953162353515625,-0.4438654282292351,0.3336363268047571,-0.23373539837747812
1684200795296188400,9.9631884765625,-0.7303653618603945,0.07307283499538898,-0.4253168316364288
1684200795306214400,9.97321435546875,-0.9766869778275489,-0.284751007604599,-0.5925725096732377
1684200795316240400,9.983240478515626,-1.1830080073177813,-0.6264730257093906,-0.6201075823307037
1684200795326266400,9.993266357421875,-1.325976216316223,-0.9182084853738546,-0.3715641986608505
1684200795336292400,10.003292236328125,-1.462356863617897,-1.0593272671133278,0.033086861565709114
1684200795346318300,10.013318359375,-1.5950409944891928,-0.9175754481673241,0.44045682536214587
1684200795356344300,10.02334423828125,-1.735041001331806,-0.5637812994748354,0.8544485453858971
1684200795366370600,10.03337060546875,-1.7387234892368315,-0.18811258810460565,1.0539423592045902
1684200795376396500,10.043396484375,-1.6161808131515978,0.18220540988743303,1.1278875931203365
1684200795386422300,10.05342236328125,-1.3828501961827278,0.4372895935028791,1.1501131611928344
1684200795396448300,10.0634482421875,-1.0216454789727927,0.4845078562736511,0.9738371413543819
1684200795406474200,10.07347412109375,-0.5326701949615031,0.29419395873248577,0.7619158076390624
1684200795416500200,10.083500244140625,-0.11582308550663292,-0.03769640118777752,0.5488832978114485
1684200795426527200,10.09352734375,0.12034085519202053,-0.26912264584004875,0.3276142900362611
1684200795436553200,10.10355322265625,0.14401106911487876,-0.37639468755722044,0.1253776072502136
1684200795446579200,10.1135791015625,0.06985504199266433,-0.4273918843448162,-0.08304828556478024
1684200795456605400,10.12360546875,-0.05581716428995132,-0.42197745808064935,-0.3412929790377617
1684200795466631400,10.13363134765625,-0.21074702923893926,-0.3688759824901819,-0.5872060142040252
1684200795476657400,10.143657470703126,-0.2824228569179773,-0.2284001748293638,-0.8218097198486327
1684200795486683400,10.153683349609375,-0.2646095523297787,-0.027401801666617393,-0.9348241046100855
1684200795496709400,10.16370947265625,-0.19360650934576987,0.16635434528291224,-1.1564198601216078
1684200795506735400,10.1737353515625,-0.004607201534509659,0.304022109785676,-1.3270070206686853
1684200795516761300,10.18376123046875,0.35725554119274017,0.2811158659726381,-1.3161337444767356
1684200795526787300,10.193787353515624,0.7817793958205729,0.13773615356385707,-1.2043673139497637
1684200795536813300,10.203813232421876,1.1190338400572537,0.07582067239880562,-0.9026613721519708
1684200795546839300,10.21383935546875,1.338068805170059,0.1103986493051052,-0.39924394048601386
1684200795556864500,10.223864501953125,1.479438346800208,0.09547931259274482,0.15058686730861662
1684200795566890500,10.233890380859375,1.5617606561779975,0.056902036917209624,0.6201654499977827
1684200795576916500,10.24391650390625,1.6814635787926613,0.006864040550589561,0.9639835635989904
1684200795586942500,10.2539423828125,1.829756489945203,-0.11956102992594242,1.147059034319222
1684200795596968400,10.263968505859374,1.9297988726697861,-0.22781974459290502,1.2700465315625071
1684200795606994400,10.273994384765626,1.803180033186823,-0.3710147480845451,1.3525722545579075
1684200795617020700,10.284020751953125,1.4452477617762982,-0.5791589013487101,1.3835408087953924
1684200795627046700,10.294046630859375,1.0041342260710895,-0.6889765358954668,1.3329375797614453
1684200795637073400,10.304073486328125,0.5113596228420734,-0.6516179883599281,1.1281523815363645
1684200795647099400,10.314099365234375,0.0808459532149136,-0.45387540212273597,0.8079813932433724
1684200795657125400,10.32412548828125,-0.17568265705518424,-0.26322774258255954,0.605513532049954
1684200795667151400,10.3341513671875,-0.2549865684598684,-0.16679098313450813,0.48207946008294816
1684200795677177300,10.34417724609375,-0.20901194907464085,-0.1476560745537281,0.31560294972509145
1684200795687203300,10.354203369140626,-0.11384440584480762,-0.09678864162564277,0.12443652700781821
1684200795697229300,10.364229248046875,0.026977000383287666,-0.04280044632852077,-0.06300415318459272
1684200795707255600,10.374255615234375,0.1916699883252382,-0.03185819655358791,-0.3383551720201969
1684200795717281500,10.384281494140625,0.3308123554252088,-0.09003332214653491,-0.641795098003745
1684200795727307500,10.3943076171875,0.4679588725328445,-0.06387538306117058,-0.8700152400910853
1684200795737333500,10.40433349609375,0.6079319913685322,0.05664192467629909,-1.089283137176931
1684200795747359500,10.414359375,0.7666413748562335,0.10750058977603912,-1.323354051119089
1684200795757385500,10.424385498046876,0.919981340265274,0.11858897002339362,-1.4971505291014908
1684200795767411500,10.434411376953125,0.9921154331058263,0.16983692670166492,-1.530555955097079
1684200795777437400,10.4444375,0.971777140084654,0.27734102360904217,-1.402837045417726
1684200795787463400,10.45446337890625,0.9314363618679344,0.3780769415557384,-1.1876359593793748
1684200795797489400,10.464489501953125,0.8997166970022022,0.37487376160025593,-0.8990417203500867
1684200795807515600,10.474515625,0.908682093746215,0.19187515550851822,-0.5407096359670162
1684200795817541600,10.484541748046874,0.9013175563275814,-0.029110943672060966,-0.0782293409757316
1684200795827567600,10.494567626953126,0.8545394385397433,-0.24763445213139057,0.3671276775181293
1684200795837593600,10.504593505859376,0.7479238149046897,-0.4370183753460645,0.7817980274558067
1684200795847619600,10.51461962890625,0.582260374495387,-0.40841012049913406,1.1767337493538856
1684200795857646600,10.524646484375,0.38720498151555655,-0.16726386134326457,1.4737746219500898
1684200795867672300,10.53467236328125,0.2676911517322063,0.18576281010806558,1.6456670198768377
1684200795877698300,10.5446982421875,0.18205767197981476,0.5807856257677078,1.727977492686361
1684200795887724300,10.554724365234375,0.10318930244818329,0.9296680370211601,1.7987049335993825
1684200795897750500,10.56475048828125,0.03858721254765987,1.145453060427308,1.787143821273744
1684200795907776500,10.574776611328126,0.01918649263754487,1.2355068408399819,1.7464647510133682
1684200795917802500,10.584802490234376,0.019665216065198183,1.2863006240099668,1.7740530151627958
1684200795927828500,10.594828369140625,-0.004847878422588109,1.366282507741451,1.89510223781988
1684200795937854500,10.6048544921875,-0.04796688918098807,1.2972551487445831,1.9291724113345146
1684200795947880400,10.61488037109375,-0.04207549305483699,0.9220990630716085,1.6959236274302005
1684200795957906400,10.624906494140625,0.08182122798785567,0.43067806640863415,1.2223799405023454
1684200795967932400,10.634932373046874,0.5442962622821331,0.11343933217525481,0.5288350737780332
1684200795977958400,10.64495849609375,1.5642612408220766,0.01165770456790924,-0.24326778135448693
1684200795987984400,10.654984375,2.7968887268334623,0.08560556883215904,-0.6770283239483833
1684200795998010400,10.66501025390625,3.6979870874524114,0.21479075167179107,-0.6554854774430394
1684200796008036600,10.67503662109375,4.374468883433938,0.3550684064120054,-0.37993835151344535
1684200796018062600,10.6850625,5.508786801862716,0.47703825104534625,0.03706453302502632
1684200796028088600,10.695088623046875,6.885872443169355,0.6238046832829713,0.6002624796539545
1684200796038114600,10.705114501953124,6.586614771306515,0.7678244471609592,0.8909870087102055
1684200796048140500,10.715140625,4.789187748688459,0.9784171626210212,0.5878767530724406
1684200796058166500,10.72516650390625,2.9658664063572884,1.2418810520470143,0.1361208273217082
1684200796068192500,10.735192626953125,1.7888509174525737,1.1094283918440342,0.07785159370452165
1684200796078218500,10.745218505859375,1.3418074071764945,0.8713701618313788,0.48231823727488515
1684200796088245500,10.75524560546875,1.402020176076889,0.88817165902853,0.9762368959724903
1684200796098271500,10.765271484375,1.530675782084465,0.9637292965769767,1.0728545649453998
1684200796108297500,10.77529736328125,0.5199532271316275,0.883816970950365,0.9198734959766268
1684200796118323500,10.785323486328124,-0.8708546865899115,1.0489496654838324,0.7157192891314625
1684200796128349400,10.795349365234374,-1.9205822776436805,1.6948673963755367,0.3647179860278964
1684200796138375400,10.80537548828125,-3.6674224378407,2.285700953426957,0.18237696706205606
1684200796148401400,10.8154013671875,-5.056289702355861,2.6776234649837014,0.2381160976797342
1684200796158427400,10.825427490234375,-5.747030909836292,2.9296815787762402,0.7226759764015674
1684200796168453400,10.835453369140625,-6.131730484402179,2.8885815066248175,1.8403741839408874
1684200796178479400,10.845479248046875,-5.11608512262702,2.595743638676405,3.5005835239112377
1684200796188505300,10.85550537109375,-2.874228279362619,2.059382261046767,4.92766215339899
1684200796198531300,10.86553125,-1.639851319335401,1.4883610734462738,5.4392181755959985
1684200796208557600,10.8755576171875,-1.9815943802282212,1.1460305680543184,5.1553883744895455
1684200796218583600,10.88558349609375,-2.5831644353494045,0.909748115542531,4.051659655591846
1684200796228609500,10.895609619140625,-2.6458140760079023,0.8430506607979535,2.5097096152991054
1684200796238635500,10.905635498046875,-2.480280691719055,0.8079729176759719,1.1778919794782996
1684200796248661500,10.91566162109375,-2.8004043337389826,0.6242465818315744,0.21053075613975525
1684200796258687500,10.9256875,-3.8539012872636316,-0.020131518402695656,-0.3273778509318828
1684200796268713500,10.93571337890625,-4.493628931343555,-0.6579302402466535,-1.2603630496770142
1684200796278739500,10.945739501953126,-4.649913425771892,-0.8310293836146593,-2.397545709887147
1684200796288765400,10.955765380859376,-3.8539185306593775,-0.597049947348237,-3.591988426671922
1684200796298791400,10.96579150390625,-2.702404855018854,-0.15974281818866728,-4.264516516591608
1684200796308818700,10.975818603515625,-2.015122263559699,0.5701794760793447,-4.044991137613356
1684200796318844700,10.9858447265625,-1.257469081801176,1.4348960252404213,-3.1916289261594413
1684200796328870700,10.99587060546875,-0.6358189462035894,2.0612503930062056,-2.278020920318365
1684200796338896600,11.005896728515625,-0.9890563377961515,2.262612338784337,-1.4558260005444288
1684200796348922400,11.01592236328125,-1.2699895406782626,2.0732126334786414,-1.3947349875047803
1684200796358948400,11.0259482421875,-1.7209546083122491,1.6588877359777687,-1.4594932908803224
1684200796368974300,11.035974365234376,-1.7616759102791546,0.89341248229146,-1.7202806545734404
1684200796379000300,11.046000244140625,-1.904769499222934,0.09064590108692645,-2.3331623773038386
1684200796389026300,11.0560263671875,-2.128279271662235,-0.44300504854023454,-2.9927088205754755
1684200796399052500,11.066052490234375,-2.1521020457983018,-0.796862910118699,-3.200999396573007
1684200796409078500,11.07607861328125,-2.0519600020915267,-0.9493804532289505,-2.9901132511243222
1684200796419104500,11.0861044921875,-1.9541081151485442,-0.9865233121871948,-2.5638117923647163
1684200796429130500,11.096130615234374,-1.8377289301291106,-0.8897118742078542,-2.3137848921388384
1684200796439156500,11.106156494140626,-1.864116294056177,-0.8015110281854867,-2.1340444110602137
1684200796449182500,11.116182373046875,-1.9620704723298548,-0.912241685923934,-1.579331676442921
1684200796459208400,11.12620849609375,-1.8093489310801028,-1.0482868176609277,-0.8908531531974673
1684200796469234400,11.136234375,-1.7774053943306207,-1.269244859790802,-0.07358984460681676
1684200796479260400,11.146260498046875,-1.5955430987924337,-1.4755284798800945,0.6177189336284995
1684200796489286400,11.156286376953124,-1.8081705349504946,-1.555662923824787,0.8644123055174946
1684200796499312400,11.1663125,-2.089099938440323,-1.6480717429310083,0.392199574932456
1684200796509338600,11.176338623046876,-2.19775115955621,-1.5840993292361496,-0.49589492720663547
1684200796519364600,11.186364501953125,-2.055202929535508,-1.4199831182688474,-1.5032698887646196
1684200796529390600,11.196390625,-1.6617320194929837,-1.1974714169561862,-2.2834426531061527
1684200796539416600,11.20641650390625,-1.190211655086279,-0.9823492413729429,-2.658497031970322
1684200796549442600,11.216442626953125,-0.8654302503883838,-0.8467454236626625,-2.682787131357193
1684200796559469800,11.2264697265625,-0.7488368380963802,-0.7769044101953506,-2.405307576060295
1684200796569495800,11.236495849609375,-0.8007979114800691,-0.7252472881942987,-1.8684774118751286
1684200796579521800,11.246521728515624,-0.9919926835089922,-0.6196200910747051,-1.387848150600493
1684200796589547800,11.2565478515625,-1.0811036301136017,-0.50116439204216,-1.1242176724359392
1684200796599573800,11.26657373046875,-1.008729298776388,-0.3470277232974768,-1.0132403464600443
1684200796609599700,11.276599853515625,-0.874601983359456,-0.16595628587603567,-0.9966127445250749
1684200796619625700,11.286625732421875,-0.5288607927411795,-0.07169570142328739,-0.9223825561881065
1684200796629651700,11.296651611328125,-0.09353314696103333,-0.03679273034632206,-0.6593669950515031
1684200796639677700,11.306677734375,0.18528262537568807,-0.04578735318481922,-0.18476649254709482
1684200796649703700,11.31670361328125,0.3888303907603025,-0.07962240276932715,0.35163375578820705
1684200796659729700,11.326729736328126,0.5577624775767326,-0.0720177729845047,0.7624135280281304
1684200796669756000,11.336755859375,0.655342561841011,-0.05130582434535026,1.1226172515019774
1684200796679782000,11.346781982421875,0.6648451342016458,-0.052905660757422444,1.3115890867844224
1684200796689808000,11.356807861328125,0.4481657923042774,0.30011925712823867,1.0022218165785073
1684200796699833900,11.366833740234375,0.4528288156792521,0.5538029262959957,0.9396928796902299
1684200796709859800,11.37685986328125,0.82402958785519,0.5852548801362514,0.976026760353148
1684200796719885800,11.3868857421875,1.1543322401925922,0.5568623138666152,0.8128148047491908
1684200796729911800,11.396911865234374,1.1999389761134982,0.4226876521766186,0.606487053257227
1684200796739937800,11.406937744140626,0.9788894563078879,0.3616121289670467,0.44980040776878594
1684200796749963800,11.4169638671875,0.6986895361363887,0.5929536179453134,0.3288350640028715
1684200796759989800,11.42698974609375,0.7434475462734699,1.4137258114397524,0.3517772559121251
1684200796770015700,11.437015625,1.5556955109201371,2.3761995549976827,0.7601873764112591
1684200796780043000,11.44704296875,2.6646412338137626,3.191401839405298,1.4088026758238672
1684200796790069000,11.457069091796875,3.5071441976010798,3.7274633573055267,2.16549578037858
1684200796800094700,11.4670947265625,3.5968940266311167,3.5556443168759344,2.820866399270296
1684200796810120700,11.47712060546875,2.8085972848057743,2.6788877858310935,2.8641575517252087
1684200796820146700,11.487146728515626,1.5531633620940148,1.363293262797594,2.160659738524258
1684200796830172700,11.497172607421875,0.37743177551999685,0.16922025610804556,1.0367051009386776
1684200796840198700,11.50719873046875,-0.5299076714456081,-0.6159153913378715,-0.20880787786990404
1684200796850224600,11.517224609375,-0.9978023927010595,-0.831473620250821,-1.3141823181480168
1684200796860251000,11.5272509765625,-1.0179635755896568,-0.537944262906909,-2.056620395117998
1684200796870276900,11.53727685546875,-0.6656302201647311,-0.057286652320623396,-2.3406416271433232
1684200796880302800,11.547302734375,-0.22287359342761337,0.5317968461930751,-1.9053750639006495
1684200796890328800,11.557328857421876,-0.053580783540010446,0.7898048083007335,-1.0314467420190572
1684200796900354800,11.567354736328125,-0.1279834058344364,0.6012041444182395,-0.12819617180228232
1684200796910380800,11.577380859375,-0.10116320344805717,0.1472077462643385,0.554169713781774
1684200796920406800,11.58740673828125,-0.09122158208303154,-0.5061638077646493,0.810199653814733
1684200796930432800,11.597432861328125,-0.07672200515270233,-1.0983289056807757,0.7229740825653076
1684200796940458800,11.607458740234375,-0.06667758100032806,-1.4911714546918868,0.4791010287940502
1684200796950484700,11.617484619140624,-0.14591186123490332,-1.6162451105594635,0.19638444962650536
1684200796960510700,11.6275107421875,-0.46027365179248153,-1.4448323128432035,-0.09276976137310267
1684200796970537000,11.637536865234376,-0.8867326392013579,-1.2394278136759995,-0.3478443003773689
1684200796980563000,11.64756298828125,-0.9189001208998262,-1.0332482384830712,-0.6058095923870802
1684200796990589000,11.6575888671875,-0.4742858105320483,-0.6419441510856151,-0.9092074327945708
1684200797000615000,11.667614990234375,0.06081478991415351,-0.17691197965443134,-1.475012639312446
1684200797010641000,11.677640869140625,0.11697097690012305,-0.0006131634622812271,-2.1332287107631562
1684200797020668000,11.68766796875,-0.014935630260035394,-0.11033084476590156,-2.4631200058206915
1684200797030694000,11.69769384765625,-0.2362216987678781,-0.03457973047196865,-2.5274264737755057
1684200797040720000,11.707719970703126,-0.4922293904364109,0.2329927633166313,-2.4491104774296284
1684200797050745600,11.71774560546875,-0.7881517803966999,0.3545926055938005,-2.063504601673782
1684200797060771800,11.727771728515625,-1.1112976928472518,0.39025779321491716,-1.7619746009647845
1684200797070797800,11.7377978515625,-1.0719500173211096,0.24451135167479512,-1.703397616572678
1684200797080823800,11.74782373046875,-0.5920248491952196,0.25662790592610835,-1.7451573216766119
1684200797090849800,11.757849853515625,0.23965981999039648,0.6127870301842689,-1.989077137199044
1684200797100875800,11.767875732421874,1.0404092161536216,0.32360476213395595,-1.6301579005777835
1684200797110901800,11.77790185546875,0.9022352556943893,0.18648820177316663,-1.0855047876819968
1684200797120927700,11.787927734375,0.6424117685973644,0.5002238963216543,-0.6603074907720089
1684200797130953700,11.79795361328125,0.5725368528604508,1.078853805360198,-0.03395663013756275
1684200797140979700,11.807979736328125,0.4129132771372795,1.7047002236038444,0.5724868762388825
1684200797151005700,11.818005615234375,-0.269385096168518,1.397357444962859,1.592616397690773
1684200797161031700,11.82803173828125,-0.8341302722394466,1.0567875195026397,2.5008500170171257
1684200797171058000,11.838057861328124,-1.05307580550313,0.8142986135661602,2.4858561537638306
1684200797181084000,11.848083984375,-1.2794096954524516,0.15104454794824124,2.4462375523418185
1684200797191110000,11.85810986328125,-1.1782499991357325,-0.4052887736082077,2.605562729640305
1684200797201135900,11.868135986328125,-1.032092638707161,-0.39525662441551684,2.06279908375293
1684200797211161900,11.878161865234375,-1.029953288590908,-0.5183171868950128,1.8171353471726177
1684200797221187800,11.888187744140625,-0.8726724766016006,-0.43267420866191386,1.525837986664474
1684200797231213800,11.8982138671875,-1.1960194645822046,-0.8865747452259063,1.9990742150783538
1684200797241239800,11.90823974609375,-1.5066051706671715,-0.6703636053621769,1.819482056429237
1684200797251265800,11.918265869140624,-1.2858254077136515,-0.5568231509000062,1.171007772922516
1684200797261293000,11.92829296875,-0.8429998073935508,-0.48169162980914115,0.5068859845593572
1684200797271319000,11.938319091796876,-0.5681272197246551,-0.15147007988393305,-0.1989763658158481
1684200797281344800,11.9483447265625,-0.45720951498150825,0.29427520727515216,-0.7710387330323457
1684200797291370800,11.958370849609375,-0.3903168299257755,0.7990653885990381,-0.9626901627875863
1684200797301396700,11.968396728515625,-0.5386404284775257,0.5571691878587007,-0.7385077517837285
1684200797311422700,11.978422607421875,-0.6267477509975433,0.41345454440712925,-1.5214391671836376
1684200797321448700,11.98844873046875,-0.7831342444956302,0.19906243666410445,-1.5490760927803813
1684200797331474700,11.998474609375,-0.6917652898311615,0.30827216844558714,-1.1465705201499163
1684200797341500700,12.008500732421876,-0.10597381860017775,2.00594468536973,-1.7045349500395357
1684200797351526700,12.018526611328125,-0.06703415761934593,4.620687623548507,-2.701402984499931
1684200797361553000,12.028552978515625,-0.1435784498512745,5.586991739049553,-3.0599872900784013
1684200797371579000,12.038578857421875,0.3127706489086151,3.9173546455204487,-2.081584155982733
1684200797381604900,12.04860498046875,0.5815022496044635,2.4697365013509986,-1.6592125840179621
1684200797391630800,12.058630859375,0.4274959292411804,1.1831284188270568,-0.9835298294596373
1684200797401656800,12.06865673828125,0.12366492158081382,0.011519172880053519,0.11196173390336334
1684200797411682800,12.078682861328126,-0.16296589015470817,-0.5713011735856532,0.9837859231125563
1684200797421708800,12.088708740234376,-0.314743994808197,-2.4023972415715455,1.938255881500244
1684200797431734800,12.09873486328125,-0.3218202168047428,-4.519911958113313,2.666796073760092
1684200797441760800,12.1087607421875,-0.3386696447968483,-5.442513710010052,3.0015336398050185
1684200797451786800,12.118786865234375,-0.4780149871230125,-5.718876828497648,2.8198808953642844
1684200797461812700,12.128812744140625,-0.7015735671401023,-5.355517563602328,2.1482792726397513
1684200797471839000,12.1388388671875,-0.9236573984295129,-4.3566655157178635,1.2716349697977303
1684200797481865000,12.148864990234374,-0.9340110346615313,-3.2622365400850772,0.6917751536380499
1684200797491892000,12.15889208984375,-1.1974743395656346,-2.215634314510226,0.4662909393206238
1684200797501918000,12.16891796875,-2.0831454139500853,-1.0603981112152336,0.6430144106656313
1684200797511944000,12.17894384765625,-2.9324954671531915,-0.09796060801446438,0.7808896073739975
1684200797521970000,12.188969970703125,-3.335475379297137,0.5734323403954505,0.7710763616289943
1684200797531995600,12.19899560546875,-3.136321172696352,1.3158055354356766,0.6414174968630075
1684200797542021600,12.209021728515625,-2.27249134324193,1.5375199488908051,0.5187053094297647
1684200797552047600,12.219047607421874,-1.241457858198881,1.3067623972803353,0.16456220116913317
1684200797562073300,12.2290732421875,-0.25582411526255305,1.099670967939496,-0.22948051741197703
1684200797572099600,12.239099609375,0.3533167404390871,0.7945996413618326,-0.3615725276090205
1684200797582125600,12.24912548828125,0.6531595187135041,0.2634621358603239,-0.22191519672423599
1684200797592151600,12.259151611328125,-0.8087209595642983,-4.48700045311451,2.227793977250904
1684200797602177500,12.269177490234375,-2.360267095720023,-8.394286709085106,5.114169059872627
1684200797612203500,12.27920361328125,0.9501087675034999,0.021716741767525673,2.730959333851933
1684200797622229500,12.2892294921875,0.37458953783139587,2.355245614296198,1.9743819646313785
1684200797632255500,12.29925537109375,-1.616656029447913,1.049918218255043,2.876296025547385
1684200797642281500,12.309281494140626,-1.4285400803424417,1.6365806271016596,2.8915915020957588
1684200797652307500,12.319307373046875,-1.4730050988823176,1.7206126630067824,2.34174871160239
1684200797662333400,12.32933349609375,-1.1763501568637789,2.8549504551798104,0.7604495344787836
1684200797672359400,12.339359375,-0.39908933444619177,3.449002389755845,-1.28349725702703
1684200797682385700,12.3493857421875,0.415403924909234,3.1933243319004774,-3.585067395237088
1684200797692411600,12.35941162109375,1.587102164313942,2.443756841441989,-4.985191966825723
1684200797702437600,12.369437744140624,3.6124411398530003,2.7115742499023674,-5.574228703588247
1684200797712463600,12.379463623046876,6.952068378132581,5.90729453702867,-5.2995630366683
1684200797722489600,12.389489501953125,5.00274866630435,8.923413459286094,-6.402200453197955
1684200797732515600,12.399515625,4.70915734964013,8.706780879139899,-7.427195827120542
1684200797742542600,12.40954248046875,4.49785385556221,4.73077413816452,-5.794290673661232
1684200797752568600,12.419568603515625,2.674817759913206,1.2229413737773895,-4.044412460942566
1684200797762594800,12.4295947265625,0.33479254763517524,-1.8199509891152381,-1.6509557739347218
1684200797772620800,12.439620849609375,-1.6485072117388246,-4.250243368828296,0.36365649427622554
1684200797782646800,12.449646728515624,-3.2201310902833935,-5.299562452146411,2.2965317056514323
1684200797792672500,12.459672607421876,-3.9546401278197765,-5.109776377871632,3.954012351310253
1684200797802698500,12.469698486328125,-4.748840540730953,-3.3102281253159043,3.980998850174248
1684200797812724500,12.479724365234375,-4.323595020765066,-0.6413228043168783,2.432892625339329
1684200797822750500,12.48975048828125,-3.6263282109081745,1.1443167498737572,0.5694499927610158
1684200797832776400,12.4997763671875,-4.069857575583458,0.3408680316239595,-0.07671937480419874
1684200797842802400,12.509802490234375,-4.6451942882955075,-1.164599074923992,0.1987225371852517
1684200797852828400,12.519828369140624,-3.743493285608291,-1.909201051929593,1.29656161352247
1684200797862854400,12.5298544921875,-4.659448439097404,-0.7380383807063102,1.344081781849265
1684200797872880600,12.539880615234376,-5.606371562302113,0.8080278627336025,1.0422004834845662
1684200797882906600,12.54990673828125,-5.6117737136065955,1.9043699785113333,0.07328063252717257
1684200797892932600,12.5599326171875,-4.7239925152003766,1.5845336290001868,-0.20945055968761442
1684200797902958600,12.56995849609375,-3.9587247667849064,1.8206623522549867,-0.5750058733224869
1684200797912984600,12.579984619140625,-2.7779706758737563,2.643250655260682,-0.8779331736087799
1684200797923010600,12.590010498046874,-0.6792945153146982,3.207881265041232,-0.7389578336387872
1684200797933036500,12.60003662109375,1.2606056262612342,4.179157323735952,-0.9892863471597433
1684200797943062500,12.6100625,2.3877508765816686,4.720640866684914,-1.3178706512719391
1684200797953088500,12.620088623046875,2.5310528475791214,4.513086496007443,-1.4286469017177819
