time,seconds_elapsed,z,y,x
1684201064016587300,0.035587158203125,3.6217718627780675,0.2527870125889778,0.37513314318880436
1684201064026612200,0.0456123046875,3.248734084433317,0.9888152225166559,0.8174616076417267
1684201064036638200,0.05563818359375,3.462702413806319,1.6210791065871715,0.4836670215353369
1684201064046664200,0.065664306640625,4.31515744728744,2.246502915504575,-0.23481121091544627
1684201064056689200,0.075689208984375,3.499576977217197,2.77738615398407,0.1602890538945794
1684201064066715100,0.085715087890625,2.064397458860278,3.1099715104311705,0.4319365420371294
1684201064076740400,0.095740234375,1.7731980057686567,3.4722307051301002,0.45253947734385724
1684201064086766300,0.105766357421875,2.4550270079970358,3.6522774756789205,0.45123160961568354
1684201064096792300,0.115792236328125,3.779414493817091,3.793226746070385,0.3098772655546665
1684201064106817300,0.1258173828125,5.443156099566817,3.630857086509466,0.37987288506180045
1684201064116843300,0.13584326171875,6.01706891695559,2.9982722999215126,0.19917992556393146
1684201064126868200,0.1458681640625,4.535529213961959,2.9048125104576346,-0.4488765709221363
1684201064136894200,0.155894287109375,3.0115958918750283,3.7108348785877228,-1.016165293996036
1684201064146920200,0.165920166015625,2.966961215856671,4.381920953005552,-1.6615756598874925
1684201064156945200,0.175945068359375,2.8883284086465832,5.086223068326712,-1.6248486882537603
1684201064166971100,0.18597119140625,3.3886014048069715,5.272340098699927,-1.4748101024776696
1684201064176996400,0.195996337890625,3.4829753865063187,5.147383931732177,-1.025052072545886
1684201064187022300,0.206022216796875,3.2549680103868246,4.557662719836831,-1.0116396332651376
1684201064197047300,0.21604736328125,2.962200285065174,4.32518170543462,-0.8838152173846959
1684201064207073300,0.2260732421875,3.1110715806275606,4.328374656257033,-1.3584931690394877
1684201064217099300,0.236099365234375,3.420265540093183,4.213424919518828,-2.5883552819907663
1684201064227124200,0.246124267578125,3.6900907812446353,4.715924359557032,-3.4536224507719275
1684201064237150200,0.256150146484375,3.8293911153852935,5.433970922592282,-4.041398373818398
1684201064247175200,0.266175048828125,3.340512204420566,6.01561287292838,-4.743198735451698
1684201064257201200,0.276201171875,2.563707747468352,7.0294766119837755,-4.983469965338707
1684201064267227100,0.28622705078125,1.400585759359598,7.913193045169114,-4.910115975314379
1684201064277252000,0.296252197265625,-0.6449369031608104,8.579778301036358,-4.417702460482716
1684201064287278000,0.306278076171875,-1.7840636831760406,9.122736008191108,-3.329865138199925
1684201064297303300,0.31630322265625,-2.203139574596286,9.427686923259497,-2.7208997121304273
1684201064307329300,0.326329345703125,-2.4177786428377033,8.967073737314342,-2.803743415033817
1684201064317354200,0.336354248046875,-2.0276748711407184,8.442167235156893,-1.1149030238628386
1684201064327380200,0.346380126953125,-1.6351929721355438,7.654622773003577,1.4588760357648134
1684201064337406200,0.35640625,-1.7351906389355658,7.416601367869973,3.1285201435565946
1684201064347431200,0.36643115234375,-2.7879011182576416,7.419638543608785,5.46911120955646
1684201064357457200,0.37645703125,-4.213078298038244,6.682854546877741,7.5572297357439995
1684201064367482000,0.386482177734375,-6.031901159906387,6.48283524788022,7.6852447057604785
1684201064377508000,0.396508056640625,-7.504229382440448,7.597360086080432,7.877435503089427
1684201064387534000,0.4065341796875,-9.147609752684831,8.617979144614935,8.782041579568386
1684201064397559000,0.41655908203125,-7.98621619580388,8.621125041425227,10.615307977330684
1684201064407585000,0.4265849609375,-5.987242518490553,7.254208911955356,12.152018363404274
1684201064417610200,0.4366103515625,-4.837840428176522,4.604751803269982,13.988960234808921
1684201064427636200,0.44663623046875,-3.205205323830247,1.6735405307084321,16.6351410983026
1684201064437661200,0.4566611328125,-1.6494395241528748,-1.2610697366416455,19.271987147217988
1684201064447687200,0.466687255859375,-0.716813221848011,-3.290590527909994,18.752084152436254
1684201064457713200,0.476713134765625,-0.39356092641353607,-3.6460938186079264,17.867203351646662
1684201064467738000,0.486738037109375,-0.7233288873523473,-2.947242369908094,16.016412987631558
1684201064477764000,0.49676416015625,-1.55907068644166,-2.00230837469399,13.787663755482434
1684201064487789000,0.5067890625,-3.034638621549308,-1.248414837729931,11.653481981778144
1684201064497815000,0.51681494140625,-3.985596407097578,-0.11552549079954623,9.322787455892563
1684201064507841300,0.52684130859375,-4.090338638076186,1.0609914009332657,6.669612203466892
1684201064517866200,0.5368662109375,-4.413341927185654,2.145332697793841,4.735220596179365
1684201064527892200,0.546892333984375,-4.994862296968698,2.3415648794680832,4.013044385993481
1684201064537917200,0.556917236328125,-4.973845227903127,0.9993845473259687,3.4729145957410332
1684201064547943400,0.566943359375,-4.381033356516063,0.33918577762544155,4.164948181119561
1684201064557969400,0.576969482421875,-3.519426756069064,0.3611567864149809,4.805077391737699
1684201064567994400,0.586994384765625,-2.2922867615580556,0.21162030494213102,4.961449856710433
1684201064578020400,0.597020263671875,-2.423490883004665,0.18314649012982845,5.186653281325102
1684201064588045000,0.607045166015625,-1.9777531946301459,-0.5532330174535512,5.516418904176354
1684201064598071300,0.6170712890625,-0.42692602039873595,-1.540875689059496,5.814981579512358
1684201064608096000,0.627095947265625,2.2455782018750905,-2.219552949258685,5.973158463558554
1684201064618122200,0.637122314453125,2.2261671067014337,-1.8163485807090998,6.145107267847657
1684201064628148200,0.647148193359375,2.9685116601690646,-2.6010353153437373,5.151852601578831
1684201064638173400,0.65717333984375,4.317129039621353,-3.972297949585318,5.720146410042047
1684201064648199400,0.667199462890625,5.771634605216979,-5.45010723387897,5.796098599866032
1684201064658224400,0.677224365234375,7.345265731930732,-6.412510834810138,4.653372334054112
1684201064668250400,0.68725048828125,6.075681264922022,-5.677131444180011,3.8624955126076936
1684201064678276400,0.6972763671875,5.5994671897411346,-4.777817044368386,1.6769564766317604
1684201064688301300,0.70730126953125,4.131676902897656,-4.1512569248974325,0.015353636476397514
1684201064698327300,0.717327392578125,4.284169311566651,-3.810087864500284,-0.7070300789803267
1684201064708352300,0.727352294921875,3.170711518076062,-3.9727567992687223,-1.8651047205716371
1684201064718378200,0.737378173828125,4.16061365904659,-4.508313290256262,-4.813690321782231
1684201064728403500,0.747403564453125,2.2547966965973374,-3.6426410478055473,-3.264601515650749
1684201064738429200,0.75742919921875,1.3134779692709446,-3.8496465524286028,-0.932089126688242
1684201064748455200,0.767455078125,-0.793252318406105,-4.604488476158679,-3.8224797285616394
1684201064758480400,0.77748046875,-1.0564186861902474,-4.0231738580808045,-5.277353542947769
1684201064768506400,0.78750634765625,0.1319967331290245,1.4860744238138197,-8.95533010802865
1684201064778531300,0.79753125,-2.749890244293213,5.8625850422084325,-6.316935076105595
1684201064788557300,0.807557373046875,-2.007906925353408,6.223605635023117,-1.7559727302014827
1684201064798583300,0.817583251953125,1.6887842770695685,0.6063187109529972,5.3695338139951225
1684201064808608300,0.827608154296875,1.1362487403608859,-4.0039305206894875,8.145303764954209
1684201064818634200,0.83763427734375,-0.019878566554933787,-1.5140113552704453,1.634946303898096
1684201064828659200,0.8476591796875,0.6603269261248409,-0.7745311051927507,-1.831260318636894
1684201064838685200,0.857685302734375,7.6232760331034655,-1.1575379043661058,-3.996615813761949
1684201064848710400,0.86771044921875,-7.586887207382917,-2.9727856842264533,-0.2702864289224148
1684201064858736400,0.877736328125,-13.563174616616964,-0.29468218064084645,-2.409595628643036
1684201064868762400,0.887762451171875,-8.745376274994015,6.360325305020809,-3.285478299462795
1684201064878787300,0.897787353515625,-5.336027265712619,5.574440300512314,-6.364325188311934
1684201064888813300,0.907813232421875,-1.7093261298388243,4.8252223541438575,-9.989377387934923
1684201064898838300,0.91783837890625,2.274716764206439,5.009110602551698,-11.282305905652045
1684201064908864300,0.9278642578125,1.8994221468456087,0.9692113812498748,-7.0866750014990565
1684201064918890200,0.93789013671875,1.4155261388599871,0.16613485731333494,-5.271000959050655
1684201064928915200,0.947915283203125,1.8915701181709765,3.2015280966222286,-5.135839624410868
1684201064938941200,0.957941162109375,2.458659811541438,5.938914833173156,-2.4303198522418734
1684201064948966700,0.967966552734375,3.2088989176511764,6.687573976615071,-2.9593145004957915
1684201064958992600,0.97799267578125,2.111225845530629,4.22978714851588,-5.192566889283061
1684201064969018600,0.9880185546875,1.668363420331478,2.599605574801564,-3.8993209761798377
1684201064979043800,0.9980439453125,2.753826414698362,3.52191506575346,-0.6180173320531844
1684201064989069800,1.00806982421875,2.3364801235496997,3.7324919991225003,1.8879858299434185
1684201064999094800,1.0180947265625,1.4704349561333656,3.080536157110333,3.838098153454065
1684201065009120800,1.028120849609375,-1.6073182922601699,1.2488064673960209,5.892568092539906
1684201065019145700,1.038145751953125,-6.640128919351101,-0.9091945733129978,7.216980712801218
1684201065029171700,1.048171630859375,-4.144491668546199,-0.1606172629356384,8.587459503188729
1684201065039197700,1.05819775390625,-2.2653533080555497,0.7217635377317667,7.409380768966674
1684201065049222700,1.06822265625,-2.805714715106785,-0.09352116426229476,5.560818017873168
1684201065059248600,1.07824853515625,-2.769746160624921,0.4658025712817907,4.014081912347674
1684201065069273600,1.088273681640625,-1.9836416681468485,2.917878328257799,4.314879799389839
1684201065079299600,1.098299560546875,0.7656804208695888,3.6023891169160605,7.960694801056385
1684201065089324800,1.10832470703125,5.190881712675094,3.9913995404183864,8.321213874089718
1684201065099350800,1.118350830078125,8.134466729119419,3.0139070914268493,6.140882928150892
1684201065109376800,1.128376708984375,7.522306306400894,0.6689543230861426,4.070456125998497
1684201065119401700,1.138401611328125,5.934246256840229,-1.2570710223942994,4.506032485842704
1684201065129427700,1.148427734375,3.9144904882609843,-2.827580217695236,4.4988001965016124
1684201065139452700,1.15845263671875,1.5450680261828005,-2.416307108980417,2.1922090152591465
1684201065149478700,1.168478759765625,-0.5705250746466219,-0.4079635457754135,-0.9914216056227684
1684201065159504600,1.178504638671875,-1.6972013922810554,1.6949463068306445,-4.1185011949822306
1684201065169529600,1.188529541015625,-2.7606594755887985,3.0715041248708963,-6.637212155121564
1684201065179555600,1.1985556640625,-3.990140480268001,3.068911770290136,-7.746506106930971
1684201065189580800,1.208580810546875,-3.79991250744462,0.5434644876331091,-7.37924983459711
1684201065199606800,1.218606689453125,-3.0545903994709254,-2.300589310479164,-7.107744677534699
1684201065209631700,1.2286318359375,-1.9016876075595617,-4.0709892099618905,-6.5989493522226805
1684201065219657700,1.23865771484375,-0.27480938623957335,-5.407972557982802,-4.811330899174511
1684201065229683700,1.24868359375,0.6958231869198381,-5.415429888251423,-1.506540580998361
1684201065239708700,1.258708740234375,1.3633990612596272,-4.868414430138468,0.8147580477714538
1684201065249734700,1.268734619140625,2.037832108017802,-4.828650575026869,-0.46610623040348287
1684201065259759600,1.278759521484375,3.340757703614235,-0.6596358751207589,-1.7455995124861596
1684201065269785600,1.28878564453125,3.196874133336544,-0.8532698569953441,1.241598143452406
1684201065279811600,1.2988115234375,2.3787357954770325,-2.0554384918570516,4.464552182202041
1684201065289836500,1.30883642578125,0.8748124112397432,-1.6318044987410305,6.486095710980892
1684201065299862500,1.318862548828125,-0.030519056904315948,-1.5133318485736846,6.338040407976508
1684201065309887700,1.3288876953125,-0.3744757021933794,-1.9437942264050243,4.223173575595021
1684201065319913700,1.338913818359375,-0.7064659422915428,-2.498114454573393,2.1936869788572193
1684201065329939700,1.348939697265625,-1.2078723994612692,-2.642021405726671,0.6872729468479752
1684201065339964700,1.358964599609375,-1.5398983684599399,-2.342341124537587,0.013876257400214672
1684201065349990700,1.36899072265625,-1.7434873426377773,-2.118562179768085,-0.3040633185788989
1684201065360015600,1.379015625,-1.9486358212172985,-2.27502758372128,-0.43372254867106674
1684201065370041600,1.38904150390625,-0.9965542923361063,-2.4893641618847844,-0.13004267645180226
1684201065380066600,1.399066650390625,-0.02873104097638279,-2.652897604528069,-0.31309242820888755
1684201065390092500,1.409092529296875,0.6616945612162352,-2.9140818585842845,0.04484554229006171
1684201065400118500,1.419118408203125,1.7425801646649837,-2.7628204530149696,1.4826277904912828
1684201065410143500,1.4291435546875,2.1893688233971593,-2.1829162862569094,3.3902965182870624
1684201065420169500,1.43916943359375,1.2312614583551882,-2.8539059145629406,4.559506886398792
1684201065430194700,1.449194580078125,0.08788757882211357,-3.711322369843721,4.425442699345946
1684201065440220700,1.459220703125,-0.23127901820130645,-4.8963189206302165,3.4974764978066086
1684201065450246700,1.46924658203125,0.1346411101579666,-4.7797711010456085,2.0308207679510115
1684201065460271600,1.479271728515625,0.6629664808481931,-5.242823496836423,1.1083517025232315
1684201065470297600,1.489297607421875,0.42532253072485326,-6.129259710374474,0.8863209896605462
1684201065480322600,1.499322509765625,0.334594212051481,-6.2984133309870955,0.7147109158065169
1684201065490348500,1.5093486328125,0.3763876732945442,-5.3975517017334695,0.7916101041570305
1684201065500373500,1.51937353515625,0.28188509677946566,-3.8451246910899877,0.19985241799801587
1684201065510399500,1.5293994140625,-0.4026858976334333,-0.21527999649345875,-0.6184311735510826
1684201065520425500,1.539425537109375,-1.5046248105049131,4.987275202840566,-1.565939110906422
1684201065530450700,1.54945068359375,-3.2305344108760354,12.845515007072686,-3.2601506737217307
1684201065540476700,1.5594765625,-4.872655136448144,19.159851298856733,-2.104442761261761
1684201065550501600,1.569501708984375,-7.191615969920158,19.27019383406043,-0.6765068573575467
1684201065560527600,1.579527587890625,-7.13980336509645,14.735588749206066,-3.8535470669984817
1684201065570552600,1.589552490234375,-5.230120082607865,7.674711036786436,-6.052082362669706
1684201065580578600,1.59957861328125,-4.0355496477901935,1.8814263252973555,-6.231596049255132
1684201065590604500,1.6096044921875,-3.702240360982716,-1.6413257758021353,-6.016484979587793
1684201065600629500,1.61962939453125,-3.578618365228176,-2.5546874056667086,-5.669708016180992
1684201065610655500,1.629655517578125,-3.377626129545271,-1.830620851689577,-5.074095992681384
1684201065620680400,1.639680419921875,-3.1718443214982748,-1.0400380447536706,-3.7377266849055886
1684201065630706400,1.64970654296875,-2.7195041661188006,-0.7114578322947025,-2.0166335449054835
1684201065640732700,1.659732666015625,-1.6544254958719014,-1.405209327507019,0.15998831738233565
1684201065650757600,1.669757568359375,0.7775637508869171,-1.5317010334789751,2.889832383468747
1684201065660783900,1.679783935546875,7.032653488454223,-1.2705664637833833,4.736040972651541
1684201065670808600,1.68980859375,6.644820876559614,-0.9041226768761873,4.256003247529268
1684201065680834800,1.699834716796875,0.6352408540546893,-0.7701648728072643,3.0171961961001155
1684201065690859500,1.709859619140625,-0.7994432820007205,-1.1309838055700063,3.221704330949485
1684201065700885800,1.7198857421875,-0.10024842669069767,-1.4408563949495554,4.05919501953274
1684201065710911700,1.729911865234375,0.7024234619677067,-1.6592758585125207,3.0658506291538474
1684201065720936400,1.7399365234375,1.4044342514812946,-1.819153116735816,1.659396854543686
1684201065730962700,1.749962646484375,1.8837468771994113,-1.013578492373228,0.14530921916663647
1684201065740987600,1.759987548828125,1.4971195494413374,-0.5484948830157518,-0.7781286912932992
1684201065751013600,1.770013671875,1.1874399984158575,-0.13305413322746754,-1.502173033438623
1684201065761039600,1.78003955078125,0.8573718854866922,0.385539532521367,-1.790940875469148
1684201065771064800,1.79006494140625,0.40974648366943,0.6134001936465502,-1.2386147437274455
1684201065781090800,1.8000908203125,-0.247727829503268,0.47306291767358777,-0.606618059225753
1684201065791115800,1.81011572265625,-0.5310789071820676,0.5721732802450656,-0.44720155038200315
1684201065801141800,1.820141845703125,-0.3647572951249778,1.1194313149422406,-1.1676930223513393
1684201065811166700,1.830166748046875,-0.8094738237582146,1.5053046094626188,-1.1978435382042079
1684201065821192700,1.840192626953125,-1.3128973929040133,1.6529986779391765,-0.814617397191748
1684201065831218700,1.85021875,-1.4932118744783103,1.6647282786995172,-0.41389724667333067
1684201065841243600,1.86024365234375,-1.3702547723732887,1.4804618446290492,-0.28182481795959174
1684201065851269600,1.87026953125,-1.0576926516488194,1.2000707857996225,-0.26291619241535663
1684201065861294800,1.880294921875,-0.6037316170692444,0.859624194458127,-0.07201061259135604
1684201065871320800,1.89032080078125,-0.05129413390755653,0.5278215128213167,0.3429078668884933
1684201065881346800,1.900346923828125,0.49075347266495223,0.38828152470588684,0.810262051526457
1684201065891371800,1.910371826171875,1.1528959237791596,0.2493488548338413,1.146671277110651
1684201065901397800,1.920397705078125,1.9368325706988572,0.2307446921288967,1.3505651525191962
1684201065911422700,1.930422607421875,2.6342338205903766,0.18566519495248793,1.4258021798111498
1684201065921448700,1.94044873046875,3.698492114365101,0.12130348967909813,1.5489228019148111
1684201065931473700,1.9504736328125,3.872791281172633,0.06846914059221744,1.5043809187464414
1684201065941499600,1.960499755859375,2.48909294372797,0.0765273593634367,1.2469475416563451
1684201065951525000,1.970525146484375,1.0518100233510137,0.10379998169243335,0.9466445985242724
1684201065961550300,1.98055029296875,0.12594283991754054,0.13921382490098475,0.6884598185449838
1684201065971576300,1.990576416015625,-0.3025210575729608,0.11475392190515994,0.5067229029521346
1684201065981601300,2.000601318359375,-0.370233534578979,0.04803425532877445,0.3309218071490526
1684201065991627300,2.010627197265625,-0.1952200820222497,-0.09871697933971882,0.1573449632667005
1684201066001652200,2.02065234375,0.06326046603322029,-0.22294366298913953,0.11135112772434949
1684201066011678200,2.03067822265625,0.3006441577851772,-0.3236807499796152,0.13952479054629802
1684201066021704200,2.0407041015625,0.4818944589048624,-0.3358692004233598,0.15733575704693795
1684201066031729200,2.050729248046875,0.5588584561198949,-0.20215572650432587,0.26018501388579607
1684201066041755100,2.060755126953125,0.5975257481664419,-0.09354922131299973,0.4242226066589355
1684201066051780000,2.070780029296875,0.6150351013720036,-0.15167816967666148,0.5465466715574264
1684201066061806000,2.08080615234375,0.6533220157988369,-0.28520985728800297,0.588137157574296
1684201066071832000,2.09083203125,0.6516326014071703,-0.2539350135803223,0.6918643662914633
1684201066081857300,2.100857177734375,0.6523078703202306,-0.05774900913536548,0.8022200532376765
1684201066091883300,2.11088330078125,0.7437497440904378,0.15429273608922958,0.8502657067432999
1684201066101908200,2.120908203125,0.9071725659660994,0.25822365068495273,0.8737763461902737
1684201066111934200,2.130934326171875,1.0983921801753342,0.3316320012450218,0.903189633809775
1684201066121959200,2.140959228515625,1.2182669522255658,0.34307109462618823,0.9525193357765674
1684201066131985200,2.150985107421875,1.1761503965079785,0.23445874421596527,0.9816483996272086
1684201066142011100,2.16101123046875,0.9830381004199386,-0.018880057036876677,0.9243700767435132
1684201066152036000,2.1710361328125,0.7608475938856601,-0.28707155950665475,0.8830942096337675
1684201066162062000,2.18106201171875,0.5744232511289418,-0.33385669155716896,0.9081222679063677
1684201066172087300,2.19108740234375,0.43043899695575233,-0.3395435050219297,0.92466073025316
1684201066182113300,2.20111328125,0.3756955993771553,-0.3200859403580427,0.8382995207481085
1684201066192139300,2.21113916015625,0.33006957423388955,-0.1847089171409607,0.7744117165967822
1684201066202164200,2.221164306640625,0.3062783642798662,-0.013004443001747131,0.6943024070933461
1684201066212190500,2.2311904296875,0.2786123587191105,0.08577858731150627,0.6186757959619165
1684201066222215200,2.241215087890625,0.3118634709358215,0.23373452159464359,0.6300690043747424
1684201066232241400,2.251241455078125,0.3841355109423399,0.32570494928359983,0.6327293096251786
1684201066242266000,2.26126611328125,0.4907064186528325,0.36461715600192546,0.6600103344563394
1684201066252292400,2.271292236328125,0.5933189441263675,0.4686527000159025,0.7403839209191501
1684201066262318300,2.281318359375,0.7019631509795784,0.4424100052565336,0.7536710533197969
1684201066272343300,2.29134326171875,0.8165034301340579,0.535019899892807,0.8688009689304977
1684201066282369300,2.301369384765625,0.9393618941701948,0.6522066019028425,1.1453333065051585
1684201066292394200,2.311394287109375,1.0977566587507723,0.7741688477516174,1.6170619799003003
1684201066302420500,2.32142041015625,1.093738070759177,0.9315677331626415,2.2256299310848116
1684201066312445200,2.331445068359375,0.8167115199267864,1.102669565233588,2.7307170495286583
1684201066322471400,2.341471435546875,0.41988866910785433,1.22637193274796,3.0171485575661063
1684201066332497400,2.351497314453125,0.09661474636346101,1.2708739222973584,3.093741091120243
1684201066342522400,2.3615224609375,0.11284326597824693,1.2030249594300986,2.9746392031386493
1684201066352548400,2.37154833984375,0.6356213778048754,0.9910206236064434,2.6014573401480914
1684201066362573300,2.3815732421875,1.7707511971384287,0.6874690539419651,2.0901887565903365
1684201066372599300,2.391599365234375,2.8280761845186353,0.3625485330343246,1.6004764635413884
1684201066382625300,2.401625244140625,2.983778202883899,0.0427338108330965,1.1157434202097356
1684201066392650200,2.411650146484375,2.597827751474082,-0.13245675185620784,0.6733173406012356
1684201066402676200,2.42167626953125,3.504201129886508,-0.22155425445735452,0.49520548363775013
1684201066412701400,2.431701416015625,7.527645329341292,-0.22172493484914302,0.9710079092778265
1684201066422727400,2.4417275390625,7.062355968278646,-0.24438275685906408,0.9076616646572947
1684201066432753400,2.45175341796875,2.9225989270389077,-0.4283534228533506,0.009464724568277598
1684201066442778400,2.4617783203125,0.281578149722144,-0.1670668774664402,-0.4469350814655423
1684201066452804400,2.471804443359375,-0.482441571393609,0.3200584678292274,-0.7728210864044726
1684201066462829300,2.481829345703125,-0.9047393474698067,1.047538629642129,-0.5868532552435993
1684201066472855300,2.491855224609375,-1.919102268218994,1.6423966199040412,-0.26583047242686153
1684201066482880300,2.50188037109375,-2.7695775260597464,2.386269113591313,-0.22826748836040495
1684201066492906200,2.51190625,-2.8442355844199656,3.3286762206763028,-0.9598276129633188
1684201066502932200,2.52193212890625,-3.764315124362707,3.9043876119196415,-1.4170181309834122
1684201066512957400,2.53195751953125,-5.175227047425508,3.822328337392211,-1.29144207855165
1684201066522983400,2.5419833984375,-5.0882583735466,3.4017566544562574,-0.49929947495311494
1684201066533008400,2.55200830078125,-4.290964670795202,2.84338802767992,0.6973460125729442
1684201066543034400,2.562034423828125,-3.5450621325850484,2.2519921605706212,2.081729117411375
1684201066553059300,2.572059326171875,-2.746544440996647,1.9782856940716504,3.303321414667368
1684201066563085300,2.582085205078125,-2.222138289576769,1.7072148367732762,3.5534862620592116
1684201066573111300,2.592111328125,-1.8685843793809414,1.3389590320080518,2.959022239550948
1684201066583136300,2.60213623046875,-1.5673253045678137,1.046538512688875,1.9563737219929693
1684201066593162200,2.612162353515625,-1.5326120108440517,1.156857667016983,1.1756669969052076
1684201066603187200,2.622187255859375,-1.6077790416397153,1.0049112017929553,0.2613438285320997
1684201066613213200,2.632213134765625,-1.6122142476081847,0.8132681014746427,-0.8261354740932584
1684201066623238400,2.64223828125,-1.6577809437796474,0.5681248816370964,-1.755694497781992
1684201066633264400,2.652264404296875,-1.722089311430603,0.2962304329961538,-2.3701138053432107
1684201066643290400,2.662290283203125,-1.7800035941302774,0.14336217675209045,-2.9283126285105943
1684201066653315300,2.6723154296875,-1.8894098713971674,0.05424187779724598,-3.1802605599269267
1684201066663341300,2.68234130859375,-2.0456974345654246,-0.13251637308895586,-3.1539275565356015
1684201066673366300,2.6923662109375,-2.103755948041379,-0.3009060235917568,-3.2057226257026192
1684201066683392300,2.702392333984375,-2.126026524299383,-0.300687412405014,-3.2711633583843707
1684201066693418200,2.712418212890625,-1.9968270206734537,-0.3618050211906433,-3.3089725722968577
1684201066703443200,2.722443115234375,-1.924161889696121,-0.5879483570039272,-3.3190234261900184
1684201066713469200,2.73246923828125,-1.9393977450117468,-0.7893009504318237,-3.1838606302455066
1684201066723494400,2.742494384765625,-1.9171186931863426,-0.8890379204690456,-3.0813395824477077
1684201066733520400,2.752520263671875,-1.8465362137019634,-0.9135165281653403,-2.849376454439759
1684201066743545300,2.76254541015625,-1.812024580030143,-0.7861345953553914,-2.4626444972634314
1684201066753571300,2.7725712890625,-1.6991373287796974,-0.7781295680761336,-1.9461103943929075
1684201066763597300,2.782597412109375,-1.3466273746788502,-0.8858668892174959,-1.4607479671165347
1684201066773622300,2.792622314453125,-0.9886685075223446,-1.0204980625033377,-1.1410498570322989
1684201066783648300,2.802648193359375,-0.7666694319069385,-1.1509311995774507,-1.1166121658682822
1684201066793673200,2.812673095703125,-0.9225120277866721,-1.2468746225506067,-1.2228200854852795
1684201066803699200,2.82269921875,-1.1624740455940366,-1.290669925135374,-1.473639889654517
1684201066813724200,2.83272412109375,-1.3901000211805103,-1.3459241948455571,-1.831158027306199
1684201066823750100,2.842750244140625,-1.495113762576878,-1.4587971253097056,-2.204826797030866
1684201066833776000,2.852776123046875,-1.5145686968922614,-1.589460564008355,-2.3438901075452563
1684201066843801300,2.86280126953125,-1.3860361327424644,-1.6726672550052404,-2.3976786886170505
1684201066853827300,2.872827392578125,-1.0959268129751085,-1.741926669192314,-2.4895246131435034
1684201066863852300,2.882852294921875,-0.7823515696853399,-1.7001579039990902,-2.5149928163990376
1684201066873878300,2.892878173828125,-0.33738077403008937,-1.4848632944583893,-2.41684253103137
1684201066883904300,2.902904296875,0.09444704693555832,-1.1852537404179573,-2.0857786850631235
1684201066893929200,2.91292919921875,0.2903518963515758,-0.9714794723123311,-1.5703510821297764
1684201066903955200,2.922955078125,0.2785609207928181,-0.8693331030458211,-0.9385969011470675
1684201066913980200,2.932980224609375,0.1673605997160077,-0.7907271838426589,-0.35393911012113094
1684201066924006100,2.943006103515625,0.018661445850133896,-0.7139490645885467,0.06895370923876762
1684201066934031400,2.95303125,-0.053784927809983486,-0.6216068809777497,0.36471097176522016
1684201066944057300,2.963057373046875,-0.15364742392301559,-0.6012836393952369,0.5462520725250244
1684201066954084400,2.97308447265625,-0.24057883453145623,-0.6423170760512351,0.572735882563889
1684201066964109300,2.983109375,-0.11518135353699326,-0.6740998692810535,0.5275476643159985
1684201066974135300,2.99313525390625,-0.04004676370620727,-0.7032493913978338,0.3844146201446652
1684201066984160500,3.003160400390625,-0.17914660683870315,-0.5475894586086273,0.2293999995216727
1684201066994186500,3.0131865234375,-0.22669154428057373,-0.2983405570179224,0.07245762570649385
1684201067004211500,3.02321142578125,-0.18161328921318054,-0.04014963955879211,-0.10428893425315618
1684201067014237400,3.033237548828125,-0.17804887472987174,0.2651309458553791,-0.21016484543681144
1684201067024263400,3.043263427734375,-0.010177695143222809,0.5733300490647554,-0.3917763810843229
1684201067034288400,3.053288330078125,0.2600163610543124,0.8113461935013532,-0.440070456393063
1684201067044314400,3.063314453125,0.483282698392868,1.037235846814513,-0.39274844098687167
1684201067054339300,3.07333935546875,0.7626034976422786,1.257899874433875,-0.3287453398928046
1684201067064365300,3.083365234375,0.9909311917573213,1.4078116189599037,-0.23064123175442217
1684201067074391300,3.093391357421875,1.3536042279541491,1.764433684554696,0.07988952927291393
1684201067084416500,3.10341650390625,1.690809060895443,2.2802204761892555,0.43307928233146664
1684201067094442200,3.113442138671875,1.7735194928079843,2.8886896431744096,0.7061132563963533
1684201067104467500,3.123467529296875,1.894182346495986,3.462883615592122,1.0619804119706153
1684201067114493400,3.133493408203125,2.385023497444391,3.783863874441385,1.6668094688877462
1684201067124518400,3.143518310546875,2.9494255591660736,3.774197635951638,2.6652418300554155
1684201067134544400,3.15354443359375,2.936602902472019,3.481602929109335,3.560729072794318
1684201067144570400,3.1635703125,2.1450743391185996,3.047354018476605,3.963331091536581
1684201067154595300,3.17359521484375,1.6248276454657316,2.3271529077559707,3.903342194519937
1684201067164621300,3.183621337890625,1.367989311659336,0.9532710309267044,3.499174826157093
1684201067174646300,3.193646240234375,0.8665952025145292,-0.8082873904526233,2.614620480842888
1684201067184672300,3.20367236328125,0.12523786998596043,-2.2823989892721173,1.6722393849819897
1684201067194697500,3.213697509765625,-0.6036030222535133,-3.2823131134301424,0.7705404281213879
1684201067204723500,3.223723388671875,-1.2626771718382834,-3.792304370528459,0.08571107503324747
1684201067214749400,3.23374951171875,-1.719369384947419,-3.6305695017397404,-0.3320835444048047
1684201067224774400,3.2437744140625,-1.9701672695457935,-2.7779204069912433,-0.5440437488257884
1684201067234800400,3.25380029296875,-2.0541689103126526,-1.5237795928299427,-0.5114174905091524
1684201067244825300,3.263825439453125,-1.8492682690143585,-0.0920247882246971,-0.25691695200055836
1684201067254851300,3.273851318359375,-1.2370260132312774,1.3021762385338544,0.18438538427501916
1684201067264876300,3.283876220703125,-0.4420617032755166,2.2371529033571482,0.6311021468147635
1684201067274902300,3.29390234375,0.06823836404364556,2.3521856422036884,0.7770294978797435
1684201067284928300,3.30392822265625,0.2521124743282795,1.4301093754857779,0.28871362762525676
1684201067294953500,3.313953369140625,0.6728869863599538,0.1048176343023777,-0.4706975037164986
1684201067304979200,3.323979248046875,1.2001221506606787,-0.9286562296301126,-1.0302937725916503
1684201067315004400,3.33400439453125,1.6453016936957836,-1.466465467980504,-1.429477653453499
1684201067325030400,3.344030517578125,1.585294091978669,-1.5117612382560968,-1.620370958317816
1684201067335056400,3.354056396484375,0.9516741901893168,-1.2082353875547647,-1.6902825528033076
1684201067345081300,3.364081298828125,0.10783610534071922,-0.6623346126854419,-1.607585564894229
1684201067355107300,3.374107421875,-0.5875133996527642,0.03367430606484413,-1.4135714976608753
1684201067365132300,3.38413232421875,-0.9016454000424593,0.6206318984657526,-1.2471860265873371
1684201067375158300,3.394158203125,-0.8893173219323157,0.9586772738844156,-1.0770040858402847
1684201067385183200,3.404183349609375,-0.790928916959837,0.9542465979605913,-0.9327478828579187
1684201067395209200,3.414209228515625,-0.6675841307114809,0.6882821238905191,-0.6471008031964302
1684201067405235200,3.424235107421875,-0.7012736343454569,0.3562853809863329,-0.22459698315411805
1684201067415260400,3.434260498046875,-0.5975093815535306,0.12773732211887837,0.18060338151827454
1684201067425286400,3.444286376953125,-0.5555793613839894,-0.12364216175973415,0.7087383442029357
1684201067435311400,3.454311279296875,-0.6230593448083848,-0.14766308881640433,1.2307694370545446
1684201067445337300,3.46433740234375,-0.9224228881984948,-0.1044862103909254,1.3495255803383885
1684201067455362300,3.4743623046875,-1.2518641014009713,0.15206687673330307,1.3452104936182498
1684201067465388300,3.48438818359375,-1.5066250444114206,0.34001696775257584,1.3791168548732995
1684201067475414300,3.494414306640625,-1.3922861330479384,0.42814942471385,1.3480910174906253
1684201067485439200,3.504439208984375,-0.894313230523467,0.39671909818351264,0.9114593033745885
1684201067495465200,3.51446533203125,-0.406599271684885,0.12368015568256377,0.6870946676716208
1684201067505490200,3.524490234375,-0.037810967478156085,-0.05246376220881939,0.4987720900781452
1684201067515516200,3.53451611328125,0.23038937588520347,-0.14616495921313763,0.05675181479156017
1684201067525541400,3.544541259765625,0.25593532055206597,-0.2649602654635906,-0.26177228307724
1684201067535567400,3.5545673828125,-0.08370068505890667,-0.3730424545198679,-0.43981107480451465
1684201067545593300,3.56459326171875,-0.6043693304508924,-0.46164019090533254,-0.7187136486418545
1684201067555618300,3.574618408203125,-0.9302619112610816,-0.4993436063557863,-1.0345409086421131
1684201067565644300,3.584644287109375,-1.1079343538939952,-0.44053953520953654,-1.0793550328806043
1684201067575669200,3.594669189453125,-1.180437353112176,-0.3056646162956953,-0.9852046308040618
1684201067585695200,3.6046953125,-1.028120301010087,-0.2365180148333311,-0.8334615791976452
1684201067595721200,3.61472119140625,-0.7415764186393469,-0.18929741397500038,-0.7235727791108191
1684201067605746200,3.62474609375,-0.30737843447625635,-0.20598609844744203,-0.7016602225102484
1684201067615772200,3.634772216796875,0.037443449340015644,-0.16597148344516754,-0.5002922853827476
1684201067625797400,3.64479736328125,0.19834347473978994,-0.20205869587063788,-0.3301588599525392
1684201067635823400,3.6548232421875,0.1494679462812841,-0.21499065815806387,-0.07833966948240995
1684201067645848300,3.664848388671875,-0.021179127759486435,-0.22711013501882552,0.1532484877333045
1684201067655874300,3.674874267578125,-0.253448691368103,-0.1942892309129238,0.3354104968704283
1684201067665900500,3.684900634765625,-0.3790699711810797,-0.13031272556483744,0.3927430341593921
1684201067675925200,3.69492529296875,-0.3199240277945995,-0.07246376318633556,0.4884793902531266
1684201067685951500,3.704951416015625,-0.09133892485238611,-0.09715455232858657,0.43329248669072984
1684201067695976200,3.71497607421875,0.17733415058925747,-0.12593173400163649,0.521323382973671
1684201067706002400,3.72500244140625,0.3360908072847873,-0.11235738215744495,0.5415943098470568
1684201067716027100,3.735027099609375,0.4051321948070079,-0.014119710767269134,0.5231577587939799
1684201067726053400,3.745053466796875,0.41724458433985706,0.012661328652501105,0.5261654161773621
1684201067736079400,3.755079345703125,0.43463060342669485,-0.11086568229496478,0.42196737507805226
1684201067746104600,3.7651044921875,0.43771512543857094,-0.19566753352880475,0.28051936138421296
1684201067756130600,3.775130615234375,0.4481009103745222,-0.2611743171840906,0.15222542829588054
1684201067766155500,3.785155517578125,0.4966057058244943,-0.21539631634950637,0.09156023945286869
1684201067776181500,3.795181396484375,0.6299217048585415,-0.08996960926055908,0.04682648697420955
1684201067786207500,3.80520751953125,0.86972224849388,-0.043272155493497846,-0.032856998332589864
1684201067796232400,3.815232421875,1.1455647041082382,-0.09917465997934341,-0.07411167652383446
1684201067806258400,3.825258544921875,1.2391969275295733,-0.15307985316812991,-0.0012368483185768127
1684201067816283400,3.835283447265625,1.0178975246161222,-0.1406020643889904,0.28644597495421764
1684201067826309400,3.845309326171875,0.6422675378210843,-0.2077133606314659,0.6838448720954358
1684201067836334600,3.85533447265625,0.2870594306774437,-0.18395137677192686,0.9576913315869867
1684201067846360300,3.8653603515625,0.05341594836711883,-0.10531330886483192,0.9992084601067006
1684201067856386300,3.87538623046875,0.005749649567902088,-0.0752373195528984,0.995687446373701
1684201067866411500,3.88541162109375,0.126677730063349,-0.08495031979382038,0.9340599883697926
1684201067876437500,3.8954375,0.31873058022633194,-0.19514204834997653,0.8393971067264676
1684201067886462500,3.90546240234375,0.5005231715291738,-0.3091892832905054,0.7651767091311514
1684201067896488400,3.915488525390625,0.6522153697311878,-0.392130601349473,0.6869901843838393
1684201067906513400,3.925513427734375,0.746796856701374,-0.27861060515344144,0.6662941639661789
1684201067916539400,3.935539306640625,0.8593325180351734,-0.11947159807682037,0.6794628576189279
1684201067926564400,3.945564453125,0.9913539472140371,0.05226970094144344,0.6322105464480817
1684201067936590300,3.95559033203125,1.0886213122673332,0.1737280889213085,0.507560376689583
1684201067946615600,3.965615478515625,1.117159278357029,0.11746785703897475,0.32976445380747316
1684201067956640800,3.975640869140625,1.0934605689920485,-0.05796352866888046,0.14599983177930115
1684201067966665700,3.985665771484375,1.0233869158126414,-0.2102320654541254,0.036879677977412935
1684201067976691700,3.995691650390625,0.8690329510554671,-0.28737025019228457,0.10317410487905145
1684201067986717700,4.0057177734375,0.7077315052479505,-0.29493162535727024,0.2756837579213083
1684201067996742700,4.01574267578125,0.5731858182884753,-0.19246493809521198,0.4316605015747249
1684201068006768600,4.0257685546875,0.44568405849114057,0.048151159706711764,0.5427233138769865
1684201068016793600,4.035793701171875,0.2816553796768188,0.4145300646841526,0.6602610212817788
1684201068026819600,4.045819580078125,0.07267989015504718,0.7932213387459516,0.8469133275754749
1684201068036845600,4.055845458984375,-0.09992620899900793,1.1526023476600646,1.096112398675084
1684201068046870800,4.065870849609375,-0.2455886255174875,1.4566232884019612,1.336166770941019
1684201068056896800,4.075896728515625,-0.32505028476715087,1.622193205308914,1.4770849155418575
1684201068066921700,4.085921630859375,-0.43584509378299113,1.6595453231036663,1.67400624852404
1684201068076947700,4.09594775390625,-0.6169136085949838,1.4588549929767847,1.8398874233372509
1684201068086972700,4.10597265625,-0.7306849492035806,1.0414520032048225,1.5439153490163384
1684201068096998700,4.11599853515625,-0.5857860644035041,0.5911076978176831,0.7286348848059773
1684201068107024600,4.126024658203125,0.1527760479159653,0.33477497544586654,-0.05848521445542573
1684201068117049600,4.136049560546875,2.0167688617229462,0.3457558036655187,-0.5896763498403131
1684201068127075600,4.14607568359375,4.515054581210017,0.5036901111274957,-0.5415675679706037
1684201068137100800,4.156100830078125,6.053223349398374,0.5465910952210427,0.00095963881239295
1684201068147126800,4.166126708984375,6.48356297763288,0.4349263715028763,0.5605827956944703
1684201068157151700,4.17615185546875,7.306074123749137,0.34205636462569233,1.1878000638999044
1684201068167177700,4.186177734375,8.555837453478574,0.4699988539278507,2.0838177602536976
1684201068177204000,4.196203857421875,5.879477140298485,0.5747317325562238,1.9138108838126062
1684201068187228700,4.206228759765625,1.8877561128407716,0.5756354033976793,1.187409311016649
1684201068197255000,4.2162548828125,-0.5883119296193122,0.7569318817466497,1.0233189651429653
1684201068207279600,4.226279541015625,-1.8125123635470866,0.8146966729730367,1.2647577775046228
1684201068217305600,4.2363056640625,-3.2007752324283123,0.7407365337491035,1.6477818200737238
1684201068227330600,4.24633056640625,-4.525755423444509,0.5472907679229975,1.5578091420732438
1684201068237356500,4.2563564453125,-5.598063168162107,0.5517699591636658,0.3872343537405133
1684201068247382800,4.2663828125,-5.686223097652197,1.2511550763487815,0.019797025751322507
1684201068257407700,4.27640771484375,-4.739866960680485,2.1080933927237986,0.36222675373405216
1684201068267434000,4.28643408203125,-4.434074334090948,2.8936095639199015,1.3980629628837107
1684201068277458700,4.296458740234375,-3.675936583685875,3.3949136566936966,2.6042370339944956
1684201068287485000,4.30648486328125,-2.834590973240137,3.566079786172509,3.6893972460225224
1684201068297509600,4.316509521484375,-2.89284793189764,3.488670967799425,3.891089446668327
1684201068307536000,4.326535888671875,-2.3325569587565957,2.988475713050365,2.7954616166397925
1684201068317561900,4.336561767578125,-1.7564473619759082,2.4636942985773085,1.2706348528444766
1684201068327586800,4.3465869140625,-1.352303082227707,2.1005442925184963,0.4297106826812029
1684201068337612800,4.35661279296875,-0.7673976000510155,1.9028250871568917,-0.35511809077262874
1684201068347638000,4.366637939453125,-0.2857812274351716,1.6059002421557902,-1.3134990120589731
1684201068357664800,4.376664794921875,-0.8981671294726431,0.5546282712042332,-2.901544156311452
1684201068367689700,4.386689697265625,-1.1419850920557975,0.08470715868771075,-3.4161154346764087
1684201068377715700,4.3967158203125,-1.3730287671312689,-0.23685469944179058,-3.647748600077629
1684201068387741000,4.406740966796875,-1.5063909433946012,-0.2800345004767179,-3.681202833651006
1684201068397767000,4.416766845703125,-1.5263073577418922,-0.06414075599908828,-3.5234228399679064
1684201068407791900,4.4267919921875,-1.444033271420002,-0.001508066475391388,-3.2349194940924644
1684201068417817900,4.43681787109375,-1.4632944367289542,-0.12223814018070697,-2.8078011659920215
1684201068427843800,4.44684375,-1.4019222686603665,-0.3148468706607818,-2.443017421251535
1684201068437868800,4.456868896484375,-1.4685267844244836,-0.4187415448993444,-2.190261388322711
1684201068447894800,4.466894775390625,-1.6428580999359488,-0.6765209589481354,-2.228677920478582
1684201068457919700,4.476919677734375,-1.7489456080436705,-0.9169657918363809,-2.234674530544877
1684201068467945700,4.48694580078125,-1.7379875761777162,-1.0382155055016278,-2.044585673931241
1684201068477971000,4.496970947265625,-1.7094789823129772,-1.0541437269955873,-1.6747674421548842
1684201068487997000,4.506996826171875,-1.7677651670649646,-1.0302654232800006,-1.354568689072132
1684201068498023000,4.51702294921875,-1.8813728415444493,-1.0071469980210066,-1.2064400285705923
1684201068508048000,4.5270478515625,-1.9056608951047063,-1.1171937651485204,-1.2782181475803256
1684201068518073900,4.537073974609375,-1.818796850644052,-1.2054402038782834,-1.5042773122414945
1684201068528098800,4.547098876953125,-1.6664251457452772,-1.191692249032855,-1.750229802635312
1684201068538124800,4.557124755859375,-1.5257923939570783,-1.2632511723339557,-2.1028189594522115
1684201068548149800,4.567149658203125,-1.3598904686167836,-1.4788310285568236,-2.3850395717963573
1684201068558175700,4.57717578125,-1.2979390393555164,-1.724257741510868,-2.531947166070342
1684201068568201700,4.58720166015625,-1.3378764974683521,-1.8835411254942416,-2.469273267753422
1684201068578226700,4.597226806640625,-1.4326149285659193,-1.832627515336871,-2.290579957640171
1684201068588252700,4.607252685546875,-1.6295765935584903,-1.680927718350291,-2.0295807047620413
1684201068598278000,4.61727783203125,-1.7520345139697193,-1.4718255337089299,-1.91051213452816
1684201068608303900,4.627303955078125,-1.640391709822416,-1.1713158159583805,-1.9324281982600688
1684201068618329900,4.637329833984375,-1.1116919528618454,-1.00134035756886,-2.122652663952112
1684201068628354800,4.647354736328125,-0.7622238506749272,-0.8217688033163547,-1.8482398027494549
1684201068638380800,4.657380859375,-0.7931576258599757,-0.5328817188203334,-1.2945385832622647
1684201068648405800,4.66740576171875,-0.9241115719377994,-0.2883715361893177,-0.8982593378007412
1684201068658431700,4.677431640625,-1.0136240850806235,-0.16330606362819672,-0.6489595828056335
1684201068668456700,4.687456787109375,-0.8693380714818835,-0.12423077530264853,-0.5505842565104365
1684201068678482700,4.697482666015625,-0.541730211186409,-0.056492287072539324,-0.5108429054915905
1684201068688508700,4.7075087890625,-0.07274579499810933,0.0019330138891935347,-0.47078445134758945
1684201068698534000,4.717533935546875,0.25815306966677304,-0.05124620311260223,-0.4414472977042198
1684201068708560000,4.727559814453125,0.5005621883653104,-0.20756606111526488,-0.3662742755591869
1684201068718584800,4.737584716796875,0.8007141787193716,-0.3142377988517284,-0.31793431528210636
1684201068728610800,4.74761083984375,1.0993661397740244,-0.2446609892785549,-0.2672203193500638
1684201068738635800,4.7576357421875,1.3527685077823697,-0.007492986103892326,-0.22894670279622076
1684201068748661800,4.767661865234375,1.5808137316942215,0.23969898295700548,-0.21270605435222387
1684201068758687700,4.777687744140625,1.668617102831602,0.4159451921790838,-0.24696225195825097
1684201068768712700,4.787712646484375,1.5513514903664587,0.43357963306903835,-0.14881576598286628
1684201068778738700,4.79773876953125,1.2639748104333877,0.34296120451092715,0.051824587522447105
1684201068788763600,4.807763671875,0.9739468122739344,0.3095908498287201,0.2941056959271431
1684201068798789600,4.81778955078125,0.6567560088355093,0.39179040960967537,0.5609218183904886
1684201068808814800,4.82781494140625,0.3608674115469679,0.5522206255406141,0.8734779477655887
1684201068818840800,4.8378408203125,0.25387886294629425,0.7682979098916053,1.2975395186439156
1684201068828866800,4.84786669921875,0.17407763301134108,1.0803355683505536,1.7995336395084858
1684201068838891800,4.857891845703125,0.05999768311129883,1.3213444648623465,2.1477885665133596
1684201068848917800,4.867917724609375,-0.06612109789503738,1.6796838557690381,2.3307009556263685
1684201068858942700,4.877942626953125,-0.18295067529678344,2.0750562155187127,2.186145185175538
1684201068868968700,4.88796875,-0.3413391562670469,2.5834774468213317,1.9107123332753777
1684201068878993700,4.89799365234375,-0.23405308602452277,2.8683903669893738,1.797382891215384
1684201068889019600,4.90801953125,0.5953577564775944,2.572592480191588,2.055981220431626
1684201068899045600,4.918045654296875,1.8886533539414405,1.6933593299001455,2.5441572438240048
1684201068909070800,4.92807080078125,2.4788456904798744,0.6581231324702501,2.832011770401895
1684201068919096800,4.938096923828125,2.245927745965123,0.10601707322001457,2.7287562708497046
1684201068929121800,4.948121826171875,1.7945915069311855,0.18739771783351897,2.349969135197997
1684201068939147800,4.958147705078125,1.5282570305049419,0.6720055273503065,1.8704323453351854
1684201068949172500,4.96817236328125,1.4137287340492009,0.968521791550517,1.2236878082305191
1684201068959198500,4.978198486328125,1.4249983160823583,0.5689116481006146,0.36329818235784767
1684201068969224400,4.988224365234375,1.2251947787273674,-0.1062076273560524,-0.44587885041087866
1684201068979249400,4.99824951171875,0.5192728801846503,-0.5792687914639711,-1.0179457476720213
1684201068989275400,5.008275390625,-0.3247387345999479,-0.951628524416685,-1.479550282742083
1684201068999300400,5.01830029296875,-0.987451532948017,-1.2008897009670734,-1.9344453833013773
1684201069009326300,5.028326416015625,-1.427684194165468,-1.1705120983600616,-2.1593252750501035
1684201069019352300,5.038352294921875,-1.7008616683542728,-0.9158458478957414,-2.025932119126618
1684201069029377500,5.04837744140625,-1.8062316758424042,-0.6132581548273563,-1.638568001526594
1684201069039403500,5.058403564453125,-1.753719398316741,-0.2901847230911255,-1.121460921073705
1684201069049428500,5.068428466796875,-1.5903332551896572,-0.07879062812030314,-0.6665325027666985
1684201069059454500,5.078454345703125,-1.3474486279338598,-0.033542788639664645,-0.305984057508409
1684201069069479400,5.0884794921875,-1.0064397265344858,-0.14861702854037284,0.05686930369138717
1684201069079505400,5.09850537109375,-0.6043301309516653,-0.35137948876619335,0.40733956865817306
1684201069089531400,5.108531494140625,-0.17443181674387304,-0.5160977572798728,0.6898131328500807
1684201069099556400,5.118556396484375,0.22974578075204044,-0.5710667803078889,0.7291717681616544
1684201069109582300,5.128582275390625,0.5132633741041646,-0.5564321057558059,0.5348571105465293
1684201069119607600,5.138607666015625,0.5853723690360784,-0.3469230938792229,0.34102877514362334
1684201069129633500,5.148633544921875,0.4398913004338741,0.08950199174880981,0.12221212895661591
1684201069139658500,5.158658447265625,-0.0405161347836256,0.6030559097647666,0.19946268802806733
1684201069149684500,5.1686845703125,-0.6238982067853212,1.0230857409089804,0.48743937968090173
1684201069159710500,5.17871044921875,-0.8411345980435609,1.1527759506613016,0.7577579573072493
1684201069169735400,5.1887353515625,-0.7532189987033605,0.9487292958438396,0.5731419791467487
1684201069179761400,5.198761474609375,-0.9427882153570651,0.4320440940648317,0.5724975437633693
1684201069189786400,5.208786376953125,-1.0535299790114163,-0.10943301914334297,0.5618969470329582
1684201069199812400,5.218812255859375,-0.9643231708168983,-0.3424415645509958,0.5781902024470269
1684201069209837300,5.22883740234375,-0.8228045761048793,-0.4442302064210176,0.45393414657264947
1684201069219863300,5.23886328125,-0.7287608492732047,-0.49978433586061,0.31369740836471316
1684201069229889300,5.24888916015625,-0.6593295856505632,-0.23955519057214258,0.2236050495073199
1684201069239914500,5.25891455078125,-0.6590858400225639,-0.018773089531064033,0.016814648939669132
1684201069249940500,5.2689404296875,-0.5949404443809763,0.022926117557287216,-0.3269704391747713
1684201069259965400,5.27896533203125,-0.38542200708892194,0.05032733470201492,-0.48730552416816353
1684201069269991400,5.288991455078125,-0.12992518755197524,0.0033697686940431593,-0.4417413122147321
1684201069280016400,5.299016357421875,0.03492116432078182,0.026949381723999976,-0.4864787179552018
1684201069290042400,5.30904248046875,0.25614041467010973,-0.013460954597592353,-0.4621989938318729
1684201069300068400,5.319068359375,0.29603344911932944,-0.10210194560289382,-0.3704579909846186
1684201069310093300,5.32909326171875,0.07814480449743569,-0.23097382470965383,-0.33804376798346636
1684201069320119300,5.339119384765625,-0.26308102758824825,-0.24714988348484038,-0.4078184382162988
1684201069330144500,5.34914453125,-0.48166539938934144,-0.1649362951785326,-0.2394628361135721
1684201069340170500,5.35917041015625,-0.42416291236095127,-0.11203823320567607,-0.040013007567077874
1684201069350196500,5.369196533203125,-0.1457604700654745,-0.15917933908700943,0.013340104696899651
1684201069360221400,5.379221435546875,0.09842639889530837,-0.18433949930667876,-0.020425532913208005
1684201069370247700,5.38924755859375,0.19623568880558012,-0.17494038732051848,-0.001566664794832468
1684201069380272400,5.3992724609375,0.19043613568134604,-0.1402139418542385,0.07245952540263534
1684201069390298600,5.409298583984375,0.08100304347276688,-0.16020342143774033,0.20324644435048103
1684201069400323300,5.4193232421875,-0.01437682733349502,-0.1672837350875139,0.3257249691583216
1684201069410349300,5.429349365234375,-0.12032324647009372,-0.24929858595132826,0.44366380470991135
1684201069420375600,5.43937548828125,-0.26522980311997235,-0.3265472453266382,0.4324975369207561
1684201069430400300,5.449400146484375,-0.3504056752979755,-0.3772591954320669,0.3119077484689653
1684201069440426500,5.459426513671875,-0.17462649906575678,-0.4929150346130132,0.03644786243140697
1684201069450451500,5.469451416015625,0.23028525792360305,-0.5006061736375094,-0.19189020694717765
1684201069460477700,5.479477783203125,0.5916525452841073,-0.3566688273459673,-0.28848244921788574
1684201069470502400,5.48950244140625,0.8794535881090909,-0.15759586928784847,-0.2802592491433024
1684201069480528600,5.499528564453125,1.020747653350234,-0.008845569756627081,-0.23825009932294486
1684201069490554600,5.5095546875,0.9753186851490289,-0.0635953970760107,-0.0872464679069817
1684201069500579600,5.51957958984375,0.7921827164132148,-0.23885201073884962,0.20574454477652906
1684201069510605600,5.52960546875,0.5664185161106288,-0.3293804229259491,0.5517407330691814
1684201069520630500,5.539630615234375,0.3998274394623935,-0.25215865155756473,0.9004352205350995
1684201069530656500,5.549656494140625,0.29723464160263535,-0.1026344450443983,1.1669777867540716
1684201069540681700,5.559681640625,0.22166356005072593,-0.07689619267582892,1.2109240421168506
1684201069550707500,5.56970751953125,0.17887663079090416,-0.08270692478120327,1.1009424491800368
1684201069560733400,5.5797333984375,0.25192666943259534,-0.194324302226305,0.9054258684292436
1684201069570758700,5.589758544921875,0.4301655137766152,-0.4130681754380464,0.6283338511452079
1684201069580784600,5.59978466796875,0.581218245031312,-0.5474363138735294,0.26701003760024905
1684201069590809600,5.6098095703125,0.7235563394326716,-0.5403326193481683,-0.017693915992230178
1684201069600835600,5.619835693359375,0.7202521102555096,-0.39349545996189117,-0.19062866257876157
1684201069610860500,5.629860595703125,0.5282441221475601,-0.2694382876604795,-0.2753290992647409
1684201069620886500,5.639886474609375,0.2830241838119924,-0.11170680929422377,-0.07538827233090996
1684201069630912500,5.64991259765625,0.04990414085388183,-0.04042378032505512,0.18433759961053728
1684201069640937500,5.6599375,-0.08643727041594684,-0.02186053415238857,0.31354733236953614
1684201069650963500,5.66996337890625,-0.12598361031934618,-0.06023088907897472,0.2943934268273413
1684201069660988700,5.67998876953125,-0.1512462080001831,-0.10101590393185615,0.20691315016448497
1684201069671014700,5.6900146484375,-0.14176760103702543,-0.11578618756234645,0.11305793164223432
1684201069681040600,5.70004052734375,-0.006810191471502185,-0.10796586920022964,0.06737067783102393
1684201069691065600,5.710065673828125,0.157120214600116,-0.18034136958122252,0.024558394934237
1684201069701091600,5.720091552734375,0.33772637259736654,-0.263689514875412,-0.004261164575815201
1684201069711116500,5.730116455078125,0.5050637375682592,-0.3349474094033241,-0.0041610652022063726
1684201069721142500,5.740142578125,0.6264176422603428,-0.28211715196967124,-0.009026917672902346
1684201069731167500,5.75016748046875,0.6880569368325173,-0.1431593476563692,0.09013298312872647
1684201069741193500,5.760193359375,0.7157868014097213,-0.028149405163526535,0.3065975132316351
1684201069751219500,5.770219482421875,0.7093250580497086,0.03734685709774494,0.6407588868238031
1684201069761244400,5.780244384765625,0.6115273855119944,0.12329261766970157,0.9802414554387331
1684201069771270400,5.7902705078125,0.4271592446327209,0.22050620670914647,1.27704413536489
1684201069781295600,5.800295654296875,0.20167641855478285,0.3805658357620239,1.623983888117969
1684201069791321600,5.810321533203125,-0.04035436835065484,0.5644406401664018,1.995521637163311
1684201069801346600,5.8203466796875,-0.21219474382922052,0.7234533905148506,2.382308393266797
1684201069811372500,5.83037255859375,-0.39084918323680756,0.8889064030438661,2.7535204174891112
1684201069821398500,5.8403984375,-0.5288453029111028,1.2292688232332467,3.003879326148331
1684201069831423500,5.850423583984375,-0.5786310780823231,1.5870950039207934,3.0003368312358853
1684201069841449500,5.860449462890625,-0.31385595992729065,1.778012712574005,2.627771346578002
1684201069851474400,5.870474365234375,0.4517401436597109,1.715251428234577,1.9111767359167335
1684201069861500400,5.88050048828125,1.5441303069412708,1.3526567179709672,0.9319652080476284
1684201069871525600,5.890525634765625,2.4070821845173835,1.0165016863435505,0.046285950356721874
1684201069881551600,5.900551513671875,2.8424714973568914,0.7279857732474804,-0.5653988176740705
1684201069891577600,5.91057763671875,3.174052060675621,0.4479010038882494,-0.87434274790138
1684201069901602600,5.9206025390625,3.477438210645318,0.2162532254397869,-0.8896177661836147
1684201069911628500,5.930628662109375,3.760025318214297,-0.0003898761004209518,-0.6554357930824161
1684201069921653500,5.940653564453125,4.2638124599754805,-0.2772702964603901,-0.183813137345016
1684201069931679500,5.950679443359375,5.1108057209193705,-0.5046960732996464,0.4564776935756206
1684201069941704400,5.960704345703125,5.179896208280325,-0.3957201502740383,1.0908804893709718
1684201069951731200,5.970731201171875,3.6094612472593783,-0.004537643429636955,1.2248166661299764
1684201069961757200,5.980757080078125,1.3274790220946073,0.39661797589659686,0.9264791778519749
1684201069971782100,5.9907822265625,-0.7639315313756465,0.7717518497377633,0.6585699994549155
1684201069981808000,6.00080810546875,-2.589776839226484,0.9685866734802723,0.464484328290075
1684201069991833000,6.0108330078125,-4.075795148938894,1.063946743607521,0.13305486387982965
1684201070001859000,6.020859130859375,-4.782987140482664,1.3433394390493631,-0.02960135753750801
1684201070011884300,6.03088427734375,-4.878008187913895,1.567806366083026,-0.1687432862460613
1684201070021910300,6.04091015625,-5.197000487816333,1.7809768230766057,-0.27354075454324484
1684201070031936300,6.050936279296875,-5.976860240685939,1.7568413297295569,0.33064123664200307
1684201070041961200,6.060961181640625,-5.530629215836525,1.546671808117628,1.8859074162341654
1684201070051987200,6.0709873046875,-4.524762905275821,1.2533908725768328,3.862235400366783
1684201070062012200,6.08101220703125,-3.0980162842214107,0.9309253436058759,5.5953504020720715
1684201070072038100,6.0910380859375,-1.88665896525383,0.637138212108612,5.563036278444528
1684201070082064100,6.101064208984375,-2.0985785454034804,0.22082886279225347,4.575751334235072
1684201070092089000,6.111089111328125,-2.2720775017440316,-0.13548749785423278,3.245803876200318
1684201070102115000,6.121114990234375,-2.271843692988157,-0.20231237837076185,2.1770035550817846
1684201070112140300,6.131140380859375,-2.333674272348732,-0.20531039114296434,1.2989084689095616
1684201070122166300,6.141166259765625,-2.2132582330286503,-0.1651017148733139,0.28068945725411176
1684201070132191200,6.151191162109375,-1.9178326866745947,-0.25460721375346185,-0.7226312604770064
1684201070142217200,6.16121728515625,-1.8669898036658763,-0.3407558034211397,-1.417934369045496
1684201070152243200,6.1712431640625,-2.0362099136434493,-0.43180619365572925,-1.9985341168522834
1684201070162268200,6.18126806640625,-2.1912227807007727,-0.4785656067430973,-2.4415043863400814
1684201070172294100,6.191294189453125,-2.205658279418945,-0.5755220061510801,-2.518944476634264
1684201070182319000,6.201319091796875,-2.0147977077804504,-0.5665665462791919,-2.5812510029435156
1684201070192345000,6.211344970703125,-1.4288460775516927,-0.5090612827718257,-2.8706615267917512
1684201070202370000,6.2213701171875,-0.7789338701963424,-0.808366300907731,-3.3534044192194936
1684201070212396000,6.23139599609375,-0.6380898137450218,-0.9907482364058494,-3.3175276346743106
1684201070222422000,6.241422119140625,-0.7175064648091792,-0.990383494746685,-2.9764728483065963
1684201070232447200,6.251447265625,-0.8667593070350587,-0.6748036336362362,-2.344032438625395
1684201070242473200,6.26147314453125,-1.0302616238877176,-0.33928163921535015,-1.5967212026610969
1684201070252498200,6.271498291015625,-1.0404032248042523,-0.11902794596254825,-0.9544383211404085
1684201070262524200,6.281524169921875,-0.8527753514766693,0.029971359893679616,-0.412229678787291
1684201070272549000,6.291549072265625,-0.6256478999968618,0.11366554214656352,-0.01178454581797123
1684201070282575000,6.3015751953125,-0.44433951201438904,0.16520985142290592,0.12463555671125649
1684201070292601300,6.311601318359375,-0.25902605310902,0.20707856985926626,-0.0052139352560043335
1684201070302626000,6.3216259765625,-0.24761172884292898,0.21905717694461344,-0.29826544595509763
1684201070312652300,6.33165234375,-0.31117841128110885,0.19241642277836798,-0.7146767943412065
1684201070322677200,6.34167724609375,-0.28758484279103574,0.09547229833006858,-1.0849550448447465
1684201070332703200,6.351703125,-0.2966367487747222,-0.0022556699723005292,-1.5644532562628388
1684201070342728200,6.361728271484375,-0.300854804861173,-0.1482476107060909,-2.0711793740853666
1684201070352754400,6.37175439453125,-0.2558697810351848,-0.3553817101448774,-2.4040794955700635
1684201070362780400,6.381780517578125,-0.05981295592784881,-0.5354723198354244,-2.6186279629185796
1684201070372805000,6.39180517578125,0.31251455525569616,-0.603232435375452,-2.664866274741292
1684201070382831400,6.401831298828125,0.6993476347189396,-0.5885182658463716,-2.5133351123198864
1684201070392856000,6.41185595703125,0.9817771405734121,-0.6029179625988006,-2.1929458051010964
1684201070402882300,6.42188232421875,1.0760508767686783,-0.6038380000531673,-1.7799477722898125
1684201070412907000,6.431906982421875,0.9036438803832978,-0.5005003751754761,-1.3458414849981666
1684201070422933200,6.441933349609375,0.5973555061660707,-0.30788989112973214,-0.8910442918553948
1684201070432959200,6.451959228515625,0.3185618725959211,-0.1253618251591921,-0.4499953458189964
1684201070442984400,6.461984375,0.01671243067421019,-0.07619535093009472,-0.02939911296367645
1684201070453010400,6.472010498046875,-0.2873054413277656,-0.1428460439234972,0.2970046322390437
1684201070463035400,6.482035400390625,-0.798438415807113,-0.2820487629085779,0.3267158798918128
1684201070473061400,6.492061279296875,-1.3999138514474034,-0.5818249056875705,0.22732027063816784
1684201070483087400,6.50208740234375,-1.882857088752836,-1.0487024127244948,0.02043459300249815
1684201070493112300,6.5121123046875,-2.1907762059770524,-1.5907628787785768,-0.1701189585134387
1684201070503138300,6.52213818359375,-2.2972984522402284,-2.0605045430749653,-0.34495705450326203
1684201070513163300,6.532163330078125,-2.29164495652318,-2.3541660023659468,-0.5083522577196359
1684201070523189200,6.542189208984375,-2.221634431707859,-2.498713004988432,-0.68627575250417
1684201070533214200,6.552214111328125,-2.031248637974262,-2.435084290164709,-0.8352925940170883
1684201070543240200,6.562240234375,-1.9787293461859226,-2.2159528789401053,-1.170061724244058
1684201070553266200,6.57226611328125,-2.110685162782669,-1.9316215580523013,-1.499813610830903
1684201070563291400,6.58229150390625,-2.2728151683688163,-1.3797633360832928,-1.831568800064176
1684201070573317400,6.5923173828125,-2.3466566496491432,-0.37629356527030466,-2.1859658830858764
1684201070583342300,6.60234228515625,-2.4955261916458604,1.7463643593788145,-2.5813386812269687
1684201070593368300,6.612368408203125,-2.57525614644289,5.1241041784316295,-2.9894729073941706
1684201070603393300,6.622393310546875,1.5717045425653458,9.331431365597247,-3.3191035056889056
1684201070613419300,6.632419189453125,10.715824699568747,12.64660688418746,-0.5681254661589861
1684201070623445200,6.6424453125,5.940635081094503,8.528868198010326,2.721776494964957
1684201070633470200,6.65247021484375,0.3466004377961159,2.091768280866742,2.6451038819119335
1684201070643496200,6.66249609375,-1.6486042423725127,-1.4901643234759567,2.1507672900632024
1684201070653521400,6.672521484375,-1.6301146459579468,-3.639738312101364,1.6118299244657157
1684201070663547400,6.68254736328125,-1.0051824199497699,-4.79435083054006,0.7370604025196283
1684201070673572400,6.692572265625,-0.6994073290169238,-4.4950423052728175,-0.16002791874036193
1684201070683598300,6.702598388671875,-0.5140612830162048,-3.0348499262124298,-0.4552011708337813
1684201070693624300,6.712624267578125,-0.740067840707302,-1.2692705787539482,0.28476963923983273
1684201070703649300,6.722649169921875,-1.3379939863681793,0.33246319137215613,1.419411163599789
1684201070713675300,6.73267529296875,-1.5603192251980305,1.4991618689239024,2.019230867922306
1684201070723700200,6.7427001953125,-1.4241349772512912,1.943921652176976,2.0398262044444677
1684201070733726200,6.752726318359375,-1.338919284519553,1.6373627173900602,2.039611100389063
1684201070743751200,6.762751220703125,-1.2315969739198684,0.6530781240403651,2.020193283213675
1684201070753777200,6.772777099609375,-0.9084124830245971,-0.6512029778182507,1.9014008995726703
1684201070763803100,6.78280322265625,-0.24497193665755912,-1.63081724126935,1.6710113044917583
1684201070773828400,6.792828369140625,0.5288812510073184,-1.8800988760858772,1.5345897406578064
1684201070783854300,6.802854248046875,1.1135989555269479,-1.4641747266948222,1.4847764929577707
1684201070793879300,6.81287939453125,1.4217267470657824,-0.5828495725601911,1.535106019616872
1684201070803905300,6.8229052734375,1.425079710755497,0.3060767042279243,1.7754381859108805
1684201070813931300,6.83293115234375,1.0897001935452222,0.8217997829765081,1.9085718141153454
1684201070823956200,6.842956298828125,0.5380372384199872,0.8365414250344038,1.8969211238101125
1684201070833982200,6.852982177734375,0.0720609910717234,0.397404742360115,1.7759809144854544
1684201070844007200,6.863007080078125,-0.3384042353263125,-0.13064473399817944,1.694758675304055
1684201070854033200,6.873033203125,-0.7315022569358348,-0.5629471867382526,1.6497130803972482
1684201070864058400,6.883058349609375,-1.16036947453022,-0.7957716077506541,1.6616835041761397
1684201070874084400,6.89308447265625,-1.5659481709957122,-0.8519488375246524,1.7544582339853048
1684201070884110300,6.9031103515625,-1.9173861119508742,-0.7611737571001053,1.8669725602701306
1684201070894135300,6.91313525390625,-2.21098327383399,-0.5905681841135024,1.9430457461252808
1684201070904161300,6.923161376953125,-2.3800971469581125,-0.3644716100513935,1.8863406930848956
1684201070914186200,6.933186279296875,-2.2771809623628854,-0.23226444904208182,1.6590391271471976
1684201070924212200,6.943212158203125,-1.9495126040518282,-0.08747019366025924,1.3584806018188595
1684201070934237200,6.9532373046875,-1.4658762699157,0.12886720293164253,1.061238653692603
1684201070944263200,6.96326318359375,-0.9557027150530367,0.2096574804365635,0.8102754224646836
1684201070954289000,6.973288818359375,-0.6126064129203558,-0.010741174244880676,0.6471335364222526
1684201070964313900,6.98331396484375,-0.5683686272650956,-0.15235563054680823,0.5553843502685427
1684201070974339800,6.99333984375,-0.8111538857996463,-0.1007043537646532,0.505370027038455
1684201070984365000,7.003364990234375,-1.2263655030071734,-0.04485796338021755,0.4357462365183979
1684201070994391000,7.01339111328125,-1.7119675842583177,-0.055740591922402376,0.30697390879597514
1684201071004416000,7.023416015625,-2.1578432197988033,-0.10108546203672886,0.058876624925807114
1684201071014442000,7.03344189453125,-2.4077117145925757,-0.16227029083967207,-0.26290483077112586
1684201071024468000,7.043468017578125,-2.371761280289292,-0.22180969052314756,-0.5173366879576817
1684201071034493000,7.053492919921875,-2.0691174731194972,-0.3338274654626846,-0.663026394341886
1684201071044519000,7.063518798828125,-1.6038298656225203,-0.3268967894166708,-0.7774345715492963
1684201071054544000,7.0735439453125,-0.9640993719983846,-0.05110533333718777,-0.8371051233317702
1684201071064569900,7.08356982421875,-0.33497663549780843,0.3280775236338377,-0.6939063935130834
1684201071074595000,7.093594970703125,0.13136844516284762,0.4959884507089853,-0.3938158144900575
1684201071084621000,7.10362109375,0.498165867813304,0.44312195291817186,-0.05144000865165144
1684201071094647000,7.11364697265625,0.8330482491564005,0.33855332494080065,0.32455201638881115
1684201071104672000,7.123672119140625,0.9790572140902281,0.32343875791728494,0.7553755922153592
1684201071114698000,7.133697998046875,1.0183300708144902,0.26794249614477156,1.192166004024446
1684201071124723000,7.143722900390625,0.9156202224463224,0.13051730822622776,1.4655352013930678
1684201071134749000,7.1537490234375,0.8745985492933541,0.08839958346486092,1.6576003265157342
1684201071144774000,7.16377392578125,1.0159242517817766,0.17124562445580957,1.889352880512923
1684201071154799900,7.1737998046875,0.9403688061904162,0.2307528754353523,2.164560399224609
1684201071164825900,7.183825927734375,0.49477147613465783,0.15757190389037132,2.296555232657492
1684201071174850800,7.193850830078125,0.24454240440018474,0.04743862752318382,2.332545268318802
1684201071184876800,7.203876708984375,0.19405476456992327,-0.004403787916898727,2.4096124336473643
1684201071194902000,7.213902099609375,0.012881693404912948,-0.11920856322646141,2.4905782138496635
1684201071204928000,7.223927978515625,-0.3364203680327162,-0.18893091875016688,2.583105690899491
1684201071214953000,7.233952880859375,-0.8998311171621084,-0.21809797652363777,2.605689278629422
1684201071224979000,7.24397900390625,-1.3604033865749836,-0.31103111176490783,2.49355956774801
1684201071235005200,7.254005126953125,-1.529914734584093,-0.3524538399994373,2.2911789464466272
1684201071245030000,7.26402978515625,-1.4770236868739128,-0.2961842557668686,1.966669198296964
1684201071255056100,7.27405615234375,-1.181608077391982,-0.222017780315876,1.6083900131449103
1684201071265080800,7.284080810546875,-0.6624918490737676,-0.1347013159126043,1.3110600944742559
1684201071275107000,7.294107177734375,-0.31846272307038304,0.01364449447095394,1.1874185172364116
1684201071285133000,7.304133056640625,-0.26158757416009903,0.29147534742355347,1.1581550133511422
1684201071295158300,7.314158203125,-0.47734629408121104,0.505332617637515,1.1926732959594577
1684201071305184000,7.32418408203125,-0.9293442118942737,0.514898318362236,1.1718925198677927
1684201071315209000,7.334208984375,-1.422680686789751,0.4383721280425787,0.9373457320421934
1684201071325235200,7.344235107421875,-1.9267665192365646,0.4287643417418003,0.6176459414575248
1684201071335260000,7.354260009765625,-2.210723746114969,0.47722880518138405,0.2919349825582467
1684201071345286100,7.3642861328125,-2.272955453622341,0.6560697070717811,0.20289353925958276
1684201071355312000,7.37431201171875,-2.2225170597612856,1.0291285282045601,0.32473961138278246
1684201071365337000,7.384337158203125,-2.0020003316581247,1.6294582278758287,0.42954672429114577
1684201071375363000,7.394363037109375,-1.3744564618468285,2.264289332085848,0.7137913898088037
1684201071385388000,7.404387939453125,-0.3417314435202628,2.6501947753101587,1.2246730929408223
1684201071395414000,7.4144140625,1.226733751797676,2.594663442224264,1.690625374891609
1684201071405439200,7.424439208984375,2.507763741928339,2.2203169193685053,1.8140761057324706
1684201071415465200,7.43446533203125,3.070202394622564,1.8278847047239541,1.6291829180657862
1684201071425491200,7.4444912109375,2.6978327247977254,1.449215642493963,1.3117485151298343
1684201071435516200,7.45451611328125,1.3906465491473674,0.9787953482836484,0.8430801791533827
1684201071445542100,7.464542236328125,-0.018233721957355738,0.36987551492154597,0.1829341990860179
1684201071455567000,7.474567138671875,-0.9984196478165686,-0.26732757911682126,-0.5249195443021133
1684201071465593000,7.484593017578125,-1.6711809619702398,-0.769958536580205,-1.056657317251712
1684201071475618000,7.4946181640625,-2.2759308161713183,-0.9940402636885642,-1.1345572801426052
1684201071485644000,7.50464404296875,-3.205228996966779,-0.9443781148970126,-0.8372129676204174
1684201071495670000,7.514669921875,-3.818177939714491,-0.6179056883722543,-0.5270948790472001
1684201071505695200,7.5246953125,-4.115970507460832,-0.1319008715391159,-0.30843086613863707
1684201071515721000,7.534720947265625,-4.3239486565083265,0.2194248412132263,0.22277159435786306
1684201071525746200,7.54474609375,-4.00520448614806,0.523771945169568,1.192527165487036
1684201071535772200,7.554772216796875,-3.7616450283706184,0.7562579280078411,2.2366297562658786
1684201071545797000,7.564797119140625,-4.053469919884205,0.752196085396409,2.834345181785524
1684201071555823000,7.574822998046875,-3.9768487447574734,0.6409907958835362,2.645758838689327
1684201071565849000,7.58484912109375,-3.0943197677910326,0.5250239910572767,2.03179823468104
1684201071575874000,7.5948740234375,-1.9120891745865345,0.4321849638402462,1.070386421266198
1684201071585900000,7.604900146484375,-0.9353913831040263,0.36842882324457166,0.1869409139767289
1684201071595925000,7.614925048828125,0.11247516331821679,0.30546997050642966,-0.9315482978098094
1684201071605951000,7.624950927734375,0.8508139882758259,0.11611410434246063,-1.8370159595541655
1684201071615976200,7.63497607421875,0.5396192103818058,-0.125457102227211,-2.068870658751577
1684201071626002200,7.645002197265625,-0.06309446181654929,-0.15393208608329295,-2.2013788485340773
1684201071636028200,7.655028076171875,-0.3672469199836254,0.005125087928771972,-2.38280158361122
1684201071646053000,7.66505322265625,-0.4598144367828965,0.23018822728991506,-2.75114521279037
1684201071656079000,7.6750791015625,-0.4674234504818916,0.3862053029537201,-3.155240977221727
1684201071666104000,7.68510400390625,-0.41386020259857176,0.37355274212956424,-3.612492285518348
1684201071676130000,7.695130126953125,-0.47163346939235923,0.32961715429127214,-3.846304256263375
1684201071686155000,7.705155029296875,-0.5463002955809235,0.27330665352642536,-3.856364170245826
1684201071696181000,7.715180908203125,-0.5175435721740126,0.14368541735708712,-3.71324544686079
1684201071706207000,7.72520703125,-0.3521715159267187,0.04730769461989402,-3.5806630227982996
1684201071716232000,7.73523193359375,-0.002113923414051533,-0.08764730379283428,-3.519022559182346
1684201071726258000,7.7452578125,0.28793782094717024,-0.2742576706409454,-3.3583252167478204
1684201071736283100,7.755283203125,0.35081367157697674,-0.44598318756818767,-2.9236913984507322
1684201071746309000,7.76530908203125,0.2252718136757612,-0.5613432586729526,-2.2216145579636097
1684201071756334000,7.775333984375,0.04066226525604725,-0.6362976696312427,-1.4352292027175426
1684201071766360000,7.785360107421875,-0.13458762640506028,-0.7623065605223178,-0.6306073490351438
1684201071776386000,7.795385986328125,-0.24885697966367004,-0.9575117372363805,0.10630670381635426
1684201071786411000,7.805410888671875,-0.3125783412069082,-1.1582850694715976,0.7536199807196855
1684201071796437000,7.81543701171875,-0.5147413742348551,-1.2913754430562256,1.308676706469059
1684201071806462000,7.8254619140625,-0.7764215951144695,-1.3548743940204382,1.7784376599878071
1684201071816488000,7.835488037109375,-1.2975792661324144,-1.3209230245798826,2.189600878587365
1684201071826513200,7.84551318359375,-1.7268495115697382,-1.327808107918501,2.1999434089034793
1684201071836539100,7.8555390625,-1.9550275680810212,-1.4204086502045392,1.9090809326812623
1684201071846565000,7.865565185546875,-1.9987433756887911,-1.5676386083006857,1.490253755325079
1684201071856590000,7.875590087890625,-1.8220424084365368,-1.701769430848956,0.8949813390433787
1684201071866616000,7.885615966796875,-1.4659423208892344,-1.7218495113253593,0.20538550220578908
1684201071876641000,7.89564111328125,-1.0667977491244673,-1.6987305015444754,-0.4613967375382781
1684201071886667000,7.9056669921875,-0.6561208527371287,-1.6285200702428817,-1.0599597197979689
1684201071896693000,7.91569287109375,-0.2754685077354312,-1.463188638266921,-1.585016444081068
1684201071906718000,7.925718017578125,0.0333507731989026,-1.1644342397511005,-1.9734683569177984
1684201071916744000,7.935743896484375,0.22570026822090147,-0.7805816374033689,-2.21829447363019
1684201071926769000,7.945768798828125,0.28095190758258104,-0.43324470202624793,-2.2522245080217718
1684201071936795000,7.955794921875,0.24747487765550613,-0.17343758154213426,-2.1592451955512164
1684201071946820000,7.965820068359375,0.1041020333789289,0.031229835522174832,-2.172778338602185
1684201071956845600,7.975845458984375,-0.08853402349948883,0.1454734698176384,-2.254240231758356
1684201071966871600,7.98587158203125,-0.09748656076192855,0.05480652594268322,-2.2541379404276607
1684201071976896500,7.995896484375,-0.03411635074391961,-0.02359948677420616,-2.333305292905867
1684201071986922500,8.005922607421875,0.0987000282049179,-0.13918810593783854,-2.3924828735396266
1684201071996947500,8.015947509765626,0.03937807066440582,-0.3052121963530779,-2.380890343162417
1684201072006973400,8.025973388671876,-0.18369886331558227,-0.4772434182286262,-2.234195222595334
1684201072016998700,8.03599853515625,-0.37070970072336495,-0.4901847328662872,-2.0112126889005304
1684201072027024400,8.0460244140625,-0.5311293952602892,-0.4801110826194286,-1.7885631865523755
1684201072037050400,8.05605029296875,-0.5139584436962381,-0.44860359919965265,-1.7282247454456985
1684201072047075600,8.06607568359375,-0.32186694202329963,-0.13197861295044422,-1.6654745670221744
1684201072057101600,8.0761015625,-0.09808394213318825,0.2880956418573856,-1.690044214002788
1684201072067126500,8.08612646484375,0.07316345415459945,1.0870406189471482,-1.6136320054516196
1684201072077152500,8.096152587890625,0.15696984634399413,2.308064760926366,-1.3919643537476658
1684201072087177500,8.106177490234375,0.20443945352733134,3.9793595585346218,-1.0298016051605343
1684201072097203500,8.116203369140624,0.24007895871791987,5.800404188105464,-0.19083514493629336
1684201072107229400,8.1262294921875,0.5302987165898084,6.9249868944615125,1.4226448848240076
1684201072117254400,8.13625439453125,1.3492220673471689,6.708505120962858,3.3441116902172565
1684201072127280400,8.1462802734375,2.6156384257137772,5.272090507853031,4.807336861102283
1684201072137305600,8.1563056640625,3.51037017391026,3.292224266591668,5.2287388573825355
1684201072147331600,8.16633154296875,4.084537258321046,1.3181179040312767,4.624376833455265
1684201072157356500,8.1763564453125,4.085072680372,-0.49228316645026204,3.405867596906423
1684201072167382500,8.186382568359376,3.2247359537303444,-2.0462515613168475,2.0443318453006447
1684201072177408500,8.196408447265625,1.8821166456490754,-2.9941712943434715,0.903421104478091
1684201072187433500,8.20643359375,0.5824574314374477,-3.2557582839816805,-0.1266769994109869
1684201072197459500,8.21645947265625,-0.4039495608936995,-3.339547158780694,-1.0110517503745853
1684201072207484400,8.226484375,-1.178511864942312,-3.0735230634778734,-1.5673925245851277
1684201072217510400,8.236510498046876,-1.9072610237777232,-2.314513206413388,-1.6188209523968398
1684201072227535400,8.246535400390625,-2.5294506730794906,-1.1485983727157116,-1.2268098857738077
1684201072237561300,8.256561279296875,-2.7501047638267275,0.19500702379345894,-0.7361994748413563
1684201072247587300,8.26658740234375,-2.588020350947976,1.2332844886153935,-0.1818552812755108
1684201072257612500,8.276612548828124,-2.076110108485818,1.6503163069874047,0.3816040927685797
1684201072267638500,8.286638427734376,-1.2281406959861516,1.334130296677351,0.9707488930154591
1684201072277663500,8.29666357421875,-0.1755838728558272,0.5186018490552902,1.4491732646569608
1684201072287689500,8.306689453125,0.5471498250823468,-0.3168132022976875,1.6500674467928707
1684201072297714400,8.31671435546875,0.7431534586977213,-0.8871499147653579,1.5668901280209422
1684201072307740400,8.326740478515624,0.7881213121931999,-0.9525333643019199,1.291280312118679
1684201072317766400,8.336766357421874,0.9205827402245252,-0.5762146645903587,0.920260011076182
1684201072327791400,8.346791259765626,1.2199363467425106,-0.008659691795706748,0.2164059317834675
1684201072337817300,8.3568173828125,1.6903829444378613,0.38743572153151035,-0.4886603728432208
1684201072347842600,8.366842529296875,2.1291180605739353,0.6645961278766394,-0.9776189979806542
1684201072357868500,8.37686865234375,2.235293539226055,0.7238911974102258,-1.1710723625913262
1684201072367893500,8.3868935546875,1.7622792829997838,0.5155863006263971,-1.0828319152109325
1684201072377919500,8.39691943359375,0.8353308802008629,0.3170288908749819,-0.749190619970113
1684201072387945500,8.406945556640625,-0.14126253759171814,0.3581546819895506,-0.12275799933634697
1684201072397970400,8.416970458984375,-1.2357751363873481,0.7115238832682371,0.8429873132381588
1684201072407996400,8.426996337890625,-2.064607886740565,0.8581418469458818,1.4244669856846333
1684201072418021400,8.437021484375,-2.22459795768857,0.644413756069541,1.1868167519509791
1684201072428047400,8.44704736328125,-1.767005580869317,0.2798135512024164,0.6242016467113047
1684201072438073300,8.4570732421875,-1.1355711333602667,-0.029675591817498206,0.1416539115294814
1684201072448098300,8.467098388671875,-0.8680693667203188,-0.255688579249382,-0.046661724866554136
1684201072458124300,8.477124267578125,-0.7694201919198036,-0.29360125353634353,-0.1583111048851162
1684201072468149500,8.4871494140625,-0.7771171761631965,-0.2508370475649834,-0.3138588825367391
1684201072478175500,8.497175537109374,-0.8731693202078342,-0.2557271576941013,-0.3613696985132992
1684201072488200400,8.507200439453126,-0.9954121365636587,-0.3443494439989328,-0.4317090168915689
1684201072498226400,8.517226318359375,-1.0649714835453779,-0.4780144026011228,-0.658388578473404
1684201072508252400,8.52725244140625,-1.0012165119934826,-0.5055716870903969,-0.8222506685491651
1684201072518277400,8.53727734375,-0.9492518584132194,-0.4414291775256395,-0.7229936640486121
1684201072528303400,8.547303466796874,-0.9285703049123286,-0.2898503765702247,-0.5462329294331372
1684201072538328300,8.557328369140626,-0.8450368661791086,-0.11249591384530067,-0.40759997316002844
1684201072548354300,8.567354248046875,-0.5717874957978725,0.09286065452694893,-0.3643704877644777
1684201072558379500,8.577379638671875,0.005276552163437008,0.2814320923149586,-0.4344709558855742
1684201072568405500,8.587405517578125,0.7744711186338216,0.37792321229875087,-0.35809294186495244
1684201072578431500,8.597431396484374,1.3076181373268365,0.27831834420859813,-0.13336561032943428
1684201072588456400,8.60745654296875,1.2293716990858317,0.06510813972651958,0.1095960276853293
1684201072598482400,8.617482421875,0.68725935671404,-0.05534720869064331,0.32335955520123244
1684201072608507400,8.62750732421875,-0.02075520325899124,-0.14502280344069005,0.32170755021050573
1684201072618533400,8.637533447265625,-0.5508113432645797,-0.21550912907421588,0.2199757530942559
1684201072628558300,8.647558349609374,-0.8554992234826088,-0.33118133486807344,0.24165830033123492
1684201072638584300,8.657584228515624,-0.986211104432866,-0.4668009346693754,0.2900604391243309
1684201072648610600,8.667610595703126,-0.9435573730986565,-0.6531587880611419,0.3296584361497313
1684201072658635300,8.67763525390625,-0.8682014686673879,-0.6103904904365539,0.40800256261155005
1684201072668661500,8.68766162109375,-0.7268313425153493,-0.43546705425083637,0.40956338218748567
1684201072678686500,8.6976865234375,-0.5419805326856673,-0.1715764638453722,0.24092399470731615
1684201072688712700,8.707712646484374,-0.2250929499775171,0.04640753090977669,0.0491930699750781
1684201072698737400,8.7177373046875,0.17192600793540477,0.09494038341045379,-0.024183131881058216
1684201072708763600,8.727763671875,0.5450199003815651,0.04803717793822288,0.039097061765938995
1684201072718789600,8.73778955078125,0.8183129637740552,-0.08624620482325554,0.1705376223169267
1684201072728814600,8.747814697265625,0.9609062019802629,-0.20569500654637812,0.26968349459320307
1684201072738840600,8.757840576171875,0.9736668262887745,-0.29218787960708137,0.40845476335845887
1684201072748865500,8.767865478515626,0.9001889176238328,-0.2918523640424013,0.5314093812454491
1684201072758891500,8.7778916015625,0.7457131531178951,-0.17445640319585798,0.5978340834632515
1684201072768916500,8.78791650390625,0.5121032808162271,0.024344752183556556,0.6654667732313275
1684201072778942500,8.7979423828125,0.34416473508179185,0.22481588660180568,0.7460016146704554
1684201072788968400,8.807968505859375,0.19633096587359905,0.25399872646629806,0.8294283781588077
1684201072798993700,8.81799365234375,0.14442527593895793,0.20220015016794204,0.8258534422814846
1684201072809019600,8.82801953125,0.19405936767980456,0.11132394745647907,0.7838441463306546
1684201072819044600,8.838044677734375,0.3219166629165411,-0.10941723705232143,0.5789648400813341
1684201072829070600,8.848070556640625,0.48624037915468216,-0.30241876624226566,0.2881219453424215
1684201072839095600,8.858095458984375,0.5531143595099449,-0.4926040689677,-0.07579860669746995
1684201072849121500,8.86812158203125,0.6502490380942821,-0.5566863727778196,-0.49481326944977044
1684201072859147500,8.8781474609375,0.6682980511344969,-0.5237812975198031,-0.8867310317661613
1684201072869172500,8.88817236328125,0.6959504665613174,-0.5101607684463262,-1.135508151126653
1684201072879198500,8.898198486328125,0.7695217525981366,-0.5340063389360904,-1.2749018626391886
1684201072889223700,8.9082236328125,0.7823112376749515,-0.5296364532887935,-1.333047616007179
1684201072899249700,8.918249755859375,0.8151783190101385,-0.4880149876117706,-1.2045488079965114
1684201072909274600,8.928274658203126,0.8087577844433486,-0.4560796341687441,-0.9669017160680144
1684201072919300600,8.938300537109376,0.8353840716928244,-0.3465513379573822,-0.7031403780654072
1684201072929326600,8.94832666015625,0.8431750178299844,-0.2305617367774248,-0.41521596458908167
1684201072939351600,8.9583515625,0.8473626787781715,-0.11089607743322849,-0.18729381906762718
1684201072949377500,8.96837744140625,0.8927461273372173,0.05051438170671463,0.08852627858445047
1684201072959402500,8.978402587890624,0.9286081527046859,0.19724223549962042,0.39641985950861125
1684201072969428500,8.988428466796876,0.9312668505199253,0.26639117504954335,0.6678574677601457
1684201072979454700,8.998454833984376,0.8831313267737626,0.19376082312464712,0.8625875743083655
1684201072989479400,9.0084794921875,0.7930174867369234,0.10578618707358836,0.9503437453031539
1684201072999505700,9.018505615234375,0.6476860557384788,0.1310866325467825,0.9789885327681899
1684201073009530600,9.028530517578124,0.4753298396922648,0.2684977919399738,0.9829089210823178
1684201073019556900,9.038556884765624,0.32596082374081015,0.6054530340343713,0.9738293964393436
1684201073029581600,9.04858154296875,0.15757891815304756,1.1335498566657305,1.0018573671802877
1684201073039607800,9.05860791015625,-0.09953881711661815,1.7196937945961952,1.1124721434541045
1684201073049633800,9.0686337890625,-0.38270810848772524,2.132865430408716,1.3143176349654793
1684201073059658800,9.07865869140625,-0.6785895819157362,2.1464362751215695,1.5916129197366535
1684201073069684700,9.088684814453124,-0.9716823014080523,1.8079653677672147,1.8437106348872183
1684201073079709700,9.098709716796876,-1.2152613406687973,1.2027397127479313,1.8431744821839033
1684201073089735700,9.108735595703125,-1.204079436919093,0.5323170706748962,1.419816675660759
1684201073099761000,9.118760986328125,-0.44978316437304017,-0.1186029985487461,0.5488001495726407
1684201073109786600,9.12878662109375,2.1776620189905165,-0.4439192407757044,-0.434967872557044
1684201073119812600,9.1388125,6.325866570580005,-0.10216682753264904,-1.0298713093958793
1684201073129837800,9.148837890625,8.825408427608012,0.3910287775874138,-1.0183701105639338
1684201073139863800,9.15886376953125,10.4189647364974,0.7095978836417198,-0.9311344563119113
1684201073149888800,9.168888671875,10.647781675434112,0.808711168822646,-1.0787149083461611
1684201073159914800,9.178914794921875,7.741498507902025,1.0553823288798332,-1.3667403345115483
1684201073169939700,9.188939697265624,3.3652287125259637,1.4612030174076556,-1.3385465056844055
1684201073179965700,9.198965576171876,-0.23239538194537163,1.5765379540711641,-1.0154461859412491
1684201073189991700,9.20899169921875,-2.6878070053458214,1.3194032676666974,-0.5043924507105723
1684201073200016600,9.2190166015625,-4.760880522614717,1.190578734833002,0.3977910017313435
1684201073210042600,9.229042724609375,-5.313678071260452,1.521859438422322,0.5789203068198636
1684201073220067800,9.23906787109375,-6.034033495759964,2.1021926442474124,1.0808714287929235
1684201073230093800,9.24909375,-6.799149268484115,3.0881133143663404,2.4837799320116636
1684201073240118800,9.259118896484376,-4.704550148105621,4.316343442201614,4.502966376270353
1684201073250144800,9.269144775390625,-1.774020574197918,5.4170823316335674,6.690105540919303
1684201073260170800,9.279170654296875,-1.0374363378226756,5.71260607766509,7.8380761371254914
1684201073270195700,9.28919580078125,-1.4009959475956857,5.10996693200767,7.396848619651794
1684201073280221700,9.2992216796875,-1.9339526313483715,3.9577164665251967,5.283609096211195
1684201073290246700,9.30924658203125,-2.3767782316684722,2.529455349254608,2.481358550083637
1684201073300272600,9.319272705078125,-2.6921149316728115,1.2397528078466653,0.11939100712127983
1684201073310297600,9.329297607421875,-2.9337106881618498,0.23413550361096858,-1.6377049549564717
1684201073320323600,9.339323486328125,-3.197756469129026,-0.6205056417375803,-2.508051911219954
1684201073330349600,9.349349609375,-3.1122540684103965,-0.9856488674402236,-2.522092127010226
1684201073340374800,9.359374755859376,-2.900779893940687,-0.8069026580959558,-2.3690708721615374
1684201073350400800,9.36940087890625,-2.617103237569332,-0.5944248595416546,-2.063802707837522
1684201073360425700,9.37942578125,-2.2903309513151644,-0.21420330717265604,-1.6931833888113497
1684201073370451700,9.38945166015625,-2.081729117411375,0.2161976958602667,-1.5209462691001594
1684201073380476700,9.3994765625,-2.134118937601149,0.34658348666131494,-1.598899423483014
1684201073390502700,9.409502685546874,-2.3370567543938754,0.5153828870087862,-1.780756166063249
1684201073400528600,9.419528564453126,-2.6087875369057056,0.44474809281527994,-2.109194193572551
1684201073410553600,9.4295537109375,-2.6541172094509005,0.053831543430685996,-2.3782177629522976
1684201073420579600,9.43957958984375,-2.380369241897762,-0.36066344994008537,-2.6812211972147226
1684201073430604800,9.449604736328125,-2.33082896592021,-0.7072387532949447,-2.858739033807814
1684201073440630800,9.459630859375,-2.3116259605392813,-0.9598632687985896,-2.8300483613744376
1684201073450655700,9.46965576171875,-2.5860017046019435,-1.2480495115488768,-2.8545319375067946
1684201073460681700,9.479681640625,-2.6243852112710475,-1.6742133154034613,-2.922213727113604
1684201073470707700,9.489707763671875,-2.3182143990188835,-1.9813585256457327,-2.8844845927000042
1684201073480732700,9.499732666015625,-2.0719047657504674,-1.9877298142433166,-2.8769492287591096
1684201073490758700,9.509758544921874,-1.9409528654992578,-1.979261845627427,-2.9755659625947475
1684201073500783600,9.51978369140625,-1.9420134804680942,-2.007591868054867,-3.054639499309659
1684201073510809600,9.5298095703125,-1.8236627031147479,-2.0050632263600825,-3.0518180121481415
1684201073520835600,9.539835693359375,-1.53275492644608,-1.97155375546813,-2.902563270226121
1684201073530860500,9.549860595703125,-1.2958137177646158,-1.919479284837842,-2.4503172228708863
1684201073540886500,9.559886474609375,-1.3006111811742185,-1.8043004155188798,-1.9004126191876827
1684201073550911700,9.569911865234374,-1.3842159315779805,-1.6465420491456983,-1.520295988497883
1684201073560937700,9.579937744140626,-1.4521040574118493,-1.5371353334873914,-1.441793091277778
1684201073570962700,9.589962646484375,-1.533942967186868,-1.5007798255145548,-1.4954913637176155
1684201073580988700,9.59998876953125,-1.4351882861852645,-1.5175854143649339,-1.5923732365846632
1684201073591014700,9.6100146484375,-1.2246645443081856,-1.549002881413698,-1.6826131872192025
1684201073601039600,9.62003955078125,-0.8735138958618044,-1.5724047997891901,-1.6859449619904159
1684201073611065600,9.630065673828126,-0.6148395787999034,-1.469330209761858,-1.6231272712886333
1684201073621090600,9.640090576171875,-0.4100435669198632,-1.3180682196706532,-1.5172896462887524
1684201073631116500,9.650116455078125,-0.1938774352416396,-1.0758990472078322,-1.4005521493509412
1684201073641141800,9.660141845703125,-0.1196332183793187,-0.6963502795338631,-1.3247674250483512
1684201073651167700,9.670167724609374,-0.10227277212515473,-0.30946693118810653,-1.270387161693722
1684201073661193700,9.68019384765625,-0.03296937266588211,0.07315408353805541,-1.1681430311411618
1684201073671218700,9.69021875,0.09294628698378801,0.3160901487201452,-0.8279112515941262
1684201073681244700,9.70024462890625,0.23622253901809454,0.4099234476715326,-0.5601859053313731
1684201073691269600,9.71026953125,0.4068317652665078,0.3884294087439775,-0.21312807915657758
1684201073701295600,9.720295654296875,0.6496328058920801,0.09605448213219642,0.3364709657087922
1684201073711320600,9.730320556640624,0.6965560312390328,-0.19517244348824023,0.5671127819851041
1684201073721346600,9.7403466796875,0.4879293551549315,-0.41516251736879345,0.5292489152759313
1684201073731372500,9.75037255859375,0.2373721474446356,-0.5543284114748239,0.4867797467283904
1684201073741397500,9.7603974609375,0.09268544409051536,-0.6502841094076633,0.42784474267885086
1684201073751423500,9.770423583984375,-0.05280592670999467,-0.5737257703840732,0.38874358925968405
1684201073761448700,9.78044873046875,-0.1522958631835878,-0.2794493940651417,0.3814307820282876
1684201073771474700,9.790474609375,-0.16294256407804786,-0.17823007651567457,0.37039325518533583
1684201073781499600,9.800499755859375,-0.107070454730466,-0.09409867188930511,0.3608258008949458
1684201073791525600,9.810525634765625,-0.17299747309181837,0.16469781024754046,0.3606261136043817
1684201073801551600,9.820551513671875,-0.24481059034969657,0.6327379313230515,0.34536833871789274
1684201073811576600,9.83057666015625,-0.10702128182649612,1.1622229934424162,0.4293729020942002
1684201073821602600,9.8406025390625,0.16746199599755926,1.5940344477951525,0.5436719198387115
1684201073831627500,9.85062744140625,0.4126291994988918,2.0725743355751036,0.7108397003963589
1684201073841653500,9.860653564453125,0.6108768126487731,2.833899483844638,0.8797661611896008
1684201073851678700,9.8706787109375,0.7559440397530793,3.978634166869521,0.9517308888126164
1684201073861704700,9.88070458984375,1.1007874047487973,5.150892816635966,1.1250326420806347
1684201073871730700,9.890730712890624,2.2908383163154125,5.7782256740450855,1.768518031258881
1684201073881755600,9.900755615234376,4.077020891341567,5.783636008656025,2.727975934126973
1684201073891781600,9.91078173828125,5.224807363152504,5.169174323257804,3.4735818274781107
1684201073901806600,9.920806640625,4.908132692542672,3.7844361213713884,3.5240918252706526
1684201073911832600,9.93083251953125,3.5879186930149793,1.8152379891186952,2.8322011554941535
1684201073921857500,9.940857421875,2.1861662279635667,-0.24761282482147215,1.775063361249119
1684201073931883500,9.950883544921876,1.0125707766354084,-1.924833505347371,0.6550748508155345
1684201073941909500,9.960909423828125,0.0030804394918028262,-3.0732343096643686,-0.4027364587768912
1684201073951934500,9.9709345703125,-1.0368822110712528,-3.7171816172659393,-1.306928986018896
1684201073961960200,9.980960205078125,-1.844755760025978,-3.8785307016074655,-1.7116045961648225
1684201073971985400,9.9909853515625,-2.4462638558268543,-3.4868548582881687,-1.7964402035377918
1684201073982011400,10.001011474609374,-2.737023748457432,-2.6530788063138724,-1.8368790353015063
1684201073992036400,10.011036376953125,-2.6975463090717793,-1.5325497592628001,-1.7866240351833402
1684201074002062300,10.021062255859375,-2.497912209999561,-0.366893284240365,-1.592860727840662
1684201074012088300,10.03108837890625,-2.0468729080855845,0.48497605830729007,-1.2625069298379124
1684201074022113300,10.04111328125,-1.4780290645241736,1.129455280828476,-0.6716416624739766
1684201074032139300,10.05113916015625,-0.8904699990987777,1.4415654200017451,0.040946342894434926
1684201074042164200,10.061164306640626,-0.21208090819120407,1.439351835605502,0.719835346148163
1684201074052190200,10.071190185546875,0.416196536591649,1.010486371576786,1.1539001323856413
1684201074062215400,10.08121533203125,0.7525561508804559,0.21958967638611793,1.2187079739913345
1684201074072241400,10.091241455078125,0.8708440921306609,-0.3773848676383495,0.8116340705320239
1684201074082267400,10.101267333984374,0.9073007223904133,-0.48505847589373585,0.08707260917741805
1684201074092292400,10.111292236328126,0.9792594586640596,-0.3831839093059301,-0.3807798438388854
1684201074102318300,10.121318359375,0.9280652779996394,-0.17428689184784887,-0.7422907774537801
1684201074112343300,10.13134326171875,0.7525380307018756,0.09234159908890724,-1.009309071425721
1684201074122369300,10.141369384765625,0.47852059855759144,0.1760989097058773,-1.2883940891578793
1684201074132395300,10.151395263671875,0.07822773354053497,0.2681108384490013,-1.339477941315621
1684201074142420200,10.161420166015626,-0.36839959715008735,0.40562136656343933,-1.1781940311647952
1684201074152446200,10.1714462890625,-0.8406091128647327,0.4631371514648199,-1.0717568328365683
1684201074162471200,10.18147119140625,-1.2292460268795489,0.45237961060702797,-0.7935989398866892
1684201074172497200,10.1914970703125,-1.6776970658659933,0.4292190997719764,-0.36222609614692625
1684201074182522400,10.2015224609375,-2.140982101368904,0.43792555331885813,0.37591684091240163
1684201074192548400,10.21154833984375,-2.1182301713347433,0.25575813735425473,0.8690027020476758
1684201074202574300,10.22157421875,-1.9646423686444758,-0.03786298992633819,0.6026082390625029
1684201074212599300,10.231599365234375,-1.8325415906190872,-0.23743863680958746,0.38950500208623706
1684201074222625300,10.241625244140625,-1.6927917591452597,-0.38260347906947134,0.40619712062478064
1684201074232650200,10.251650146484375,-1.5983721847385166,-0.46862405844330784,0.2794993706867099
1684201074242676200,10.26167626953125,-1.5727917532801627,-0.42511926323771476,0.03604929156787693
1684201074252701200,10.271701171875,-1.457664321887493,-0.4468874429315328,-0.1772392388474196
1684201074262727200,10.28172705078125,-1.1993342882186173,-0.5401806436568498,-0.29138277376927435
1684201074272753400,10.29175341796875,-0.8316840481311082,-0.5224176079511642,-0.3892979352068156
1684201074282778400,10.3017783203125,-0.3918512364188209,-0.3602694821864366,-0.39196978476457295
1684201074292804400,10.311804443359375,0.12631401131749154,-0.10009002125859259,-0.25216172029748557
1684201074302829300,10.321829345703126,0.7855155136089772,0.18071487906873226,-0.10763232639692723
1684201074312855300,10.331855224609376,1.4178554585903882,0.3277928614735603,-0.05604878108873963
1684201074322880300,10.34188037109375,1.923949123728275,0.2771592373013496,0.03999061307217926
1684201074332906200,10.35190625,2.040568254983425,0.22488602922856807,0.24892580711618065
1684201074342932500,10.361932373046875,1.5979261945366858,0.23152736693918705,0.4888482235655188
1684201074352957200,10.371957275390624,0.9372777813725173,0.3294225085020065,0.5595257974548264
1684201074362983400,10.3819833984375,0.3795803318560123,0.36255905442833897,0.5145300695717334
1684201074373008100,10.392008056640625,-0.07950608291327953,0.30035891110301016,0.49460839452743527
1684201074383034400,10.402034423828125,-0.41451720520257945,0.14568389769792556,0.5618734200268983
1684201074393059300,10.412059326171875,-0.5862585042208432,-0.06869067438840866,0.6666760028906166
1684201074403085600,10.42208544921875,-0.7026806515991687,-0.2953735239058733,0.8165735727608203
1684201074413111600,10.432111572265624,-0.6945937912553548,-0.4806804069399833,0.8254137356899678
1684201074423136500,10.442136474609375,-0.629351796016097,-0.5846230119735002,0.733289578744024
1684201074433162500,10.45216259765625,-0.41739144546464085,-0.5598930598646402,0.5125173415098339
1684201074443187500,10.4621875,-0.17426409549415112,-0.48623102680444713,0.23121011768355965
1684201074453213400,10.47221337890625,0.021508505844324826,-0.34696693302094933,-0.02210552188940346
1684201074463238400,10.48223828125,0.15621815119385718,-0.12958616485595703,-0.20513576522842047
1684201074473264400,10.492264404296876,0.259345932713151,0.09003215310275554,-0.3417382385872304
1684201074483290400,10.502290283203125,0.32696517847776413,0.17927286356687544,-0.4439487591311335
1684201074493315600,10.512315673828125,0.34579847376346584,0.06388005923628806,-0.45710985399931664
1684201074503341300,10.52234130859375,0.32727672864496704,-0.17332009264230727,-0.3746291391894221
1684201074513366500,10.532366455078124,0.3683746819045394,-0.4885001407802105,-0.24842695421595126
1684201074523392500,10.542392578125,0.49040436696633694,-0.5855640922158957,-0.11433343147076666
1684201074533417500,10.55241748046875,0.632752690500766,-0.44155894138514995,0.15189860749430953
1684201074543443500,10.562443359375,0.7516681159995496,-0.22653730356693266,0.4252733578208834
1684201074553469400,10.572469482421875,0.7613480907537042,0.11745908921062946,0.5619125099282711
1684201074563494400,10.582494384765624,0.6651508391499519,0.2875011830955744,0.509396506075561
1684201074573520400,10.592520263671876,0.5018313315182924,0.23415362378954885,0.3489927397601306
1684201074583545300,10.60254541015625,0.3221358586251736,0.05561550423800945,0.17891148290857672
1684201074593571300,10.6125712890625,0.19207506199479102,-0.12843874838650227,0.09680296241194009
1684201074603597300,10.622597412109375,0.11602525701522827,-0.2944838815897703,0.0634428368628025
1684201074613622500,10.63262255859375,0.09188041131794453,-0.4211994594454765,0.07860548081174493
1684201074623648500,10.6426484375,0.12495309822782874,-0.4914759417206049,0.11124956704601645
1684201074633673500,10.652673583984376,0.19142638882771132,-0.48352059880197046,0.21394633673690258
1684201074643699500,10.662699462890625,0.28676804651543497,-0.344804202029109,0.32074718074575065
1684201074653724400,10.672724365234375,0.4434188900381326,-0.10029518844187259,0.43423765858635305
1684201074663750400,10.68275048828125,0.6094535018473863,0.2091109524697065,0.5811847811531275
1684201074673776400,10.6927763671875,0.8729115460544824,0.452605236056447,0.6682182638965547
1684201074683801300,10.70280126953125,1.3089566924542189,0.5883429092794656,0.8048027632072567
1684201074693827300,10.712827392578125,1.9040099130272865,0.5788683939695358,1.0275357060551642
1684201074703852300,10.722852294921875,2.5311422794282437,0.30205694719254966,1.197513648662716
1684201074713878300,10.732878173828125,2.969895515742898,-0.1674059001624584,1.2276479440331458
1684201074723903500,10.742903564453124,2.9535324099630116,-0.5523959821075201,1.1059035787187517
1684201074733929500,10.752929443359376,2.4302403572648763,-0.6952034475862979,0.9102022890508175
1684201074743955500,10.76295556640625,1.634767440199852,-0.6080827980160712,0.7905455436654388
1684201074753980400,10.77298046875,0.973841671399027,-0.45953532758057114,0.7146075284972786
1684201074764006400,10.78300634765625,0.587931990391016,-0.2796206589788198,0.7219149289011955
1684201074774031400,10.79303125,0.4055139606662094,-0.02753741074502468,0.8064103445343673
1684201074784057300,10.803057373046874,0.30102585057914255,0.27388182306587694,0.8798992129847407
1684201074794082300,10.813082275390625,0.1627782403618097,0.8087666984021663,0.9773479259543121
1684201074804108300,10.8231083984375,-0.0015659341424703597,1.4483084645211697,1.1620951292790471
1684201074814134300,10.83313427734375,-0.1608263756416738,1.8383879785597323,1.4278984214380384
1684201074824159500,10.843159423828125,-0.3292785699866712,1.9537673388868568,1.7161792106039822
1684201074834185500,10.853185546875,-0.5503747054129838,1.9653104771643877,1.943200059904158
1684201074844210400,10.86321044921875,-0.8242313940376043,2.175279507768154,2.0524381409972903
1684201074854236400,10.873236328125,-1.0518285819210111,2.5051515136033293,2.1127159379579123
1684201074864261400,10.883261474609375,-1.0256067838191985,2.573967860198021,1.9061622687555848
1684201074874287400,10.893287353515625,-0.26640739553198217,2.1064555623888968,1.4383962884463368
1684201074884313300,10.903313232421874,2.597695941787958,1.5070307026028633,0.8078042831107973
1684201074894338300,10.91333837890625,6.727927614313364,1.1965578092426061,0.3696582919742912
1684201074904364300,10.9233642578125,9.321882616007327,0.9331120399951934,0.06451609211750328
1684201074914389200,10.93338916015625,10.206369449043274,0.6735977649778128,-0.39653292796164746
1684201074924415200,10.943415283203125,8.182160208186506,0.4630009578645229,-1.0700323471315205
1684201074934440400,10.9534404296875,4.396872438421846,0.356993821516633,-1.7622358822494744
1684201074944466400,10.963466552734374,0.8495435299485922,0.1920721393853426,-2.05125477643162
1684201074954493000,10.973492919921876,-1.7063830621242522,0.13629589162766934,-1.7325239039443432
1684201074964518000,10.983517822265625,-3.6517256870150563,0.5644768805235624,-1.4209382270365953
1684201074974544000,10.9935439453125,-5.529491736239194,1.1904945636808872,-1.0986619370274244
1684201074984568800,11.00356884765625,-7.153362519371509,1.9528063849002122,-1.8459319641985
1684201074994594800,11.0135947265625,-7.668807950222492,2.8199294106811283,-1.9725842675596474
1684201075004619800,11.023619873046876,-7.21427320740819,3.4827579443633554,-1.060266155398637
1684201075014645800,11.033645751953125,-5.7611249016404145,3.648020402756333,-0.3265397196073085
1684201075024671700,11.043671630859375,-2.6388404376029966,3.6805040377318856,1.7955821254037319
1684201075034696700,11.05369677734375,0.08855375111326574,3.4537966382950542,3.7338638719975945
1684201075044722700,11.06372265625,0.4074303156815469,2.9076012643933296,4.448956553663313
1684201075054748000,11.073747802734376,-0.5362998567007482,2.4318150592356917,3.970051047441363
1684201075064774000,11.08377392578125,-1.1944134906902908,1.9188310500621795,2.1501151097647844
1684201075074798800,11.093798828125,-1.5206607301570474,1.5866203721463679,0.35752537111006677
1684201075084824800,11.103824951171875,-1.5193768278263509,1.3444769186466932,-0.8512728379592299
1684201075094850800,11.113850830078125,-1.9012182364821433,1.0994137783080338,-1.2240640211317688
1684201075104875800,11.123875732421874,-1.7404674102947115,0.943098011958599,-1.5254166925124824
1684201075114901800,11.13390185546875,-1.6153566372871397,0.8810673799812794,-1.9661955894358456
1684201075124926700,11.1439267578125,-2.4092694654285904,0.7746008094280957,-2.1804959272421893
1684201075134952700,11.15395263671875,-2.7625562491208315,0.42728257875144476,-1.8473858162686227
1684201075144978000,11.16397802734375,-2.8094927723407745,-0.34828502988219256,-1.5976263348072766
1684201075155004000,11.17400390625,-2.4549568653702734,-0.9950959102213383,-1.7226786556258797
1684201075165030000,11.18402978515625,-2.0108067384481427,-1.2405547718793153,-1.9500144160941242
1684201075175054800,11.194054931640625,-1.6871388479501008,-1.4101169732928276,-2.199509255269915
1684201075185080800,11.204080810546875,-1.6350535636648535,-1.5951304263383148,-2.3684515712194143
1684201075195105800,11.214105712890625,-1.7872133793786167,-1.7993050914496183,-2.123834713343531
1684201075205131800,11.2241318359375,-1.4853873183324933,-1.8316759137004612,-1.9273722300447522
1684201075215157800,11.23415771484375,-1.45419196960181,-1.6167945611357688,-1.899569154100865
1684201075225182700,11.2441826171875,-1.7605410610303283,-1.4313292726695537,-1.7325712502174078
1684201075235208700,11.254208740234375,-1.7531012664183974,-1.4362047697514295,-1.7405432520098982
1684201075245233700,11.264233642578125,-1.615798243574798,-1.4944360094457865,-1.7763235904432833
1684201075255259600,11.274259765625,-1.4985501667663454,-1.4623837516248226,-1.5705669168375431
1684201075265284900,11.284284912109374,-1.4001944219544529,-1.39455816963315,-1.3879773299381135
1684201075275310800,11.294310791015626,-1.264744625762105,-1.410173671916127,-1.3348108262874185
1684201075285337000,11.304337158203126,-1.1713675461456179,-1.4410650692641733,-1.320161392557621
1684201075295361800,11.31436181640625,-1.1143100264057517,-1.4762497798919676,-1.3539284914724528
1684201075305388000,11.324387939453125,-1.2443199696317315,-1.5230191298514604,-1.4162325335636734
1684201075315412700,11.334412841796874,-1.4285823120489716,-1.617055257898569,-1.5433267354734241
1684201075325439000,11.34443896484375,-1.6175637919425963,-1.71129187695384,-1.677470271372795
1684201075335463700,11.354463623046875,-1.7215820925608276,-1.8783342045009135,-1.6943964178629218
1684201075345490000,11.364489990234375,-1.6763891981378196,-2.0040245309621096,-1.6201840574435888
1684201075355516000,11.374515869140625,-1.4305328615948556,-2.0068711525648832,-1.6189960167028008
1684201075365540900,11.384540771484374,-0.9821896668970584,-1.9198551324129103,-1.532562911005318
1684201075375566800,11.39456689453125,-0.8379872399285435,-1.6246639793366193,-1.2097352707237004
1684201075385591800,11.404591796875,-0.9103983961448073,-1.2546318125486373,-0.9867859086461365
1684201075395618000,11.4146181640625,-0.8126862099334597,-0.9369237072378397,-0.9827772575266659
1684201075405642800,11.424642822265625,-0.5645487767159938,-0.6566980681031942,-1.1254261714428662
1684201075415669000,11.4346689453125,-0.34300299782603977,-0.42291912284493444,-1.0591646238975225
1684201075425695000,11.444695068359374,-0.5488052641391754,-0.3410007180929184,-0.7602529889933765
1684201075435720000,11.454719970703126,-0.7506421339526772,-0.5208791463375091,-0.6092061029575765
1684201075445746000,11.464745849609375,-0.7956231391906737,-0.8765461031645536,-0.6410758438184857
1684201075455771000,11.47477099609375,-0.726748048146069,-1.2637474314182997,-0.7279841658122838
1684201075465796900,11.484796875,-0.6967351871982217,-1.501868789795041,-0.8562776605091988
1684201075475822000,11.494822021484374,-0.6458671697482467,-1.5301339302927255,-1.0395463157139717
1684201075485848000,11.50484814453125,-0.3875400586888194,-1.4176327557504176,-1.266777592894435
1684201075495874000,11.5148740234375,0.005236439348757267,-1.2366174324303865,-1.4581247790060936
1684201075505899000,11.52489892578125,0.32286431903019547,-0.9436392792284488,-1.5706293145492671
1684201075515925000,11.534925048828125,0.4811069617889821,-0.4880798695415258,-1.583485288991034
1684201075525950000,11.544949951171875,0.43914910376444455,-0.10786533143520355,-1.4772503352366386
1684201075535976000,11.554975830078124,0.20325462765693664,0.0508902292817831,-1.3786080285683273
1684201075546001000,11.5650009765625,-0.1313607733130455,0.04366027802824974,-1.4282071951262651
1684201075556027000,11.57502685546875,-0.16528393957242368,0.008117255482077599,-1.5034192341074346
1684201075566052900,11.585052978515625,0.030237317353487014,0.09942600439190864,-1.4654362710632383
1684201075576077800,11.595077880859375,0.3966424527507275,0.37509003469943997,-1.231728491345048
1684201075586103800,11.605103759765624,0.826453161740303,0.9173375477582216,-0.9695676473416387
1684201075596129000,11.61512890625,1.0623661964178084,1.4455729020774364,-0.6530046204127371
1684201075606155000,11.625155029296875,1.091712702411413,1.738275160947442,-0.1934099455940537
1684201075616181000,11.635180908203125,0.8670786021173,2.216476026031375,0.019061688080942257
1684201075626206000,11.6452060546875,0.4856278002142906,3.027177491888404,-0.10060878443568945
1684201075636232000,11.65523193359375,0.03896656725406646,3.8078801253229377,0.15145621575536206
1684201075646257000,11.6652568359375,-0.5346124881356954,4.971192667567729,0.07310238988343626
1684201075656283000,11.675282958984376,-0.07267243750095367,5.115515798306465,0.6851293589480221
1684201075666307800,11.685307861328125,1.0587018286913632,4.2781560426265,1.4527470314905047
1684201075676333800,11.695333740234375,1.626193673121929,3.267376241061091,2.4941087260633705
1684201075686359000,11.705359130859375,1.4298808274269104,2.8390321705579757,3.103862087640166
1684201075696385000,11.715385009765624,1.4736469039171933,2.531443892723322,3.5467268509268757
1684201075706411000,11.725410888671876,1.6403127993673086,1.5295628524065017,3.405385366347432
1684201075716436000,11.73543603515625,1.274946286302805,0.1987982327699661,2.7257515360757707
1684201075726462000,11.7454619140625,0.7262965049862862,-1.2143301972985268,2.481559625613689
1684201075736487000,11.75548681640625,0.620398089709878,-2.420568273556232,2.2024932395167647
1684201075746513000,11.765512939453124,0.3150321275671944,-1.894483959791064,0.5612154675748199
1684201075756539000,11.775538818359376,0.05868250885950401,0.7711632361948489,-1.3857200525306164
1684201075766563800,11.785563720703125,0.1967985833853483,2.9257582678526637,-2.2965035024702547
1684201075776589800,11.79558984375,-0.25291443836092947,3.0155887609034773,-1.8451918133556842
1684201075786614800,11.80561474609375,-0.3396352749586105,2.546791099458933,-0.8622598036587238
1684201075796640800,11.815640869140625,0.19273674077391623,1.7741531145364045,0.11190905386805533
1684201075806666000,11.825666015625,0.1526268487036228,1.090147937312722,1.0204463323161006
1684201075816692000,11.83569189453125,0.15438742863535881,2.0647949337452647,0.5480678897753357
1684201075826718000,11.845718017578125,0.5553519458362832,2.905171406897902,-0.1226852994263172
1684201075836743000,11.855742919921875,0.1291290687382221,1.6777642858833073,1.373177527952194
1684201075846769000,11.865768798828125,-0.0857879579280503,-0.1851701049119234,2.8302368696838616
1684201075856793900,11.8757939453125,0.27504211728321387,-1.8246107976198196,3.262611803138256
1684201075866819800,11.88581982421875,0.7418868728280067,-2.8519378293603657,2.9877009292855856
1684201075876844800,11.8958447265625,0.9230208540916442,-3.7668361672729254,3.065987699536979
1684201075886870800,11.905870849609375,0.9261398628950118,-4.81544564101696,3.1381025031551717
1684201075896896800,11.915896728515625,0.7783738982260227,-5.24965655772686,2.8093448883026837
1684201075906922000,11.925921875,0.2750794901515357,-4.755680031362176,1.9197601476058364
1684201075916948000,11.935947998046874,-0.11957916837083175,-3.659703241765499,0.825901080815494
1684201075926973000,11.945972900390625,-0.5051379353156313,-2.2571447210282085,0.3752668525710702
1684201075936999000,11.9559990234375,-1.0048340449035167,-0.8638058640569448,0.8304585979893803
1684201075947024000,11.96602392578125,-1.5036007281541823,0.16491934404373168,1.4151780560746787
1684201075957050000,11.976050048828125,-2.1597709729909895,0.9250023832976818,1.83203247205317
1684201075967076000,11.986076171875,-2.7722832778871056,1.5659762280464171,1.4356418751716613
1684201075977101000,11.99610107421875,-3.070587010025978,1.8714239867210387,0.7581327819690108
1684201075987127000,12.006126953125,-3.2571278187692165,1.442664321154356,0.025522271530330178
1684201075997152000,12.016152099609375,-2.882033107894659,0.7741092265188694,-0.40731648004353044
1684201076007178000,12.026177978515625,-2.3273697653770444,-0.33442776944339275,-0.12957184406965971
1684201076017203200,12.036203125,-1.927770727843046,0.1401525670558214,-1.1926906124204397
1684201076027229200,12.046229248046876,-1.344217975449562,1.6211311290353536,-2.7468285186350343
1684201076037255200,12.056255126953126,-1.1073040201012045,2.12537887404561,-3.9276141737282275
1684201076047280000,12.066280029296875,-0.6116016928572208,2.535749480962753,-4.646902845779061
1684201076057306000,12.07630615234375,-0.22067564499191938,2.0083897404342888,-4.242188072666526
1684201076067331000,12.0863310546875,-0.14741159827336667,0.6279015972077846,-3.115421884791553
1684201076077357000,12.096357177734374,-0.5693921981591731,-1.0114151768594979,-2.4053537532895803
1684201076087382000,12.106382080078125,-1.2369956180930137,-2.24155026153326,-2.023522866027802
1684201076097408000,12.116407958984375,-1.3470121362127363,-1.744140253588557,-2.380217266206443
1684201076107434000,12.12643408203125,-1.3616437420248984,-0.05325052867233753,-3.7280677529394626
1684201076117459000,12.136458984375,-1.881957071173191,0.4422328951239586,-4.303044400167465
1684201076127485000,12.14648486328125,-2.499609661567211,-0.8964081569761038,-2.6885350273594257
1684201076137510100,12.15651025390625,-2.646357389104366,-1.8516139553576707,-1.5636292265288532
1684201076147536100,12.1665361328125,-1.7083938174247741,-0.38101767118275165,-2.0283320198751986
1684201076157562000,12.17656201171875,-1.1482079120934008,0.6291401990920304,-2.2041176258482036
1684201076167587000,12.186587158203125,-1.3647265104711055,-0.3055161477357149,-0.9547615617454052
1684201076177613000,12.196613037109374,-1.6215258274413644,-0.9246528392076492,0.22023338111713528
1684201076187638000,12.206637939453126,-1.655362484461069,-0.176804427626729,0.28320976951196786
1684201076197664000,12.2166640625,-1.651294065978378,1.0509276875585316,0.4139408666193485
1684201076207689000,12.22668896484375,-2.5074305644512176,0.4530190775543451,1.892098818220198
1684201076217715000,12.23671484375,-2.5914941645383833,-0.25863223148584363,2.5433722309261557
1684201076227741000,12.246740966796875,-2.4827450360059737,-1.0044973602950573,3.5593855492308735
1684201076237766100,12.25676611328125,-2.008642838412523,-0.3719470604985952,4.254894701765477
1684201076247792000,12.266792236328126,-2.193351755553484,1.2185966225713492,3.216527512833476
1684201076257817000,12.276817138671875,-1.8941010979533195,2.74952199550271,2.7030080816090107
1684201076267843000,12.286843017578125,-0.852328192231059,2.027218944066763,1.07793610599339
1684201076277868000,12.296867919921874,0.07565002853963523,1.529523104918003,1.55009038438946
1684201076287894000,12.30689404296875,2.3322341565430165,4.17039534060955,3.8983278734892606
1684201076297920000,12.316919921875,7.309165660023689,3.1520939113676545,1.7777148986712097
1684201076307945000,12.326945068359375,11.676528510844706,1.849949821537733,-0.9221402718648314
1684201076317971000,12.336970947265625,12.367915030491352,1.0638426987111569,-1.8074410516321657
1684201076327996000,12.346995849609375,9.56556277755499,0.04355681765377521,-1.7157696068897843
1684201076338022000,12.35702197265625,5.567576844483614,0.026148586735129355,-1.4484534259498119
1684201076348047000,12.367047119140626,1.6447031432807444,-0.14635025265216828,-2.221029743812978
1684201076358073000,12.377072998046875,-1.4481646721363066,0.19424772985875605,-3.856330267976224
1684201076368099000,12.38709912109375,-3.0288620839744804,0.6622703152775764,-4.6501060257345435
1684201076378124000,12.3971240234375,-3.3002602735310793,0.2653822902679443,-3.694026951649785
1684201076388150000,12.40714990234375,-2.5312217744052408,-0.13106558975875376,-1.5642968966573476
1684201076398175000,12.417175048828126,-1.152768863333389,-0.28499183062314987,0.5897878473907708
1684201076408201000,12.427200927734376,-0.05068626767490059,-0.05683481689989566,2.571140235556662
1684201076418226000,12.437225830078125,0.2912619969338178,0.6339186655402184,4.035523344305157
1684201076428252000,12.447251953125,-0.21561087241563945,1.0396779792696238,4.12176516521424
1684201076438278000,12.45727783203125,-1.9506763871341943,0.7520604763180017,1.9129209492355583
1684201076448303000,12.46730322265625,-3.807600139337778,0.9955155969381332,0.47774070022627707
1684201076458329000,12.4773291015625,-4.613118649598956,1.061501688542962,-0.17733517350256442
1684201076468354000,12.48735400390625,-3.9627860248744486,0.5914800382614135,-0.029538083042949435
1684201076478380000,12.497380126953125,-2.5195751757532356,-0.24424422517120836,0.4579173709899187
1684201076488405000,12.507405029296875,-0.7575094624388963,-1.0640022731870413,0.9742688107699156
1684201076498431000,12.517430908203124,0.5343267299968749,-2.1570003392338752,1.1269127567388117
1684201076508457000,12.52745703125,1.1453146018046885,-2.94885389675796,0.741999247161299
1684201076518482000,12.53748193359375,1.2182757931191472,-3.247506588464975,-0.007896890729665755
1684201076528508000,12.5475078125,0.8996884207557886,-3.3180238937586544,-1.0568332583405078
1684201076538532900,12.557532958984375,0.5175718484204263,-2.695368380510807,-1.1601955792680383
1684201076548558800,12.567558837890624,-0.08504669284038245,-1.8354963487714528,-0.13330007081255316
1684201076558584800,12.577584716796874,-0.8112239553611725,-1.7080232305467127,0.5341458935372531
1684201076568610000,12.587610107421876,-1.0749006107550114,-1.5990326944738626,-0.142133073348552
