time,seconds_elapsed,z,y,x
1684200705387988000,0.032988037109375,-0.46158583036959167,0.3007411884188652,1.3807061698913574
1684200705398014000,0.043013916015625,1.5342325977832079,-0.0857470231294632,-0.5060796366125345
1684200705408040200,0.053040283203125,2.156200128766894,1.6660130578130483,0.49521542050987477
1684200705418065200,0.063065185546875,2.7634786246627567,1.6985142284452914,0.24723219147343187
1684200705428091400,0.07309130859375,2.858244820550084,0.03413374027013778,-1.1695847543820739
1684200705438117400,0.083117431640625,2.5106799216359854,-1.3518190981030462,-2.6755089570477604
1684200705448143400,0.093143310546875,2.749458282616734,-0.8703022403389215,-3.2507699741750953
1684200705458169300,0.10316943359375,2.31389419773221,-0.39152679023742676,-3.269211347533762
1684200705468195000,0.113195068359375,2.1949434086591,0.46707858256697654,-2.375925998753309
1684200705478221000,0.123220947265625,0.9518044655054807,1.0817962885528802,-1.1659781081922351
1684200705488247000,0.1332470703125,-0.21299626947045325,0.8467103523492813,-0.4719422430805862
1684200705498272800,0.143272705078125,-3.0924680024445057,-1.0433394243866205,-2.2847581196188926
1684200705508298800,0.153298828125,-5.529260265570879,-3.476857780408859,-5.25129731067121
1684200705518324700,0.16332470703125,-1.0031155505478382,-1.6869249129384756,-3.471649105849862
1684200705528350700,0.173350830078125,1.2669307376295327,-0.07346914083659649,-2.0873757449962196
1684200705538376700,0.183376708984375,1.7214274865210055,1.2747545631229877,-1.803493336919695
1684200705548403000,0.19340283203125,1.5907424205124376,2.417612930881977,-1.8420977928631006
1684200705558429000,0.203428955078125,1.5961054088503122,2.7763445359766483,-1.2225687410727142
1684200705568455000,0.213454833984375,1.8411685491889713,2.7528414953142404,-0.5266168132066726
1684200705578481000,0.22348095703125,2.50466519139111,2.812945543143153,0.34429026115760203
1684200705588505900,0.233505859375,3.0012416711211203,3.440628529164195,1.2860874196507035
1684200705598531800,0.24353173828125,3.4095845716029403,4.188555851200222,1.0111239388279616
1684200705608557800,0.253557861328125,3.6400896097570654,4.839315761426091,-1.0052017091721295
1684200705618583800,0.263583740234375,4.677623562735318,5.445813336077332,-3.153113317543268
1684200705628609800,0.27360986328125,5.278855179682374,6.276409588971734,-3.2190947329729793
1684200705638635800,0.2836357421875,5.308253123602271,7.0115200995326035,-2.5625416262984273
1684200705648661800,0.293661865234375,5.1902252945929765,7.533371890294552,-2.418998247760534
1684200705658687700,0.303687744140625,5.307083495301008,7.888252080658078,-1.2503975359797477
1684200705668713700,0.313713623046875,5.518975018399954,7.708935377949476,-0.9986281760007143
1684200705678740000,0.323739990234375,6.0473641019761555,7.344058694228529,-2.309649984291196
1684200705688766000,0.333765869140625,6.342169470605254,7.562121599438786,-3.9215006592839954
1684200705698792000,0.3437919921875,6.464473077237606,8.68363615039587,-5.323736523938178
1684200705708818000,0.35381787109375,6.141285079210996,10.019051226186752,-5.995934943512082
1684200705718844000,0.363843994140625,5.138523748928308,11.317390078514814,-6.601456951129436
1684200705728870000,0.373869873046875,4.138807777690888,12.17224048269987,-6.972135014605522
1684200705738896000,0.383895751953125,2.968153055989742,12.648996409672497,-5.730093803560734
1684200705748920800,0.3939208984375,1.3522563204765319,11.535636523598432,-3.242340584003925
1684200705758946800,0.40394677734375,-0.3902992942690849,10.721863979732989,-1.1115157195121048
1684200705768972800,0.413972900390625,-1.003022611567378,11.62012565562129,0.7432523159623146
1684200705778998800,0.423998779296875,-1.567632763081789,11.223256335312128,3.800986858677864
1684200705789024800,0.434024658203125,-2.6638112127304074,9.46057855451405,5.474308193677664
1684200705799050800,0.44405078125,-3.65419938365221,8.805413687327503,6.203872176027297
1684200705809077000,0.454076904296875,-4.211989918279648,8.954021363517642,6.588652414613962
1684200705819103000,0.46410302734375,-4.158866230857372,8.811189348119497,6.901451120573282
1684200705829129000,0.47412890625,-3.4460464625597,8.507369482907652,7.76916685155034
1684200705839155000,0.484155029296875,-2.7144892605662343,8.711652284568547,8.703616862151026
1684200705849181000,0.494180908203125,-2.224753294380754,8.878702795422077,10.394131908535957
1684200705859207000,0.50420703125,-1.962686412271112,8.527149703654647,12.4708469971776
1684200705869233000,0.51423291015625,-1.6551450423181056,7.985616476345061,14.521541509377956
1684200705879259000,0.5242587890625,-1.2366039884269238,6.821670896893739,15.895107159864901
1684200705889284900,0.534284912109375,-0.7209867081403731,5.110203663372993,16.67253647071719
1684200705899310800,0.544310791015625,-0.34500586208105083,3.6093075180023906,16.654527351295947
1684200705909335800,0.554335693359375,0.22254794166982172,2.839549472430348,16.35630895935297
1684200705919361800,0.56436181640625,0.784175277981162,2.77699393979609,16.520171487820146
1684200705929387800,0.5743876953125,1.2107102532356977,2.3871090715467926,17.167859150993824
1684200705939414000,0.5844140625,2.1504946106016636,0.8075111453831195,17.067237214815616
1684200705949440000,0.59443994140625,2.9091905794113875,-0.4185924918174743,16.88928887785077
1684200705959466000,0.604466064453125,3.9465281330347057,-1.5209610282778738,16.644157932972906
1684200705969492000,0.614491943359375,4.175740208768844,-1.4927315436154602,15.192642781364917
1684200705979518000,0.62451806640625,4.349989691215753,-1.3047791145086287,14.60381764152646
1684200705989544000,0.6345439453125,3.451395130111277,-2.449548868846893,12.781197725462913
1684200705999570000,0.64456982421875,-0.5557715960204601,-2.4618816961973904,9.612547816091775
1684200706009596000,0.654595947265625,-2.1064367115579543,-2.78961961261332,8.338136367318034
1684200706019622000,0.664621826171875,-1.7468572574622927,-2.8829817869216203,7.98261671000719
1684200706029648000,0.67464794921875,-2.7901605876222253,-2.3614696033775804,7.98839821601808
1684200706039674000,0.684674072265625,-3.311731515616178,-1.5642191552460192,7.908305857649445
1684200706049700000,0.6947001953125,-2.736722135162353,-1.194103401827812,7.399688811513781
1684200706059726000,0.70472607421875,-1.7002058347940443,-1.4828022702753543,6.8506164208710185
1684200706069752000,0.714751953125,0.006817863321304321,-2.2050106291651725,6.358989087980985
1684200706079777000,0.724777099609375,1.4882286792382597,-3.227077548420429,5.725546807780861
1684200706089803000,0.734802978515625,2.3644535876244306,-3.511200194993615,5.504438543525338
1684200706099829000,0.7448291015625,3.3558348612368105,-3.1471757441878316,5.133438408488035
1684200706109855000,0.75485498046875,0.6233323895961046,-1.9990999340414999,5.854294183725118
1684200706119881000,0.764880859375,-0.8434110185429453,-1.3223048343271016,3.48879196383059
1684200706129907000,0.774906982421875,-1.6542738124415277,-0.5872820020496845,1.9859394236952066
1684200706139933000,0.784932861328125,-1.7478069594025611,0.7401952664792537,1.6898825937002897
1684200706149959000,0.794958984375,1.9677543631851673,0.8211193994969129,-1.825656507280469
1684200706159985000,0.80498486328125,8.306295706421137,-0.27759470610916614,-5.0875224604874845
1684200706170011100,0.81501123046875,10.384050074982643,-1.2282120076566934,-4.584704456019401
1684200706180037000,0.825037109375,5.36355181697607,-1.374096980884671,-1.8242945712774992
1684200706190063000,0.83506298828125,3.409504492104053,-2.677618788808584,-1.541598742637038
1684200706200089000,0.845089111328125,3.3592326869815587,-3.278499108099937,-2.363327798464894
1684200706210115000,0.855114990234375,3.250690186937153,-3.300278978231549,-3.3168396524101493
1684200706220141000,0.86514111328125,2.0068508404292165,-3.419631918364763,-2.588725284346938
1684200706230167000,0.8751669921875,1.743169070468843,-3.9281864206582306,-2.5756881081193685
1684200706240192000,0.88519189453125,1.7497076784573495,-4.687732868817449,-2.9130267965734005
1684200706250218000,0.895218017578125,1.2393449576981366,-5.166730437237024,-2.7946283806860444
1684200706260244000,0.905243896484375,1.0226781830213962,-4.625710420146584,-3.245537918740511
1684200706270270000,0.91527001953125,0.24370719568505883,-3.106926151385903,-3.8745115290939807
1684200706280296000,0.9252958984375,-0.6317290465414523,-2.493777886673808,-4.550909153923392
1684200706290322000,0.935322021484375,-0.21775654267482458,-0.9388619818240403,-5.542745770087838
1684200706300348200,0.94534814453125,0.7872364921826869,-0.6329109498023986,-4.3333109436154365
1684200706310374100,0.9553740234375,1.0107634349524974,-1.0415437731415034,-3.8646401234209535
1684200706320400000,0.96539990234375,1.1157060108087957,-0.9188339237958192,-2.9984231065690516
1684200706330425900,0.97542578125,-0.10185761545300483,-0.9542939442336559,-1.3021271386951208
1684200706340451800,0.985451904296875,2.47333364906013,-4.523981691770255,2.6130256128668785
1684200706350477800,0.995477783203125,1.748154165405035,-6.905742680287361,5.32110500639081
1684200706360503800,1.00550390625,-3.7063363981246944,1.8286840384081005,2.4753116711348295
1684200706370529800,1.01552978515625,-2.817719917938113,3.4312881616279483,0.35294951456189155
1684200706380555800,1.0255556640625,-5.553797909978032,6.561206773805618,-2.3525497993409634
1684200706390581800,1.035581787109375,-5.0988750446289774,6.902847543367743,-1.7237340098977088
1684200706400607700,1.045607666015625,-2.749188818025589,5.816667340642214,-1.7651976546645163
1684200706410633000,1.055633056640625,-0.19647943443357943,5.817682070642709,-2.2881933547645805
1684200706420659000,1.065658935546875,2.189422014889121,4.953254859817028,-2.19190447935462
1684200706430685000,1.075684814453125,2.776840795060992,4.093810698100924,-1.8271283333986996
1684200706440711000,1.0857109375,2.803537078806758,4.753945754915476,-0.30835633959770203
1684200706450737000,1.09573681640625,2.9672236661851406,3.2940117345303297,0.7873094843536614
1684200706460763000,1.105762939453125,3.7079391571462152,1.9168290625900029,1.227981706032157
1684200706470788900,1.115788818359375,3.731328216040134,1.5335118822932243,2.721837869763374
1684200706480814800,1.12581494140625,-0.5099216989934444,-2.071049317964911,5.152099854338169
1684200706490840800,1.1358408203125,-3.1675884176194664,-8.418874622374773,8.095359292089938
1684200706500866800,1.14586669921875,-1.5908382821023463,-0.810986712539196,14.995910248953104
1684200706510892800,1.155892822265625,-5.822509636929631,4.391114897808432,14.096968189585208
1684200706520918800,1.165918701171875,-5.789263785409927,5.962736438265442,12.656634941726923
1684200706530944800,1.17594482421875,-3.794869252580404,4.52562273697555,9.689030167269706
1684200706540971000,1.185970947265625,-6.093785661411285,4.973236156094074,0.16006722783744334
1684200706550997000,1.1959970703125,-4.297475075602531,6.107477502155303,-4.279221626031399
1684200706561023000,1.20602294921875,-2.0021645823091268,6.950065806138515,-4.95444377734065
1684200706571048000,1.2160478515625,0.9568764350075274,5.146642757976055,-5.2358688553929325
1684200706581074000,1.226073974609375,3.790906194168329,2.93056742170006,-10.318390731114148
1684200706591100000,1.236099853515625,4.31950278301537,2.528213240239024,-18.48463499276638
1684200706601126000,1.2461259765625,4.442078776848316,0.3532990586519241,-16.824439681321383
1684200706611152000,1.25615185546875,4.348897804325818,-0.9930494990855455,-12.050068393492698
1684200706621177900,1.266177734375,2.5048212587356566,-1.694527789157629,-8.281999469554425
1684200706631203800,1.276203857421875,0.4009236372012645,-1.5640169106721877,-8.848368447434902
1684200706641229800,1.286229736328125,-0.7762087560813874,-0.4432958481803536,-9.314582522127031
1684200706651255800,1.296255859375,0.18775186503343283,0.27263299204856156,-8.449025430488586
1684200706661281800,1.30628173828125,1.2957106957815587,1.1226172515019774,-8.099556159257888
1684200706671308000,1.31630810546875,0.8942297900237143,2.186900387457013,-6.621296208587289
1684200706681334000,1.326333984375,0.4749567685961723,1.5242881268739699,-6.987110465419292
1684200706691360000,1.336360107421875,1.176279575845599,0.8281810084462166,-7.866805388003587
1684200706701386000,1.346385986328125,1.2934266764976083,1.4516764796495436,-6.329505219343305
1684200706711412000,1.356411865234375,0.9567815232656895,1.4074848712235688,-3.487708260247111
1684200706721438000,1.36643798828125,-1.1165315018475055,0.920859876665473,0.3152700645089149
1684200706731464000,1.3764638671875,-4.128558770877123,0.02900572973191738,3.637421851852536
1684200706741489000,1.386489013671875,-4.777953822490573,-0.5200397729039192,5.14471208217442
1684200706751515000,1.396514892578125,-5.610042359769344,0.9982149190247058,9.257499867945908
1684200706761540900,1.406540771484375,-6.6520461516380305,0.5672106894016266,19.373968681311606
1684200706771566800,1.41656689453125,-4.848862757450342,3.349650035122037,21.7173239513278
1684200706781592800,1.4265927734375,-2.5995295869559047,3.896113704571128,18.308471785652635
1684200706791618800,1.436618896484375,-0.7466203310906887,2.673479204785824,14.243220242559909
1684200706801645000,1.44664501953125,0.3464391097545624,1.3505407487303018,9.293139336603879
1684200706811671000,1.456671142578125,0.8692523659598081,-0.2794026323139667,5.1007507753729815
1684200706821697000,1.466697021484375,1.5446289041131733,-1.266117083159089,1.8300418827578424
1684200706831723000,1.476722900390625,2.0270541088938714,-1.7524644298195837,-0.6139467216134071
1684200706841749000,1.4867490234375,1.994167884466797,-2.050335615760088,-1.9989368524342774
1684200706851775000,1.49677490234375,1.4370092180021106,-2.287801140576601,-2.479140874034166
1684200706861801000,1.506801025390625,0.1669312683880329,-2.5404747559189795,-2.9926158815950155
1684200706871827000,1.516826904296875,-1.3139146071225405,-2.996103723710775,-2.759690338295698
1684200706881853000,1.52685302734375,-1.5250310541957617,-3.5257980446666477,-2.141159211501479
1684200706891879000,1.53687890625,-0.07466331905722617,-2.946213611382246,-1.653659772196412
1684200706901904000,1.54690380859375,0.4943519355483353,-3.4611236201822755,-1.21661801597476
1684200706911929900,1.556929931640625,-0.4980196642756462,-2.9751795936256644,-1.2875363032847642
1684200706921955800,1.566955810546875,-0.9421559088028967,-2.0688176133900877,-1.4949229161798954
1684200706931982000,1.576982177734375,-0.35285248392820356,-2.382074584510922,-1.8813965146809815
1684200706942008000,1.587008056640625,-0.1786447947964072,-2.6464351305156946,-1.3154033843755721
1684200706952034000,1.597033935546875,-0.2014963858127594,-1.5274755247384308,-1.2487523991212248
1684200706962060000,1.60706005859375,-0.08330781328380107,-0.6012094051152468,-1.835440234670043
1684200706972086000,1.6170859375,-0.2790624405741691,0.9561994855940341,-1.151392971870303
1684200706982112000,1.627112060546875,-0.8416296880841254,1.282698800125718,-0.9175620041638612
1684200706992138000,1.637137939453125,-0.5079002761684358,0.5172340678334236,-0.46601562951058145
1684200707002164000,1.6471640625,-0.19160685996115207,-0.7842869216620921,0.1487362710058689
1684200707012190000,1.65718994140625,0.15582242987453937,-2.4661335084229705,1.0298889911830424
1684200707022216000,1.6672158203125,0.6407697004787624,-4.976303726971149,1.9878961107209323
1684200707032242000,1.677241943359375,0.28207082860991356,-6.704154524537921,1.7878291731894016
1684200707042268200,1.68726806640625,-0.45735053088739513,-6.245281460258364,0.6863689837455749
1684200707052294000,1.6972939453125,-1.0437661253660917,-3.184799664661288,-0.2142117827400565
1684200707062319900,1.70731982421875,-1.2107563573997466,1.267213646224141,-0.9152316615201532
1684200707072345000,1.717344970703125,-1.4397557402312755,3.372730466458201,-1.7587139917336403
1684200707082371000,1.72737109375,-0.7714793894719332,4.7286418023109436,-1.7217888671793042
1684200707092397000,1.73739697265625,-0.29429033177904784,3.7033448150932786,-0.8766558471493422
1684200707102423000,1.747423095703125,-0.3139268332064152,1.107278520333767,-0.4960035021476447
1684200707112449000,1.757448974609375,-0.9915279886066913,-1.207363865417242,-1.0083153111480176
1684200707122475000,1.76747509765625,-1.794437777674198,-1.8149375448673963,-1.8439045500241218
1684200707132501000,1.7775009765625,-1.8913024071455,-1.7095155149310826,-1.8618275985971091
1684200707142527000,1.78752685546875,-1.6121031884491444,-1.9366823485732076,-2.167700012424588
1684200707152553000,1.797552978515625,-1.9569027143031357,-0.30767478707432744,-1.7203958053857087
1684200707162579000,1.807578857421875,-1.4208856200665234,1.2708844436913729,-1.4045885652601717
1684200707172605000,1.81760498046875,-0.8930313740193844,3.52771469194293,-1.6169684563979505
1684200707182631000,1.827630859375,-0.4856710548341274,8.433775838908552,-1.454783213493228
1684200707192657000,1.837656982421875,0.03044496875479817,14.152071068125963,-0.44426556999534367
1684200707202683000,1.847682861328125,1.1966069090813398,15.658749888551235,0.9805234872505069
1684200707212708900,1.857708984375,3.9231034183055162,9.601794366887212,3.1540184496894477
1684200707222734800,1.86773486328125,4.778746434172987,3.5498166336357593,4.243224137715995
1684200707232760000,1.877760009765625,3.8555017081975933,-0.46989948520660396,3.662987670263648
1684200707242786000,1.8877861328125,2.8127397914379832,-2.621651986914873,2.4167507610946894
1684200707252812000,1.89781201171875,2.045130594462901,-3.5134243007838726,1.4204250168174504
1684200707262837800,1.907837646484375,1.3988245949059723,-3.2868075022399426,1.0106219806551933
1684200707272863700,1.91786376953125,0.9298639249194413,-2.3038065189599988,1.1812976962685584
1684200707282889700,1.9278896484375,0.6883399915575981,-1.1687597017347813,1.351092245133221
1684200707292915700,1.937915771484375,0.6177344965238124,-0.38421149878799915,1.55013685387969
1684200707302942000,1.94794189453125,0.5978753653217107,-0.20566402688622473,1.817144115000963
1684200707312968000,1.957968017578125,0.5583342130500822,-0.397168010994792,1.938826667125523
1684200707322994000,1.967993896484375,0.2453448798894882,-0.917428148651123,1.9729837882712482
1684200707333020000,1.97802001953125,0.026681086176633832,-0.9168845432937145,1.6609969832167029
1684200707343046000,1.9880458984375,0.04590257706232369,-0.7326081723511219,1.260324471232295
1684200707353071900,1.99807177734375,0.001205284136533737,-0.5920142912685871,1.1692992154389619
1684200707363097900,2.008097900390625,-0.13304594992101193,-0.512367338579893,1.2178788296908138
1684200707373123800,2.018123779296875,-0.34715339550375934,-0.4965402393728494,1.0743921497762203
1684200707383149800,2.02814990234375,-0.4237618572793901,-0.4339519735127687,0.8038762960121035
1684200707393174800,2.0381748046875,-0.40165187841057776,-0.41735155184566974,0.6640685968711972
1684200707403200800,2.04820068359375,-0.3849341139741242,-0.30854923182129856,0.6315069282233715
1684200707413226800,2.058226806640625,-0.3295575330585241,-0.18989830247759817,0.6965525241076946
1684200707423252700,2.068252685546875,-0.25209479254111644,0.003715221130847931,0.8294888761743903
1684200707433279000,2.078279052734375,-0.09221884949207305,0.16473288156092167,0.9928659592121839
1684200707443305000,2.088304931640625,0.03949263695478439,0.21038754827678202,1.2305138548582792
1684200707453331000,2.0983310546875,0.180355398106575,0.14938041412830352,1.446942436864972
1684200707463357000,2.10835693359375,0.35223961272686716,-0.1455862825423479,1.6170093729302286
1684200707473383200,2.118383056640625,0.3824228618055582,-0.5106687179684639,1.8577736470311879
1684200707483409200,2.1284091796875,0.32157427921965714,-0.6813122848778963,2.0865423629119992
1684200707493435100,2.13843505859375,0.035062545552849766,-0.5284188941925764,2.7155428612723944
1684200707503461000,2.148461181640625,-0.12456556021496652,0.03555179037451744,2.847338518871367
1684200707513487000,2.158487060546875,0.08076412015035749,0.324427184432745,2.313657466366887
1684200707523513000,2.16851318359375,0.24661095430254934,0.6211223123311996,2.022775993183255
1684200707533539000,2.1785390625,0.24472470216453074,1.019503790768981,1.901267336320877
1684200707543565000,2.18856494140625,0.16454758812189102,1.4957932692736386,1.9042644723102449
1684200707553590000,2.198590087890625,0.2772732190698385,1.8755986420571802,1.9196295069634912
1684200707563616000,2.208615966796875,6.796538209202885,2.0734996337264775,4.547908803063631
1684200707573642000,2.21864208984375,11.549250038409232,1.9033137474566697,7.0044462156236165
1684200707583668000,2.22866796875,3.4257144531488417,1.639838167592883,3.158533004504442
1684200707593694200,2.238694091796875,1.0495043767571448,1.4772574956297873,3.0108085408896206
1684200707603720200,2.24872021484375,2.4848820480346676,1.408120246517658,4.3880788911134
1684200707613746200,2.25874609375,2.990157967048883,1.1799959660202264,4.352833682470023
1684200707623772200,2.268772216796875,1.538724648505449,1.2719400902241467,3.2248131106197833
1684200707633798100,2.278798095703125,0.06657817574646324,1.4865005402714013,0.9725915252074598
1684200707643824000,2.28882421875,-2.7640567168116568,1.7784037577182052,-0.8104998058050871
1684200707653850000,2.29885009765625,-3.9202936215817927,2.52768015627563,-1.696014228323102
1684200707663876000,2.3088759765625,-3.565674712502956,3.5126018784850834,-1.9619553215175867
1684200707673902000,2.318902099609375,-3.784783911895752,3.960166782286763,-1.9789619858980179
1684200707683928000,2.328927978515625,-5.527650492286682,4.249163172376155,-1.4976099633067845
1684200707693954000,2.3389541015625,-5.595175630027056,4.33684613200426,-0.4262234250873327
1684200707703980300,2.348980224609375,-4.034802628815174,3.1970243554621933,1.2841904999881981
1684200707714006300,2.35900634765625,-3.0205940218448637,1.585167250728607,2.667326527374983
1684200707724032300,2.3690322265625,-3.693859193867445,0.44983109516799447,3.381372622597217
1684200707734057200,2.37905712890625,-4.176073678506911,-0.2910124060869217,2.685881005719304
1684200707744083200,2.389083251953125,-3.948918827563524,-0.5225298361539841,1.3448527662217615
1684200707754109200,2.399109130859375,-3.4066172462299464,-0.5094184256464243,0.2056260329633951
1684200707764135200,2.40913525390625,-2.6722297892466185,-0.34467969886660577,-0.9772697461515665
1684200707774161200,2.4191611328125,-2.059764830623567,0.14408055415451526,-2.156752501952648
1684200707784187100,2.429187255859375,-1.721225241947174,0.49647652648687357,-2.935476528790593
1684200707794213000,2.439213134765625,-1.5324758172437547,0.6907587431371212,-3.4503596495836972
1684200707804239000,2.449239013671875,-1.3818217299178241,0.8650321909815073,-3.7430811976760623
1684200707814265000,2.45926513671875,-1.2889195743367075,0.8858283107727766,-3.7982945508539676
1684200707824291000,2.469291015625,-1.2908157633468509,0.9349240578532219,-3.6314515452712772
1684200707834317300,2.4793173828125,-1.1885901913642882,0.8005962514281273,-3.5797862399637697
1684200707844343300,2.48934326171875,-1.0703332297742365,0.5076864872872829,-3.5993507721334694
1684200707854369300,2.499369384765625,-1.1817960011795163,0.17589023539125917,-3.462579079687595
1684200707864395300,2.509395263671875,-1.3702405977174639,-0.2005892078399658,-3.268213860929012
1684200707874421000,2.5194208984375,-1.516900939232111,-0.41414311119318004,-3.1929087368369102
1684200707884446200,2.5294462890625,-1.6300547324642538,-0.4646820428192615,-3.053057783076167
1684200707894472200,2.53947216796875,-1.7310493013471364,-0.3832499602794647,-2.8015011890649792
1684200707904498200,2.549498291015625,-1.6811755556315182,-0.24772329945862293,-2.634734755849838
1684200707914524200,2.559524169921875,-1.628657140626013,-0.08145254080593585,-2.505845925608277
1684200707924550100,2.569550048828125,-1.634079165674746,0.037053427109122274,-2.2245985422104595
1684200707934576000,2.579576171875,-1.465230957749486,0.03394786230921745,-2.0001976661503313
1684200707944602000,2.58960205078125,-1.5097659727856516,-0.16935703423023224,-1.8017051383286713
1684200707954628000,2.599628173828125,-1.2768635181009769,-0.7805249387800693,-1.705620845580101
1684200707964654000,2.609654052734375,-1.3638774924263357,-1.0948539230465888,-1.3079945694237947
1684200707974680000,2.61968017578125,-1.4159157226994632,-1.1677724442631006,-0.9774334122806787
1684200707984706000,2.6297060546875,-1.4240513906210661,-1.1366250263273716,-0.8621545897185802
1684200707994732000,2.63973193359375,-1.429623930056393,-1.05704821626544,-0.9141729462474584
1684200708004758000,2.649758056640625,-1.4581912683710454,-0.9781617265552282,-0.9566443067520857
1684200708014784000,2.659783935546875,-1.3883987702205776,-0.9091051414638757,-0.9430693703860044
1684200708024810000,2.66981005859375,-1.2423518844291568,-0.8188608069151639,-0.9537380639165639
1684200708034836000,2.6798359375,-0.9599602994322777,-0.7205424715042114,-1.0310451754808425
1684200708044862000,2.689862060546875,-0.6145148768901825,-0.616253829512,-1.0448743788689374
1684200708054888000,2.699887939453125,-0.35063831501007076,-0.5471002137869596,-1.0329016170024872
1684200708064913200,2.7099130859375,-0.1036322239100933,-0.45455520108044145,-0.9148135822385549
1684200708074939100,2.719939208984375,0.18439824375659225,-0.5787719478577376,-0.7514601723372936
1684200708084964900,2.72996484375,0.576179447146505,-0.819839881080389,-0.4778635959535837
1684200708094991000,2.7399912109375,0.9787842423677444,-0.9514467381089925,0.020724808120727536
1684200708105017000,2.75001708984375,1.2372586529433727,-0.9153963505625724,0.5455605831295252
1684200708115043000,2.76004296875,1.2637819182097911,-0.7412953366756438,0.8388631459802388
1684200708125069000,2.770069091796875,1.1095113939523695,-0.563222496548295,0.7594798126637935
1684200708135095000,2.780094970703125,0.9393125020705163,-0.3758370536744594,0.40608839955329895
1684200708145121000,2.79012109375,0.6073169282101094,-0.18815759629011153,-0.03364741805791854
1684200708155147000,2.80014697265625,0.1624080918751657,-0.14497545716762542,-0.42273149131834503
1684200708165173000,2.810173095703125,-0.10111176552176475,-0.1412029528915882,-0.6012538287788629
1684200708175199000,2.820198974609375,-0.2977894990064204,-0.13138415418863295,-0.5894131688594818
1684200708185225000,2.830224853515625,-0.36096572082228956,-0.08900631718635559,-0.19955109696388243
1684200708195251000,2.8402509765625,-0.6075790862776339,-0.10832125850915908,0.5484779318809508
1684200708205277200,2.850277099609375,-1.0322703333616257,-0.38122576097548005,1.192893441516161
1684200708215303200,2.86030322265625,-1.4034966783702372,-0.821514536294341,1.3702911588609217
1684200708225328000,2.870328125,-1.608888318055868,-0.9082423871546983,1.258131345102191
1684200708235354000,2.88035400390625,-1.4619453602075576,-1.0518319429218768,0.9600298575371503
1684200708245380000,2.890380126953125,-1.145870993578434,-0.9328390682727098,0.5196206707090139
1684200708255406000,2.900406005859375,-0.5168073668539523,-0.37841011903285976,-0.03013210341334343
1684200708265432000,2.91043212890625,0.48082361480295654,0.3822235398411751,-0.5588344907224178
1684200708275458000,2.9204580078125,1.540101197555661,1.0425801304519176,-0.8761457056701183
1684200708285484000,2.930484130859375,2.7163585615694523,1.404855107241869,-0.907234086894989
1684200708295510000,2.940510009765625,3.7524060753822326,1.6022499029546975,-0.49296559575647114
1684200708305536000,2.950535888671875,4.207753303623199,1.7181272759318351,0.2908706595286727
1684200708315562000,2.96056201171875,3.74951970629096,1.78854053632915,1.0054998153358696
1684200708325588000,2.970587890625,2.666401229223609,1.8678730162411927,1.4991542701393366
1684200708335614200,2.9806142578125,1.6831465634435414,1.9514865344733,1.8744886349886656
1684200708345640200,2.99064013671875,0.9913035322010516,1.9785674336224792,2.0803739034101367
1684200708355666200,3.000666259765625,0.4506359818100929,1.8031746263593433,2.1415520102113486
1684200708365692200,3.010692138671875,0.047155718928575514,1.3952151722371577,2.052927970340848
1684200708375718100,3.02071826171875,-0.27658523680567737,0.8850152408242226,1.8779542652726173
1684200708385743000,3.0307431640625,-0.6125462071657181,0.6086947924345731,1.8624758333727716
1684200708395769000,3.04076904296875,-0.8553869952797889,0.719858580893278,1.742728633224964
1684200708405795000,3.050795166015625,-0.9602151509761809,1.0424947902560233,1.8714023594111202
1684200708415821000,3.060821044921875,-0.7465946851927787,1.1462018329679966,2.104336086016893
1684200708425847000,3.070846923828125,-0.268385563737154,0.8184843748182058,2.4250582784518597
1684200708435873000,3.080873046875,0.03649637774825096,0.1622773051023483,2.5303566820085046
1684200708445899000,3.09089892578125,0.26711598219275473,-0.7341711838841438,2.333217322361469
1684200708455925000,3.100925048828125,0.3183773828744888,-1.5868945129126308,1.8506556317195295
1684200708465951200,3.110951171875,0.10435936914086341,-2.277829197138548,0.9987903808251023
1684200708475976700,3.120976806640625,-0.2599373958002776,-2.52594587982893,0.09873451499640941
1684200708486002700,3.131002685546875,-0.5323766188424081,-2.297586037009954,-0.5693503317788243
1684200708496028700,3.141028564453125,-0.6155131672125309,-1.8408347871899604,-0.902019567117095
1684200708506054700,3.1510546875,-0.5753799673318862,-1.1686129867404698,-0.8622489900037645
1684200708516080600,3.16108056640625,-0.368278528053686,-0.25265374159812926,-0.7128440259560942
1684200708526107000,3.17110693359375,-0.10421203309204428,0.7171966682076454,-0.6053229779139161
1684200708536132900,3.1811328125,0.2388497457165271,1.4433400284588336,-0.5126873643144965
1684200708546158800,3.191158935546875,0.5805506479680538,1.8104145144850015,-0.5309089574426412
1684200708556183800,3.201183837890625,0.7888461924016476,1.7384002486318348,-0.7035398987770081
1684200708566209800,3.211209716796875,0.7110685407161712,1.145949319511652,-0.9193328132286668
1684200708576235800,3.22123583984375,0.30827158392369747,0.3138713036268949,-1.0607739587903022
1684200708586261800,3.23126171875,-0.07081018729303032,-0.33689445181787014,-1.060397526693344
1684200708596287700,3.241287841796875,-0.39009241005275397,-0.6640659665226936,-0.8489274438768625
1684200708606313700,3.251313720703125,-0.7872294048547744,-0.5908604450583458,-0.444539126239717
1684200708616339700,3.261339599609375,-1.1562462571203709,-0.3079220398336649,-0.09263444455564021
1684200708626365700,3.27136572265625,-1.4414233811825512,0.07251929276585578,0.1844268853291869
1684200708636391700,3.2813916015625,-1.86619953007102,0.40761750881671904,0.37937487241178747
1684200708646417700,3.291417724609375,-2.537122522881627,0.5304734886348247,0.630420594291389
1684200708656444000,3.30144384765625,-2.7348469889402387,0.4106821570843458,0.49406858856230973
1684200708666470000,3.311469970703125,-2.6981425213992596,0.20086276408433912,0.23063100262135267
1684200708676496000,3.321495849609375,-2.493459322243929,0.014189268872141838,0.10032762940675019
1684200708686521900,3.33152197265625,-1.577148194923997,-0.1746867048203945,-0.6326505453005433
1684200708696547800,3.3415478515625,-0.5802671183189377,-0.2874140893340111,-1.1709718248263001
1684200708706573800,3.35157373046875,0.003335318435169756,-0.30234687004983424,-1.2078668465033173
1684200708716599800,3.361599853515625,0.2377204128930345,-0.10638882914185524,-0.9137737177968025
1684200708726624800,3.371624755859375,0.39240591115951534,0.18197803087234496,-0.5795139983966946
1684200708736650800,3.381650634765625,0.5014799607973546,0.4155056317180395,-0.25295886202454565
1684200708746676700,3.3916767578125,0.4287595925014466,0.49945466551482676,-0.06523936489075421
1684200708756702700,3.40170263671875,0.058098991616815324,0.19061492631435392,0.2055038678884506
1684200708766728700,3.411728759765625,-0.5266705526879057,-0.46304187439680095,0.48071284790486096
1684200708776754700,3.421754638671875,-1.2136492292970418,-0.9054045333802699,0.6372936949312686
1684200708786781000,3.431781005859375,-1.6311568484872578,-0.7813970454394817,0.4744543720319867
1684200708796807000,3.441806884765625,-1.4027917449712752,-0.3931815717071295,0.23876959315240381
1684200708806833000,3.4518330078125,-0.5111753523163497,-0.09491875610053539,0.09035510144680738
1684200708816859000,3.46185888671875,0.3355529740810394,0.031927170136570926,-0.15595716217011213
1684200708826884900,3.471884765625,0.9793412917286157,0.13885259037315845,-0.4322340636789799
1684200708836910800,3.481910888671875,1.3224953884631394,0.2502279757559299,-0.5473854604691266
1684200708846936600,3.4919365234375,1.6011474946707487,0.3832277484476566,-0.7136305001586675
1684200708856962600,3.501962646484375,1.512294322219491,0.45855333080589766,-0.7488786314114928
1684200708866988500,3.511988525390625,0.9052052114158868,0.3995984530121088,-0.6615379093497992
1684200708877014500,3.5220146484375,0.3165823161512613,0.2706722133696079,-0.546101850399375
1684200708887039700,3.532039794921875,-0.0035982436876744028,0.07915186264812946,-0.4098281706035137
1684200708897065700,3.542065673828125,-0.23412907387018203,-0.07899521078169346,-0.2306967613339424
1684200708907091700,3.552091796875,-0.40099027269668874,-0.12105156074464321,0.029343875645101068
1684200708917118000,3.562117919921875,-0.39034327954128384,-0.019496143108606336,0.2829141475662589
1684200708927144000,3.57214404296875,-0.18429288368597627,0.0430430229127407,0.4300833153858781
1684200708937169700,3.582169677734375,0.17830204577334224,0.08372925356626511,0.3205664173513651
1684200708947195600,3.592195556640625,0.5006710555672645,0.02044891378879547,0.15238427211940286
1684200708957221600,3.6022216796875,0.6059950319565832,-0.018231822261214257,-0.015483108074963092
1684200708967247600,3.61224755859375,0.5475901892609893,0.00023380875587463378,-0.11773235319405793
1684200708977273600,3.622273681640625,0.4222416619747877,-0.03631751405000686,-0.07384820328205824
1684200708987299600,3.632299560546875,0.37113523265905674,-0.1510585764735937,-0.0013563830450177192
1684200708997325600,3.64232568359375,0.38668870255649085,-0.33048926095068454,0.06678016459196806
1684200709007351600,3.6523515625,0.42008594524562354,-0.5204547834455967,0.1919303928270936
1684200709017377500,3.66237744140625,0.36796712401695547,-0.5788485202252864,0.4428250157982111
1684200709027403800,3.67240380859375,0.21924078988321125,-0.5396890607476235,0.7740425910234451
1684200709037429800,3.6824296875,0.0068548343308269975,-0.49021220539510246,1.1000544142991304
1684200709047455700,3.692455810546875,-0.12166764681637286,-0.47357320528328417,1.312414139431715
1684200709057480700,3.702480712890625,-0.15292963104248045,-0.47898821606934067,1.4395920741021633
1684200709067506700,3.712506591796875,-0.10504501331746578,-0.5237590856879949,1.4694409766599534
1684200709077532700,3.72253271484375,-0.035285979045182464,-0.5887801316529512,1.3812337008967994
1684200709087558700,3.73255859375,-0.018352818292379378,-0.5388794979304075,1.2252359144553542
1684200709097584600,3.742584716796875,0.018048939974978567,-0.41925475511848925,1.0720695520475507
1684200709107610600,3.752610595703125,0.0990605320803821,-0.3267553351193666,0.8717530236691236
1684200709117636600,3.76263671875,0.2186531261883676,-0.28802082305550575,0.6780100284621119
1684200709127662600,3.77266259765625,0.3956324719905853,-0.23705519044995307,0.4620335741370916
1684200709137688600,3.7826884765625,0.6330832376293838,-0.2077870103895664,0.2553945647388697
1684200709147714600,3.792714599609375,0.895069455718249,-0.14673369901180267,0.15307663829773663
1684200709157740800,3.80274072265625,1.0529415115989744,-0.1618558648198843,0.10209580812305212
1684200709167766800,3.812766845703125,1.1341631662584841,-0.18819675925672052,0.09019260436147451
1684200709177792800,3.822792724609375,1.1131880366384983,-0.24004092826247214,0.15659546007364988
1684200709187818800,3.83281884765625,1.0220308250285683,-0.30838147403895855,0.34977731426656244
1684200709197844700,3.8428447265625,0.885677357994765,-0.42901919328570365,0.5577794287115335
1684200709207870700,3.85287060546875,0.7492788827754556,-0.6742091748744249,0.7030266885578632
1684200709217896700,3.862896728515625,0.6090858375787734,-0.8267530214697122,0.7934159845352172
1684200709227921700,3.872921630859375,0.47169981262683863,-0.7747668136447667,0.8471694942936301
1684200709237947600,3.88294775390625,0.3512649224758148,-0.6496756221204996,0.8809063442006707
1684200709247973600,3.8929736328125,0.26450506904199717,-0.46790509651899337,0.915730989344418
1684200709257999600,3.90299951171875,0.23718422365710137,-0.3149240275502205,0.9472072008430957
1684200709268025600,3.913025634765625,0.22827611005827783,-0.23386077832281588,1.0027958170741795
1684200709278051600,3.923051513671875,0.20395064709708094,-0.27703005796372887,1.1064680807337164
1684200709288077800,3.933077880859375,0.22397315216735003,-0.44150516537129875,1.1941095393076537
1684200709298103800,3.943103759765625,0.24029358784928917,-0.568438769891858,1.3147589489921927
1684200709308129800,3.9531298828125,0.2427098552107811,-0.5414432109385728,1.401268480926752
1684200709318155800,3.96315576171875,0.2257664653249085,-0.45683016027510165,1.4237047691404818
1684200709328181800,3.973181640625,0.2379600303351879,-0.30076515381634233,1.4314952768862246
1684200709338207700,3.983207763671875,0.2777316303618252,-0.24140695591866967,1.4356483049124478
1684200709348233700,3.993233642578125,0.27722368083968757,-0.29091479093134404,1.3696855941832065
1684200709358259700,4.003259765625,0.23421982089355586,-0.23281682222783565,1.3094351236209272
1684200709368285700,4.01328564453125,0.16484686332941054,-0.052450902727246285,1.3380828336954116
1684200709378311700,4.023311767578125,0.06662862729206681,0.1494160699635744,1.4304735326230524
1684200709388337700,4.033337646484375,-0.10978943136557937,0.36670740627944465,1.5964575832888483
1684200709398362600,4.043362548828125,-0.3162297033213079,0.7928899148344993,1.820316607557237
1684200709408388600,4.053388671875,-0.5035498258739709,1.2709633541464804,1.8994287227168678
1684200709418414800,4.063414794921875,-0.5870015776731073,1.5721838505148886,1.6703449495375156
1684200709428440800,4.07344091796875,-0.4666742395497858,1.608817590907216,1.1404030835613608
1684200709438466800,4.083466796875,-0.188891098196432,1.2121411628216505,0.4442731687799096
1684200709448492800,4.093492919921875,0.16917831666246055,0.7183037526667118,-0.05440525166541338
1684200709458518800,4.103518798828125,0.5609912303648888,0.4023585653752088,-0.37993718246966596
1684200709468544800,4.113544677734375,1.4163479766368865,0.17909458439052103,-0.5876113801345229
1684200709478571000,4.123571044921875,4.777073532524705,0.056017070776224136,-0.5577943340197206
1684200709488597000,4.133596923828125,9.309543358916043,0.20689736807346343,0.30472996579408645
1684200709498623000,4.143623046875,9.847987388038634,0.18055881172418592,1.4948948591291904
1684200709508649000,4.15364892578125,6.90923110692501,0.36013328858613963,1.7347835194393992
1684200709518675000,4.163675048828125,2.8213094668626786,0.6591244184672832,0.8955626460626721
1684200709528701000,4.173700927734375,0.027158677093125878,0.833710001000762,0.174715638653934
1684200709538727000,4.183726806640625,-1.8146452839225529,0.9226058435499668,-0.32750410766005517
1684200709548753000,4.1937529296875,-3.2781928186297415,0.9710650462925433,-0.6386231899693607
1684200709558777900,4.20377783203125,-4.314651835852861,1.3414590321302413,-0.7641106873348354
1684200709568803800,4.213803955078125,-4.810183774966001,1.8354080859661102,-0.4569359587371349
1684200709578829800,4.223829833984375,-3.1592776853919027,2.610010064437985,0.17263152585625646
1684200709588855800,4.233855712890625,-1.0791045652508735,3.108296855217218,0.606360212007165
1684200709598882000,4.243882080078125,-1.464490368515253,3.092742727732658,0.9286141440540552
1684200709608908000,4.253907958984375,-2.481580668401718,2.4702462044388054,1.0468626300767063
1684200709618934000,4.26393408203125,-3.480731114710867,1.8654893359750508,1.0028165676012635
1684200709628960000,4.2739599609375,-4.113914159452915,1.529980201035738,1.1013818635106085
1684200709638986000,4.283986083984375,-3.6305391066014763,1.2465192332416772,1.2186755330264567
1684200709649012000,4.294011962890625,-2.3647595848336813,0.8035054168730974,1.3883432406410574
1684200709659038000,4.304037841796875,-1.524356077543646,0.43612464137673373,1.4551500009790062
1684200709669063700,4.314063720703125,-1.1833515600584448,0.23970132104456424,1.18532329852283
1684200709679089700,4.324089599609375,-0.9619617023825645,0.17784429206848143,0.6264566590964794
1684200709689115600,4.33411572265625,-1.3679451802566647,0.22067805614471434,-0.09394143550097941
1684200709699141600,4.3441416015625,-1.8213187703371048,0.45958325837552544,-0.6776765587240458
1684200709709167900,4.35416796875,-1.9445044205009936,0.6957242565900087,-1.272741469734907
1684200709719193900,4.36419384765625,-1.870503949266672,0.8517343179911374,-1.951607530504465
1684200709729219000,4.374218994140625,-1.921455845607817,0.8066881385624408,-2.4475994883447885
1684200709739245000,4.3842451171875,-1.6237889500677585,0.8904144695192575,-2.5514053152561185
1684200709749271000,4.39427099609375,-1.3284148416399955,1.0899982997089623,-2.2370389215886592
1684200709759296800,4.404296875,-1.3613970737874508,1.2031102996259928,-1.7954893325537442
1684200709769322800,4.41432275390625,-1.3879519032359122,1.2677514063626527,-1.4300930088728665
1684200709779348700,4.4243486328125,-1.7040800458788872,1.3686135810375213,-0.9614823944330215
1684200709789374700,4.434374755859375,-1.4594889069661496,1.3126280744433403,-1.0196762247264384
1684200709799400700,4.444400634765625,-1.5270459011495112,1.1657575973093508,-1.1229822854220866
1684200709809426700,4.4544267578125,-1.3852791768953203,0.9075579120218753,-1.3021148637354374
1684200709819452700,4.46445263671875,-1.1512395348742603,0.508697125634551,-1.6706752044051885
1684200709829478700,4.474478759765625,-0.9582277765512466,-0.02539806062877178,-2.213262324681878
1684200709839505000,4.4845048828125,-1.3210729544445872,-0.30212241364419457,-2.5171400575608014
1684200709849531000,4.49453076171875,-1.2999009870782494,-0.3089712566256523,-3.0193899067521093
1684200709859556900,4.504556884765625,-1.2912941945135592,-0.31138007133305073,-3.3105215553045273
1684200709869582800,4.514582763671875,-1.316071200634539,-0.4518085327208042,-3.472862573292851
1684200709879608800,4.52460888671875,-1.3063459254339336,-0.624303280454874,-3.402393783316016
1684200709889634800,4.534634765625,-1.297639471887052,-0.7564239322245121,-3.071978172123432
1684200709899659800,4.54465966796875,-1.307624567067623,-0.8124012555122375,-2.5890619689553973
1684200709909685800,4.554685791015625,-1.5649650051772594,-0.8043418676972389,-2.004428435587883
1684200709919711700,4.564711669921875,-1.6302283354654907,-0.8024924404382705,-1.6146102028340101
1684200709929737700,4.57473779296875,-1.4996926147997378,-0.8380226035028696,-1.4356255085587502
1684200709939763700,4.584763671875,-1.3839151950657367,-0.8777098862469196,-1.404713068422675
1684200709949789700,4.594789794921875,-1.197270341426134,-0.9781529587268829,-1.5486831479400396
1684200709959815700,4.604815673828125,-1.0729036647841335,-1.1139257032632828,-1.7722136709064245
1684200709969842000,4.614842041015625,-0.973182476837933,-1.225978549516201,-1.9865601859420536
1684200709979868000,4.624867919921875,-0.8904679532721638,-1.266950611373782,-1.9771511370837687
1684200709989894000,4.634893798828125,-0.8106707784578203,-1.1696651261419058,-1.7151298476815222
1684200709999919900,4.644919921875,-0.7513561274409294,-0.9992810869514942,-1.246487669059634
1684200710009945900,4.65494580078125,-0.7067769810020923,-0.8488882809102535,-0.7352122173696756
1684200710019971800,4.664971923828125,-0.678802640144527,-0.7624994527459145,-0.30986732868254185
1684200710029997800,4.674997802734375,-0.6477236112698912,-0.7488982128947973,-0.07853869918584823
1684200710040023800,4.68502392578125,-0.6800409497678279,-0.8308996197551488,0.0563408959031105
1684200710050049800,4.6950498046875,-0.7355503632828593,-0.927922654658556,0.19642975007295607
1684200710060075800,4.70507568359375,-0.6017594402134419,-0.9326146118670702,0.32931963264942166
1684200710070100700,4.715100830078125,-0.4497534998871386,-0.8672083659768104,0.4020020070225
1684200710080126700,4.725126708984375,-0.3349832113690674,-0.7646955014854669,0.40277649852633474
1684200710090152700,4.735152587890625,-0.21491569322571158,-0.686450816810131,0.3666752575755119
1684200710100179000,4.745178955078125,-0.05461056497916579,-0.606216419622302,0.33332477663755417
1684200710110205000,4.755204833984375,0.19210311904549598,-0.47384968413710593,0.3032663229823112
1684200710120231000,4.76523095703125,0.5739359060034156,-0.38924598582386966,0.26715456063747406
1684200710130257000,4.7752568359375,0.8975519932489842,-0.38010289442539213,0.2580126382827759
1684200710140283000,4.785282958984375,1.0554301866095512,-0.2536012515813112,0.21547990297973155
1684200710150308900,4.795308837890625,0.9888264014977961,-0.07592354825139046,0.2556178521007299
1684200710160334800,4.8053349609375,0.8341068182986229,-0.012040566405653952,0.3500882799118757
1684200710170360800,4.81536083984375,0.6714964818496256,0.029838088902831076,0.4608838195800781
1684200710180386800,4.82538671875,0.45260698962211604,0.16481120749413966,0.6046987085357308
1684200710190412800,4.835412841796875,0.35963637191466985,0.3249415636956692,0.7324781162306666
1684200710200438800,4.845438720703125,0.4443301231315359,0.5225678300768136,0.793793001154065
1684200710210465000,4.855465087890625,0.605375292623043,0.7931465199440717,0.9007619682714343
1684200710220491000,4.865490966796875,0.684856241095066,1.1217851845920086,1.0127499325945972
1684200710230517000,4.87551708984375,0.6754314101457596,1.3025719598531722,1.0796934710547328
1684200710240542000,4.8855419921875,0.5403063158631325,1.1878063475102185,1.101616256788373
1684200710250568000,4.89556787109375,0.3044143239736557,0.9223521610498427,1.0628200776651502
1684200710260594000,4.905593994140625,-0.05086566109610721,0.5952613103657961,1.0739113805219531
1684200710270620000,4.915619873046875,-0.26909751139879223,0.3184790896832943,1.1247764753624796
1684200710280646000,4.92564599609375,0.007500000366568565,0.22125030307471752,1.3659773873150347
1684200710290671900,4.935671875,0.7926110978931188,0.4077501952856779,1.7857605502218008
1684200710300697900,4.94569775390625,1.4059563464820384,0.8856909481287002,2.2050030303806065
1684200710310723800,4.955723876953125,1.7117986574321984,1.488017374575138,2.502780108296871
1684200710320749800,4.965749755859375,2.048691940206289,1.876831983244419,2.6103876655787226
1684200710330775800,4.97577587890625,2.605989138358831,2.020422708055377,2.469004387684166
1684200710340802000,4.985802001953125,3.243199246659875,1.924072457846999,1.9854116004288196
1684200710350828000,4.995828125,3.4478538042426106,1.5637223116397856,1.1033373814925551
1684200710360854000,5.00585400390625,2.917143584242463,0.9567886836588382,0.22223609924167392
1684200710370880000,5.0158798828125,1.803746288767457,0.2784504461556673,-0.41618630745857954
1684200710380906000,5.025906005859375,0.48994336185846477,-0.2910036382585764,-0.8280281559720635
1684200710390932000,5.035931884765625,-0.8051058378070592,-0.6875222454339266,-1.0280296270519493
1684200710400957700,5.045957763671875,-1.9951561648517846,-0.8812164330631495,-0.9708619249358773
1684200710410983000,5.05598291015625,-2.7609429687052964,-0.8832716120272874,-0.7115808741524815
1684200710421009000,5.0660087890625,-2.8554589892238376,-0.8592962776780128,-0.6657841686174273
1684200710431035000,5.076034912109375,-2.6395757661402226,-0.7717056725084781,-0.513975066037476
1684200710441060900,5.086060791015625,-2.3094272814512253,-0.6012842239171267,-0.18736878399997947
1684200710451086800,5.0960869140625,-1.9139801028996706,-0.5256938531428575,0.026608605462312696
1684200710461112800,5.10611279296875,-1.5180658913582563,-0.5328635986417531,0.20459902800321578
1684200710471139000,5.11613916015625,-1.1317869386464356,-0.510163106533885,0.44788200692683455
1684200710481165300,5.126165283203125,-0.5492664519101381,-0.446169065529108,0.8469356855377554
1684200710491191300,5.13619140625,0.3834031415471807,-0.3817337104976177,1.3562225937590002
1684200710501217300,5.14621728515625,1.2727888160079717,-0.4919412211447954,1.7536673758685588
1684200710511243300,5.1562431640625,1.788729336899519,-0.9094815735608339,1.552386094111204
1684200710521269200,5.166269287109375,1.7375287264943122,-1.1960837619900704,1.0193167437642812
1684200710531295200,5.176295166015625,1.242302492329478,-1.1034668530911207,0.6117123866900801
1684200710541321200,5.1863212890625,0.7311245827298611,-0.9219014946728944,0.24940379989147185
1684200710551347200,5.19634716796875,0.3423410998512059,-0.7201829905420541,-0.0002791092023253441
1684200710561373200,5.206373291015625,0.009396846963837743,-0.18200374983549117,-0.12492431052476168
1684200710571399200,5.216399169921875,-0.22202004533819852,0.5404916093021631,-0.14357289689332245
1684200710581424000,5.226424072265625,-0.32717670233659446,1.3719780890345572,-0.12899696679115294
1684200710591450000,5.2364501953125,-0.5204804658761247,2.0792361315518617,-0.18378975646942852
1684200710601476000,5.24647607421875,-0.5535960420796647,1.9733651888042687,-0.4779696866765618
1684200710611502300,5.25650244140625,-0.5539478511920198,1.228688392996788,-0.5814674705520272
1684200710621528300,5.2665283203125,-0.8708487683057784,0.40223581577837464,-0.38488399122208355
1684200710631554300,5.27655419921875,-1.5492168164253235,-0.2094423763811588,-0.08709113121479749
1684200710641580300,5.286580322265625,-2.1886025151997806,-0.4952297412961721,0.08715601314455271
1684200710651606300,5.296606201171875,-2.0500158822864294,-0.2576753691524267,-0.10639116722941398
1684200710661632300,5.30663232421875,-1.477511762651801,0.022625088784098624,-0.567346006219089
1684200710671658200,5.316658203125,-1.040261332115531,0.09959726930558681,-0.8350912262260913
1684200710681684200,5.326684326171875,-0.5799807391256093,0.07952069596052169,-0.9216142021641135
1684200710691710200,5.336710205078125,-0.1938999210680835,0.2451145782649517,-1.0359650962263345
1684200710701736200,5.346736083984375,0.042082653447985646,0.4727069438427686,-1.0926634272649884
1684200710711762200,5.35676220703125,0.33038466806504874,0.4464689252585172,-1.1340557603612542
1684200710721788400,5.366788330078125,0.48622291656322775,0.369642290687561,-1.0337193631261588
1684200710731814400,5.376814453125,0.7519184374988078,0.35542028858959673,-1.123684588472545
1684200710741840400,5.38684033203125,0.9827461317360401,0.11764087551832199,-1.13585374969393
1684200710751865300,5.396865234375,0.9583809212863444,-0.18574235184192656,-0.9336839946642518
1684200710761891300,5.406891357421875,0.6011504414696246,-0.4161766628473997,-0.6929249812602997
1684200710771917300,5.416917236328125,0.0050660512179136275,-0.5549257928460836,-0.5678194689497351
1684200710781943300,5.426943359375,-0.6778659438163042,-0.5225625693798065,-0.3121738520592451
1684200710791969300,5.43696923828125,-1.236910862419009,-0.36182021875977516,0.11000964998751878
1684200710801995300,5.446995361328125,-1.6189105303764342,-0.19173720834255217,0.5037988321989775
1684200710812021200,5.457021240234375,-1.846695203655958,-0.12375205187499523,0.7851835782408714
1684200710822047200,5.467047119140625,-1.8688433225780725,-0.1438216109573841,0.8320689557954668
1684200710832073200,5.4770732421875,-1.7001017898976802,-0.29632337197661396,0.7329764211416244
1684200710842099200,5.48709912109375,-1.4067501272082328,-0.5097194544196129,0.5702575097516179
1684200710852125400,5.49712548828125,-1.0686422079473734,-0.6041314300417899,0.28369886820316315
1684200710862151400,5.5071513671875,-0.6281335793327539,-0.5066664965897798,-0.09097411012798547
1684200710872177400,5.517177490234375,-0.07148578499965369,-0.3723457044273615,-0.3590013619467616
1684200710882203400,5.527203369140625,0.5093886880952865,-0.2089893719166517,-0.47408524645864963
1684200710892229400,5.5372294921875,0.9722843589544296,-0.017290742018818854,-0.43183278940171
1684200710902255400,5.54725537109375,1.2093980015933512,0.24834581527113914,-0.23216391127705574
1684200710912281300,5.55728125,1.3102490703523157,0.3942857335567474,-0.04606967725753784
1684200710922306300,5.567306396484375,1.1685920900829136,0.3710363753944635,0.16597820544689892
1684200710932332300,5.577332275390625,0.8756155443161725,0.20564707575142382,0.40369945859014983
1684200710942358300,5.587358154296875,0.6608826603114605,0.04296177437007427,0.5411494886890054
1684200710952384300,5.59738427734375,0.49077575756199654,0.025561142235994337,0.6461936252236365
1684200710962410200,5.60741015625,0.34147359630167484,0.03653670975863933,0.7657973252475261
1684200710972436200,5.617436279296875,0.2598106276154518,-0.040866847917437554,0.8911214487448335
1684200710982462500,5.62746240234375,0.22670739943683146,-0.2212508875966072,0.8907184209018946
1684200710992488400,5.637488525390625,0.3205821994423866,-0.5124614466041326,0.7279062782704829
1684200711002514400,5.647514404296875,0.47783144724965093,-0.8439595923364162,0.47097003704756496
1684200711012540400,5.65754052734375,0.6246914029896259,-1.0252940646082163,0.22865210376381873
1684200711022566400,5.66756640625,0.6898860519558191,-0.8958136982142925,0.03151362089961767
1684200711032592400,5.67759228515625,0.6781340932331978,-0.47049335944652554,-0.038893502017855644
1684200711042618400,5.687618408203125,0.5839418978415429,-0.04627776705026626,0.04222556905001402
1684200711052644400,5.697644287109375,0.38169980822801586,0.2303612457692623,0.14537936179339886
1684200711062670300,5.70767041015625,0.2181609587572515,0.16666706449389457,0.10198796383440493
1684200711072696300,5.7176962890625,0.13607611139714718,-0.06113280635476112,-0.10223170946240424
1684200711082722300,5.727722412109375,0.08565247671380638,-0.21156594440639018,-0.1951291888684034
1684200711092748300,5.737748291015625,0.05802855672910809,-0.1398521228045225,-0.1842202568411827
1684200711102773200,5.747773193359375,0.0487684148222208,0.03035422173142433,-0.14695494054704902
1684200711112799500,5.757799560546875,0.08519114281237125,0.16048165385723112,-0.11063011997342109
1684200711122825500,5.767825439453125,0.16303703742846845,0.17052373992204664,-0.10164718757271766
1684200711132851500,5.7778515625,0.26876126518175003,0.04148118042349815,-0.1307464408069849
1684200711142877400,5.78787744140625,0.3678922321498394,-0.137538585165143,-0.14740063848793505
1684200711152903400,5.7979033203125,0.44679625751674173,-0.3273135535240173,-0.15171251033768057
1684200711162929400,5.807929443359375,0.4963683899372816,-0.45098611042201514,-0.1390326231151819
1684200711172955400,5.817955322265625,0.5302011014342308,-0.5198229152828455,-0.11211714366078376
1684200711182981400,5.8279814453125,0.5512174398474395,-0.4718541264057159,-0.034337738409638406
1684200711193007000,5.838007080078125,0.5644261732496321,-0.33566052610874175,0.09207491097673773
1684200711203033000,5.848033203125,0.5938185642115772,-0.171414551281929,0.28448154301345346
1684200711213059000,5.85805908203125,0.6508734536029398,-0.05802548798918724,0.5624832224883138
1684200711223085300,5.868085205078125,0.6718425918735563,-0.03914192382097244,0.8356975215561687
1684200711233111300,5.878111328125,0.6429490903444588,0.052823243170976635,1.11217316050753
1684200711243137300,5.88813720703125,0.6059199208937585,0.12389935139119625,1.3389917652338743
1684200711253163300,5.898163330078125,0.5384032587207853,0.15338029741942882,1.5008077364347874
1684200711263188500,5.9081884765625,0.44783013060912485,0.15816928526163102,1.594605087289959
1684200711273214500,5.91821435546875,0.34590777935683725,0.13548925141990184,1.6100297431759536
1684200711283240200,5.928240234375,0.25220614396110175,0.29649054523706436,1.6579088079430162
1684200711293266200,5.93826611328125,0.13425664088502526,0.5049620307594538,1.7769385074712336
1684200711303292200,5.948292236328125,0.05806742743477225,0.6051397303014994,1.8503569410338996
1684200711313318100,5.958318115234375,-0.014610855285078286,0.651202393296361,1.886623309418559
1684200711323344100,5.96834423828125,-0.12923384428694842,0.629223201200366,1.9349822666570544
1684200711333370000,5.9783701171875,-0.2764385218113661,0.5897562832087277,2.034663414853811
1684200711343396000,5.98839599609375,-0.47338323566913604,0.6136340024024248,2.1173953279457987
1684200711353422300,5.99842236328125,-0.6866641672998667,0.7358762342363595,2.15171333874166
1684200711363448300,6.0084482421875,-0.8432495443709194,0.8066630041211843,1.9377559691540895
1684200711373474300,6.018474365234375,-0.808124747236818,0.7002005252212286,1.3095331771679222
1684200711383500300,6.028500244140625,-0.5102390943795442,0.41225744357705113,0.4512045754782855
1684200711393526300,6.0385263671875,-0.05510989280343055,0.10611468837559222,-0.237131762817502
1684200711403552300,6.04855224609375,0.5140513461440801,-0.18615560881793497,-0.596766454231739
1684200711413578200,6.058578125,1.304785105857998,-0.4100894518882036,-0.683811992739141
1684200711423604200,6.068604248046875,2.7548949207127094,-0.5195633875638246,-0.48928617659136653
1684200711433629200,6.078629150390625,5.062240135192871,-0.5657108062326908,0.1184288110256195
1684200711443655200,6.0886552734375,7.113747717341781,-0.6000871230870485,0.9580006897971034
1684200711453681200,6.09868115234375,7.766865588870644,-0.5159826064676046,1.5867068813860417
1684200711463707100,6.10870703125,6.767516112858057,-0.24810031607747077,1.6964716167017817
1684200711473733000,6.118733154296875,4.899150344663858,-0.07144903318583964,1.4261854800403118
1684200711483759000,6.128759033203125,2.9649229880273342,0.04487491451501846,1.1489411948040127
1684200711493785000,6.13878515625,1.235614977389574,0.2810088984668255,1.014594975939393
1684200711503811000,6.14881103515625,-0.45828386621475214,0.4724298804670572,0.9543386601582169
1684200711513837000,6.158837158203125,-2.4014555768072605,0.6089350309312344,0.6359291285797953
1684200711523863000,6.168863037109375,-3.409782724523544,1.1940741757333277,0.17596710001975296
1684200711533889300,6.17888916015625,-3.12763400837183,2.280676403263211,0.17050620426535606
1684200711543915300,6.188915283203125,-2.994662292730808,2.9543174228608606,0.4724757654353976
1684200711553941200,6.198941162109375,-4.0798318571090695,3.3258979881346225,0.5587754540115595
1684200711563967200,6.20896728515625,-5.1020928376317025,3.486729186081886,0.3476403022378683
1684200711573993200,6.2189931640625,-3.3828608153283595,3.85696242839992,0.08808452616631984
1684200711584019200,6.229019287109375,-1.624761594492197,3.8031665408045052,1.1427309419870375
1684200711594045200,6.239045166015625,-1.2462789947450161,3.0282465824246403,1.9653420413464306
1684200711604070100,6.249070068359375,-1.1968074000895024,2.2075457006007433,1.8625579586982726
1684200711614096100,6.25909619140625,-1.6608840243615208,1.8130419403791427,1.5516592411413788
1684200711624122000,6.2691220703125,-2.573543497306108,1.5271090295135974,1.4742854940816759
1684200711634148000,6.279148193359375,-2.4792799902439118,1.224309154999256,1.2891229879543185
1684200711644174000,6.289174072265625,-1.8545735358156263,1.0801543665647506,0.7417676303625106
1684200711654200000,6.299199951171875,-1.641847169327736,1.1115490372598171,0.11591565916091202
1684200711664226300,6.309226318359375,-1.7570234082981944,1.2249492064684628,-0.47576457784771914
1684200711674252300,6.319252197265625,-1.9617168365865945,1.23433545897305,-1.1289897091433405
1684200711684278300,6.3292783203125,-2.119493615399301,1.2730676329493522,-1.5378189318373798
1684200711694304300,6.33930419921875,-2.206368765775859,1.166203002989292,-1.7184516855806111
1684200711704330200,6.349330322265625,-2.3676912543714046,1.048148285973072,-1.7050430456921457
1684200711714356200,6.359356201171875,-2.2662758297279475,0.9630079965651035,-1.596204485310614
1684200711724382200,6.36938232421875,-2.2531202878177163,0.7263409286499023,-1.2232637375995516
1684200711734408200,6.379408203125,-1.961188136537373,0.3576180908948183,-1.1116381768479942
1684200711744434200,6.38943408203125,-1.8916732862845063,0.06174187816381454,-1.336675889506936
1684200711754460200,6.399460205078125,-1.980945853191614,-0.11132102484703063,-1.743584373271465
1684200711764486100,6.409486083984375,-2.016890442276001,-0.27396365613043305,-2.199278515253961
1684200711774511000,6.419510986328125,-2.07092130767107,-0.44072482864856716,-2.5040257244437933
1684200711784537000,6.429537109375,-2.0927751198217273,-0.5365718055099249,-2.501690559494495
1684200711794563300,6.439563232421875,-2.193006010855734,-0.6138087744474411,-2.2087162056848406
1684200711804589300,6.44958935546875,-2.0980080520391464,-0.7859300126940012,-2.0000608880281447
1684200711814615300,6.459615234375,-2.092762552601099,-0.9281260682761668,-2.048530027642846
1684200711824641300,6.469641357421875,-2.2487378349497913,-0.9125023826867341,-1.9459969971463082
1684200711834667300,6.479667236328125,-2.160318670001626,-0.8680851488113402,-1.7990034781545399
1684200711844693200,6.489693359375,-2.0486095226198433,-0.8492512690037488,-1.5250801540344954
1684200711854719200,6.49971923828125,-1.9694757801502942,-0.8763087872773409,-1.221394144335389
1684200711864745200,6.5097451171875,-1.7991706514149903,-0.9557201776444911,-0.9391355380684137
1684200711874771200,6.519771240234375,-1.711784628906846,-1.0121662874877453,-0.6751748050361871
1684200711884797200,6.529797119140625,-1.4767390247136354,-1.2015519642680883,-0.49471419298946856
1684200711894823200,6.5398232421875,-1.409704300838709,-1.4158593163371085,-0.2786544442951679
1684200711904849400,6.549849365234375,-1.2864356485664843,-1.5366554410159587,-0.26219547692537304
1684200711914875400,6.55987548828125,-0.9962702146977186,-1.5626824471980332,-0.4864502225130796
1684200711924901000,6.569901123046875,-0.6817229115054011,-1.4501771810024975,-0.7177928805351257
1684200711934927000,6.579927001953125,-0.42910307217687366,-1.1602145762294531,-0.9277455445259809
1684200711944953000,6.589953125,-0.2678808290854096,-0.770517924028635,-1.1534195092618464
1684200711954978300,6.599978271484375,-0.20234744968414306,-0.3473515484243631,-1.5194307499706745
1684200711965004300,6.61000439453125,-0.16674802077561615,0.0441758263349533,-1.9806150138020515
1684200711975030300,6.6200302734375,-0.128495154748857,0.3704261345416307,-2.4091367789596316
1684200711985056300,6.63005615234375,-0.1573003934726119,0.5309375990152359,-2.733860315990448
1684200711995082200,6.640082275390625,-0.16670593519955873,0.497857751712203,-2.9313351912021637
1684200712005108200,6.650108154296875,-0.14335750057697294,0.3328074747651815,-2.8901375038951636
1684200712015134200,6.66013427734375,-0.11956395253539084,0.11477788730263709,-2.574679807859659
1684200712025160200,6.67016015625,-0.17351795330196618,-0.2607563840329647,-1.9361685538321731
1684200712035186200,6.680186279296875,-0.442329048974812,-0.714466950982809,-1.1320412056684492
1684200712045212200,6.690212158203125,-0.8592217511370778,-1.1617097832232712,-0.4086772470027208
1684200712055238100,6.700238037109375,-1.3206895080849528,-1.465659412294626,0.16514613853693008
1684200712065264000,6.71026416015625,-1.6525611633047461,-1.5709405724555252,0.6101373924583197
1684200712075290000,6.7202900390625,-1.8746447023332118,-1.4151643198102712,0.8168909681469202
1684200712085316000,6.730316162109375,-2.028957019905746,-1.209862696495652,0.7581441801458597
1684200712095342000,6.740342041015625,-1.884042353014648,-0.9976491018354892,0.431075541293621
1684200712105368000,6.7503681640625,-1.5146636816993355,-0.6661106240928173,0.10622282492518424
1684200712115394000,6.76039404296875,-0.9607236850202083,-0.19048399341106415,-0.15414134491980075
1684200712125419300,6.770419189453125,-0.3067452511392534,0.33910569812655444,-0.20240765543878078
1684200712135445000,6.780445068359375,0.4797114157773554,0.6875707607507705,-0.009610124388337134
1684200712145471000,6.790470947265625,1.1114238034449517,0.8442951079010963,0.23430969113409517
1684200712155497000,6.8004970703125,1.485922301992029,0.7709943093687296,0.3417553358525038
1684200712165523200,6.810523193359375,1.684536118105799,0.6618769320458173,0.410439288239181
1684200712175549200,6.820549072265625,1.8088569097794591,0.587601735523343,0.36822891675829883
1684200712185575200,6.8305751953125,2.0359739129304883,0.7323147423624992,0.4186231792166829
1684200712195601200,6.84060107421875,2.3181471790015697,1.1703729821503162,0.5994350889191031
1684200712205627100,6.850627197265625,2.237425875079632,1.8826497296124696,0.8201853335171937
1684200712215653000,6.860653076171875,1.9697405685663223,2.4480828879475593,0.8513245681464672
1684200712225679000,6.87067919921875,1.6411375597536564,2.723407895559072,0.4483449482634663
1684200712235705000,6.880705078125,1.4631822085261343,2.8100796323180197,-0.3179740627706051
1684200712245731000,6.89073095703125,1.748771420520544,2.671701089197397,-0.9149842626303434
1684200712255757000,6.900757080078125,2.453057169228792,2.299586270916462,-0.8007830061718821
1684200712265783000,6.910782958984375,3.361703461009264,1.8307710738152265,0.15186492442041635
1684200712275809300,6.920809326171875,3.776659057629108,1.5056214203268288,1.722909249511361
1684200712285835300,6.930835205078125,2.885216414105892,1.1827321129858492,3.046442456589639
1684200712295861200,6.940861328125,0.8060159383893013,0.6428045673072338,3.4131460634768005
1684200712305886200,6.95088623046875,-1.0549603040754794,-0.2300917811781168,2.9519159146770835
1684200712315912200,6.960912109375,-2.005381206268072,-1.2828197961568832,2.0793968750715255
1684200712325938200,6.970938232421875,-2.405442016094923,-2.1255010391205547,1.3678297371834516
1684200712335964200,6.980964111328125,-2.344216855281591,-2.475622052258253,0.9301786168918013
1684200712345990100,6.990990234375,-2.1794109084844586,-2.483339494767785,0.6056620006099342
1684200712356016000,7.00101611328125,-2.0198913776576517,-2.2387147458463907,0.33511224457621575
1684200712366042000,7.0110419921875,-1.9388988555788993,-1.722210161331296,0.16194880380034446
1684200712376068000,7.021068115234375,-1.99113640781641,-1.17816173633039,0.08357552430927753
1684200712386094000,7.031093994140625,-2.0271219134330747,-0.7370236507058143,0.0740349580258131
1684200712396120000,7.0411201171875,-1.8042296883702278,-0.35546295868754385,0.09638561378270387
1684200712406146300,7.051146240234375,-1.3369324946165084,0.06781096894443035,0.23754735788106918
1684200712416172300,7.06117236328125,-0.779283414286375,0.4788187047213316,0.5041460382014513
1684200712426198300,7.0711982421875,-0.15682371587157248,0.7465688931643962,0.7732453031659126
1684200712436224300,7.081224365234375,0.43759412940740583,0.8870628210037946,0.9276914762511849
1684200712446250200,7.091250244140625,0.7997767517387866,0.7368225751757621,0.7375514739722013
1684200712456276200,7.101276123046875,0.8789929117947817,0.33319501277804375,0.38341976388841864
1684200712466302200,7.11130224609375,0.7661094599366187,-0.16777297990918158,-0.03554828324317932
1684200712476326700,7.12132666015625,0.4727735793381929,-0.5460749623924493,-0.4275701635211706
1684200712486352600,7.1313525390625,0.17068389891982078,-0.7213643092811107,-0.8013391787499189
1684200712496379000,7.14137890625,-0.07401099262833595,-0.7047533662199974,-1.0141443095624447
1684200712506404900,7.15140478515625,-0.2500070264816284,-0.6017231998562812,-1.1741118764176963
1684200712516430800,7.161430908203125,-0.33333295994400974,-0.43135260466933245,-1.1935418224222958
1684200712526456800,7.171456787109375,-0.3992670291006565,-0.1970908443301916,-1.102790853525698
1684200712536482800,7.18148291015625,-0.4496960706114769,-0.018693594554066658,-0.8716706060826778
1684200712546508800,7.1915087890625,-0.5076034851789474,0.028862521868944165,-0.5170847224906087
1684200712556534800,7.20153466796875,-0.6556710631430148,0.09966039766967295,-0.012404139021039009
1684200712566560800,7.211560791015625,-0.7067372335135936,0.09080489104092121,0.5153593600027263
1684200712576586800,7.221586669921875,-0.6919067441284656,-0.0008136544704437256,1.029540908397734
1684200712586612700,7.23161279296875,-0.6983844157099723,0.0011807342171669005,1.6383596194729209
1684200712596639000,7.241638916015625,-0.5901753854036331,0.021668226450681685,2.0210700660482046
1684200712606665000,7.2516650390625,-0.37668577945828435,0.07875438776314259,2.29840582896024
1684200712616691000,7.26169091796875,-0.10392156224548817,0.05393909545838833,2.3698674293667077
1684200712626717000,7.271717041015625,0.25155951662063597,0.013186229309439659,2.2218808076843617
1684200712636743000,7.281742919921875,0.5483645346343518,0.05100304200649261,2.123512787912786
1684200712646767900,7.291767822265625,0.7871931644976139,-0.0035977322310209274,1.9953509567715226
1684200712656793900,7.3017939453125,0.9004185616612433,0.0230400993257761,2.0087726022720336
1684200712666819800,7.31181982421875,1.0434814632058143,0.11851882739663124,2.0386329030066728
1684200712676845800,7.321845703125,1.1148515859365462,0.23193711678385734,2.131320392923802
1684200712686871800,7.331871826171875,1.1533230631500482,0.2110679317563772,2.2254151192903517
1684200712696897800,7.341897705078125,1.2102490654647349,0.1388151809722185,2.2673468199603257
1684200712706923800,7.351923828125,1.2532751372426747,0.08519406542181968,2.340881719509512
1684200712716949800,7.36194970703125,1.2018817076791077,-0.09410743971765041,2.4103517077073455
1684200712726976000,7.37197607421875,0.9587480010330677,-0.33122166687846183,2.5017367367237804
1684200712737002000,7.382001953125,0.5561480281174183,-0.5510907447278499,2.637547182922065
1684200712747028000,7.392028076171875,0.04019351523313671,-0.7239788756936788,2.698492065489292
1684200712757054000,7.402053955078125,-0.4564905530571937,-0.8095435279935598,2.645340613277256
1684200712767080000,7.412079833984375,-0.9472866958200931,-0.7568418653756379,2.510590489786863
1684200712777106000,7.42210595703125,-1.3839292235910892,-0.6924591173142194,2.347540739007294
1684200712787132000,7.4321318359375,-1.825570582562685,-0.6060860712409019,2.1532342646986247
1684200712797158000,7.442157958984375,-2.2154344080239534,-0.5157026204824448,1.971704854376614
1684200712807183600,7.45218359375,-2.477635730168223,-0.4068295733094215,1.7048589212968945
1684200712817208800,7.462208740234375,-2.605924256429076,-0.24467267971634862,1.3925371851995587
1684200712827234800,7.47223486328125,-2.6005799727916714,-0.08203180199861526,1.1145382822036742
1684200712837260800,7.4822607421875,-2.500635497483611,0.015128595548868178,0.8564363582022487
1684200712847286800,7.492286865234375,-2.3096295260250566,0.05371054739952087,0.5477183456853032
1684200712857313000,7.50231298828125,-2.112255188578367,0.05975275017321109,0.15721023097112774
1684200712867339000,7.512339111328125,-1.9886697254419325,-0.002586509361863136,-0.23388357467651366
1684200712877365000,7.522364990234375,-1.92244807151556,0.03833060743808746,-0.535576510862261
1684200712887391000,7.532390869140625,-1.8285481370687484,0.19529460856318473,-0.7553728157363832
1684200712897416700,7.542416748046875,-1.7111621130943298,0.3658697864115238,-0.9535497017376124
1684200712907442700,7.552442626953125,-1.600076066046953,0.4860241060554981,-1.039531848797202
1684200712917468700,7.56246875,-1.5343734675586223,0.5062456408292055,-0.9397279510036111
1684200712927494700,7.57249462890625,-1.5216723914176224,0.447263875028491,-0.5778992566764355
1684200712937520600,7.582520751953125,-1.4828367570668457,0.28995559051036834,0.08045140093937515
1684200712947546600,7.592546630859375,-1.4015151491641997,0.1119628298819065,0.7350427060216664
1684200712957572600,7.602572509765625,-1.3445809635430575,-0.0407645565867424,1.1514102152660488
1684200712967598800,7.612598876953125,-1.3904969115436077,-0.12058803488612174,1.3064251281499861
1684200712977624800,7.622624755859375,-1.591667134141922,-0.10478548559844493,1.1898188563764094
1684200712987650800,7.63265087890625,-1.743379790610075,-0.09120645757913588,0.8327714049763977
1684200712997675800,7.64267578125,-1.6019851145386694,-0.14530921916663647,0.3877602773107588
1684200713007701800,7.65270166015625,-1.2915268342256545,-0.33910803621411323,0.19092077739313243
1684200713017727700,7.662727783203125,-0.9241244314193725,-0.35803660856783387,0.16172186317667364
1684200713027753700,7.672753662109375,-0.6030862683704122,-0.15650047526657582,0.1476883693881333
1684200713037779700,7.68277978515625,-0.47411388803124427,0.15148469293117522,0.23096797949075698
1684200713047805700,7.6928056640625,-0.5626479480633512,0.4102016800910234,0.4040105703659355
1684200713057831700,7.702831787109375,-0.6041536418735981,0.5023854582697153,0.5037187527000904
1684200713067857700,7.712857666015625,-0.5653904882371426,0.46630467558503147,0.46110739920288324
1684200713077883600,7.722883544921875,-0.49236741066761314,0.4290478348582983,0.3773081491403281
1684200713087909600,7.73290966796875,-0.457681808668375,0.5582663354456424,0.3315080826044082
1684200713097936000,7.742935791015625,-0.5015349789202213,0.9039490738749504,0.2968777909889817
1684200713107961900,7.7529619140625,-0.6553461420375853,1.319967331290245,0.24670608524009585
1684200713117987800,7.76298779296875,-0.9603086744785309,1.743511892557144,0.22845570440888405
1684200713128013800,7.773013916015625,-1.339496353755146,2.3194664449065923,0.32621918241605163
1684200713138039800,7.783039794921875,-1.3941653709232806,2.995085486578941,0.5915121869653464
1684200713148065800,7.793065673828125,-1.1435026570118962,3.4822616852790116,1.1116523515038192
1684200713158091800,7.803091796875,-0.10610139050260185,3.5392198362976313,1.6923824476920066
1684200713168116700,7.81311669921875,1.8563396687053142,3.1039111874788996,2.374069703362137
1684200713178142700,7.823142822265625,2.987178074455261,2.3030291048467157,3.3462340891987084
1684200713188168700,7.833168701171875,2.808352662394941,1.2527332854509352,4.17492772334218
1684200713198194700,7.843194580078125,1.2735998401299118,0.16277648679614065,4.057341208359599
1684200713208220700,7.853220703125,-0.7900397861003875,-0.7369774734765291,2.9116619379609823
1684200713218246700,7.86324658203125,-2.540113813652098,-1.4523592012166977,1.8009999126687646
1684200713228273000,7.87327294921875,-3.4501284711763263,-2.051687030369043,0.888133518975228
1684200713238299000,7.883298828125,-4.187098345868289,-2.4851234555751085,0.03440612747073173
1684200713248324900,7.893324951171875,-4.929589906591176,-2.7279016998469827,-0.2759621364712715
1684200713258350800,7.903350830078125,-5.445881725138426,-2.6053695451557637,0.4536385246269405
1684200713268376800,7.913376953125,-5.8479532902657985,-2.0257102930694817,1.7863431724153458
1684200713278402800,7.92340283203125,-5.991403145301342,-1.5339175404846668,2.8487802421122788
1684200713288428800,7.9334287109375,-5.390758972853422,-1.178396714130044,3.423371689414978
1684200713298454800,7.943454833984375,-4.300177904820442,-0.9930676192641258,3.2453444419950244
1684200713308480800,7.953480712890625,-3.776444830356538,-0.9652619129717349,2.503576811632514
1684200713318506800,7.9635068359375,-3.7158036069110034,-0.8362550093084573,1.7378724253654478
1684200713328532700,7.97353271484375,-3.6206489962279793,-0.64861179228127,0.8856031237147748
1684200713338557700,7.9835576171875,-3.479789742207527,-0.5083469970226288,0.03325257352143526
1684200713348583700,7.993583740234375,-3.1770702394530175,-0.4232254123151302,-0.9269684226736425
1684200713358610000,8.00360986328125,-2.9901635200068353,-0.32501638249754905,-1.6613213928654789
1684200713368636000,8.013635986328126,-3.059720748096704,-0.14613222598731518,-2.109245485368371
1684200713378662000,8.023661865234375,-3.1874399500370023,0.08306932835280895,-2.4543840339183807
1684200713388688000,8.03368798828125,-2.583721484710276,0.4812450550854206,-2.359737957279384
1684200713398713900,8.0437138671875,-1.6513459422960877,0.7118284191727637,-1.9469497678264975
1684200713408739800,8.05373974609375,-1.0241339347876608,0.8903080865353346,-1.584738796183467
1684200713418765800,8.063765869140624,-0.614048574552685,0.8946803102701902,-1.269127370890975
1684200713428791800,8.073791748046874,-0.3516415007032454,0.8075368643462657,-1.1405892537832258
1684200713438817800,8.08381787109375,-0.23850465860590336,0.6928092459261417,-1.1625777982294558
1684200713448843800,8.09384375,-0.17667524828910827,0.6684340986043215,-1.299062198166549
1684200713458869800,8.103869873046875,0.08015081055760383,0.6725631612330675,-1.5192542243599891
1684200713468896000,8.11389599609375,0.3517277907472104,0.5550877054095268,-1.8113921273455023
1684200713478921700,8.123921630859375,0.5939513968110084,0.2528992407917976,-2.0987544864922762
1684200713488947700,8.13394775390625,0.6568658258855342,-0.039543490359187125,-2.5098662671655414
1684200713498973700,8.1439736328125,0.725595005653426,-0.20319208381474016,-3.094074560858309
1684200713508999700,8.153999755859376,1.0187304683089256,-0.2141185514986515,-3.650734922412038
1684200713519024600,8.164024658203125,1.4727239438533781,-0.0882780029118061,-4.055428068214654
1684200713529050600,8.174050537109375,1.8527309766888618,0.09371873266100883,-4.312382429616153
1684200713539076600,8.18407666015625,2.138849765515327,0.278628140810132,-4.345251264517009
1684200713549102600,8.1941025390625,2.3929694880127905,0.2853758615046739,-4.267056556463241
1684200713559128600,8.204128662109374,2.563949155008793,0.09333061012625694,-4.10945688778311
1684200713569154600,8.214154541015626,2.5718553980886933,-0.2250976261526346,-3.904951383282244
1684200713579180500,8.2241806640625,2.2022109154440463,-0.5611918675035238,-3.5990783849328754
1684200713589206800,8.234206787109375,1.419256557559967,-0.8458481825619936,-3.232487883031368
1684200713599232800,8.244232666015625,0.2867150011539459,-1.0172013590455056,-3.0124221135661005
1684200713609258800,8.2542587890625,-0.8279776678938419,-1.0683698207467793,-2.9705671313941475
1684200713619284700,8.26428466796875,-1.8328164620377123,-0.9796884977310896,-2.8037428305119274
1684200713629310700,8.274310791015624,-2.49826876835227,-0.5888385838419199,-2.4112435419805345
1684200713639336700,8.284336669921874,-2.6780583492696284,-0.029843349599838254,-2.0586729437336326
1684200713649362700,8.29436279296875,-2.439438978242874,0.8845447007030248,-1.721385400944948
1684200713659388400,8.304388427734375,-2.117492504709959,2.480173139691353,-1.36447998836413
1684200713669414400,8.314414306640625,-1.615413920432329,4.705110120075941,-0.9166583333224058
1684200713679440400,8.3244404296875,-0.0848293420289643,7.1082456127941605,0.032292350187152624
1684200713689465600,8.334465576171874,3.637927463287115,8.455801792755722,1.5771948105446993
1684200713699491600,8.34449169921875,7.426958511233329,6.5569122914820905,2.693163563942909
1684200713709517600,8.354517578125,8.541991883477568,2.1914391999304295,2.2325056620731947
1684200713719543800,8.364543701171876,6.919964682385325,-1.7337345949083565,0.5325621314771473
1684200713729569800,8.37456982421875,3.970885160177946,-4.0141257514894,-0.7933557787805795
1684200713739595800,8.384595703125,0.8172808442473412,-4.137538780668377,-0.8226156294040381
1684200713749621500,8.39462158203125,-1.7106781289696693,-3.3211434870839116,-0.2841125635705888
1684200713759647500,8.4046474609375,-3.023257103574276,-2.2474363969624043,0.25266499364450573
1684200713769673500,8.414673583984374,-3.6328923917293547,-0.9743190796524286,0.9241479584254324
1684200713779699500,8.424699462890626,-3.9357495493888854,0.4046434614419937,1.6716987022340297
1684200713789725400,8.434725341796875,-4.105525101292133,1.6494471229374408,2.4544646979391573
1684200713799751400,8.44475146484375,-3.92003760099411,2.133538799625635,2.907389082947373
1684200713809777400,8.45477734375,-3.2636849853277203,1.5922241835027933,2.7068445910319685
1684200713819803400,8.464803466796875,-2.390944704186916,0.5128752881020308,2.5483219622880218
1684200713829829600,8.47482958984375,-1.3979495656371115,-0.5950438682228326,2.22548438513428
1684200713839855600,8.484855712890624,-0.5903039802193641,-1.2363842081964016,1.7889355269961058
1684200713849881600,8.494881591796876,0.01547580155134201,-1.5262977131307125,1.5429979419104753
1684200713859907600,8.504907470703126,0.24387422281503676,-1.5603081192821264,1.3171779928326606
1684200713869932500,8.5149326171875,0.12702304550283589,-1.268700085389614,1.1608128343835473
1684200713879958500,8.52495849609375,-0.08410161227630451,-0.725949883505702,1.0304173989713192
1684200713889984500,8.534984619140625,-0.1589162859703414,-0.25392156957685946,0.8052019916579127
1684200713900010500,8.545010498046874,0.05741236105952412,0.0053548050314188,0.48593818133771416
1684200713910036500,8.555036376953124,0.46028472117576746,0.10076163690984248,0.03120893886461854
1684200713920062500,8.5650625,0.9150959063112735,0.08228548449873924,-0.4957542035616934
1684200713930088400,8.57508837890625,1.341720897936821,0.131199445271492,-0.9131605543345213
1684200713940114400,8.585114501953125,1.7002444132387637,0.12244038475453853,-1.1932834637470542
1684200713950140400,8.595140380859375,1.847142947423458,-0.059570963865518564,-1.0088689995080231
1684200713960166700,8.605166748046875,1.6759867548167704,-0.3832178115755319,-0.30912264779508114
1684200713970192600,8.615192626953124,1.1644359933167696,-0.48712066912055013,0.0847729174003005
1684200713980218600,8.625218505859374,0.6345604705750942,0.05310673628747463,0.19202172437235712
1684200713990244600,8.63524462890625,0.35184710627794263,0.7971002260059118,0.20994988751187918
1684200714000270600,8.6452705078125,0.3305869491714984,1.051376600369811,0.3189360396705568
1684200714010296600,8.655296630859375,0.6009071342330425,0.8736305079787969,0.5128855172351002
1684200714020322600,8.665322509765625,1.0851824238598347,0.447528663444519,0.7903183107808232
1684200714030348500,8.6753486328125,1.4445248543292284,0.030651743373274802,1.042143200339377
1684200714040374500,8.68537451171875,1.447257494163513,-0.14597966577410698,1.1157327526852487
1684200714050399500,8.6953994140625,1.2073971831649541,-0.17390812166333197,0.9491489825606345
1684200714060425500,8.705425537109376,0.8831458667557686,-0.267104291754961,0.6220329974353314
1684200714070451500,8.715451416015625,0.5381505991339683,-0.42343700923919675,0.3816732124820351
1684200714080477400,8.7254775390625,0.18329437416791916,-0.5174076708346605,0.3302325097106397
1684200714090503700,8.735503662109375,-0.12918810544908046,-0.4431225374400615,0.4420990396112203
1684200714100529700,8.74552978515625,-0.3035596799056977,-0.3064513827592134,0.6508532875977456
1684200714110555600,8.7555556640625,-0.3025362551420927,-0.1738981847912073,0.7033920147389173
1684200714120581600,8.76558154296875,-0.19409524271078407,-0.07165303132534026,0.5679026171885431
1684200714130607600,8.775607666015626,-0.04776837093420326,-0.004157704201340675,0.356144365080446
1684200714140633600,8.785633544921875,0.04214052111506462,0.0797773010700941,0.12024243631884456
1684200714150659600,8.79565966796875,0.11974449673406778,0.1102244617819786,-0.23247604596614838
1684200714160685600,8.805685546875,0.17952413491420446,0.07339549107849598,-0.5903655011482536
1684200714170711600,8.815711669921875,0.1914133832156658,0.010884382107853889,-0.8313855035759508
1684200714180737500,8.825737548828124,0.18320552684068678,-0.05767009868025779,-1.0070077356807887
1684200714190763500,8.835763427734374,0.17025434839613734,-0.1659685608357191,-1.0842242463521659
1684200714200789800,8.845789794921876,0.1513280410647392,-0.19956687905490397,-1.111222874045372
1684200714210815700,8.855815673828126,0.08527838270440698,-0.16752923428118227,-1.1648251387648283
1684200714220841700,8.865841796875,-0.0033287790965288873,-0.05105331088900566,-1.2736027627393602
1684200714230866700,8.87586669921875,-0.09635441492684185,0.07536240723729133,-1.3444878784321248
1684200714240892700,8.885892578125,-0.1987239254247397,0.180032742023468,-1.2363942911989987
1684200714250918700,8.895918701171874,-0.26027941417098044,0.20120704747736454,-1.0544865490838884
1684200714260944600,8.905944580078126,-0.23369119390957055,0.1821241613447666,-0.9167775757879019
1684200714270970600,8.915970703125,-0.1390582690130919,0.1501613353729248,-0.8804138845086097
1684200714280996600,8.92599658203125,-0.023696517407894132,0.08428630292713642,-0.7892921826034783
1684200714291022600,8.936022705078125,0.02822641592249274,0.02290624381303787,-0.6274285728685558
1684200714301048600,8.946048583984375,0.06549165915139019,-0.022879940328001974,-0.4358462628267705
1684200714311074600,8.956074462890625,0.04832257075086236,-0.12751169666945933,-0.2800077586002648
1684200714321100500,8.9661005859375,0.010399302004650234,-0.23894378067553043,-0.1689274106413126
1684200714331126800,8.976126708984374,-0.02427154081687331,-0.31275135968625545,-0.10816153790280222
1684200714341152800,8.98615283203125,-0.052925461436435575,-0.2834124524772167,-0.014851678303629158
1684200714351178800,8.9961787109375,-0.03956277958154678,-0.08666238440871238,0.15655936584696173
1684200714361204700,9.006204833984375,-0.04379990569464862,0.1927601216495037,0.3901493644043803
1684200714371230700,9.016230712890625,-0.04544847661927342,0.3870277252525091,0.6631520665481686
1684200714381256700,9.026256591796875,-0.030534108342975375,0.4402677325308323,0.9281427271500229
1684200714391282400,9.036282470703124,-0.00879471635222435,0.3651198448270559,1.1434444970838724
1684200714401307600,9.0463076171875,0.03056822980828583,0.20203063881993294,1.2772747292503714
1684200714411333600,9.056333740234376,0.05039236276224255,0.04028407959342003,1.3121962588973342
1684200714421359600,9.066359619140625,0.07682210452631115,-0.036924832293391226,1.3388023801416158
1684200714431385600,9.076385498046875,0.09076587420478463,-0.07666004583239555,1.3926331929199396
1684200714441411600,9.08641162109375,0.1110959839195013,-0.20601707810759542,1.4375228666126727
1684200714451437600,9.0964375,0.0970406436253339,-0.3312561536699533,1.4797317767888307
1684200714461463800,9.1064638671875,0.05075177065916359,-0.37867841458022594,1.5085700409993528
1684200714471489800,9.11648974609375,-0.002817395508289337,-0.40206279729902744,1.4982615590833126
1684200714481516300,9.126516357421876,-0.022106033346056937,-0.39452071135640143,1.4839248445644975
1684200714491542300,9.136542236328125,-0.025333617090433833,-0.3191238173276186,1.4643258256033063
1684200714501568300,9.146568359375,-0.03256839064955711,-0.2269762795060873,1.4156938966423271
1684200714511594200,9.15659423828125,-0.010833528703451155,-0.20995383303463458,1.3762205489099024
1684200714521620200,9.1666201171875,0.023076485813409087,-0.26858897735476495,1.317684188789129
1684200714531646200,9.176646240234374,0.06639891018941999,-0.30669805099666114,1.2015545215513557
1684200714541672200,9.186672119140624,0.14052622267380355,-0.3184036863595247,1.0376705119047314
1684200714551698200,9.1966982421875,0.23386852323785423,-0.33053719174563884,0.8480134708371013
1684200714561724200,9.20672412109375,0.324435513869673,-0.18042612525522708,0.7081793220806867
1684200714571749000,9.2167490234375,0.41156610031202434,0.15607202072143553,0.7060825689971446
1684200714581775000,9.226775146484375,0.4958575178056955,0.5287123241811991,0.7349367614291608
1684200714591801300,9.23680126953125,0.6235493933476507,0.8656991304576397,0.7491217194523662
1684200714601827300,9.246827392578124,0.7609859794430435,1.08218850274086,0.6710634241946041
1684200714611853300,9.256853271484376,1.0817805064618586,0.9841665199279784,0.591647942174226
1684200714621879300,9.26687939453125,1.9514052859306334,0.8619967688083648,0.5397780542053282
1684200714631905300,9.2769052734375,3.497227783742547,0.8978817366600036,0.688303239743784
1684200714641931300,9.28693115234375,4.748309210333228,0.9467804998636246,1.0196351620636879
1684200714651957200,9.296957275390625,5.190168011447787,0.9568348608881234,1.3230145900316537
1684200714661983200,9.306983154296875,5.083770998999476,0.9637292965769767,1.4636141702026129
1684200714672009200,9.31700927734375,4.559467723432183,0.9048357935816049,1.4347554477259516
1684200714682035200,9.32703515625,3.6369133178085087,0.797950120833516,1.2598869565978645
1684200714692061200,9.337061279296876,2.576293088275194,0.646254415500164,1.0418120686888694
1684200714702087400,9.34708740234375,1.6823068977490065,0.4618535413950681,0.9360893753055483
1684200714712113400,9.357113525390625,1.205529051205516,0.29395488927960395,1.007806046451628
1684200714722139400,9.367139404296875,1.3175403964042662,0.24418811106979846,1.0528048796072602
1684200714732165400,9.377165283203125,2.0436112759411333,0.4202700696408748,1.0301105249792337
1684200714742191400,9.38719140625,3.144963328835368,0.6977244904965162,1.0944411044619977
1684200714752216300,9.39721630859375,3.9297921022891997,0.9081248982548713,1.3338909349635242
1684200714762242300,9.4072421875,3.848800164732337,1.035119293051958,1.4849670470938086
1684200714772268300,9.417268310546875,2.461321139705181,1.1841823117941617,1.2946816449947653
1684200714782294300,9.427294189453125,-0.1124421743640676,1.199892506623268,0.7845372431613504
1684200714792320300,9.4373203125,-2.704886734962463,1.093829840695858,0.1892806089706719
1684200714802346200,9.44734619140625,-4.750267943185568,1.1280290474176407,-0.13377923263162372
1684200714812372200,9.457372314453124,-6.218874514847993,1.6533692648172378,-0.47112990378439423
1684200714822398200,9.467398193359376,-6.702938134485483,2.353393264427781,-0.5512471043333411
1684200714832424400,9.477424560546876,-6.1234536544442175,2.7174977947324512,-0.017198533690720795
1684200714842450400,9.487450439453125,-4.093610207092762,2.6128163540303704,1.0697644899755716
1684200714852476400,9.497476318359375,-1.6704899109661577,2.404922960656881,2.4669176445379852
1684200714862502400,9.50750244140625,-0.29743863974213597,2.1784692437201736,3.3041371149644254
1684200714872528400,9.5175283203125,-0.2075122851014137,1.7904741347402333,3.0003298169732093
1684200714882554400,9.527554443359374,-0.7601976055443287,1.2940648282706737,1.9366179050348697
1684200714892580400,9.537580322265624,-1.2463456302404403,1.0405880798518656,0.6653130439743399
1684200714902606300,9.5476064453125,-1.3708943854510782,0.8998474837750196,-0.5648875071510672
1684200714912632300,9.55763232421875,-1.5400937449015677,0.7066261743545532,-1.2800108762159943
1684200714922658300,9.567658203125,-1.8747455323591826,0.33591303956508634,-1.7888143848344682
1684200714932683300,9.577683349609375,-2.345239768588543,0.23239888907670975,-2.0075158802092075
1684200714942709200,9.587709228515624,-2.496219434607029,0.15636895784139632,-1.892166038237512
1684200714952735200,9.5977353515625,-2.526967624092102,0.002330488774180412,-1.6163152531862257
1684200714962761500,9.607761474609376,-2.629182966941595,0.023846155011653897,-1.3229992463320492
1684200714972787500,9.617787353515626,-2.51792565498054,0.3001175035625696,-1.1002966986224054
1684200714982813400,9.6278134765625,-2.2631296406567096,0.7222276481121778,-1.1824413133457303
1684200714992839400,9.63783935546875,-2.1655714759632945,0.96017949514091,-1.3402107856348155
1684200715002865400,9.647865478515625,-2.103411664648354,0.7366425424337386,-1.4885016509607434
1684200715012891400,9.657891357421875,-2.010251150391996,0.33318098425269127,-1.8124229316979645
1684200715022917400,9.66791748046875,-1.7608941122516988,-0.09761574009954929,-2.2446152020618317
1684200715032943400,9.677943359375,-1.5957795378968118,-0.4217448183685541,-2.286295119927823
1684200715042969300,9.68796923828125,-1.6228689126133917,-0.709211514672637,-2.1725354697570203
1684200715052995300,9.697995361328125,-1.860067603187263,-0.894458776473999,-2.0587658827140927
1684200715063021000,9.70802099609375,-2.082441357333958,-0.9844313083440065,-2.066427211122215
1684200715073047300,9.71804736328125,-2.021224964348972,-1.1748521733909845,-2.3176570573970676
1684200715083073300,9.7280732421875,-1.8345237043470144,-1.4028057734966277,-2.5268323072746393
1684200715093099300,9.738099365234374,-1.6380878167942166,-1.5892168183803557,-2.5844597358569503
1684200715103125200,9.748125244140626,-1.4613891876295209,-1.637861314561963,-2.377772211141884
1684200715113150500,9.758150390625,-1.3316899177879093,-1.5085206488996743,-1.8951789563179016
1684200715123176400,9.768176513671875,-1.3985554225757717,-1.3327975867688655,-1.3076739591673017
1684200715133202400,9.778202392578125,-1.5743860367342828,-1.2693190940707921,-0.9992059758886694
1684200715143228400,9.788228515625,-1.7187179353013633,-1.2890823636829851,-0.9463529221013188
1684200715153254100,9.798254150390624,-1.7160054614722728,-1.2485574610710144,-1.0353604083314538
1684200715163280100,9.808280029296874,-1.5924693904355167,-1.1867571307182312,-1.1733978829294442
1684200715173306000,9.81830615234375,-1.3136851822808384,-1.221381284853816,-1.3110256076827644
1684200715183332000,9.82833203125,-1.0266825963571666,-1.3917600633472202,-1.2720800832167267
1684200715193358000,9.838358154296875,-0.7519581849873066,-1.5102490801274775,-1.1378937310889363
1684200715203384300,9.84838427734375,-0.5393254881322384,-1.5182663823664186,-1.040568790629506
1684200715213410300,9.858410400390625,-0.3750786365225911,-1.4312567919552326,-0.9529574349328875
1684200715223436300,9.868436279296875,-0.21180413707643747,-1.3226871116429566,-0.8274740292206406
1684200715233462300,9.878462158203124,-0.08839841442108154,-1.1782687038362025,-0.7084627421319484
1684200715243488300,9.88848828125,0.020677754108607768,-0.9424386712670325,-0.5778574633613228
1684200715253514200,9.89851416015625,0.24488047724813222,-0.5567775581926107,-0.27530016543120145
1684200715263540200,9.908540283203125,0.4696098546102643,-0.08144961819648742,0.31030542783886195
1684200715273566200,9.918566162109375,0.4873519936583936,0.22871289404034614,1.050352810280025
1684200715283591200,9.928591064453125,0.2899813094735145,0.33024843793213365,1.6048849276334047
1684200715293617200,9.9386171875,-0.14734876217022538,0.36980244968533516,1.8013097092702983
1684200715303643100,9.94864306640625,-0.7025096789464355,0.11999766777753829,1.7527806561619041
1684200715313669000,9.958669189453126,-1.1073590382240712,-0.20280513032376765,1.4661062792792916
1684200715323695000,9.968695068359375,-1.2282875571109353,-0.4159668194890022,0.9641440148577094
1684200715333721300,9.978721435546875,-1.0706465335071087,-0.5053881472170353,0.33870383932739495
1684200715343747300,9.988747314453125,-0.682288144172728,-0.4849205287277698,-0.3085620913028717
1684200715353773300,9.998773193359375,-0.15941665497422217,-0.32034546807706354,-0.8724769540295004
1684200715363799300,10.00879931640625,0.34562896241545676,-0.044538814428448675,-1.2643822221904992
1684200715373825300,10.0188251953125,0.7632546550273894,0.22116554740071295,-1.518875454175472
1684200715383851300,10.028851318359376,1.0214027562581003,0.46249943808317184,-1.6621654424741863
1684200715393877200,10.038877197265625,1.0469920286100358,0.7198626725465059,-1.7081041868284343
1684200715403903200,10.0489033203125,0.8542880941271781,0.791070298191905,-1.6058964427635072
1684200715413929200,10.05892919921875,0.5103191008131951,0.8947603897690772,-1.6996221896871924
1684200715423955200,10.068955078125,0.15300905295424164,1.1884727024644612,-1.8035209555789826
1684200715433981400,10.0789814453125,0.17496727532744408,1.5439280623674392,-2.10921041405499
1684200715444007400,10.08900732421875,0.4366810696830973,1.4827718751370906,-2.2438804580464957
1684200715454033400,10.099033447265626,0.9276116890132426,0.9999731608688831,-2.2009774281263352
1684200715464058400,10.109058349609375,1.3900222797691821,0.37475744174420833,-1.8162530113801358
1684200715474084400,10.11908447265625,1.8804419904351233,0.1929606126576662,-1.031593310882896
1684200715484109600,10.129109619140625,2.4827660787940022,0.719787853744626,-0.04960384273305535
1684200715494135600,10.139135498046874,2.8545605790793895,1.845432636374235,0.9816489841490983
1684200715504161500,10.14916162109375,2.6095897931993006,2.925537903100252,1.8805149095408618
1684200715514187500,10.1591875,1.9887761084258555,3.5515783826112743,2.5757401305675507
1684200715524213800,10.1692138671875,1.3063444641292095,3.3999534044265745,3.2057658803224562
1684200715534239700,10.17923974609375,0.6679869393587112,2.450010056617856,3.695122930192947
1684200715544265700,10.189265625,0.15709961020350455,1.1481009445875883,3.9142613556802273
1684200715554291700,10.199291748046875,-0.20074469066262243,-0.06456745697855949,3.8920761196181175
1684200715564317700,10.209317626953125,-0.5929682309925556,-0.9937515098750591,3.540053364512324
1684200715574343700,10.21934375,-0.9739221892893314,-1.523739845341444,2.9496868404507635
1684200715584369700,10.22936962890625,-1.1757505835354327,-1.8010300155460834,2.0894212793491778
1684200715594395600,10.239395751953126,-1.3217583063602447,-2.0270821659445764,1.1440846946835517
1684200715604421600,10.249421630859375,-1.304860947573185,-1.9519611662477254,0.11226678126454352
1684200715614447600,10.259447509765625,-1.12842184612751,-1.4322212530732155,-0.6485787667945027
1684200715624473600,10.2694736328125,-0.8806839336216449,-0.7816600802898407,-1.072292839409411
1684200715634499800,10.279499755859375,-0.4098807775735855,-0.0462456183463335,-1.453022633561492
1684200715644525800,10.28952587890625,0.2590057409733534,0.6844155115902424,-1.7639099529415367
1684200715654550800,10.29955078125,1.00009064976871,1.14757545940876,-1.9319535664856433
1684200715664576800,10.30957666015625,1.6198352440059185,1.1625035639494656,-2.0283175529584287
1684200715674602800,10.319602783203125,1.8590064036965368,0.799925220298767,-2.0434856037348506
1684200715684628700,10.329628662109375,1.5637579674750566,0.21610767948925494,-2.0137920378692447
1684200715694654700,10.33965478515625,0.8318716796576976,-0.3990092549473047,-1.9720481148563325
1684200715704680700,10.3496806640625,-0.08988602263033389,-0.7537363005757332,-1.9540410412617026
1684200715714706700,10.359706787109374,-0.8165688965857029,-0.7703647792935371,-1.643885104896128
1684200715724732700,10.369732666015626,-1.1658049435824156,-0.6260819805651903,-1.0980375215187668
1684200715734758700,10.379758544921875,-1.1855161907464264,-0.3246972335457802,-0.6147545308649539
1684200715744784600,10.38978466796875,-1.0798246962189675,0.0926221695959568,-0.21598668345808983
1684200715754810600,10.399810546875,-0.9602174890637397,0.4712924008697271,0.07450579040795564
1684200715764836900,10.4098369140625,-0.8384791150987148,0.6825339356273412,0.3631140579625964
1684200715774862800,10.41986279296875,-0.6334902109950781,0.5945294889599084,0.5877660592395811
1684200715784888800,10.429888916015624,-0.31053835981190203,0.3648766837209463,0.817645732036978
1684200715794914800,10.439914794921876,0.23662615138292312,-0.007591770303249359,1.0261217476040125
1684200715804940800,10.44994091796875,0.8171101638555526,-0.27479776886701585,1.204579203134775
1684200715814966800,10.459966796875,0.9982856461733579,-0.39882396150827404,1.4032726603560148
1684200715824991700,10.46999169921875,0.762253953552246,-0.35909926936328407,1.6017057130753993
1684200715835017700,10.480017822265625,0.29267770895063877,-0.1993219643831253,1.8141661221034824
1684200715845043700,10.490043701171874,-0.1917570820868015,-0.0674029726654291,1.8850310717910528
1684200715855069700,10.500069580078126,-0.6030500645458698,-0.07629705773890018,1.8604481269374489
1684200715865095700,10.510095703125,-0.9470026181817054,-0.21935002241134643,1.9955575852595269
1684200715875121700,10.52012158203125,-1.2405810753643511,-0.3082850279271602,2.15206332122311
1684200715885147600,10.530147705078125,-1.550487567013502,-0.1426321089118719,2.27607153981626
1684200715895174000,10.540173828125,-1.613923974135518,0.3617857319682836,2.156407341776788
1684200715905199900,10.550199951171875,-1.379348910063505,0.7910451637506485,1.4686450039766727
1684200715915225900,10.560225830078124,-1.1110632995694876,0.9950088164597749,0.6772633017480373
1684200715925251800,10.570251953125,-0.8119096726030111,0.8509434598743915,-0.000624780834838748
1684200715935277800,10.58027783203125,-0.4895791681885719,0.5067535903513432,-0.43982145006805656
1684200715945303600,10.590303466796875,-0.191852907144092,0.10069850854575634,-0.7717143672715872
1684200715955329500,10.60032958984375,0.0226087221711874,-0.25157237610220906,-1.0091839106760918
1684200715965355500,10.61035546875,0.18757716605365274,-0.5418757571369409,-1.1595359463155268
1684200715975381500,10.620381591796875,0.25140410686321557,-0.7155564997851848,-1.2579932518057524
1684200715985407500,10.630407470703124,0.17271105736587195,-0.8318161500781774,-1.3454187295414506
1684200715995433500,10.64043359375,-0.012271416019462049,-0.8427695057690143,-1.3339908882066607
1684200716005458700,10.650458740234376,-0.2472054130643606,-0.6855331174433231,-1.3643588462024927
1684200716015484700,10.660484619140625,-0.49147893739528953,-0.38665480028688903,-1.3948923700235782
1684200716025511000,10.670510986328125,-0.7522175665758549,0.1040676927179098,-1.313120826396346
1684200716035536600,10.68053662109375,-0.9648281977295875,0.5019803846001625,-1.0781808745346964
1684200716045562600,10.690562744140625,-1.053047748452425,0.6043541328817605,-0.8968537087865174
1684200716055588600,10.700588623046874,-1.0378735601961613,0.3831102595478296,-0.7347969145670533
1684200716065614600,10.710614501953126,-1.0288654933542012,0.0905085384428501,-0.5371038665600121
1684200716075640600,10.720640625,-0.9979337639957666,-0.14122224211394785,-0.4507844503700733
1684200716085666600,10.73066650390625,-1.0062526795297861,-0.19295067578554154,-0.39949674620330333
1684200716095692500,10.740692626953125,-1.0004969655472784,-0.06268763458132744,-0.31648309356048704
1684200716105718500,10.750718505859375,-0.8965969575464725,0.10216273587942123,-0.3870182267718017
1684200716115744500,10.76074462890625,-0.8052408623635768,0.11092238091826438,-0.5354707124002277
1684200716125770500,10.7707705078125,-0.6461176373779773,-0.10912731419503688,-0.633933132456988
1684200716135796700,10.780796630859374,-0.4227431086909026,-0.327039997279644,-0.6328770475327968
1684200716145822700,10.79082275390625,-0.2516348468791693,-0.31903087834715843,-0.4793038578897714
1684200716155848700,10.8008486328125,-0.10134550121240317,-0.15203355898559093,-0.27498072421848774
1684200716165874700,10.810874755859375,0.015196400088071823,0.13248714699447153,-0.10735285186842083
1684200716175900700,10.820900634765625,0.10402034644484519,0.3563309736937284,0.007856266458332537
1684200716185925600,10.830925537109374,0.26100370985753835,0.44799218930304047,0.06385434027314185
1684200716195951600,10.84095166015625,0.5719757849115878,0.34878538061976433,0.06948124024420976
1684200716205977600,10.8509775390625,1.2858756765961645,0.03318096958994865,0.1659523403532803
1684200716216003600,10.861003662109376,2.394452273916453,-0.25807868925631045,0.3870977217487991
1684200716226029600,10.871029541015625,3.42058878069818,-0.28309739517867566,0.6198923321448266
1684200716236055600,10.8810556640625,3.8400738374412056,-0.1872486647516489,0.6662018095076083
1684200716246081500,10.89108154296875,3.3437685758680105,-0.15182254658341407,0.4822881343975663
1684200716256107500,10.901107421875,2.190123879548162,-0.22631401620507238,0.11585530727580189
1684200716266133800,10.9111337890625,1.0086531648002564,-0.27169980285167694,-0.14574088858217
1684200716276159700,10.92115966796875,0.015015855889394879,-0.13381985690295695,-0.07088979186788201
1684200716286185700,10.931185791015626,-0.6564202740751206,0.011950550034642219,0.15071312403678894
1684200716296211700,10.941211669921875,-0.9809569102317094,0.07043664127290249,0.3096915337242186
1684200716306237700,10.95123779296875,-1.058784246277809,-0.157915602761507,0.2901359155133366
1684200716316263700,10.961263671875,-0.8988345073401928,-0.6337655208051204,0.01718830455765128
1684200716326289700,10.97128955078125,-0.5799439142465591,-0.9332616775989532,-0.2572648886553943
1684200716336315600,10.981315673828124,-0.2635581435807049,-1.0537398223698138,-0.34090748685151334
1684200716346341600,10.991341552734376,0.0453180551726371,-1.0234095660358666,-0.31916414933800696
1684200716356367600,11.00136767578125,0.30860593044459816,-0.8850754465788603,-0.1787513239108026
1684200716366393600,11.0113935546875,0.4585218396890908,-0.7467191152900456,0.05187829047106206
1684200716376418600,11.02141845703125,0.5007004277922212,-0.7064590010941029,0.40264381205737587
1684200716386444500,11.031444580078125,0.4352743081577122,-0.5182499668776989,0.8770487919896841
1684200716396470800,11.041470703125,0.2668688755638897,-0.26226094337701794,1.3723407848671079
1684200716406496800,11.051496826171874,0.03739142689183354,-0.15734627844095228,1.7293401593416928
1684200716416522800,11.061522705078126,-0.13974164816737175,-0.11805471701622008,1.88053653685078
1684200716426548700,11.071548828125,-0.22598259229362008,-0.10547229881882667,1.82855909685418
1684200716436574700,11.08157470703125,-0.182323921700567,-0.1603659185230732,1.730180994080007
1684200716446600700,11.0916005859375,-0.03731047061011195,-0.22401041543781755,1.8100316526472569
1684200716456626700,11.101626708984375,0.10514043651595711,-0.12900631914138794,2.1322499288588763
1684200716466652700,11.111652587890624,0.21119433461502193,-0.03312017931342125,2.6112112569212913
1684200716476678700,11.1216787109375,0.20887948180139063,-0.13387655552625655,2.939880316707492
1684200716486704400,11.131704345703126,0.16117182807847857,-0.3870534442156553,2.920858513112366
1684200716496730400,11.14173046875,0.18290917424261569,-0.6449363186389208,2.439359191004932
1684200716506756600,11.151756591796875,0.2486392452597618,-0.8843407025635242,1.6680264434620737
1684200716516782600,11.161782470703125,0.30062486856281756,-0.8311112166792154,1.0986387022823094
1684200716526808600,11.17180859375,0.2738455827087164,-0.2982949643105268,0.8140648048102855
1684200716536834600,11.18183447265625,0.2229243737667799,0.38863808305859565,0.7266705989956855
1684200716546860500,11.191860595703124,0.15709493402838706,0.8705641061455011,0.7609419941708445
1684200716556885500,11.201885498046876,0.13922931473106145,0.8876268846273422,0.5910271068621427
1684200716566911500,11.211911376953125,0.20006489170491695,0.4957599026501178,0.13114713056236504
1684200716576937500,11.2219375,0.3059821578122675,0.08129998059272765,-0.3877067204926163
1684200716586963500,11.23196337890625,0.44781639434471726,-0.030873861691355704,-0.7699945577416568
1684200716596989400,11.241989501953125,0.5712354148730635,0.1553583194941282,-0.9330694429624825
1684200716607015400,11.252015380859374,0.6762962102815508,0.5352233135104179,-0.9100864806514233
1684200716617041400,11.26204150390625,0.7528396439969539,1.104144898483157,-0.7618938880681991
1684200716627067400,11.2720673828125,0.7462684489130973,1.8795172768056392,-0.6157362353786826
1684200716637093600,11.28209375,0.6866191591143608,2.469690908643603,-0.48255906029343604
1684200716647119600,11.29211962890625,0.5525552643224597,2.785133991631865,-0.3802512899201363
1684200716657145600,11.3021455078125,0.34205548784285783,2.9851410156697034,-0.3374625340294093
1684200716667171600,11.312171630859375,0.1277098495900631,3.0793162599265576,-0.44398266140073533
1684200716677197600,11.322197509765624,0.09352467139363288,2.945788079446554,-0.6951169383466244
1684200716687223600,11.3322236328125,0.28370237533450127,2.6683231371968983,-0.6558318066626787
1684200716697249500,11.34224951171875,0.6098106447219849,2.2544202645003795,-0.2950859391361475
1684200716707275300,11.352275146484375,0.9876925020970404,1.5504694468349218,-0.03613638532944023
1684200716717301200,11.36230126953125,1.7458360977210103,0.5867156003385782,0.2308682454433292
1684200716727327200,11.3723271484375,2.940672051607072,-0.29839141042232514,0.6129669898610561
1684200716737353200,11.382353271484375,3.7048610648751255,-0.9481769226580857,0.8251200865056365
1684200716747378400,11.39237841796875,3.7651293633550402,-1.3191425709038973,0.758531060571596
1684200716757404400,11.402404296875,3.4211592740625143,-1.3003244731873274,0.5477543668467552
1684200716767430700,11.4124306640625,2.934713727724552,-0.9668541505992412,0.5304805759627371
1684200716777456600,11.42245654296875,2.3684634077876803,-0.6566086362540722,0.7665329460456967
1684200716787482600,11.432482666015625,1.7642746946007013,-0.21330723511576652,0.9505404369190334
1684200716797508400,11.44250830078125,0.9081039285320788,0.1261018298715353,0.9731750972490757
1684200716807534300,11.452534423828125,-0.3992049967151135,0.3843085294216871,0.941674628091976
1684200716817560300,11.462560302734374,-0.5930195958536117,0.8295908752441405,0.9471609505485743
1684200716827586300,11.47258642578125,-0.5390600786617026,1.3269482762187719,0.7366877698149532
1684200716837612300,11.4826123046875,-0.21499706963254137,1.70303024456501,0.7178883767988532
1684200716847638300,11.49263818359375,-0.08297815207117237,2.1676637720674274,0.7054856260173022
1684200716857664300,11.502664306640625,-0.5012964939892292,2.562147074022889,0.5230156469095498
1684200716867690200,11.512690185546875,-1.6328502084016798,2.9895605856776237,-0.08014365016445517
1684200716877716500,11.522716552734375,-1.8935574925959109,3.767894151893258,-0.4915346131052822
1684200716887742500,11.532742431640624,-0.6891607333559543,4.536819253772497,-0.4758772444419562
1684200716897768400,11.5427685546875,0.8701555253446102,4.752236612910032,-0.03725333359539509
1684200716907794400,11.55279443359375,0.928332989025116,4.40096584521532,0.24900749405026434
1684200716917819400,11.5628193359375,-0.33294834454059596,3.794183608403802,0.20862024634331464
1684200716927845400,11.572845458984375,-1.9108793604053556,3.174208712542057,0.3336165991909802
1684200716937871400,11.582871337890625,-2.3286700343206523,2.620914904811978,0.3994898780710995
1684200716947897300,11.5928974609375,-1.9800002429045735,2.1865677945017814,0.3176154585912824
1684200716957923300,11.60292333984375,-1.6529811422824858,1.753618860551715,-0.34046967995613814
1684200716967949300,11.61294921875,-1.9916843970879912,1.2643307842642069,-0.7357903095185756
1684200716977975300,11.622975341796876,-2.2405402077078818,0.6655892305672169,-1.087912141084671
1684200716988001300,11.633001220703125,-2.284057862395048,0.05189969858527183,-1.5279507410347462
1684200716998027300,11.64302734375,-2.4897782956436276,-0.4597691363364458,-1.8989719188600778
1684200717008053500,11.653053466796875,-2.737681920105219,-1.0629437040448189,-2.433174949412048
1684200717018079500,11.66307958984375,-3.0633880384325978,-1.6195809769839047,-2.5733903525710105
1684200717028105500,11.67310546875,-3.1712089462041853,-2.24802267241776,-2.7154800251692532
1684200717038131500,11.68313134765625,-3.242763485591113,-2.8201532825648785,-2.9319872253701087
1684200717048157400,11.693157470703126,-3.067940002648532,-3.211590056431293,-2.954191458393633
1684200717058183400,11.703183349609375,-3.1911396813377735,-3.238049608811736,-2.889304852463305
1684200717068209400,11.71320947265625,-3.4863550920724866,-3.0487551174461838,-2.86344677310735
1684200717078235400,11.7232353515625,-3.5760970300570127,-3.059265990066528,-2.7584391691908237
1684200717088261400,11.733261474609375,-3.499857547724247,-3.1651948004812,-2.0731255397170782
1684200717098286300,11.743286376953124,-3.3766444250315426,-3.3306051429122685,-1.184566050414741
1684200717108312300,11.753312255859376,-3.639557110315561,-3.3243338075578213,-0.582327594512701
1684200717118338300,11.76333837890625,-3.4261516755223274,-3.2244729188799854,-0.6325570217981934
1684200717128364300,11.7733642578125,-3.043860915663838,-2.998734072214365,-1.0229235360845923
1684200717138390500,11.783390625,-2.6481618081778286,-2.680679345422983,-1.579158657963574
1684200717148416500,11.79341650390625,-2.6473753339752553,-2.431173254200816,-2.0234946628466246
1684200717158442500,11.8034423828125,-2.5643501370251176,-2.140017640250921,-2.307601819589734
1684200717168468500,11.813468505859374,-2.2310314978674053,-1.7510031250953673,-2.450828679524362
1684200717178494500,11.823494384765626,-1.7853405712440609,-1.3857277974456548,-2.4176208219274877
1684200717188520400,11.8335205078125,-1.223397300851345,-1.04915892432034,-2.164658452771604
1684200717198546400,11.84354638671875,-0.5764297686457633,-0.6934615723550319,-1.662462379594147
1684200717208572400,11.853572509765625,-0.010882336281239986,-0.4278250150650739,-0.8075850874021648
1684200717218598400,11.863598388671875,0.1120613218203187,-0.36319676780998705,0.04368453568667173
1684200717228624400,11.873624267578125,-0.059061260777711865,-0.455481083753705,0.6725263363540173
1684200717238650400,11.883650390625,-0.3174266580209136,-0.3852396727919578,1.2490312160626054
1684200717248676600,11.893676513671876,-0.5925862459376454,-0.3042658554136753,1.7196984707713125
1684200717258702600,11.90370263671875,-0.8427008244469761,-0.01761865879893303,1.623256742887199
1684200717268728600,11.913728515625,-0.9738611067518591,0.2909066076248884,1.0624722871407866
1684200717278754600,11.923754638671875,-0.964514747866243,0.5144757090359926,0.2718330738425255
1684200717288779500,11.933779541015625,-0.8065947611905634,0.6169827283084393,-0.4060559585884213
1684200717298805500,11.943805419921874,-0.420839540091902,0.5895195518434048,-0.8870379788234829
1684200717308831500,11.95383154296875,0.15009806087836622,0.4471142374247312,-1.1020473416820167
1684200717318857500,11.963857421875,0.4211841888111084,0.3031073330283165,-1.2384881947383284
1684200717328883500,11.973883544921875,0.37373153276257215,0.27514965104460715,-1.384962950553
1684200717338909400,11.983909423828125,0.20349311258792877,0.6088157884657383,-1.7201579049766063
1684200717348935400,11.993935302734375,0.18922486019544302,1.5204671072810887,-2.035131909148395
1684200717358961400,12.00396142578125,0.5787070293953642,2.9703327381163835,-2.1021748163297773
1684200717368987400,12.0139873046875,1.235120471870899,4.926315414965153,-1.1328455077886581
1684200717379013600,12.024013671875,2.086764188969135,6.600555618375539,1.0668312130026518
1684200717389039600,12.03403955078125,3.241087369072437,7.488043386793136,3.783360016572475
1684200717399065600,12.044065673828126,3.4096500380545853,7.255518825510144,5.043561738207936
1684200717409091600,12.054091552734375,2.994806085115671,5.745066916286945,4.173628331181407
1684200717419117600,12.06411767578125,3.0231267551928758,3.0840526407986877,3.1823855892568824
1684200717429143600,12.0741435546875,2.8273347185015676,0.07223755321502685,2.260923216653615
1684200717439169300,12.084169189453124,2.422707623672485,-2.190891502919793,1.38036539362967
1684200717449195300,12.0941953125,1.6548118648409842,-3.6547675389289855,0.5970744972676039
1684200717459221200,12.10422119140625,0.5109411051690578,-4.338929952540993,-0.17036562675088643
1684200717469246500,12.11424658203125,-0.9747568865478038,-4.351760792541504,-0.8579526079840958
1684200717479272400,12.1242724609375,-2.583803025513887,-3.7400849384695287,-1.3140233281940221
1684200717489298700,12.134298583984375,-3.399213399714231,-2.8227304395765063,-1.5210786633081734
1684200717499324700,12.14432470703125,-3.229440185898542,-1.9374965875655412,-1.5328328139878808
1684200717509350700,12.1543505859375,-2.747127793842554,-0.8308370759129524,-1.4800079633817076
1684200717519376600,12.164376708984374,-2.291304764783382,0.4114490498036146,-1.3028526764906943
1684200717529402400,12.17440234375,-1.807431114760041,1.4700000718474386,-0.9194798204839228
1684200717539428400,12.184428466796875,-0.8758815017759799,2.273675000068545,-0.28343159556910397
1684200717549454300,12.194454345703125,0.9836766905844211,2.581308286088705,0.29464813224077224
1684200717559480300,12.204480224609375,2.144537163501978,1.9956664524614809,0.5043123346790671
1684200717569506300,12.21450634765625,1.7139280706763267,0.9527075518250465,0.4149481439657509
1684200717579532300,12.2245322265625,1.108451655766368,0.4462432998090982,-0.0305646496117115
1684200717589558300,12.234558349609374,0.7402221544861793,0.2539928812474012,-0.4812945933155715
1684200717599584500,12.24458447265625,0.35883097381591794,0.030382278782129287,-0.864643922316283
1684200717609610500,12.254610595703125,-0.13932316702697425,-0.15093407331109046,-0.8544542444743215
1684200717619636500,12.264636474609375,-0.28046587763130665,-0.22761983810663222,-0.5629558084361255
1684200717629662500,12.274662353515625,-0.36544304889943446,-0.3511263907879591,-0.39691958919167514
1684200717639688400,12.2846884765625,-0.5809791025131941,-0.6007675065666437,-0.3014908377423882
1684200717649714400,12.29471435546875,-0.8221323759317397,-0.5346037203073501,-0.2990281008906662
1684200717659740400,12.304740478515624,-1.0823661973953247,-0.28559739530086514,-0.2869593313038349
1684200717669765400,12.314765380859376,-1.219952713355422,0.0453349332422018,-0.1772472029581666
1684200717679791400,12.324791259765625,-1.1912474278748035,0.23554069423377513,0.016490969943255183
1684200717689817300,12.3348173828125,-1.1222422807097434,0.1968728176653385,0.3095429190337658
1684200717699843300,12.34484326171875,-0.9103571873515843,0.35394670890569685,0.40541196159645915
1684200717709869300,12.354869384765625,-0.6665770725607871,0.7874392482131719,0.4540000514157116
1684200717719895300,12.364895263671874,0.0010135609567165373,0.6155623401165008,0.872555133832246
1684200717729921500,12.374921630859374,0.77863985568583,0.3813485105723142,1.1837586795546113
1684200717739947500,12.384947509765626,1.3415911340773106,-0.12729367000460623,1.2644099869802594
1684200717749973500,12.394973388671875,1.353526486542821,-0.5413853432714939,0.8864698235467076
1684200717759999500,12.40499951171875,1.1021277134418488,-0.626093671002984,0.30428529076650734
1684200717770025500,12.415025390625,0.6983487598747015,-0.28473873264491556,-0.2603850665025413
1684200717780051500,12.425051513671875,0.2542062317371368,0.25598142471611496,-0.6718854081019758
1684200717790077400,12.435077392578124,0.011121697995066642,0.4560603449463844,-0.734657506096363
1684200717800103400,12.445103515625,-0.07893555301632732,0.3257634014725685,-0.7268292236234992
1684200717810129400,12.45512939453125,-0.12779281516578048,-0.05238602079749107,-0.5814717814009637
1684200717820155400,12.4651552734375,-0.20549276197254657,-0.42738487008213993,-0.38655674673989415
1684200717830181400,12.475181396484375,-0.3166389782419428,-0.6525520543396472,-0.2725355230234563
1684200717840207600,12.48520751953125,-0.47321719491984693,-0.6328606809198856,-0.17943543371744453
1684200717850232300,12.495232421875,-0.5510638201883062,-0.43937516760528084,-0.0760035546850413
1684200717860258600,12.505258544921874,-0.5433779418608173,0.11534195092618464,-0.11754084920994937
1684200717870284500,12.515284423828126,-0.5968552650263532,0.615442513129115,-0.30896760336384177
1684200717880310500,12.525310546875,-0.43133970865514126,0.9936527256757021,-0.18683942636363207
1684200717890336500,12.53533642578125,0.0029086174556985497,0.991541432610154,0.11329188652858137
1684200717900362500,12.545362548828125,0.10945526750776916,0.32008944748938084,0.10543912720158695
1684200717910388500,12.555388427734375,0.22734805369423702,-0.48362172108888624,0.1427935100186616
1684200717920414500,12.56541455078125,0.25894321539746595,-0.8301274663388729,0.0675858549516648
1684200717930440400,12.5754404296875,0.19541620738254858,-0.5644190128564834,-0.10300130559541285
1684200717940466400,12.585466552734376,0.05729836102472618,-0.16250643768310546,-0.24559103667028248
