time,seconds_elapsed,z,y,x
1684200587433309000,0.025308837890625,0.6217968505918979,0.9199991681829094,1.2833105022832751
1684200587443335000,0.0353349609375,1.8481728749930857,-1.0317164988711476,1.3317065766617655
1684200587453361000,0.04536083984375,3.9604128660023212,-0.8656646436661481,0.6124053373903036
1684200587463387100,0.05538720703125,6.211038998916745,-0.3501084459170699,0.7832797904461621
1684200587473412900,0.065412841796875,7.459815071174502,0.15893588571995496,0.6943085445731878
1684200587483438000,0.07543798828125,7.349955935573577,1.1967767126902937,-0.02080313405394554
1684200587493464000,0.085464111328125,6.1758028503626585,2.5780343789845706,-0.9897478271916508
1684200587503490000,0.095489990234375,5.0300744801253074,4.205008681090176,-2.0297168983623384
1684200587513516000,0.10551611328125,4.269646572956443,5.821039564377069,-2.8888468795627356
1684200587523542000,0.1155419921875,3.4225784932106733,7.259643796485662,-3.7408559228420257
1684200587533568000,0.125568115234375,4.529635479748249,7.576244232815504,-5.579122905370593
1684200587543593000,0.135593017578125,6.701269909012317,7.953643713501095,-7.325058810204267
1684200587553619000,0.145618896484375,7.585431163355707,7.850464494055509,-7.814499446704983
1684200587563645000,0.15564501953125,7.845643357509374,7.631914097589254,-8.100196795248985
1684200587573671000,0.1656708984375,6.78776278207302,7.687232080185413,-7.502291107854247
1684200587583697000,0.17569677734375,4.25388289437443,7.810916912043094,-6.781954388055205
1684200587593723000,0.185722900390625,3.005916384933889,8.584912741315364,-5.988111702540516
1684200587603748900,0.195748779296875,2.1435247715890404,9.476536586624384,-5.285175030353665
1684200587613773800,0.20577392578125,0.7841234016634523,10.14587377154827,-5.075655497083067
1684200587623799800,0.2157998046875,-0.6834440362095833,10.985784965276718,-3.883895443511009
1684200587633825800,0.22582568359375,-2.9233938768088814,11.528819829320907,-1.7803484620451926
1684200587643852000,0.23585205078125,-4.187493774926662,11.486849988597632,-0.664607818314433
1684200587653878000,0.2458779296875,-4.400702225843071,11.482986298906802,0.2658534149110317
1684200587663903000,0.255903076171875,-4.267822280138731,11.31845858452916,1.7396125470310448
1684200587673929000,0.265928955078125,-4.416176273828745,11.009779588848351,3.1859178550362586
1684200587683955000,0.275954833984375,-4.853292264330387,10.914807641255855,4.501331176283955
1684200587693981000,0.28598095703125,-5.144068523573875,11.279467467355728,5.886260516828298
1684200587704007000,0.2960068359375,-4.847961424696445,12.320384048509597,7.780465659677982
1684200587714033000,0.306032958984375,-4.6597266715168955,12.655475250297783,10.020147789251803
1684200587724059000,0.316058837890625,-4.50242364769578,11.642885768961905,12.827711639356613
1684200587734083800,0.326083740234375,-3.637181613355875,9.485715918380022,15.492624091327189
1684200587744109800,0.33610986328125,-2.234587436783314,7.137120409622788,16.21247448891401
1684200587754135800,0.3461357421875,-0.23212767091989517,5.553735366135835,16.40160706771612
1684200587764161800,0.356161865234375,1.5247358706414698,4.417254132193326,16.46893580610156
1684200587774187800,0.366187744140625,2.679264217928052,3.808180569574237,16.62594656897783
1684200587784213800,0.3762138671875,3.0020167471468446,3.256986364471912,17.287908256697655
1684200587794238700,0.38623876953125,2.9294477700203654,2.1616928809642793,17.529982152092455
1684200587804264700,0.3962646484375,4.079460101187229,0.37726679421663284,17.949385960292815
1684200587814291000,0.406291015625,5.451395520123839,-1.3920686909049749,18.011829264724252
1684200587824317000,0.41631689453125,6.530359215599298,-3.1300843241333958,17.819919037902356
1684200587834343000,0.426343017578125,6.73043345965445,-4.4398990947216745,17.492500270438192
1684200587844369000,0.436368896484375,2.8196634532213207,-2.9352573330819607,16.278783821123838
1684200587854393900,0.446393798828125,0.9885668007135391,-0.9949667308837175,14.963519552958012
1684200587864419800,0.456419921875,2.9369898559629917,-0.7765022591352463,12.641648969519137
1684200587874445800,0.46644580078125,3.7385137436300515,-0.8666004632115364,9.793329330655931
1684200587884471800,0.476471923828125,3.355818786884844,-1.108804122465849,6.82510145586431
1684200587894497800,0.486497802734375,2.5745930063590405,-1.1680939313024281,5.4958957561075685
1684200587904523800,0.496523681640625,2.0727645974501967,-0.7301110948383808,4.570351521018147
1684200587914549000,0.506549072265625,2.0663813261538744,-1.9527754052400588,2.5541303563058375
1684200587924575000,0.516574951171875,1.140949027006328,-2.335820782858133,2.7424498651593923
1684200587934600700,0.5266005859375,1.6960335175454615,-2.5357804606229064,3.87257325450778
1684200587944626700,0.536626708984375,3.2080683120459317,-2.8941093301355836,4.7325908321976655
1684200587954652700,0.546652587890625,5.583180071806908,-3.9875007794141766,3.8808074143677946
1684200587964679000,0.556678955078125,7.54717595924139,-5.011172795778513,2.232851991292834
1684200587974703900,0.566703857421875,8.012976776957512,-4.2193163156449796,0.8524854286193847
1684200587984730000,0.576730224609375,6.025737961101532,-2.210745957946777,1.6279314566999672
1684200587994756000,0.586756103515625,1.1058721606671809,-3.379994904503226,3.1202550040364265
1684200588004782000,0.596781982421875,2.462063774766028,-5.040926129007339,-2.6039023952126503
1684200588014808000,0.60680810546875,5.929990352961421,-4.019008847355843,-3.2012896116912364
1684200588024833800,0.616833740234375,3.1407752294957634,-3.3249002092689275,-0.6712345429778098
1684200588034859000,0.62685888671875,0.7535460387006402,-2.5854829414248464,2.0508377200633285
1684200588044885000,0.636885009765625,-1.338712363770604,-3.2628608094632625,3.658043199598789
1684200588054911000,0.646910888671875,-0.9240092806071043,-4.708775072324276,1.2125561733633279
1684200588064937000,0.65693701171875,-0.00920855785012245,-4.460249224311113,-0.446510426312685
1684200588074963000,0.666962890625,0.48270635980963705,-2.254497421389818,-2.213545817798376
1684200588084989000,0.676989013671875,0.6776473326295613,-1.9554367334038019,-3.6198511238485573
1684200588095014000,0.687013916015625,1.6142209112554788,0.1791591740593314,-4.515567206907272
1684200588105040000,0.697039794921875,1.4034567847512662,0.8208437974259257,-8.936239623111486
1684200588115065900,0.70706591796875,0.4308563455849886,2.891003765335679,-10.552044004166126
1684200588125091800,0.717091796875,1.1055261237084866,5.3283600920856,-11.317343316763639
1684200588135118000,0.7271181640625,1.3140268353253601,5.2458460595279925,-11.958153495383263
1684200588145144000,0.73714404296875,-1.6763000585496424,4.248516691166162,-11.784895362061262
1684200588155169000,0.7471689453125,-3.0332208637058735,2.7835283100008965,-9.295054814836382
1684200588165195000,0.757195068359375,-2.7503005786597727,2.045922475492954,-6.148611476576328
1684200588175221000,0.767220947265625,-3.65550520555377,1.0905980191677809,-4.459223972916603
1684200588185247000,0.7772470703125,-3.5628397813379764,1.1238175672024489,-4.880810385853052
1684200588195273000,0.78727294921875,-2.7761627496689556,0.6367600264459848,-7.856211513274908
1684200588205299000,0.797298828125,-1.0956932964801787,1.2091191846519709,-7.827078942292928
1684200588215324000,0.807323974609375,2.4834277575731276,2.123908216971159,-6.216487327450514
1684200588225350000,0.817349853515625,3.2315514789640902,3.9100586432933806,-5.901484973967075
1684200588235375900,0.8273759765625,1.9313306122817098,5.830705218344926,-3.790341546022892
1684200588245401900,0.83740185546875,-0.9189058199882507,5.791839773377776,1.557973538854718
1684200588255427800,0.847427734375,-2.817451622390747,6.157955058982968,8.320733397096395
1684200588265453800,0.857453857421875,-1.9606148666940628,10.221058484131097,15.395806223607062
1684200588275478800,0.867478759765625,-0.9391361225903033,13.302876497745514,17.872928159034252
1684200588285504800,0.8775048828125,-0.8029704332135618,11.510205145221947,17.467019792222974
1684200588295530800,0.88753076171875,0.6136719963252544,6.1657607642978425,14.79637902573347
1684200588305557000,0.897556884765625,4.764630815058946,0.27713351833820343,10.90873679690957
1684200588315583000,0.9075830078125,6.9050833395957945,-2.2410259453982113,6.909750162363052
1684200588325609000,0.91760888671875,7.433612708425521,-1.6128116289794443,3.4285195736974474
1684200588335634000,0.927634033203125,6.70589113907218,-1.3507377326071262,1.5979793860286473
1684200588345660000,0.937659912109375,5.821856725978851,-1.9458517434567213,0.19127514378875493
1684200588355686700,0.947686767578125,4.186393704730272,-2.3167209455907343,-0.6300479615867137
1684200588365712600,0.957712646484375,1.9957072228632866,-2.629820095801353,-0.9915516617432236
1684200588375738600,0.967738525390625,0.6650304276406764,-2.6364070729762314,-0.16165186668038367
1684200588385764600,0.9777646484375,-0.14104863911271096,-2.083075855845213,0.16049539012163877
1684200588395789600,0.98778955078125,-2.7531121289491653,-2.1242355492293834,-1.090528753323853
1684200588405815600,0.997815673828125,-4.317816437363624,-2.486398297816515,-4.453066619330644
1684200588415841500,1.007841552734375,-5.9207321107506745,-2.2633967671602964,-7.638402875086665
1684200588425867500,1.017867431640625,-5.720660789304971,-2.8646681315958498,-10.211097062087058
1684200588435893500,1.0278935546875,-4.323490975868702,-3.820994458439946,-11.181209337699412
1684200588445919700,1.037919677734375,-2.580334472620487,-3.720850661167502,-9.881634806096553
1684200588455944400,1.0479443359375,-2.0675579687178134,-3.9150235722243782,-7.6467223751425735
1684200588465970700,1.057970703125,-2.014513776272535,-4.110008968707919,-4.232380379879475
1684200588475996700,1.06799658203125,-1.9810195029497146,-3.6184967866301534,-0.6629831397220491
1684200588486022700,1.078022705078125,-0.3568447684347629,-0.6957400386810302,3.789328569588065
1684200588496048600,1.088048583984375,3.480262035894394,1.375065533655882,8.515175772744417
1684200588506074600,1.09807470703125,4.428541834405064,2.543996500304341,12.029836921846865
1684200588516099600,1.108099609375,3.523799564325809,2.540960493609309,15.154295807313918
1684200588526125600,1.11812548828125,2.408203297501802,1.3601613945126532,15.883337227094172
1684200588536151600,1.128151611328125,1.00590956518054,-0.2136567792057991,12.755021666198967
1684200588546177500,1.138177490234375,-0.3527800397465005,-0.33150632903873917,10.232439125323294
1684200588556203500,1.14820361328125,-1.0691291146814823,0.7404337514102458,7.9554031243890515
1684200588566229500,1.1582294921875,-1.3092553831398486,0.13011632620990277,4.1046278601914645
1684200588576254700,1.168254638671875,-1.919456488484144,-3.024019904640317,-1.948644004523754
1684200588586280700,1.17828076171875,-2.716202494224906,-4.273849285343289,-7.1876727852523326
1684200588596306700,1.188306640625,-2.2839187461853028,-4.386175103318691,-10.902118840074538
1684200588606332400,1.19833251953125,-1.2934814754247665,-2.666916777530312,-13.045505664497613
1684200588616358700,1.208358642578125,0.2656294334294274,-0.01977496004998684,-12.236348505473137
1684200588626384600,1.218384521484375,0.7977262489497661,-0.5639724381327629,-8.954466184675693
1684200588636409900,1.228409912109375,0.3147206139326095,-2.5945430307149886,-5.402687895578146
1684200588646435800,1.238435791015625,-0.049068274551630015,-3.9217005657702684,-3.3355262327015396
1684200588656461800,1.2484619140625,-0.3529594514340162,-4.5664738028019665,-2.5913819363355635
1684200588666487800,1.25848779296875,-0.4700210657596588,-4.507373379057645,-2.5633696015551686
1684200588676513800,1.268513671875,-0.8523112410962581,-4.5515094579041,-2.7201357420206067
1684200588686539800,1.278539794921875,-1.3959282889425755,-4.56213957298994,-2.8340114197865125
1684200588696564700,1.288564697265625,-2.058576205360889,-4.2122044378131624,-3.1383640767008063
1684200588706590700,1.2985908203125,-2.2919407245993613,-4.119582852739096,-3.3591578681796785
1684200588716616700,1.30861669921875,-2.5069886659026146,-2.9428409200787544,-3.0166981834501025
1684200588726642700,1.318642578125,-2.0539432848632333,-3.0510616408228874,-2.304377596846223
1684200588736668700,1.328668701171875,-1.3517980553150175,-2.7492881867468357,-0.8572647718504071
1684200588746694700,1.338694580078125,-0.8960568593204021,-2.068450533643365,0.18679390672147272
1684200588756720600,1.348720703125,-0.026442601245641708,0.0417056368291378,0.7459072143852711
1684200588766745600,1.35874560546875,1.660086590373516,3.1905297327458855,-0.41000791108459234
1684200588776771600,1.368771484375,0.937932007497549,3.687413086467981,0.14867869559973476
1684200588786797800,1.3787978515625,-1.1184130778104067,1.4509996033012866,-0.21167378869503736
1684200588796823800,1.38882373046875,1.0271604430019854,8.27413531205058,6.301517726743221
1684200588806849800,1.398849853515625,3.1082699672102927,19.949804575717447,11.947068622267246
1684200588816874800,1.408874755859375,4.1274247984111305,26.272870117402075,14.057766644531487
1684200588826900700,1.418900634765625,4.121656736403703,18.40020314388871,9.544912788236141
1684200588836926700,1.4289267578125,3.15419117590785,4.417832224342226,3.885136968004703
1684200588846952700,1.43895263671875,1.3557915088653563,-3.104394002559781,0.45441871521919963
1684200588856978700,1.448978759765625,-0.5757493851661681,-3.636877077451348,-1.729854538604617
1684200588867004700,1.459004638671875,-0.5368173047035932,-3.0496961976885792,-1.3904878514543175
1684200588877029600,1.469029541015625,0.3665618603289127,-1.7265525744497776,-0.9075462215840816
1684200588887055600,1.4790556640625,0.9576496844023465,-0.02748246568739414,-1.1861214631631969
1684200588897081600,1.48908154296875,1.1648200241982936,1.2122364398896694,-1.7190762472197412
1684200588907107600,1.499107666015625,0.8238631452471017,1.309228495132923,-1.9992858120024204
1684200588917133600,1.509133544921875,-0.16139116991758345,1.3524217401713132,-2.6614889072626826
1684200588927159600,1.51915966796875,-1.444991887319088,1.432626911264658,-3.2819732139512894
1684200588937184500,1.5291845703125,-1.5692150638371705,-0.46252340348064896,-2.368167931972444
1684200588947210500,1.53921044921875,-1.2596546091467142,-1.9689561401903628,-1.0352475956067442
1684200588957236500,1.549236572265625,-0.9664075758755206,-1.8395365640729664,0.031899697607755656
1684200588967262700,1.5592626953125,-0.5700199746686965,-1.2566454904586075,0.6616153585001826
1684200588977288700,1.569288818359375,0.07981178786158562,-0.8867541934460401,0.6897618410542606
1684200588987314700,1.579314697265625,0.4594184232026338,-0.6166559805721045,0.67352820687294
1684200588997340700,1.589340576171875,0.5290419945269823,-0.3191097888022661,0.8764356285274029
1684200589007365600,1.59936572265625,0.5490414109826087,0.3678822952777147,1.1107312911361455
1684200589017391600,1.6093916015625,0.5500227501701563,1.0448556741684674,0.9540949145302176
1684200589027417600,1.61941748046875,0.48264907666444773,0.8471113343656063,0.49191813253015276
1684200589037443600,1.629443603515625,0.3744873926311731,0.6381447588026523,0.10395604903697966
1684200589047469600,1.639469482421875,0.3732167151082307,0.47123920937776564,-0.25677958935648204
1684200589057494500,1.64949462890625,0.40173736473694444,0.2682873640596867,-0.5344178423464298
1684200589067520500,1.6595205078125,0.4558652607657015,0.22877309979498386,-0.8132783306077123
1684200589077546500,1.66954638671875,0.616677680947259,0.2583253574937582,-0.7489069807231425
1684200589087572500,1.679572509765625,0.7521300344228744,0.23500410313904285,-0.4727656882926821
1684200589097598500,1.689598388671875,0.7628397175509483,0.096521515122056,-0.21665917589217423
1684200589107624400,1.69962451171875,0.7698363715052604,0.007738485297560691,-0.2331999763265252
1684200589117650700,1.709650634765625,0.9362053298354148,0.15429273608922958,-0.30686843912750483
1684200589127675600,1.719675537109375,0.8799234706431627,0.7726175266563892,-0.4024512120947242
1684200589137701600,1.72970166015625,0.6142506729960441,0.7139677692890167,-0.4763122748583555
1684200589147727600,1.7397275390625,0.46727388594336805,0.5997293956905603,-0.19071283373087644
1684200589157753600,1.749753662109375,0.08705518311858176,0.4616998121380806,0.01959405052512884
1684200589167779600,1.759779541015625,-0.42477563743181523,0.1374865627169609,0.22106062572151422
1684200589177805600,1.7698056640625,-0.8237807276606559,-0.2684171279191971,0.4591846144467592
1684200589187830800,1.779830810546875,-1.055628997117281,-0.5836947912126779,0.7346542912259697
1684200589197856800,1.789856689453125,-1.0810334874868393,-0.8580681971877813,0.940915991744399
1684200589207882800,1.7998828125,-0.8895722465414553,-1.0170020370811224,1.0240119158431886
1684200589217908700,1.80990869140625,-0.569450065826252,-1.0462900908857584,0.9658721538245677
1684200589227934700,1.819934814453125,-0.21525836918354033,-0.9866168356895446,0.9372899102017282
1684200589237960700,1.829960693359375,0.08633205647580325,-0.8572878604650497,0.9840697815552353
1684200589247985700,1.839985595703125,0.35301980331912636,-0.7058399924129247,1.0316855192109942
1684200589258011600,1.85001171875,0.5659031869996338,-0.6166495508313179,1.014719771362841
1684200589268037600,1.86003759765625,0.7243681672722101,-0.5417442397117614,0.9149649734079838
1684200589278063600,1.870063720703125,0.8347066108226776,-0.42069326348900793,0.7785670827105641
1684200589288089900,1.88008984375,0.8955816430240869,-0.24624445907771586,0.589731733289361
1684200589298115800,1.89011572265625,0.8878384815514088,-0.1531985111117363,0.32856004645377396
1684200589308140800,1.900140869140625,0.8639501678984611,-0.16381401315033434,0.08531067753881215
1684200589318166800,1.910166748046875,0.7781764028925449,-0.2800204719513655,-0.03700841892361641
1684200589328192800,1.92019287109375,0.7003080772489308,-0.4303267687529325,-0.05764934815317392
1684200589338218800,1.93021875,0.585528509445861,-0.44713528021275994,0.045751697349548336
1684200589348243700,1.94024365234375,0.46507710655145346,-0.36341362543106076,0.23973230070471763
1684200589358269700,1.950269775390625,0.36769700183868403,-0.2743073550015688,0.48025136787295336
1684200589368294700,1.960294677734375,0.28977672681212424,-0.1927911013096571,0.7167749356642366
1684200589378320600,1.970320556640625,0.23303484889268875,-0.18235855462253092,0.8589920340344309
1684200589388346600,1.9803466796875,0.25705636047124863,-0.3077683105766773,0.8393678806319832
1684200589398372600,1.99037255859375,0.3597252923071384,-0.44592356633543967,0.7912357178866862
1684200589408398600,2.000398681640625,0.47035424323678016,-0.4369716135948896,0.7947475253999233
1684200589418424600,2.010424560546875,0.5404244623500853,-0.3058008098959923,0.7735565610721706
1684200589428449500,2.020449462890625,0.6256956115961074,-0.23436931236684322,0.6782385765209794
1684200589438475500,2.0304755859375,0.7507435485005378,-0.21129823338091372,0.5699021204426884
1684200589448501500,2.04050146484375,0.9083096071720123,-0.19574644398391244,0.45703065128326414
1684200589458527700,2.05052783203125,1.0170856967765838,-0.12301146264076232,0.3793602593645453
1684200589468553700,2.0605537109375,1.0803788229703903,-0.13495324484705923,0.2983560468479991
1684200589478579700,2.070579833984375,1.1268066660158336,-0.2483551676213741,0.2142880628466606
1684200589488604700,2.080604736328125,1.0565338370025157,-0.33231355376839633,0.1865060296908021
1684200589498630700,2.090630615234375,0.9798574245572089,-0.3351683586776256,0.13520429699867964
1684200589508656600,2.10065673828125,0.8948702798843383,-0.32393501700162886,0.06508709693849087
1684200589518682600,2.1106826171875,0.7947376615930348,-0.24766601631343363,-0.01625175435990095
1684200589528708600,2.12070849609375,0.6583744768828154,-0.059569210299849504,-0.057259179791808126
1684200589538734600,2.130734619140625,0.52113173285909,0.11164718806147575,-0.04732990645170212
1684200589548759800,2.140759765625,0.44532625802941617,0.10066226818859576,-0.028147651597857475
1684200589558785800,2.150785888671875,0.39171668678633864,-0.0667804568529129,-0.0370414444103837
1684200589568811800,2.160811767578125,0.3237970698356628,-0.2738181101799011,-0.0028580197796225547
1684200589578837800,2.170837646484375,0.24393610907010732,-0.3507406063407659,0.1745955194056034
1684200589588863500,2.180863525390625,0.14143091642856598,-0.2474281159043312,0.4698983161628246
1684200589598889500,2.190889404296875,0.050131519868969916,-0.12402911525070666,0.7659183212786912
1684200589608914700,2.200914794921875,-0.024015593294426797,-0.0979547627955675,0.9553305938050151
1684200589618940700,2.210940673828125,-0.044794688885658976,-0.13518354647159575,0.9993120666116475
1684200589628966700,2.220966552734375,-0.04980177645795047,-0.19512451269328593,1.0097779310464858
1684200589638993000,2.230992919921875,-0.004944982121512294,-0.24962124203443525,1.0332950002342463
1684200589649019000,2.241018798828125,0.06960844682045281,-0.2786111896753311,1.0453232916802166
1684200589659044900,2.251044921875,0.17218904278576372,-0.26037469123899937,1.0085887212619185
1684200589669069800,2.26106982421875,0.2698661576837301,-0.21474398992061614,0.9608855975836514
1684200589679095800,2.271095703125,0.33979083084650336,-0.18345511768758296,0.9373623909160494
1684200589689121800,2.281121826171875,0.33345987425930795,-0.15945581794083116,1.04557814322412
1684200589699147800,2.291147705078125,0.25197043550908566,-0.04598258349597454,1.3122080954656004
1684200589709173800,2.301173828125,0.14694873000197112,0.054879006657004355,1.6330764183729887
1684200589719199700,2.31119970703125,0.08038922242335975,-0.011519172880053519,1.8569091391563415
1684200589729224700,2.321224609375,0.07708448178954422,-0.2104723039507866,1.955695384339988
1684200589739250700,2.331250732421875,0.11073000015132128,-0.38869887333512304,1.8933195921868085
1684200589749276700,2.341276611328125,0.2002244661808014,-0.4701297868311405,1.7375480157166718
1684200589759302700,2.351302734375,0.3350648983031511,-0.35281390548348424,1.5514818387478588
1684200589769328600,2.36132861328125,0.6156150201518088,-0.037141105392575265,1.3128171672746538
1684200589779354600,2.371354736328125,1.0789905834823845,0.2815735466122627,1.0396353091716766
1684200589789379600,2.381379638671875,1.6048405039697884,0.45824996394515033,0.8607055599540472
1684200589799405600,2.391405517578125,2.209316217404604,0.46102001318037505,0.831315214818716
1684200589809431800,2.401431884765625,2.9605057561069725,0.36618542823195455,0.9559253448277711
1684200589819457800,2.411457763671875,3.8226907409638162,0.2650041046053171,1.2396931866139174
1684200589829483800,2.42148388671875,4.718407993066311,0.08744096756577491,1.5903671574592588
1684200589839509800,2.431509765625,5.1513744626730675,-0.07816460517644881,1.9291630589842794
1684200589849534700,2.44153466796875,5.198568175524473,0.04520692294836044,2.235160852757096
1684200589859560700,2.451560791015625,5.211330041942,0.2593400874942541,2.5526944782838226
1684200589869586700,2.461586669921875,4.493403890416026,0.4043827646791935,2.585584648233652
1684200589879612700,2.47161279296875,2.939258969938755,0.6150608203351497,1.984593854305148
1684200589889638700,2.481638671875,0.5094388108473271,0.8679828574806451,1.3080670501381158
1684200589899664600,2.49166455078125,-1.581937182766199,1.1469622959464787,1.0664914596542716
1684200589909690600,2.501690673828125,-3.860336873269081,1.46867320715785,0.9885784911513328
1684200589919715600,2.511715576171875,-5.525728584313392,1.4663818813502787,1.1343123654708265
1684200589929741600,2.521741455078125,-6.180460905301571,1.5903537134557961,1.502301335993409
1684200589939767600,2.531767578125,-5.835098484867811,1.7653133899986744,2.0822838286846874
1684200589949793500,2.54179345703125,-4.389282421684265,1.7519126411557198,2.514871528106928
1684200589959819800,2.55181982421875,-3.455790442460775,1.427141757851839,2.8843448919683694
1684200589969845800,2.561845703125,-3.552826921367645,1.000088896203041,2.9698680432140825
1684200589979870700,2.57187060546875,-3.8215398173630235,0.37945758225917814,2.6293846269935366
1684200589989896700,2.581896728515625,-2.8282658618718384,-0.05056815772056579,2.138054231223464
1684200589999922700,2.591922607421875,-1.875605802450329,0.01731178480684757,1.8663240332335234
1684200590009948700,2.60194873046875,-1.8474796320319176,0.044619478449225425,1.4826438648432492
1684200590019974700,2.611974609375,-1.3383039291001855,0.32021570421755313,0.8006874368429183
1684200590030000600,2.622000732421875,-2.033699245996773,0.7270400168299674,-0.13505202904641628
1684200590040025600,2.632025634765625,-2.2507379227258264,0.5445540364354848,-0.9935019190281629
1684200590050051600,2.642051513671875,-2.044710761615634,0.9785773216187953,-1.4852508324712514
1684200590060077600,2.65207763671875,-2.130585795038938,0.7804261545807123,-1.3071370758116245
1684200590070103600,2.662103515625,-0.9351286405146122,0.9095195674836635,-1.1115519598692656
1684200590080129500,2.672129638671875,-0.8105708252146839,1.215092413842678,-1.032439260187745
1684200590090155500,2.682155517578125,-1.482206057947874,1.1525906572222708,-1.317192021358013
1684200590100180700,2.6921806640625,-1.9521999434396624,0.8428981005847453,-1.8588257864326239
1684200590110206700,2.702206787109375,-2.3655115722447633,0.6425222432345151,-2.5161586453080176
1684200590120232700,2.712232666015625,-1.963970752993226,0.6606517741650343,-3.2467917181938883
1684200590130258700,2.7222587890625,-1.3299687930837272,0.6751794812113047,-3.5800977901309725
1684200590140284700,2.73228466796875,-1.3334689101591706,0.5509644879996777,-3.211909205383062
1684200590150310700,2.742310546875,-0.8819710508227347,0.4256546852886677,-2.9417098702222106
1684200590160336000,2.7523359375,-1.0818801674440504,0.15395137530565262,-2.3922306523442267
1684200590170361900,2.76236181640625,-1.2381135162070394,-0.06648702686429023,-1.8262953897058962
1684200590180387800,2.772387939453125,-1.2370832963764666,-0.10397358469367027,-1.6997563374608755
1684200590190413800,2.782413818359375,-1.545137145896256,-0.07556757442057133,-1.5303496188700199
1684200590200439800,2.792439697265625,-0.854357359971106,0.010338438662886619,-2.088288622057438
1684200590210465800,2.8024658203125,-1.1687927272215486,0.020844635108113286,-2.229023372915387
1684200590220490800,2.81249072265625,-1.0916697400525213,0.020106968483328817,-2.184321476879716
1684200590230516700,2.822516845703125,-0.8274529864326119,-0.11712298912405968,-2.0621008723556993
1684200590240542700,2.832542724609375,-0.8238093692332505,-0.39877719975709913,-1.7929875788658856
1684200590250568700,2.842568603515625,-1.1974153028547763,-0.7596423097491264,-1.1610773305386304
1684200590260594700,2.8525947265625,-1.502170987612009,-1.015046226838231,-0.5924000757157802
1684200590270620700,2.86262060546875,-1.1644573283657431,-1.1914034952193497,-0.6236152981907129
1684200590280645600,2.872645751953125,-0.9005223142966627,-1.177212472781539,-0.8555307876646518
1684200590290671600,2.882671630859375,-0.7127347203627228,-1.0916431443065404,-1.1984779636502265
1684200590300697900,2.89269775390625,-0.6279477744370698,-1.02994978145957,-1.429193429684639
1684200590310723800,2.902723876953125,-0.6200844937160611,-1.0935048465251922,-1.681578875735402
1684200590320749800,2.912749755859375,-0.4652279862642288,-1.195683364495635,-1.9848352618455887
1684200590330775800,2.92277587890625,-0.2931169771507382,-1.2200170107632875,-2.1977613886892793
1684200590340801800,2.9328017578125,-0.10884148299098015,-1.0742261455595492,-2.255419212409854
1684200590350827000,2.942826904296875,0.08904606467485428,-0.8286965567529201,-2.1165099234133957
1684200590360853000,2.95285302734375,0.13813976592868565,-0.5658972687155008,-1.8842939896881579
1684200590370879000,2.96287890625,0.10504092166423797,-0.3673030340850353,-1.6043109271377325
1684200590380905000,2.972905029296875,0.13974895469099283,-0.2095785699814558,-1.2355898429483174
1684200590390931200,2.98293115234375,0.16359744779020546,-0.07361994748413563,-0.7885778968542814
1684200590400957200,2.992957275390625,0.2345826628565788,-0.04840659577250481,-0.31806174105405804
1684200590410982100,3.002982177734375,0.4145781416095793,0.008686579802632332,0.0762608173817396
1684200590421008100,3.013008056640625,0.6192999192096292,0.16425357361137866,0.47269759149253365
1684200590431034000,3.0230341796875,0.5152580915853381,0.2934732432425022,0.8424789983898401
1684200590441060000,3.03306005859375,0.17684812063798308,0.3605705109596252,1.0557616835862398
1684200590451086000,3.043086181640625,-0.2483469843149185,0.372253349968791,1.0824304948031902
1684200590461112000,3.053112060546875,-0.6313328137654811,0.25802082158923145,0.9070055388361216
1684200590471137000,3.063136962890625,-0.7648189817346632,-0.019159458500146866,0.7053577618539333
1684200590481163000,3.0731630859375,-0.5585993667922914,-0.21335575043261049,0.6235767197459936
1684200590491189000,3.08318896484375,-0.21300211468935012,-0.17087796018719673,0.6201029061555862
1684200590501215000,3.093215087890625,0.18997903956361115,-0.1018108537018299,0.6095148766458034
1684200590511241000,3.103240966796875,0.6514251692015677,-0.010581599768996239,0.49227322957813735
1684200590521267000,3.113266845703125,1.0908674837589263,0.004942717099189758,0.3723077105045318
1684200590531292000,3.1232919921875,1.3317208974480628,0.05739888052344322,0.27424831829071045
1684200590541318000,3.13331787109375,1.354731186157465,0.12315993120074271,0.2188806513339281
1684200590551343900,3.14334375,1.1099836876392364,0.15007950230836867,0.13429098154604435
1684200590561370000,3.1533701171875,0.6631564504623413,0.18153554780185222,0.009613631519675253
1684200590571396000,3.16339599609375,0.27607551545156167,0.2864233247309923,-0.1095621984809637
1684200590581422000,3.173422119140625,0.20294833818674085,0.40164311058223245,-0.2139613151103258
1684200590591447000,3.183447021484375,0.3584498655438423,0.4649631978482008,-0.30073417415618897
1684200590601473000,3.19347314453125,0.5751075801312923,0.44293841304481024,-0.463474420595169
1684200590611499000,3.2034990234375,0.9045406100273132,0.34671968026161193,-0.5265104302227497
1684200590621525000,3.21352490234375,1.2508435261815785,0.24448797079920767,-0.42299452616870403
1684200590631551000,3.223551025390625,1.2207622761726378,0.17707272317409514,-0.07599895157516003
1684200590641577000,3.233576904296875,0.8753507559001446,0.18583587534427642,0.28717618892490865
1684200590651602000,3.243601806640625,0.6346802975624799,0.42481355828940864,0.7007154890060424
1684200590661628000,3.2536279296875,0.6236246505409478,0.8596580967277287,1.165017008075118
1684200590671654000,3.26365380859375,0.6414449693918228,1.5233020384460687,1.6732061841875314
1684200590681680000,3.273679931640625,0.7316770289808512,2.4023247608572245,2.3106202906280755
1684200590691705900,3.283705810546875,0.9441898988485335,3.2219144665688275,3.194649150763452
1684200590701731800,3.29373193359375,1.06646603295207,3.388620694029331,4.162494358226657
1684200590711758000,3.303758056640625,0.9051730627119541,2.4515613777130842,4.6093028907030815
1684200590721783000,3.313782958984375,0.4050029424041509,0.6464134054541587,4.028507912585139
1684200590731809000,3.32380908203125,-0.07317099814023822,-1.209133797699213,2.7073312055051324
1684200590741835000,3.3338349609375,-0.21931553561985492,-2.5364579214930534,1.383308753605187
1684200590751861000,3.343861083984375,-0.16937456988692282,-3.2599937295943495,0.40429508639574047
1684200590761887000,3.353886962890625,-0.18187807762920855,-3.3453438623607155,-0.23208967699706554
1684200590771913000,3.363912841796875,-0.3651408876150846,-2.642635153710842,-0.679319065234065
1684200590781938200,3.373938232421875,-0.6624515170633792,-1.6308803696334362,-0.8481704880297184
1684200590791964200,3.383964111328125,-0.8172983799040318,-0.7876964378446341,-0.8059408273264765
1684200590801990100,3.393990234375,-0.812327605754137,0.05651449890434742,-0.6059428633779287
1684200590812016000,3.40401611328125,-0.7607248442888259,0.717029494947195,-0.3640799803853035
1684200590822042000,3.4140419921875,-0.6118722534269094,1.107149925518036,-0.27333237248957154
1684200590832067800,3.42406787109375,-0.3776999249368906,1.2361843017101286,-0.20239070430397987
1684200590842093000,3.434093017578125,-0.17606266934871673,0.9769090961456298,-0.26972119625508784
1684200590852119000,3.444119140625,-0.10479191533923149,0.39326048216223713,-0.5183934670016169
1684200590862145000,3.45414501953125,-0.04304419195652008,-0.22695523671805856,-0.6927250747740268
1684200590872171000,3.4641708984375,0.028799375238548964,-0.6638859337806702,-0.7182637129172682
1684200590882197000,3.474197021484375,0.031924229260813446,-0.8160895886361599,-0.5844973397672176
1684200590892223200,3.48422314453125,-0.08194528362578712,-0.6602648206740618,-0.3331821532964706
1684200590902248000,3.494248046875,-0.15192308434844015,-0.2870142763614654,-0.006574994476139545
1684200590912274200,3.504274169921875,-0.0052653640491422266,-0.010147300004959106,0.2118038448154926
1684200590922300200,3.514300048828125,0.18164309982955454,0.49856385415494436,0.5093015212684869
1684200590932326100,3.524326171875,0.384931629756093,0.6217483352750539,0.5708417393803596
1684200590942352100,3.53435205078125,0.5791425347357988,0.3729255501419306,0.5879661849215626
1684200590952378000,3.544378173828125,0.4823883799016475,-0.14620295313596723,0.6872279386624693
1684200590962403000,3.554403076171875,0.005033911647135392,-0.801667095530033,0.9688032388404011
1684200590972429000,3.564428955078125,-0.9095476245343684,-1.3750842383563517,1.4937176320433616
1684200590982455000,3.574455078125,-1.4044605549663305,-1.2511083145976065,1.8298647726252675
1684200590992481000,3.58448095703125,-1.671058066242933,-0.7355757899850607,2.103525938677788
1684200591002507000,3.594507080078125,-1.5340443817347287,-0.21060908207297324,2.0701362947732207
1684200591012533000,3.604532958984375,-0.6656435911029577,0.23299100975096224,1.5145950003772972
1684200591022559000,3.61455908203125,-0.06227203951776027,0.467943090441823,0.7862357176423073
1684200591032584000,3.624583984375,0.15915712725520134,0.45698272048830985,0.2422778935343027
1684200591042610000,3.63460986328125,0.25901158619225023,0.2944108163535595,-0.14263327795565128
1684200591052636000,3.644635986328125,0.06376784016662276,0.07006546987295151,-0.43032092353403567
1684200591062662100,3.654662109375,-0.33814825127124787,-0.013607669591903685,-0.6279097805142402
1684200591072688000,3.664688232421875,-0.6539537378311157,-0.09976093543469905,-0.9149073980018496
1684200591082714000,3.674714111328125,-1.1231687479048966,-0.22761866906285286,-1.034580363869667
1684200591092739000,3.684739013671875,-1.5630939506083725,-0.2156511678934097,-1.044554645395279
1684200591102765000,3.69476513671875,-1.7322738747060298,0.07902969757318497,-1.0053756044343114
1684200591112791000,3.704791015625,-1.7633336143583058,0.32491935186386106,-1.1022300047725437
1684200591122817000,3.714817138671875,-1.6129752951085568,0.5187058939516545,-1.3180652970612048
1684200591132843000,3.724843017578125,-1.296052202695608,0.6589981617391109,-1.6121245234981179
1684200591142869000,3.734868896484375,-0.7063959457952529,0.5612327840358019,-1.8040899876385925
1684200591152894000,3.74489404296875,0.012344554320909083,0.41261750906109806,-1.7881848547592758
1684200591162920000,3.754919921875,0.6753168438553809,0.285250773820281,-1.6209698009938
1684200591172946000,3.76494580078125,1.0011422046482563,0.10364449886977672,-1.2831786925971507
1684200591182972000,3.774971923828125,0.9165209706783294,0.02289806050658226,-0.6828235662236809
1684200591192998000,3.784997802734375,0.4867962594717741,0.00589724134504795,-0.17188421462029219
1684200591203024000,3.79502392578125,0.019986593506671486,0.09167349056899547,0.008208148635923862
1684200591213048800,3.805048828125,-0.299133716689609,0.2108206789970398,0.043698271951079365
1684200591223074800,3.81507470703125,-0.3943499944319948,0.23664719417095184,0.054449383068084715
1684200591233101000,3.82510107421875,-0.40053134994804857,0.13196049277186392,0.05156447528153658
1684200591243127000,3.835126953125,-0.3002526011843234,0.01326455524265766,-0.029191607692837712
1684200591253153000,3.845153076171875,-0.190176534897089,-0.1582692385047674,-0.07956745771169663
1684200591263179000,3.855178955078125,-0.10272665337249635,-0.2532926240235567,-0.08127747649997473
1684200591273204000,3.865203857421875,-0.024828736308217046,-0.24970716675221918,-0.008529635675251484
1684200591283230000,3.87522998046875,0.10161379675976931,-0.24360768083333967,0.07654957119524479
1684200591293256000,3.885255859375,0.23086926835663615,-0.25070669918358324,0.1762432866126299
1684200591303282000,3.895281982421875,0.36470951046049593,-0.17484511025249957,0.32602029884308575
1684200591313308000,3.905307861328125,0.5233838226348161,-0.06902560543119907,0.502790531939268
1684200591323334000,3.915333984375,0.6974982074599713,-0.04624094217121601,0.6664855948850512
1684200591333359900,3.92535986328125,0.8637930776406079,-0.1336784026056528,0.761241269378364
1684200591343385000,3.935385009765625,0.972921487814188,-0.23581015882492065,0.7856853902831673
1684200591353410600,3.94541064453125,1.0317285546351223,-0.30228374168574806,0.8047922418132424
1684200591363436500,3.9554365234375,0.9981032022785394,-0.3647106795042753,0.76713295776546
1684200591373462500,3.965462646484375,0.8663824365466832,-0.43310149416327476,0.7351099260389804
1684200591383488500,3.975488525390625,0.7453554987866431,-0.4727262330651283,0.7767723082482815
1684200591393514500,3.985514404296875,0.621505758690834,-0.43255204358696936,0.869695214356482
1684200591403539500,3.99553955078125,0.499648142260313,-0.3365349708557129,0.9161734724149108
1684200591413565400,4.0055654296875,0.36348033399172125,-0.1857405982762575,0.9744465054243803
1684200591423591400,4.01559130859375,0.3111247083324939,-0.11123685369491576,0.9234919787347317
1684200591433617400,4.025617431640625,0.3466764256417751,-0.24052257429957388,0.8460898823633789
1684200591443643400,4.035643310546875,0.4168902910094708,-0.4860539166718721,0.7975394942060112
1684200591453669400,4.04566943359375,0.4758978488385677,-0.7013830130040645,0.7464341608688235
1684200591463694300,4.0556943359375,0.5184639018893241,-0.8060708834469318,0.6590957768946886
1684200591473720300,4.06572021484375,0.6138508600234985,-0.7720785974740981,0.568138617901504
1684200591483746300,4.075746337890625,0.803162887045741,-0.6706482675224542,0.42886955568194385
1684200591493772500,4.0857724609375,0.9925555780887603,-0.5472755703538655,0.23794629407078027
1684200591503798500,4.095798583984375,1.102138234835863,-0.3919154972940683,0.05553834734857082
1684200591513824500,4.105824462890625,1.067460304686427,-0.23630349529981612,-0.06390986985266209
1684200591523849500,4.115849365234375,0.9610920799411833,-0.16836743867099285,-0.06747545337975025
1684200591533875500,4.12587548828125,0.8454945468187332,-0.09673018943667411,0.03610065642893314
1684200591543901400,4.1359013671875,0.7503127558678389,-0.07082417928576469,0.10659808797836304
1684200591553927400,4.145927490234375,0.6814543236970901,-0.13724924682974815,0.11985972061157225
1684200591563953400,4.155953369140625,0.5935457386195659,-0.1852911009430885,0.1388549284607172
1684200591573979400,4.1659794921875,0.4974012401163578,-0.21010873133540153,0.12861761208474634
1684200591584005400,4.17600537109375,0.4096580016683787,-0.21230770268440247,0.08690963716804981
1684200591594030300,4.1860302734375,0.37414537426047023,-0.1909352443099022,0.11809387998282908
1684200591604056300,4.196056396484375,0.31881168263852594,-0.2315285359829664,0.14186901558488607
1684200591614082300,4.206082275390625,0.22462131387777626,-0.3403437154889107,0.2309817157551646
1684200591624108300,4.2161083984375,0.13929390439987183,-0.4714624967396259,0.40837095753252506
1684200591634134300,4.22613427734375,0.004985971719026565,-0.5508429074466228,0.6203668177887797
1684200591644160500,4.236160400390625,-0.15872640768773852,-0.539872600620985,0.8817606229424476
1684200591654185200,4.246185302734375,-0.3518541205406189,-0.5490343967199325,1.1440478698045016
1684200591664211500,4.25621142578125,-0.5303115395387634,-0.5559042824894189,1.3654744062289594
1684200591674237400,4.266237548828125,-0.6727163059681653,-0.5094733707040549,1.5599062604829668
1684200591684263400,4.276263427734375,-0.8210317212134599,-0.3838531868696213,1.7591653887629508
1684200591694289400,4.286289306640625,-0.9217243845403194,-0.2730342663258314,1.8873460707351564
1684200591704315400,4.2963154296875,-0.9660252985596656,-0.20294541557729243,1.9861665104493498
1684200591714340400,4.30634033203125,-0.9804156429618597,-0.13396890998482702,2.1355779042378065
1684200591724366300,4.316366455078125,-0.9896388138592243,0.052037645751237864,2.2650004029646515
1684200591734392300,4.326392333984375,-0.9913117155075073,0.24827216551303863,2.2611904892876744
1684200591744418300,4.336418212890625,-0.9259574190001935,0.28190263243615626,1.9894208360701797
1684200591754444300,4.3464443359375,-0.7037491576135159,0.2121013664573431,1.3711851850911974
1684200591764470300,4.35647021484375,-0.27541560850441454,0.11299801814854145,0.5606359871864318
1684200591774495500,4.36649560546875,0.24934768579006195,0.09532616785764694,-0.14147943174540994
1684200591784521200,4.376521240234375,0.7707412844557314,0.18902035059928893,-0.5944689909443259
1684200591794547200,4.386547119140625,1.2640695029795168,0.32050679611861704,-0.8747153806060552
1684200591804573200,4.3965732421875,1.8081740420818329,0.46566696220338344,-1.0483499460250139
1684200591814599400,4.406599365234375,2.6401813308179376,0.6004267303049564,-1.1569891844421625
1684200591824625400,4.41662548828125,3.8515439104825258,0.6288485226690769,-1.0896405723124742
1684200591834651400,4.4266513671875,5.228336706322431,0.4726566749602556,-0.7427268307834863
1684200591844676600,4.436676513671875,6.082186409032344,0.2628448807448149,-0.09156710758507251
1684200591854702600,4.44670263671875,5.899899166080355,0.11263093840181827,0.5728302828490733
1684200591864728600,4.456728515625,4.776294949367642,0.1287988138705492,0.9644520578935741
1684200591874754300,4.46675439453125,3.4052503417909143,0.32263679388463495,1.0865873222216964
1684200591884780300,4.4767802734375,2.1813737329900262,0.6104980424642562,1.125650627848506
1684200591894806300,4.48680615234375,1.0783096154808998,0.8370441138595343,1.2166782217293977
1684200591904831500,4.49683154296875,0.18854571882486343,0.9390069432526826,1.6575842521637678
1684200591914857500,4.506857421875,-0.9732653328157961,0.9900871421486138,2.0003610400184986
1684200591924883500,4.516883544921875,-2.2881845869362354,0.9810784907847643,2.2834446989327666
1684200591934909400,4.526909423828125,-3.4224925684928893,0.8829735058635473,2.338019754207134
1684200591944935400,4.536935302734375,-3.593223229163885,1.0537596961140632,2.3082962315946816
1684200591954961400,4.54696142578125,-3.721421739053726,1.3557891707777976,2.3846903199672695
1684200591964986400,4.556986328125,-3.3137177209973334,1.3707453323692083,2.4677421126633883
1684200591975012400,4.567012451171875,-2.8346201993346214,1.2644096947193144,2.448336570447683
1684200591985038300,4.577038330078125,-2.510709732252359,1.0341244367957114,2.563565708649158
1684200591995064600,4.587064697265625,-1.4374807810366153,0.7539829688131808,2.9986341189712284
1684200592005090600,4.597090576171875,0.08808372244872152,0.4301321229636669,3.4222207658141848
1684200592015116500,4.607116455078125,0.9623227907799183,0.2832470327824354,3.2353742521226403
1684200592025142500,4.617142578125,0.36968905243873595,0.4031891709804535,2.0565707107573745
1684200592035167500,4.62716748046875,-1.1687864436112343,0.7736486232697963,0.6208166073828936
1684200592045193500,4.637193359375,-1.8953436453603207,1.0427888047665357,-0.472599976336956
1684200592055219500,4.647219482421875,-2.257734065223485,1.1076537833869458,-1.0181751725137234
1684200592065245400,4.657245361328125,-1.965434688065946,0.9280202698141335,-1.3606424560278654
1684200592075271400,4.667271484375,-1.6675428977288305,0.8229787636280059,-1.5991250489324331
1684200592085297400,4.67729736328125,-1.655033252506703,0.7679507038891314,-1.7457868517518043
1684200592095322400,4.687322265625,-1.4558055422782896,0.7724374939143657,-1.8014415189564228
1684200592105348400,4.697348388671875,-1.5236702872365713,0.7836796034187078,-1.7413602674812076
1684200592115374300,4.707374267578125,-1.6963880300715564,0.7538041051149368,-1.8381880720734596
1684200592125400300,4.717400390625,-1.5911492477476596,0.6291437062233686,-1.852726885035634
1684200592135426300,4.72742626953125,-1.5250056274935602,0.5040782336622476,-1.8590782998889683
1684200592145452500,4.73745263671875,-1.5805951205074786,0.4311877694964409,-1.871050477233529
1684200592155477200,4.747477294921875,-1.5972905269816517,0.42076106802821156,-1.6703770982414483
1684200592165503500,4.75750341796875,-1.9045546874284742,0.5190577761292458,-1.5149994895249603
1684200592175529500,4.767529541015625,-2.1847321035072205,0.5415764819294214,-1.6040724422067403
1684200592185555500,4.777555419921875,-2.174618998032808,0.4781429974168539,-1.5804630185604094
1684200592195581400,4.78758154296875,-1.8763009451076387,0.26298165886700153,-1.5255653072029352
1684200592205607400,4.797607421875,-2.0562074304029343,0.004755085572600365,-1.362784144231677
1684200592215632400,4.80763232421875,-1.6160390665933488,-0.10098375522792338,-1.791246872678399
1684200592225658400,4.817658447265625,-1.7629574745222925,-0.1994347771078348,-2.1828893982499835
1684200592235684400,4.827684326171875,-1.6791557402417063,-0.28672143089473245,-2.7270792775481936
1684200592245710300,4.83771044921875,-1.1080825301930308,-0.29447920541465283,-3.20104002084434
1684200592255736300,4.847736328125,-0.8291632974818348,-0.23099019132256507,-3.1733944735497235
1684200592265762300,4.85776220703125,-0.8899930292367935,-0.15466741462051867,-2.6961931408971544
1684200592275788300,4.867788330078125,-0.7227870355606079,-0.2640413970530033,-2.174430781984329
1684200592285813200,4.877813232421875,-0.6878767579600215,-0.5470803400427102,-1.8167881411701439
1684200592295839200,4.887839111328125,-0.9171487471878528,-0.8308820840984582,-1.567660820132494
1684200592305865200,4.897865234375,-0.9067854663446545,-1.0748486613720656,-1.3743074087649583
1684200592315891500,4.907891357421875,-0.7566472195863724,-1.272316522321105,-1.2445488099515438
1684200592325917400,4.91791748046875,-0.6583887976691126,-1.4114602045953273,-1.1982120061904191
1684200592335943400,4.927943359375,-0.5332876692727208,-1.4937819294512271,-1.2635440178006887
1684200592345968400,4.937968505859375,-0.3553235502168536,-1.4166022436589,-1.3876356768935918
1684200592355994600,4.94799462890625,-0.03347410731762648,-1.1723889981478453,-1.580958108600974
1684200592366020600,4.9580205078125,0.20057137992233037,-0.8568535607010126,-1.7295459110468625
1684200592376046600,4.968046630859375,0.31971506121903653,-0.5175666607886552,-1.7686732218205927
1684200592386072800,4.97807275390625,0.26596418180912734,-0.26179040325582026,-1.583919881016016
1684200592396098800,4.988098876953125,0.053984395904839035,-0.18960019631385802,-1.2422346877902746
1684200592406124800,4.998124755859375,-0.02755260831415653,-0.28678339021503924,-0.8799152873367071
1684200592416149800,5.008149658203125,-0.030703473560512066,-0.4574947616636753,-0.5316805263370276
1684200592426175700,5.01817578125,-0.06395604708194733,-0.6642389850020408,-0.22566578142940996
1684200592436201700,5.02820166015625,-0.07992883836999536,-0.8271247773915529,0.09802841255366801
1684200592446227700,5.038227783203125,-0.37140973875150085,-0.8694605288177728,0.5657201585829258
1684200592456253700,5.048253662109375,-0.8573099261663853,-0.9395347665190696,0.9770382754832505
1684200592466279700,5.05827978515625,-1.1140003759346901,-0.7400386146128177,1.3071966970443725
1684200592476305000,5.068304931640625,-1.3271147188268602,-0.37240707922577854,1.413633456981182
1684200592486330600,5.07833056640625,-1.350254917526245,-0.12029460489749907,1.1879910564273595
1684200592496356600,5.088356689453125,-1.0444250276662408,0.03025836014151573,0.6197738203316927
1684200592506382600,5.098382568359375,-0.6269804637748748,0.07461246565282344,-0.3058200991183519
1684200592516408600,5.10840869140625,-0.2071381910920143,-0.16437515416443346,-1.4763181689530611
1684200592526434600,5.1184345703125,0.22830255967378615,-0.40477556338906284,-2.2654197974205017
1684200592536459800,5.128459716796875,0.8393489567358047,-0.428462728446722,-2.3736259051173922
1684200592546485800,5.13848583984375,1.3378548701584339,-0.21112638394534586,-2.024122731617093
1684200592556512000,5.148511962890625,1.3443769654035567,0.24412790531516074,-1.4932535216629503
1684200592566538000,5.1585380859375,1.132907467108965,0.828928027421236,-0.9405997654020786
1684200592576563700,5.168563720703125,1.1560288149774074,1.2508815201044081,-0.32878011894524095
1684200592586589700,5.178589599609375,1.2495382888019084,1.3742097936093807,0.0657522828489542
1684200592596615000,5.188614990234375,1.4666665435105561,1.644239617422223,0.44060792427062984
1684200592606641000,5.198640869140625,1.4367717559844255,2.485648940753937,0.7972761670947074
1684200592616667000,5.2086669921875,1.2626602207034825,3.2982419194459913,0.9901257205933331
1684200592626692900,5.21869287109375,1.5331424644589424,4.138683859050274,1.8774831406295298
1684200592636718800,5.22871875,2.0264123038589954,4.74367921244502,3.4356717835396524
1684200592646744800,5.238744873046875,2.5438217282593247,3.410298272830248,5.86527618098855
1684200592656769800,5.248769775390625,3.4727485915243625,2.0279320607721805,7.58020436861813
1684200592666795800,5.258795654296875,3.3599043026328084,0.5985299567729234,6.813712631365656
1684200592676821800,5.26882177734375,2.089953340399265,-0.7015858420997858,4.624288862910866
1684200592686847700,5.27884765625,0.6339958224296569,-1.596598160803318,2.1857693376004694
1684200592696873700,5.288873779296875,-0.4820417584210634,-2.457460957145691,0.11777356198728084
1684200592706900000,5.29889990234375,-1.3936959998458622,-2.9159821392476557,-1.1319900600031017
1684200592716926000,5.308926025390625,-2.029243727892637,-2.7970459632217883,-1.5582973639816045
1684200592726951000,5.318950927734375,-2.277679559534788,-2.3657576559603215,-1.5625246262878179
1684200592736977000,5.328976806640625,-2.2473475496351716,-1.8100842596173286,-1.339096686913073
1684200592747003000,5.3390029296875,-1.8934522786557673,-1.130346676710248,-0.9438587671980261
1684200592757028900,5.34902880859375,-1.3462106105715035,-0.28699206452965736,-0.4945934892192483
1684200592767054800,5.359054931640625,-0.7880161713182926,0.6173521461427212,0.058871291163563724
1684200592777080800,5.369080810546875,-0.28919162040054797,1.3638316074579953,0.6538949933812022
1684200592787105800,5.379105712890625,0.12833587253391743,1.5714666421562433,0.9735337744936347
1684200592797131800,5.3891318359375,0.540351908570528,1.024846905362606,0.6535021946713327
1684200592807157800,5.39915771484375,0.9515192188233137,0.17098843482434747,0.06940379109382629
1684200592817183700,5.409183837890625,1.246504620194435,-0.38963060122728344,-0.27817338277995585
1684200592827209700,5.419209716796875,1.3302104928851126,-0.6225602361798286,-0.4834218146026134
1684200592837235700,5.429235595703125,1.1711351986944676,-0.62149465277493,-0.5878165473178029
1684200592847261700,5.43926171875,0.8313286588221788,-0.4484352568954229,-0.5928679854884743
1684200592857286700,5.44928662109375,0.459442388600111,-0.1527840850919485,-0.5234466587379575
1684200592867312600,5.459312744140625,0.10734395617591216,0.1868044281154871,-0.3657596040353179
1684200592877339000,5.4693388671875,-0.28839140993356704,0.44550680222809314,-0.09586392799615859
1684200592887364900,5.47936474609375,-0.8048013019025325,0.6289098974674939,0.36321371894478793
1684200592897390800,5.489390869140625,-1.4683739319503306,0.585300472843647,0.7475310161948203
1684200592907416800,5.499416748046875,-1.8998563004791735,0.6357336060076951,1.154395953078568
1684200592917441800,5.50944189453125,-2.0658196006178855,0.49899698487520217,1.2457348048657177
1684200592927467800,5.5194677734375,-2.1024293756127355,0.11413842035531997,1.267543901091814
1684200592937493800,5.52949365234375,-1.746729101037979,-0.30622517278790473,1.0807488253265618
1684200592947519700,5.539519775390625,-1.1163549762368201,-0.4876163436830043,0.8636746388927101
1684200592957545700,5.549545654296875,-0.4364776925981044,-0.5404565379887819,0.583250846837461
1684200592967571700,5.55957177734375,-0.09844400761723518,-0.4851134209513664,0.4107680818021297
1684200592977596700,5.5695966796875,0.061504553143447264,-0.2778893051415682,0.1674228512972593
1684200592987622700,5.57962255859375,0.21287057899786158,-0.04710895717740059,-0.1597469098418951
1684200592997648600,5.589648681640625,0.2845353190273046,0.11298808127641677,-0.4341185622513294
1684200593007674600,5.599674560546875,0.3349228594839573,0.21023440354168413,-0.6640498921707272
1684200593017700600,5.60970068359375,0.22171086979117244,0.2696487155407667,-0.7856716540187597
1684200593027726800,5.619726806640625,0.03685991383101791,0.19225334117114543,-0.8071423120707273
1684200593037751600,5.62975146484375,-0.24804301466597242,0.059742228779196736,-0.9009986996367573
1684200593047777800,5.63977783203125,-0.579011565299891,0.010979659175872802,-0.975903426234424
1684200593057803800,5.6498037109375,-0.8497913672298193,0.008652093011140822,-0.8622177180826663
1684200593067829800,5.659829833984375,-1.0560966146290303,-0.06278583425879478,-0.7825351095587014
1684200593077855700,5.669855712890625,-1.1929933947592972,-0.12314531815350055,-0.5733502150699495
1684200593087881700,5.6798818359375,-1.1988029578208923,-0.09627835401594638,-0.4535401788190007
1684200593097907700,5.68990771484375,-0.961927215591073,-0.010194061756134033,-0.4277303225189447
1684200593107933000,5.699932861328125,-0.5168863138416782,0.018196166425943374,-0.20447452484071255
1684200593117959000,5.709958984375,-0.19954174461364746,-0.04032265803813934,-0.10347031134665012
1684200593127984600,5.719984619140625,-0.1173655291756615,-0.07387947520315646,-0.13794453561753034
1684200593138010600,5.7300107421875,-0.07914013567771762,-0.04981938517987728,-0.18325784154981373
1684200593148036600,5.74003662109375,-0.04029397993292659,-0.051724926540255546,-0.218632814052701
1684200593158062600,5.7500625,0.044877179537340994,0.0005143792629241943,-0.17843436691612005
1684200593168087800,5.760087890625,0.17551321877241133,0.07049918511509895,-0.24299364058822392
1684200593178113800,5.77011376953125,0.24512984889931974,0.07614157491624354,-0.24969255370497703
1684200593188139800,5.780139892578125,0.2932558010995388,0.05111760829687118,-0.16006313618421553
1684200593198165800,5.790165771484375,0.3416144660770893,0.12412146970927715,-0.08192045057862997
1684200593208191700,5.800191650390625,0.39334348427057264,0.25455928295850755,-0.0881754193201661
1684200593218217700,5.8102177734375,0.43598910536356267,0.28646482578516,-0.09503390691280364
1684200593228243700,5.82024365234375,0.5059866976320744,0.27374212233424183,-0.07545914561003446
1684200593238269000,5.83026904296875,0.6145622962284832,0.23835107547938822,0.04080401181429624
1684200593248295000,5.840294921875,0.6779173817425966,0.17829262035787105,0.23233868332207203
1684200593258321000,5.85032080078125,0.6950982336461544,0.05860884083509445,0.35597938377708194
1684200593268347000,5.860346923828125,0.7000414622019976,-0.09339373849034309,0.4125704550489783
1684200593278372900,5.870372802734375,0.6837679344017058,-0.17606500743627548,0.38795302340388294
1684200593288398800,5.88039892578125,0.7159475449293852,-0.17865268584191799,0.27958295731693505
1684200593298423800,5.890423828125,0.7563953637171537,-0.17706863152086733,0.1987137693569064
1684200593308449800,5.90044970703125,0.7910679601043462,-0.2642062322258949,0.10808511166572571
1684200593318475800,5.910475830078125,0.791971046423912,-0.43849253955185413,0.09905950916707515
1684200593328501800,5.920501708984375,0.7001690341044217,-0.5902776767343282,0.2483846859768033
1684200593338527700,5.93052783203125,0.5105816242069006,-0.6678098292261362,0.4920820909202099
1684200593348553700,5.9405537109375,0.29040391879975797,-0.5697434227496385,0.7479641469150781
1684200593358579500,5.950579345703125,0.10242467475123702,-0.3296265066415071,0.9115940356701612
1684200593368605400,5.96060546875,0.000765139153599739,-0.14296002569198607,0.9653571900397538
1684200593378631400,5.97063134765625,-0.0038251843113452193,-0.17231763760149477,0.8614902805909513
1684200593388657400,5.980657470703125,0.04521927097328007,-0.3392354619860649,0.7753013589128851
1684200593398683400,5.990683349609375,0.10734620293192565,-0.4820236382424831,0.7088830133706331
1684200593408709400,6.00070947265625,0.1431939075130969,-0.4921475573718547,0.6750953100591898
1684200593418735600,6.010735595703125,0.1496510477632284,-0.421508087003231,0.6027952130019665
1684200593428760300,6.02076025390625,0.1650794299762696,-0.3474690373241901,0.4665571890413761
1684200593438786600,6.03078662109375,0.2136128669988364,-0.23460136755704877,0.26692981197088955
1684200593448812500,6.0408125,0.23876016773693262,-0.062117725738883016,0.013122808684408663
1684200593458838500,6.050838623046875,0.3079085227649659,0.0932101986169815,-0.2447232408598065
1684200593468864500,6.060864501953125,0.38522747089751064,0.16919804427623747,-0.5068380537644028
1684200593478890500,6.070890380859375,0.4344236826777458,0.1890647742629051,-0.6645756696105003
1684200593488915500,6.08091552734375,0.4296476273823529,0.2377203763604164,-0.7190913959130645
1684200593498941400,6.09094140625,0.4081815724402666,0.31888708596229554,-0.6414353247806429
1684200593508967400,6.100967529296875,0.36861579718403514,0.4131207824081182,-0.4186109042569995
1684200593518993400,6.110993408203125,0.3131360481549054,0.4180290127158165,-0.06514058069139719
1684200593529019400,6.121019287109375,0.3130314187366515,0.3729442548424005,0.29070640887767074
1684200593539045400,6.13104541015625,0.38565826353020966,0.32670565075874325,0.5691670841664076
1684200593549071400,6.1410712890625,0.5083954392742366,0.22458967663049698,0.7521306189447641
1684200593559096300,6.151096435546875,0.606129398925975,0.018564999738335607,0.9412640745297074
1684200593569122300,6.161122314453125,0.6227244868308306,-0.17304653639793394,1.1439201517716049
1684200593579148300,6.171148193359375,0.514409658062458,-0.21868308293521402,1.4320914892137049
1684200593589174500,6.181174560546875,0.34272743228767066,-0.1409416716068983,1.783467763109505
1684200593599200500,6.191200439453125,0.08990180472135544,-0.0015898995399475098,2.198126130348444
1684200593609226500,6.2012265625,-0.172334004214406,0.131717916187644,2.608486800393462
1684200593619251500,6.21125146484375,-0.41690965329706664,0.13115794421732424,2.8076205487281083
1684200593629277400,6.22127734375,-0.6112900696247816,-0.1467494811028242,2.589408298175037
1684200593639303400,6.231303466796875,-0.7034533895373344,-0.5453635992527007,1.9826061876192689
1684200593649329400,6.241329345703125,-0.6025596506804227,-0.769247757962346,1.2117220606267451
1684200593659355400,6.25135546875,-0.28798103903438893,-0.6808920136392116,0.4979150348573923
1684200593669381400,6.26138134765625,0.14567922152280807,-0.39825522170960903,-0.11445230861008167
1684200593679407400,6.271407470703125,0.7423872235655784,-0.1072445691883564,-0.6449187829822302
1684200593689432300,6.281432373046875,1.691545558476448,0.062253334817290305,-1.0846411565899847
1684200593699458300,6.291458251953125,3.323886648312211,0.06234568927586078,-1.210741525156796
1684200593709484300,6.301484375,5.666342339140177,0.008588380125164986,-0.8327636600613594
1684200593719510300,6.31151025390625,7.811552871859073,0.13863982440531253,0.10638239940106868
1684200593729536300,6.321536376953125,8.535230718779564,0.3297323051035404,1.104732635243237
1684200593739562500,6.3315625,7.076179910969734,0.3770411687672138,1.5244991392761469
1684200593749587200,6.341587158203125,3.621359774845838,0.5662029736638069,1.3817726300790905
1684200593759613400,6.351613525390625,-0.12326280705332755,0.7446990076392889,1.1799383906140923
1684200593769639400,6.361639404296875,-3.357678443276882,0.8808177891343831,1.280330317428708
1684200593779665400,6.37166552734375,-5.472924045842886,1.0570774423599243,1.206524784244597
1684200593789691400,6.38169140625,-7.0944251772344105,1.2610352498501538,1.0118032993942498
1684200593799717400,6.39171728515625,-7.301784317600727,1.4280553655654191,1.1603045926004647
1684200593809742300,6.401742431640625,-7.262133859735727,1.6293284640163181,1.522861308941245
1684200593819768300,6.411768310546875,-7.024192534101009,1.4094383433789015,1.755259613496065
1684200593829794300,6.421794189453125,-6.433669942694902,0.8255015601038932,2.2997511060893534
1684200593839820300,6.4318203125,-5.451491966235637,0.09991349564790725,3.0432182338461278
1684200593849846300,6.44184619140625,-3.5007881065726276,-0.635834728294611,3.8713486811488864
1684200593859872300,6.451872314453125,-0.38854602086097,-1.5921896967113016,4.869190675207972
1684200593869898200,6.461898193359375,1.8945044180572033,-2.2819231884539124,5.607741097089648
1684200593879923500,6.47192333984375,0.94568861297369,-2.2264438778162003,4.793927636691928
1684200593889949400,6.481949462890625,-1.6804453416608274,-1.5176064571529626,2.7057477357059714
1684200593899975400,6.491975341796875,-3.0121979494214055,-0.7338380064070225,0.9133967011779546
1684200593910001400,6.50200146484375,-2.8856726334407923,-0.08427285892367363,-0.6584288374185562
1684200593920027400,6.51202734375,-2.4718787740767,0.4439104729473591,-1.5727023214310407
1684200593930053400,6.522053466796875,-2.3867794012010095,0.683144176480174,-2.1301362977057696
1684200593940078600,6.53207861328125,-2.1523346855103966,0.701436204496026,-2.496583007222414
1684200593950104600,6.5421044921875,-1.8692180011093615,0.5040203659951686,-2.6362252866685387
1684200593960130600,6.552130615234375,-1.90557423973456,0.4515057503819465,-2.5201462536394597
1684200593970156500,6.562156494140625,-2.0239457676149906,0.488515922871232,-2.2686077798068522
1684200593980182500,6.5721826171875,-2.028571527719498,0.3612362813919782,-1.9115549215793608
1684200593990208500,6.58220849609375,-1.8563024054348467,0.13850304628312587,-1.6277449942171573
1684200594000234200,6.592234130859375,-1.5801006149888037,-0.08051555221676826,-1.4358955576717853
1684200594010259500,6.602259521484375,-1.1644039907433092,-0.2161310603648424,-1.2638386168330906
1684200594020285400,6.612285400390625,-0.8291219425581395,-0.1765951687902212,-1.041339190480113
1684200594030311400,6.6223115234375,-0.7946713914237916,-0.16817630001306533,-0.7478080795705317
1684200594040337400,6.63233740234375,-0.7693114708483219,-0.13738485590815544,-0.5186053561866283
1684200594050363400,6.64236328125,-0.6519255930043757,-0.0500666379392147,-0.40671383797526356
1684200594060389400,6.652389404296875,-0.46738604108095166,0.047829672667384145,-0.3424678680360317
1684200594070414300,6.662414306640625,-0.2896259201645851,0.08970540536642074,-0.32573008372485635
1684200594080440300,6.6724404296875,-0.2644517314195633,0.05381868394911289,-0.3048971390545368
1684200594090466600,6.682466552734375,-0.2543418408155441,0.024202713364362714,-0.19986732330620288
1684200594100492500,6.692492431640625,-0.012131167298555373,0.08783610436320305,-0.10629472111761569
1684200594110518500,6.7025185546875,0.3960334540069103,0.21562369536459444,-0.1598164679467678
1684200594120544500,6.71254443359375,0.7995359287202358,0.38168227257132525,-0.3896411226212978
1684200594130570500,6.722570556640625,0.8147543945096433,0.5624491740882397,-0.7524462607651948
1684200594140595500,6.732595458984375,0.6417502359487116,0.5691834507793188,-1.1553069304436445
1684200594150621400,6.742621337890625,0.4285153354167938,0.42903965155184265,-1.3892664929658174
1684200594160647400,6.7526474609375,0.0604616290949285,0.2415156769901514,-1.3716472496449947
1684200594170673400,6.76267333984375,-0.15467150627374648,0.1118237136721611,-1.1548954270333052
1684200594180699400,6.772699462890625,-0.17735548563823103,-0.03299275354146957,-0.8494529290556907
1684200594190725400,6.782725341796875,-0.19399930805563925,-0.2750292395353317,-0.49548459284007546
1684200594200750300,6.792750244140625,-0.2148712695620954,-0.6053653557509183,-0.11273790590763091
1684200594210776300,6.8027763671875,-0.4746494562126696,-0.9173673583745956,0.34798107849955556
1684200594220802300,6.81280224609375,-0.8743032926738261,-1.1037450855106115,0.7420587222635746
1684200594230828300,6.822828369140625,-1.2262849851168691,-1.2437252186089753,0.9563964694708585
1684200594240854500,6.8328544921875,-1.4562546012200415,-1.3943968415915966,0.9203279617458582
1684200594250880500,6.842880615234375,-1.610459659025818,-1.543257031238079,0.7117150219261645
1684200594260905500,6.852905517578125,-1.8583306963920592,-1.6552011564195155,0.4257867872357368
1684200594270931500,6.862931396484375,-2.125522666430473,-1.6947230194687843,0.09087328010201454
1684200594280957400,6.87295751953125,-2.1704748839654027,-1.660261946940422,-0.2874380547314882
1684200594290983400,6.8829833984375,-2.027549637325853,-1.4620757085889577,-0.6821282774358988
1684200594301009400,6.893009521484375,-1.6518623673856256,-1.047628061491251,-1.0236883829772472
1684200594311035400,6.903035400390625,-1.1065654036283492,-0.5179004227876662,-1.213958441376686
1684200594321061400,6.913061279296875,-0.6154243929505347,0.07056991226375102,-1.2340572265535592
1684200594331086300,6.92308642578125,-0.2405003624677658,0.6765221279919147,-1.0962293030530215
1684200594341112300,6.9331123046875,0.287432794034481,1.1638444571644067,-0.9179524647861719
1684200594351138300,6.94313818359375,0.8839385515034198,1.412646784031391,-0.7894009036749601
1684200594361164000,6.9531640625,1.313077133385092,1.4422621700942515,-0.6616659196436405
1684200594371190000,6.96318994140625,1.331718559360504,1.0408739110559224,-0.6039993280947208
1684200594381216000,6.973216064453125,0.5910170969247818,0.21491759292185306,-0.9377204105734824
1684200594391241000,6.983240966796875,-0.4517185894150287,-0.40707565702497955,-1.7018232068628072
1684200594401267000,6.993266845703125,-1.2181892108142376,-0.6664227587819099,-2.537904028648138
1684200594411293000,7.00329296875,-1.6445079129695892,-0.7332733582615852,-3.2120997595191
1684200594421319000,7.01331884765625,-1.6671429386258125,-0.13380992003083228,-3.5771646592885253
1684200594431345000,7.023344970703125,-1.121927807933092,1.5007915159523486,-3.4367946500897406
1684200594441371000,7.033370849609375,0.2759995458722114,3.926623993647098,-2.850371310696006
1684200594451397000,7.043397216796875,3.7551439759135246,6.890529913586378,-1.3741612782925368
1684200594461422000,7.053422119140625,8.973895692288876,8.876753999441862,1.9216706574022768
1684200594471448000,7.063447998046875,7.548428005129098,6.377189346060156,3.6840462403833865
1684200594481474000,7.07347412109375,3.179115189284086,2.4584704264491797,2.7023636462256313
1684200594491500000,7.0835,-0.004727649576403201,-0.46076516163647174,0.8197790908038616
1684200594501526000,7.093526123046875,-1.8911480933666227,-3.038890726035833,-1.0655521329775453
1684200594511552000,7.103552001953125,-2.534060212701559,-4.428548848667741,-2.279201070013642
1684200594521577200,7.1135771484375,-2.6657284445285794,-4.22865931352973,-2.3978093292593954
1684200594531603200,7.123603271484375,-2.3344190993666647,-2.6724241427749393,-1.486034968586266
1684200594541629200,7.133629150390625,-2.5343665021717547,-0.8415835108548402,0.25013825164586306
1684200594551655200,7.1436552734375,-3.2778350912332535,0.2547416537880897,1.725453088775277
1684200594561681200,7.15368115234375,-3.463183475321531,0.7560527608245611,3.0646108582258225
1684200594571707100,7.16370703125,-3.017847938007116,0.8152297569364308,4.101379672050476
1684200594581732900,7.17373291015625,-2.2789538172543047,0.3479267179638147,4.516014073891937
1684200594591758000,7.183758056640625,-1.598640480285883,-0.6925333515942096,4.076592729057372
1684200594601784000,7.1937841796875,-0.8841816395442932,-1.6045090800583361,3.044363019967079
1684200594611810000,7.20381005859375,-0.18237082958221434,-1.858828709042072,2.2064947302430866
1684200594621836000,7.2138359375,0.3120703916847706,-1.68264562818408,1.6636141799777746
1684200594631862300,7.2238623046875,0.4904828390300274,-1.3225643620461225,1.3493933322608471
1684200594641888300,7.23388818359375,0.3912683950295672,-0.9182681066066026,1.2021391165062785
1684200594651913200,7.243913330078125,0.21004089026357978,-0.5789163247644901,1.0881307522714136
1684200594661939200,7.253939208984375,-0.1725520674118772,-0.4390723852664232,0.9674731592804193
1684200594671965200,7.263965087890625,-0.6928501624584198,-0.46265608994960783,0.8056804228246212
1684200594681991200,7.2739912109375,-1.1664473331391811,-0.5349497572660445,0.5800967667207122
1684200594692017200,7.28401708984375,-1.4772913978993891,-0.5634884540081024,0.385248732881248
1684200594702043100,7.294043212890625,-1.5530945346415042,-0.5299661236345767,0.2843932802081108
1684200594712068000,7.304068115234375,-1.4857915152192116,-0.42925358656346796,0.3094718996241689
1684200594722094000,7.314093994140625,-1.3043769634485245,-0.2049684458374977,0.41650574867129325
1684200594732120000,7.3241201171875,-1.1603075152099132,0.04941664959788322,0.6059890406072139
1684200594742146000,7.33414599609375,-1.0795616613686083,0.20219079781770705,0.74043521271497
1684200594752172000,7.344172119140625,-1.0214204380452632,0.1997872438073158,0.8216241341486573
1684200594762198000,7.354197998046875,-0.9349076912403106,0.1170955165952444,0.7496995924055576
1684200594772224000,7.36422412109375,-0.8256570429265498,-0.04189969809651375,0.6740332337856292
1684200594782249000,7.3742490234375,-0.8939759613931179,-0.24513328296542167,0.6185132988765836
1684200594792275000,7.38427490234375,-1.0547077906191349,-0.44507834768295285,0.6315612887591123
1684200594802301200,7.39430126953125,-1.1431927142798899,-0.5141945540070534,0.7424772399365902
1684200594812327200,7.4043271484375,-1.1850059031367302,-0.4751964225709438,0.818752670365572
1684200594822353200,7.414353271484375,-1.1707400618970394,-0.3783002289175987,0.8011857417538761
1684200594832379100,7.424379150390625,-1.072307744717598,-0.3155062113523483,0.7520233591780066
1684200594842404000,7.434404052734375,-1.1196318059504031,-0.3101379623174667,0.7838853551238775
1684200594852430000,7.44443017578125,-1.2250666953682898,-0.2746107218623161,0.8033934809312224
1684200594862456000,7.4544560546875,-1.2391805609166622,-0.15347908161878585,0.755170717293024
1684200594872482000,7.46448193359375,-1.2468950808167456,-0.061655953446030615,0.6360296663448214
1684200594882508000,7.474508056640625,-1.2853946150809525,-0.07301613637208938,0.39148412013947964
1684200594892534000,7.484533935546875,-1.3044377537250518,-0.06217383984029293,0.1140299915447831
1684200594902560000,7.49456005859375,-1.2588503070265054,0.007104279047250747,-0.17495237001925706
1684200594912585000,7.5045849609375,-1.121909103232622,0.05305296027362346,-0.4381777745142579
1684200594922611000,7.51461083984375,-0.9048176734030247,0.10406418558657168,-0.7051695458054542
1684200594932637000,7.524636962890625,-0.6885317147374153,0.08952771071195602,-0.8410553953275084
1684200594942663000,7.534662841796875,-0.52875492121391,0.06849953573048115,-0.846281897804141
1684200594952689200,7.544689208984375,-0.3978401746353134,0.09143617468178272,-0.6540063448011875
1684200594962715100,7.554715087890625,-0.3034200522392988,0.09020692514777183,-0.3071905106887221
1684200594972741000,7.5647412109375,-0.2808983872970566,-0.035832360881567,-0.04701601819694042
1684200594982766000,7.57476611328125,-0.423369168167375,-0.20316168867647647,0.27219576967507597
1684200594992792000,7.5847919921875,-0.4768120045414194,-0.26085049205720423,0.5355059298440814
1684200595002818000,7.594818115234375,-0.34937278858628124,-0.2011684690326452,0.6884785232454538
1684200595012844000,7.604843994140625,-0.13527064023315905,-0.073102645611763,0.8423740767106414
1684200595022870000,7.6148701171875,0.12777885970566422,-0.00376841262280941,0.9827265502527356
1684200595032896000,7.62489599609375,0.39322486285958436,-0.03855097219049931,1.0152332738429308
1684200595042921000,7.6349208984375,0.6230658476144075,-0.1499877323716879,1.0202227526932954
1684200595052947000,7.644947021484375,0.8229477839678525,-0.29596272197067736,1.0518360345751046
1684200595062973000,7.654972900390625,0.9098013070344925,-0.3672837448626756,1.1391425621062516
1684200595072999000,7.6649990234375,0.8642635446965694,-0.30349720912873746,1.1927183772101997
1684200595083025000,7.67502490234375,0.7333493461072444,-0.1435463011473417,1.2033747957810759
1684200595093051000,7.68505078125,0.628629911482334,-0.06971008056402206,1.1546686325401068
1684200595103076000,7.695076171875,0.47783433332648123,-0.07028232749402523,1.1106117564097047
1684200595113102000,7.70510205078125,0.12609134501013905,-0.08582768715023995,1.094046406055987
1684200595123128000,7.715128173828125,-0.13397824406875297,-0.1852665510237217,1.0556719594761728
1684200595133154000,7.725154052734375,-0.06397124465107917,-0.39287586675882336,1.0365408502876758
1684200595143180000,7.735179931640625,0.13693477405309676,-0.570786794322729,1.1554884244903922
1684200595153206000,7.7452060546875,0.21611177114248276,-0.6383914270401001,1.2870748232528566
1684200595163232000,7.75523193359375,0.0836333919763565,-0.5526484955638646,1.3592021940916776
1684200595173257200,7.76525732421875,-0.1687958932161331,-0.4173918838560581,1.253351125088334
1684200595183283200,7.775283203125,-0.45267351551968604,-0.1977531076312065,1.0052765279740095
1684200595193309200,7.78530908203125,-0.7019499992370605,0.17130232307910917,0.6752417327925563
1684200595203335200,7.795335205078125,-0.8550374511897564,0.6000719255179167,0.395114585596323
1684200595213361200,7.805361083984375,-0.9850818081419914,1.057615202498436,0.3402677276432514
1684200595223387000,7.815386962890625,-0.9041360478144138,1.4781091440230607,0.5151677829533815
1684200595233412900,7.825412841796875,-0.4432196411389857,1.6888298697769641,0.8689838512167334
1684200595243438000,7.83543798828125,0.23001849674619734,1.5435861170619725,1.3438126095190643
1684200595253464000,7.845464111328125,1.4052861921355126,1.2974065399140118,1.7796710011750458
1684200595263490000,7.855489990234375,2.8197967242121695,1.2072294253826141,2.3487299487918616
1684200595273516300,7.865516357421875,3.4631904895842074,1.2786954097032546,3.0814637933492657
1684200595283542300,7.875542236328125,2.5104560497522352,1.3549386914283037,3.545469252081215
1684200595293568300,7.885568359375,0.6718330933928489,1.248403147292137,3.252259043689072
1684200595303593200,7.89559326171875,-1.0384098590299486,0.9900298590034246,2.267127185860276
1684200595313619200,7.905619140625,-2.307951217549294,0.6732032127022742,1.0465241919025778
1684200595323645200,7.915645263671875,-3.4454873673722144,0.49811669490933413,-0.19898294168710706
1684200595333671200,7.925671142578125,-4.785455284161865,0.4931260470151901,-1.4418290393739939
1684200595343697200,7.935697265625,-5.526888275742531,0.6176748022258282,-2.3213071043372153
1684200595353723100,7.94572314453125,-5.294644869488478,0.847827958202362,-2.5457190863132477
1684200595363749400,7.955749267578125,-4.4097515014782545,0.9652958152413368,-2.2299796507269143
1684200595373774300,7.9657744140625,-3.3099484315916894,0.9992904393017291,-1.6606588373035192
1684200595383800300,7.97580029296875,-2.7726389594569802,1.084176461687684,-0.7991141961768269
1684200595393826300,7.985826416015625,-2.944659952199459,1.199881400707364,0.20035569134503603
1684200595403852300,7.995852294921875,-3.0111276898413895,1.272169222804904,1.1808648578092455
1684200595413878300,8.005878173828124,-2.521870593214035,1.0952759478509426,2.190302889376879
1684200595423904500,8.015904541015624,-1.819609920592606,0.7981015120029449,2.8802383334323762
1684200595433929200,8.02592919921875,-1.5978078288540243,0.5625730927288531,2.783420757973194
1684200595443955500,8.03595556640625,-1.8417384580314158,0.47799277529120443,2.357304300391674
1684200595453981400,8.0459814453125,-1.3707158140137792,0.4450514596760273,1.1882570138871669
1684200595464007400,8.05600732421875,-1.1414335956528783,0.477452677065134,-0.17353344313204289
1684200595474033400,8.066033447265625,-1.3502598859623074,0.5681967778295278,-1.1717723275542258
1684200595484059400,8.076059326171874,-1.3620263116016984,0.5997913550108671,-2.0163257941305637
1684200595494085400,8.08608544921875,-1.030367422349751,0.5314169069647788,-2.724797888612747
1684200595504110300,8.0961103515625,-0.8794780649632215,0.3067477353572845,-3.3156180016607046
1684200595514136300,8.10613623046875,-0.935746187891066,0.23405776219964025,-3.636995150873065
1684200595524162300,8.116162353515625,-0.7930030198201536,0.32963001377284523,-3.7618198004156347
1684200595534188300,8.126188232421875,-0.6110042384207248,0.3577273964881897,-3.7217163380861282
1684200595544214300,8.13621435546875,-0.8528358494922518,0.3048112143367529,-3.6343455131471156
1684200595554240300,8.146240234375,-1.0881447807967661,0.13823767334520817,-3.460654249104857
1684200595564265200,8.15626513671875,-0.69481737087816,-0.05013678056597709,-3.413281672555208
1684200595574291200,8.166291259765625,-0.21153759509474038,-0.1807598872542381,-3.31877734247446
1684200595584317200,8.176317138671875,-0.15666472591757774,-0.2522814011543989,-3.0368197649806734
1684200595594343400,8.186343505859375,-0.42581192167699333,-0.3617822248369455,-2.5606635574668646
1684200595604369400,8.196369384765624,-0.650180356772244,-0.5029319862365722,-1.9669705193310976
1684200595614395400,8.2063955078125,-0.683392306022346,-0.7019348016679287,-1.4441028295248746
1684200595624421400,8.21642138671875,-0.712697018700838,-0.9479133032858371,-1.212872984227538
1684200595634446300,8.2264462890625,-0.866862329018116,-1.2262462605416775,-1.185502162221074
1684200595644472300,8.236472412109375,-0.9942077292099595,-1.446332780534029,-1.3344979609459637
1684200595654498300,8.246498291015625,-1.1006234463587403,-1.5984955188572405,-1.5365677627325056
1684200595664524300,8.256524169921875,-1.137944876754284,-1.6128940465658903,-1.7037193958729504
1684200595674550300,8.26655029296875,-1.0388897515013813,-1.4392320086181163,-1.8429197767704724
1684200595684576300,8.276576171875,-0.9000818770527839,-1.0854670860201119,-1.8966086968600748
1684200595694601200,8.286601318359375,-0.6127297470390797,-0.44321372285485267,-1.8484376634091138
1684200595704627200,8.296627197265625,-0.4264535805813968,0.2540460727393627,-1.6539941187173126
1684200595714653200,8.306653076171875,-0.1590542514026165,0.9785673847466707,-1.1407359687775374
1684200595724679200,8.31667919921875,0.22855375795587896,1.756160361728072,-0.41233167785704133
1684200595734705200,8.326705078125,0.853465964089334,2.579839967101812,0.5450327598631381
1684200595744731400,8.3367314453125,1.4346771217927337,3.006577771452069,1.223229543069005
1684200595754757400,8.34675732421875,1.581905326323211,2.6638930457949637,1.2895616716325282
1684200595764782300,8.3567822265625,1.1553531076729298,1.7604525059640406,0.630336715400219
1684200595774808300,8.366808349609375,0.37188700087442994,0.6334019481897354,-0.2958136688888073
1684200595784834300,8.376834228515625,0.05375964723825454,-0.4224509208112955,-0.9871072495549916
1684200595794860300,8.3868603515625,0.2672410698771477,-0.9913619843900203,-1.3448995279729365
1684200595804886300,8.39688623046875,0.7433869021274149,-0.9973182624459266,-1.4016723855525255
1684200595814912300,8.406912353515626,0.9123087598107754,-0.7548176660716533,-1.093053595626354
1684200595824937200,8.416937255859375,0.6345356283947825,-0.483135398876667,-0.6830185042738914
1684200595834963200,8.426963134765625,0.15128580935820937,-0.3277677270323038,-0.39390462528467174
1684200595844989200,8.4369892578125,-0.38624505044221874,-0.3137111446291208,-0.22892624453008173
1684200595855015200,8.44701513671875,-0.8627754980958998,-0.37926469003558155,-0.10553133552968501
1684200595865041200,8.457041259765624,-1.2475123359322546,-0.4687620056092739,-0.059140171232819554
1684200595875067100,8.467067138671876,-1.2934791373372077,-0.6154869367927313,-0.18918577029407024
1684200595885093000,8.477093017578126,-0.9431822561759501,-0.72744567502141,-0.3953179992139339
1684200595895118300,8.487118408203125,-0.5856489940203726,-0.7643196539103985,-0.4914870476365089
1684200595905144300,8.497144287109375,-0.33439342878237366,-0.7165460953444243,-0.38911329935491085
1684200595915170300,8.50717041015625,-0.12301854996867477,-0.5896691894471645,-0.21493980475366115
1684200595925196300,8.5171962890625,0.11437573624253272,-0.36817163361310956,0.02241524542570114
1684200595935222300,8.52722216796875,0.35228315960764883,-0.07363456053137779,0.295071910610795
1684200595945248300,8.537248291015626,0.40327677619867025,0.3455442067414522,0.5917687920749187
1684200595955273500,8.5472734375,0.3167500739336014,0.8366875555068254,0.855880916276574
1684200595965299500,8.557299560546875,0.35976745094843204,1.2246230432540177,0.9019640375375747
1684200595975325400,8.567325439453125,0.5321650949835777,1.4682897607982157,0.8490501934736967
1684200595985351400,8.577351318359375,0.8830980090260505,1.5231640912801026,0.7352566410332918
1684200595995377400,8.58737744140625,1.225286475598812,1.3351508718967438,0.5372007510632276
1684200596005403400,8.5974033203125,1.5664391693830488,0.9341372913897037,0.2708645210713148
1684200596015429400,8.607429443359376,1.711633237737417,0.5382523059427737,0.07735562688112259
1684200596025454300,8.617454345703125,1.6680536237299441,0.236896785017848,0.10918693542778492
1684200596035480300,8.627480224609375,1.6305752492070198,0.11267010136842727,0.3229360690921545
1684200596045506300,8.63750634765625,1.575890888339281,0.2619458860784769,0.6233528478622437
1684200596055532300,8.6475322265625,1.4663585004746913,0.5863806692957878,1.0454276288375257
1684200596065558300,8.657558349609374,1.4316367311835287,0.9520382742613553,1.467806361195445
1684200596075584500,8.66758447265625,1.3886884008169174,1.1271113480508326,1.8442402117192744
1684200596085609200,8.677609130859375,1.211483575695753,0.9802928933650255,2.1069237644225356
1684200596095635500,8.687635498046875,0.91377839397192,0.4983458274900913,1.9858190121859312
1684200596105661400,8.697661376953125,0.4446691823601722,-0.20917174274623393,1.4826897498115896
1684200596115687400,8.7076875,-0.14068155936598778,-0.8824497742503881,0.7682569933593273
1684200596125713400,8.71771337890625,-0.6275415317237377,-1.2906003670305013,0.06739040544480085
1684200596135739400,8.727739501953126,-0.9487889170765876,-1.3555284740149973,-0.4428521960660815
1684200596145765400,8.737765380859376,-1.1183014341294766,-1.2258166369527577,-0.7369047005012631
1684200596155790300,8.747790283203125,-1.1116343774557114,-0.912623963239789,-0.8618249193727969
1684200596165816300,8.75781640625,-1.0206640667200089,-0.5697013371735811,-0.8543781104981899
1684200596175842300,8.76784228515625,-0.9280559256494044,-0.26213059499561786,-0.8222752915337681
1684200596185868300,8.777868408203124,-0.7717126867711543,0.15500994444787503,-0.7170850245267152
1684200596195894300,8.787894287109374,-0.538964253604412,0.4972726453006267,-0.5880041788443923
1684200596205920300,8.797920166015626,-0.22388589400900527,0.7553536726444959,-0.47666181894838805
1684200596215946200,8.8079462890625,0.023648586612939834,0.9439701186180114,-0.46284401373714207
1684200596225971200,8.81797119140625,0.34907530347704885,0.9009650896281003,-0.6598831278800964
1684200596235997200,8.8279970703125,0.6766916393399238,0.5800789388030767,-1.008078725913167
1684200596246023400,8.8380234375,0.8238952939510344,0.23841478836536406,-1.2970561190411447
1684200596256049400,8.84804931640625,0.7472153743743896,0.0023398411244153973,-1.406304137006402
1684200596266075400,8.858075439453126,0.5866285065770149,-0.21249884134232996,-1.4617112591907382
1684200596276101400,8.868101318359376,0.4423287567138672,-0.29464170249998567,-1.459783213737607
1684200596286126300,8.878126220703125,0.21956629551053045,-0.14345219312310217,-1.2205331435918807
1684200596296152300,8.88815234375,-0.0667500617146492,0.17293781532645225,-0.7713567129403353
1684200596306178300,8.89817822265625,-0.3429682187736034,0.5938835922718048,-0.28671792376339433
1684200596316204300,8.908204345703124,-0.5872130284667014,1.0141694440037012,0.31248540222644805
1684200596326230300,8.918230224609376,-0.7119464925944805,1.1525678608685732,0.7932125709176063
1684200596336256300,8.92825634765625,-0.9077239162385463,0.9246849879115819,1.0543734440982342
1684200596346282200,8.9382822265625,-1.3288789520204067,0.4182160597205162,1.2076967506334184
1684200596356306700,8.948306640625,-1.6250070936858654,-0.1249473991394043,1.4635229847878217
1684200596366332700,8.958332763671875,-1.7617887230038642,-0.3667933309972286,1.8073390525624156
1684200596376358700,8.968358642578124,-1.6337597244620323,-0.22566344334185123,1.7615061066702007
1684200596386384600,8.978384521484376,-1.287784725087881,-0.03501519927978516,1.5593924657419322
1684200596396410600,8.98841064453125,-0.7482604995131492,-0.08331599659025668,0.8925207941487431
1684200596406436600,8.9984365234375,-0.5003893525490537,-0.29617665698230267,0.23902590600103138
1684200596416461800,9.0084619140625,-0.4249450757145881,-0.508068764603138,0.008984978227317333
1684200596426487800,9.01848779296875,-0.5196200861871242,-0.6560515868932009,0.07342910108715295
1684200596436513500,9.028513427734374,-0.7282184129595756,-0.8419546822547912,0.13642360966056585
1684200596446539800,9.038539794921874,-0.8565490247964859,-0.8400631694197654,0.10574468601942062
1684200596456565800,9.048565673828126,-0.8820295030117035,-0.6993798564881086,0.0881497003570199
1684200596466591700,9.058591796875,-0.8284335219025611,-0.47037470150291916,0.0045651159584522245
1684200596476617700,9.06861767578125,-0.7904524585545063,-0.15527414834201336,-0.14217062887996434
1684200596486643000,9.078642822265625,-0.7557634224891662,0.10235504358112811,-0.27793782045841214
1684200596496669000,9.0886689453125,-0.6777098764717578,0.28396482566297054,-0.4615615727111697
1684200596506695000,9.09869482421875,-0.5355529838562011,0.36777941942512987,-0.6510065784633159
1684200596516721000,9.108720947265626,-0.28669980358481406,0.33497254384458064,-0.8005775467276572
1684200596526746600,9.11874658203125,-0.029030864173173902,0.26200492278933524,-0.8908987459048628
1684200596536772600,9.128772705078125,0.2779851667314768,0.2933937482655048,-0.9809458043158054
1684200596546798600,9.138798583984375,0.5871919491460547,0.4290291301578283,-1.0785998305991291
1684200596556823800,9.14882373046875,0.7928343852549791,0.5010018949568271,-1.1928107316687702
1684200596566849800,9.158849853515624,0.7567302216947078,0.450854008474946,-1.1372075023904442
1684200596576875800,9.168875732421874,0.44273032325208184,0.30698738933205605,-0.9844961902737617
1684200596586901800,9.17890185546875,-0.02623454798553139,0.08820844480693339,-0.7310340549021959
1684200596596928000,9.188927978515625,-0.4992080338099971,-0.1647363886922598,-0.39551147595942016
1684200596606954000,9.1989541015625,-0.872735020443797,-0.3279676335185766,-0.030559973436594008
1684200596616979000,9.20897900390625,-1.0976257258474826,-0.30733517985641956,0.1913762660756707
1684200596627005000,9.2190048828125,-1.1615829419732093,-0.1710100621342659,0.2664616099372506
1684200596637031000,9.229031005859374,-1.095153782775998,0.018826281023025512,0.17788579312264918
1684200596647057000,9.239056884765626,-0.8900175791561603,0.1853232496470213,-0.012382803972065448
1684200596657083000,9.249082763671876,-0.566579405760765,0.1844821226477623,-0.19247633627206087
1684200596667108900,9.25910888671875,-0.19375380886197088,0.15507307281196117,-0.3184811355099082
1684200596677134800,9.269134765625,0.18650044020023196,0.17348609685897826,-0.42207653454095123
1684200596687159800,9.279159912109375,0.48754269392490385,0.23034254106879232,-0.5291451626405119
1684200596697185800,9.289185791015624,0.7275865447968244,0.2883089923471212,-0.5758379402324557
1684200596707211800,9.299211669921876,0.8889584254920482,0.1840063218295574,-0.601971621659398
1684200596717237800,9.30923779296875,0.932101986169815,0.040569910797476766,-0.5430407092630863
1684200596727263700,9.319263671875,0.795012898337841,-0.1531108328282833,-0.23714725264757872
1684200596737289700,9.329289794921875,0.5347790768742561,-0.29580548558235165,0.17017215000540017
1684200596747316000,9.33931591796875,0.2787105583965778,-0.41094753002226353,0.5616349350959062
1684200596757340700,9.349340576171874,0.04740640575401485,-0.54448856998384,0.8714081557542085
1684200596767367000,9.359366943359374,-0.16149645692296324,-0.5592950939714908,1.1613514713048934
1684200596777393000,9.369392822265626,-0.3205330265384167,-0.5197749844878912,1.4708067120552062
1684200596787419000,9.3794189453125,-0.3742903722217306,-0.568515342259407,1.6838868604168296
1684200596797444900,9.38944482421875,-0.3153758629709482,-0.6338537836104631,1.5890619200795888
1684200596807470800,9.399470947265625,-0.11485146399550139,-0.5929664774268866,1.195845569320023
1684200596817495800,9.409495849609375,0.12716222564466298,-0.36538463324308396,0.6006693068891763
1684200596827521800,9.419521728515624,0.39859022581763565,0.05023848737478256,-0.09946925901174544
1684200596837547800,9.4295478515625,0.6466361082941293,0.3860322844743728,-0.8035492560148239
1684200596847573800,9.43957373046875,0.8942881691474467,0.5758715502411127,-1.3646625053241848
1684200596857599700,9.449599853515625,0.9880079977869987,0.6930266880691051,-1.6495932534098625
1684200596867625700,9.459625732421875,1.0039631072878836,0.6813292360126971,-1.6294716718792914
1684200596877651700,9.469651611328125,0.9491752860456705,0.5673819543153047,-1.472448341782391
1684200596887676700,9.4796767578125,0.803112618163228,0.47675884958207604,-1.1753811657011508
1684200596897702700,9.48970263671875,0.6459207996316254,0.4103583319574594,-0.8789113709911703
1684200596907728600,9.499728759765626,0.5012708480913192,0.3601432254582643,-0.6446160006433725
1684200596917755000,9.5097548828125,0.338886502417922,0.28553192884922024,-0.44000235959291456
1684200596927780900,9.51978076171875,0.17420681234896182,0.1450625509291887,-0.3391521676167846
1684200596937806800,9.529806884765625,0.04329385586865246,-0.0529728807747364,-0.24780863965451716
1684200596947831800,9.539831787109375,-0.07711999149434268,-0.23367490036189556,-0.1835971565067768
1684200596957857800,9.54985791015625,-0.14453414314091204,-0.42406478574872014,-0.1406026489108801
1684200596967883800,9.5598837890625,-0.19435930047445,-0.5842495024859905,-0.09112199416607618
1684200596977909800,9.56990966796875,-0.21904256389737128,-0.571861145555973,0.005704933643341064
1684200596987935700,9.579935791015625,-0.2243827558815479,-0.4407973093628883,0.14686580095887183
1684200596997961700,9.589961669921875,-0.23116496336758136,-0.2703127324074507,0.31364743174314497
1684200597007987700,9.59998779296875,-0.18121574126295745,-0.2620101834863424,0.45062779850363727
1684200597018012700,9.6100126953125,-0.10800963527671992,-0.3637701837837696,0.565290827254951
1684200597028038700,9.62003857421875,-0.026310426233336327,-0.46480245432853695,0.7123088961660862
1684200597038064600,9.630064697265626,0.012887611689046025,-0.4901058224111795,0.9420403195992112
1684200597048090600,9.640090576171875,0.033201500921323894,-0.4348673347920179,1.1275298657238482
1684200597058116600,9.65011669921875,0.026291794598102568,-0.28334523245990273,1.2489075896829367
1684200597068142800,9.660142822265625,0.019298647775128484,-0.07713058595359325,1.3325082484334707
1684200597078168800,9.6701689453125,0.005461188015341759,0.14877718753814698,1.4884846998259424
1684200597088193500,9.680193603515624,0.009608955344557761,0.30024668290019035,1.609346875478327
1684200597098219800,9.6902197265625,0.007073883908987045,0.42799861806631084,1.701689351350069
1684200597108245800,9.700245849609376,-0.015608488020300864,0.5163461790829896,1.6701108485206961
1684200597118271700,9.710271728515625,-0.032144612279534336,0.4840291328459978,1.3779177082166074
1684200597128297700,9.720297607421875,-0.06142448277771473,0.40925884628295894,1.0756994329825043
1684200597138323700,9.73032373046875,-0.07880823684222996,0.4201958353608846,0.7713184267565607
1684200597148349000,9.740348876953124,-0.0677769205443561,0.48157589447498317,0.380177713227272
1684200597158375000,9.750375,0.017632687324285506,0.5818231521219015,-0.030396599568426608
1684200597168400600,9.760400634765626,0.081089041255787,0.795296391454339,-0.35112755983173843
1684200597178426600,9.770426513671875,0.17772673010341822,0.9794587806284427,-0.67474050527215
1684200597188452600,9.78045263671875,0.3245382435917854,0.9845984816044568,-0.996112686048448
1684200597198478600,9.790478515625,0.5875748475164174,0.8319336389780044,-1.2681284229815006
1684200597208504600,9.800504638671875,0.9319599473506212,0.6034960547477006,-1.4285785126566886
1684200597218529800,9.81052978515625,1.3144611350893973,0.3052262248784304,-1.4614499779060481
1684200597228555800,9.8205556640625,1.6703052020490168,0.08986439532041549,-1.3144789630070328
1684200597238581800,9.830581787109375,1.926323451644182,0.023374445846676827,-0.9499620525091886
1684200597248608000,9.84060791015625,2.036743728259206,0.00004091653227806091,-0.3565492926195264
1684200597258633700,9.8506337890625,1.9683166732430457,0.014915829581022262,0.37124183483868833
1684200597268659700,9.86065966796875,1.8387270012557506,0.016124036327004432,0.9635206222623586
1684200597278685700,9.870685791015624,1.7726596611082552,-0.04762742809355259,1.3498477980300783
1684200597288711000,9.8807109375,1.8519260900467633,-0.06612988398969173,1.609274394764006
1684200597298737000,9.89073681640625,2.2475492096871137,-0.035062545552849766,1.88580088711977
1684200597308763000,9.900762939453125,3.0929806281417607,-0.0018739771783351897,2.1732313430666923
1684200597318788900,9.910788818359375,4.713026300027966,-0.198755562672019,2.5631416380181906
1684200597328814800,9.92081494140625,6.6762348364770405,-0.554983075991273,2.877239443877339
1684200597338840800,9.9308408203125,7.716124997192621,-0.5708680428653955,3.0652114544674753
1684200597348866800,9.94086669921875,7.342899587321281,-0.29857202768623825,3.1214599959120153
1684200597358892500,9.950892578125,5.53863950381279,0.22773031274378297,2.9690947207540273
1684200597368918500,9.96091845703125,0.9380313762187957,0.681587010166049,2.2444085735738275
1684200597378944500,9.970944580078125,-3.700252694296837,0.9552157352536916,1.466319629769027
1684200597388970500,9.980970458984375,-5.974838963991403,2.062154063847661,0.8613748375177382
1684200597398996500,9.99099658203125,-6.663968060100078,3.092726945641637,0.45445787818580863
1684200597409022200,10.001022216796875,-7.2360489858865735,3.901169818916917,0.25601766507327556
1684200597419048400,10.01104833984375,-8.12946731339693,4.440349761098623,0.39744098271727557
1684200597429073400,10.021073486328126,-8.07131673772335,4.360304164481163,0.9919447527140378
1684200597439099600,10.031099609375,-6.406694257485866,3.1614269723802804,2.0733523342102766
1684200597449125600,10.041125732421875,-2.4679750446364284,1.816948300167918,3.5906507483273744
1684200597459151600,10.051151611328125,0.6891735197722911,0.8971674509108066,4.959249131795763
1684200597469177600,10.061177490234375,0.6054791913889348,0.5573451289474963,4.949048055776953
1684200597479203600,10.07120361328125,-1.8103508015990257,0.6474257973670959,3.5806758822798725
1684200597489228500,10.081228515625,-2.966157790519297,0.483321861359477,2.268169972911477
1684200597499254500,10.091254638671876,-2.8424083689928055,-0.021574118426442145,1.123393788832426
1684200597509280500,10.101280517578125,-2.9870749063417312,-0.2661240485459566,0.016176643297076226
1684200597519306500,10.111306396484375,-2.8251053520143032,0.0665840574979782,-1.3576988037914037
1684200597529332500,10.12133251953125,-3.088218820567429,0.6511889492928982,-2.1096055508524176
1684200597539358500,10.1313583984375,-2.433096331217885,1.165098841139674,-2.9431185679763554
1684200597549384400,10.141384521484374,-2.251907112635672,1.2839935161113738,-3.6202106048107145
1684200597559409400,10.151409423828126,-1.9023305816382168,1.2715759330868721,-4.007377446272969
1684200597569435400,10.161435302734375,-1.2938479706496,1.1673322992801665,-4.5214211936324835
1684200597579461400,10.17146142578125,-1.649896328009665,0.9951631302386522,-4.544285936391353
1684200597589487600,10.181487548828125,-1.1483037736833095,0.600112257528305,-4.426574918246269
1684200597599513600,10.191513671875,-1.1969395020365714,0.28569442593455313,-3.8923669192582366
1684200597609539600,10.20153955078125,-1.6617156528800725,0.045940497919917105,-3.347119055339694
1684200597619565600,10.211565673828124,-1.4730951152533291,-0.2120534356623888,-3.1860277451515198
1684200597629590500,10.221590576171875,-1.7413608520030974,-0.3266816853612661,-2.852345825639367
1684200597639616500,10.231616455078125,-1.600823961804807,-0.275399826413393,-2.742700040528178
1684200597649642500,10.241642578125,-1.6915028883785008,-0.1811608692705631,-2.3670979646533725
1684200597659668500,10.25166845703125,-1.5412375081092118,0.00466857633292675,-2.222466206356883
1684200597669694500,10.261694580078125,-1.5211346312791107,0.12796996183097362,-2.244359473735094
1684200597679720400,10.271720458984374,-1.4731909768432379,0.1169517242103815,-2.4076982705891132
1684200597689746400,10.281746337890626,-0.9262091287389397,-0.16768354806005953,-2.8024463609606025
1684200597699771400,10.291771484375,-0.8478829032599926,-0.5804413423746824,-2.6041759514570235
1684200597709797400,10.30179736328125,-0.8380085749775171,-0.7863613898485898,-1.9086615382254122
1684200597719823400,10.3118232421875,-0.6697878513008356,-0.8113520387202501,-1.3556284272581338
1684200597729849300,10.321849365234375,-0.6525079229369759,-0.7268827804416418,-1.100146768757701
1684200597739875600,10.33187548828125,-0.7273737788289785,-0.6176280404746533,-1.0698293719053267
1684200597749901600,10.341901611328124,-0.8343462530776857,-0.645355420833826,-1.1824544650882483
1684200597759926500,10.351926513671875,-0.847537158562243,-0.7120464458376169,-1.359485102686286
1684200597769952500,10.361952392578125,-0.6968421547040343,-0.7017237892657519,-1.5750345637708902
1684200597779978500,10.371978515625,-0.5747042600274086,-0.5398480507016181,-1.6405015999376773
1684200597790004500,10.38200439453125,-0.42040918585062026,-0.3239356015235185,-1.5628905369907617
1684200597800030500,10.392030517578124,-0.2633320797398686,-0.12184358790516853,-1.366797471526265
1684200597810056400,10.402056396484374,-0.14707769014388322,-0.014032617005705832,-1.1592851864248515
1684200597820082400,10.41208251953125,-0.0207069802030921,0.002803366982936859,-0.9776245509386062
1684200597830107400,10.422107421875,0.20045564458817242,0.0249701906055212,-0.7251584408670664
1684200597840133400,10.43213330078125,0.4660585918694734,0.11131517962813377,-0.28686522327959535
1684200597850159400,10.442159423828125,0.5648498054891824,0.14600830734670162,0.2807821039736271
1684200597860185300,10.452185302734375,0.3842012696549296,0.04922609546184539,0.7709341036140919
1684200597870211300,10.46221142578125,0.10343407098948955,-0.26599779181778427,1.0326245536267757
1684200597880237300,10.4722373046875,-0.1627916843652725,-0.7156319031089544,1.040973864299059
1684200597890263600,10.482263671875,-0.5783483156181871,-1.203115560323,0.930223917338252
1684200597900288300,10.492288330078125,-1.1650025411583482,-1.5451654952079057,0.722654349091649
1684200597910314200,10.502314208984375,-1.5979542515873908,-1.71136669575572,0.4719757069587707
1684200597920340500,10.512340576171875,-1.7356874825417994,-1.6612001045733689,0.1679378150820732
1684200597930366500,10.522366455078124,-1.6587376599825918,-1.4176234034001827,-0.10512158568501472
1684200597940392400,10.532392333984374,-1.3012148461557924,-1.0200380437761545,-0.2764408598989248
1684200597950418400,10.54241845703125,-0.6453637502707541,-0.5985141746819019,-0.32520810567736624
1684200597960444400,10.5524443359375,0.06457549415454268,-0.14992811113893986,-0.33816520240604875
1684200597970469400,10.562469482421875,0.7514063963234424,0.44297699148952957,-0.28993688580989835
1684200597980495400,10.572495361328125,1.0968880592226982,0.9797107095628976,-0.10910568688511847
1684200597990521300,10.582521240234374,1.2360264807999133,1.3579945718675852,-0.01764554680585861
1684200598000547300,10.59254736328125,1.355674604487419,1.5864035145252942,0.0536222845941782
1684200598010573300,10.6025732421875,1.4056114785671234,1.654924093043804,0.11676584624946117
1684200598020599300,10.612599365234376,1.3966238699913025,1.7158283513396977,0.25535014107525345
1684200598030624500,10.62262451171875,1.4953087006270884,1.961340989011526,0.4660159217715263
1684200598040650200,10.632650146484375,1.489101078158617,2.5832453916311264,0.7360919228136539
1684200598050676200,10.64267626953125,1.3736825548648834,3.4948633926987647,1.1768085681557654
1684200598060702200,10.6527021484375,1.5519336741685867,4.046322386217117,1.8419371954739092
1684200598070728400,10.662728515625,2.0546786134004593,3.8386546182930465,2.685354936018586
1684200598080754400,10.67275439453125,2.2516110522985455,3.1090380289733406,3.312534064170718
1684200598090780400,10.682780517578125,2.28146141616106,2.217682479211688,3.420874611902237
1684200598100805600,10.6928056640625,2.4134885444283483,1.2206412801414728,3.124796739119291
1684200598110831600,10.70283154296875,1.9933774647414684,-0.05159983885586261,2.501829091182351
1684200598120857600,10.712857666015625,0.9887035788357257,-1.4304162494778632,1.4535323366492985
1684200598130883300,10.72288330078125,0.04482460909988731,-2.5298048933446404,0.022422844210267065
1684200598140909300,10.732909423828126,-0.9209820417404174,-3.1087013443648814,-1.3369582135796547
1684200598150935300,10.742935302734375,-1.8388111724078655,-3.079240856602788,-2.306753093805909
1684200598160961300,10.752961181640625,-2.549485745370388,-2.7325480643481015,-2.8545471350759266
1684200598170986500,10.762986572265625,-2.969020486474037,-2.026287216174602,-3.0968916641056534
1684200598181012500,10.773012451171875,-3.015072628074884,-0.8233779920786619,-2.9040593540027735
1684200598191038500,10.78303857421875,-2.7044904291212557,0.6174351482510566,-2.2723989887833596
1684200598201064400,10.793064453125,-2.176730291098356,1.8363550114274023,-1.386366972132027
1684200598211090400,10.80309033203125,-1.2731541421890258,2.5103321311116216,-0.34771570556163783
1684200598221116400,10.813116455078125,-0.054468087768554684,2.204462932154536,0.5801444052547217
1684200598231142400,10.823142333984375,0.9226853385269641,1.2296721433371305,0.9653627429977059
1684200598241167600,10.833167724609375,1.3414227917730808,0.21952362541258333,0.8345558041751384
1684200598251193600,10.843193603515624,1.3857377343177795,-0.6229518658459187,0.38197453351616856
1684200598261219600,10.853219482421874,1.3283371002286672,-0.9513532146066427,-0.018522914162278175
1684200598271245600,10.86324560546875,1.2139385676324366,-0.6786848589837551,-0.2499684480369091
1684200598281271600,10.873271484375,0.9833850141614675,-0.24329613066613673,-0.3865729672223329
1684200598291297500,10.883297607421875,0.7192039163768291,0.10777122341096401,-0.4534884486317634
1684200598301323500,10.893323486328125,0.5155705185353756,0.3882692497462034,-0.4795236381202936
1684200598311348500,10.903348388671875,0.27982816424965856,0.4412631733089685,-0.505860440903902
1684200598321374500,10.91337451171875,0.04372341552549042,0.2707674904376268,-0.6006044249594211
1684200598331400400,10.923400390625,-0.3003998276352882,-0.0012140519648790359,-0.6552329639866947
1684200598341426400,10.933426513671876,-0.5563584559977054,-0.21274901671111582,-0.5322071805596351
1684200598351452400,10.943452392578125,-0.9864227744221686,-0.269707752251625,-0.09455752157270908
1684200598361478700,10.953478759765625,-1.7673557094812393,-0.26963760962486266,0.5328168368905782
1684200598371504600,10.963504638671875,-2.435171968448162,-0.16154373013079165,1.2966022377938031
1684200598381529600,10.973529541015624,-2.475703885322809,-0.012911504021286964,1.9929241680160164
1684200598391555600,10.9835556640625,-2.1456606145739556,-0.050745267853140825,1.9600418891116975
1684200598401581600,10.99358154296875,-1.443673205935955,-0.08680383870601653,1.668271942655742
1684200598411607600,11.003607666015625,-0.5558920075297356,-0.06464870552122592,1.333276017935574
1684200598421633500,11.013633544921875,0.05117606048583984,-0.12495207531452178,1.1767632677093147
1684200598431659500,11.023659423828125,0.36543256403803825,-0.24111352593004703,1.0392068546265363
1684200598441685500,11.033685546875,0.5235223543226719,-0.4049222783833742,0.8080778393551706
1684200598451710500,11.04371044921875,0.5297603719294071,-0.5815209543049336,0.6039145724207162
1684200598461736400,11.053736328125,0.4772492634475231,-0.22663491872251032,0.41300972324907775
1684200598471762400,11.063762451171876,0.41899288931190964,0.1366495273709297,0.31290070502907036
1684200598481788700,11.07378857421875,0.3787275144189596,0.29221944378912446,0.20741583898961544
1684200598491814700,11.083814697265625,0.42678222801387306,0.32295535831451416,-0.016758827099204062
1684200598501840600,11.093840576171875,0.4695195459783077,0.18389643171429634,-0.35692777054309843
1684200598511865600,11.103865478515624,0.40063714841008186,0.058089785397052764,-0.6428653575837612
1684200598521891600,11.1138916015625,0.22242283571911975,0.00462064553797245,-0.6831093974277377
1684200598531917600,11.12391748046875,-0.03326866613971069,-0.007393617382645607,-0.596138093200326
1684200598541943600,11.133943603515625,-0.4419844733208418,-0.13259469902217388,-0.6695455669775605
1684200598551969500,11.143969482421875,-0.9457125783711672,-0.19864801064431667,-0.6449304734200239
1684200598561995500,11.15399560546875,-1.2024912909448147,-0.13933189832270146,-0.5177364643976092
1684200598572021500,11.164021484375,-1.196264963775873,0.05181611195504665,-0.41133331446945665
1684200598582046500,11.17404638671875,-1.0866337917119264,0.1722428187996149,-0.46963265096396206
1684200598592072400,11.184072509765626,-0.7931769150823355,0.1514326704829931,-0.6047273501083255
1684200598602098400,11.194098388671875,-0.5346072639713063,0.012314707171916961,-0.7139660157233476
1684200598612124400,11.20412451171875,-0.3350350876867771,-0.04605564873218536,-0.7400815769717097
1684200598622150400,11.214150390625,-0.15432082967255265,-0.00837561415731907,-0.7355018479660153
1684200598632176600,11.2241767578125,-0.05767535937726497,-0.012258008548617362,-0.6525698822572827
1684200598642202600,11.23420263671875,-0.06663432638049126,0.03298632380068302,-0.4472308495417237
1684200598652227600,11.2442275390625,-0.0370393985837698,0.0841126999258995,-0.2735197117552161
1684200598662253600,11.254253662109376,0.13749244446847586,0.1301449677824974,-0.20341274082809685
1684200598672279600,11.264279541015625,0.3719551707398146,0.08596212718486786,-0.06085515845715999
1684200598682305500,11.274305419921875,0.6214350315421819,-0.03470072650313377,0.016854688689112662
1684200598692331500,11.28433154296875,0.8463070322453975,-0.1673404337108135,0.03119914812296629
1684200598702357500,11.294357421875,1.009662195712328,-0.1636024162262678,-0.04738280568271875
1684200598712383500,11.304383544921874,1.0868762952309101,-0.1012491281658411,-0.10921090082526207
1684200598722408400,11.314408447265626,1.0201918460983783,-0.04014847051501274,-0.023976503393054006
1684200598732434400,11.324434326171875,0.8222171316057443,-0.06513035155832766,0.144371938316524
1684200598742460400,11.33446044921875,0.4969336226046085,-0.12792144651412962,0.3162169899702072
1684200598752486400,11.344486328125,0.1710533167541027,-0.18089432728886604,0.44180882449299097
1684200598762512400,11.354512451171875,-0.01718202094733715,-0.2964233252197504,0.5008657013565302
1684200598772538400,11.364538330078124,-0.10175353402402251,-0.4630974039763212,0.4620005486503243
1684200598782563300,11.374563232421876,-0.110271734989807,-0.4883662852674722,0.3890288359418511
1684200598792589300,11.38458935546875,-0.04769399052374065,-0.3378893080741167,0.2699836465835571
1684200598802615300,11.394615234375,0.14412855801470578,-0.08661562265753746,0.18887188203930855
1684200598812641500,11.4046416015625,0.3991132267784327,0.07418576467335224,0.1664391009569168
1684200598822667500,11.41466748046875,0.6389636739701032,-0.0077197805970907205,0.2500502811014652
1684200598832693500,11.424693603515625,0.7955238435346633,-0.17890578382015226,0.33683453832417726
1684200598842719500,11.434719482421874,0.8554548728842287,-0.29805531033575533,0.3651104924768209
1684200598852744700,11.44474462890625,0.8216320982594043,-0.31893501675724983,0.33580314944982526
1684200598862770400,11.4547705078125,0.7542705535829067,-0.20220716443061829,0.3234001794725656
1684200598872796400,11.46479638671875,0.690029844340682,-0.1427151110202074,0.31269992175996303
1684200598882822400,11.474822509765625,0.62488897138834,-0.20596213304996489,0.32582916018515823
1684200598892848400,11.484848388671875,0.5819499933719635,-0.3464215740978718,0.36125118670016526
1684200598902874400,11.494874267578124,0.5239753587871789,-0.45147593976557254,0.43884880564361806
1684200598912900400,11.504900390625,0.44812487577199933,-0.4805518121242523,0.5068868613421916
1684200598922925600,11.514925537109375,0.3787158970464021,-0.5269377157241105,0.4075385983616113
1684200598932951600,11.52495166015625,0.336190176006034,-0.5850608188688755,0.31193916652053594
1684200598942977500,11.5349775390625,0.36847551193051037,-0.6787830586612225,0.22226854020655154
1684200598953003500,11.54500341796875,0.3886626329779625,-0.799785519567132,0.11456044515967369
1684200598963029500,11.555029541015625,0.4038344831466675,-0.8570902920663356,0.08695815248489379
1684200598973055500,11.565055419921874,0.3819640121221542,-0.8325175763458013,0.07767068417966365
1684200598983081500,11.57508154296875,0.3510129935413599,-0.6746785459518432,0.1714177661523223
1684200598993106700,11.585106689453125,0.34242227532863617,-0.4200812690705061,0.29394349110275503
1684200599003132700,11.595132568359375,0.33944822795391083,-0.2096253317326307,0.4068792576700449
1684200599013158700,11.60515869140625,0.289527793552354,-0.09700023854970931,0.590093552339077
1684200599023184600,11.6151845703125,0.2639502847034484,-0.0071639002799987785,0.8271522499203682
1684200599033210600,11.625210693359374,0.24769166221134364,0.07710077533721924,1.05951928255409
1684200599043236600,11.635236572265624,0.17538221280388533,0.18285948988199233,1.2562684738397598
1684200599053262600,11.6452626953125,0.09283318199813366,0.28620588258802887,1.5178227302521465
1684200599063287600,11.65528759765625,0.015450667110085487,0.3193932819187641,1.692172165942192
1684200599073313500,11.6653134765625,-0.02254040617533028,0.3569815465569496,1.885683105958998
1684200599083339500,11.675339599609375,-0.10955335758738219,0.49906245132684707,2.073444104146957
1684200599093365500,11.685365478515624,-0.2888771476238966,0.7455331203758716,2.1842513342529535
1684200599103391500,11.6953916015625,-0.4740555089075118,1.0158213028639553,2.1495003388673064
1684200599113417700,11.705417724609376,-0.6611796704966575,1.175276536282897,1.8563079583927988
1684200599123443700,11.715443603515626,-0.6855658506691455,1.2066489951461552,1.2125959208518267
1684200599133468700,11.72546875,-0.4521335268914699,1.12303196978271,0.13737813390642403
1684200599143494700,11.73549462890625,-0.0395662867128849,1.0574246483623981,-0.8068459594726562
1684200599153520600,11.745520751953125,0.48979368772208687,1.0716945812553167,-1.3322700557634233
1684200599163546600,11.755546630859374,1.1772504667043686,1.0738011981457471,-1.5034490447238087
1684200599173572600,11.765572509765626,2.2687032030053436,0.9521236144572496,-1.4469023971155286
1684200599183598600,11.7755986328125,4.220808015507459,0.7014420497149229,-1.082473749423027
1684200599193624600,11.78562451171875,6.499966999945044,0.26749416785538194,-0.3579933539479971
1684200599203649500,11.7956494140625,7.984300133049487,-0.026876316487789154,0.4408282890230417
1684200599213675500,11.805675537109375,7.657958639428019,0.06467500900626182,1.0039730441600083
1684200599223701500,11.815701416015624,5.862137298440933,0.3165899149358272,1.2504998273104428
1684200599233727500,11.8257275390625,3.3148470172882076,0.6850093858301639,1.1531558898895977
1684200599243753500,11.83575341796875,0.5600245772898197,1.0931903737485409,1.1884548745468257
1684200599253779500,11.845779541015625,-2.282808154594898,1.309521340599656,1.1530056677639484
1684200599263804400,11.855804443359375,-4.403571643799543,1.7380372605383396,0.9523422256439924
1684200599273830400,11.865830322265625,-5.075355637353659,2.426788755506277,1.1022884569615126
1684200599283856600,11.875856689453125,-3.994313089777529,2.9880402442425487,1.287180329453945
1684200599293882600,11.885882568359374,-3.3843209510087964,3.1696213847517964,1.0286854606121778
1684200599303908600,11.89590869140625,-3.555639640700817,2.9750568440288303,0.6271165843099356
1684200599313934600,11.9059345703125,-3.699423842257261,2.3662013080745936,0.06784136408269405
1684200599323960600,11.915960693359375,-3.6503789485812184,1.832899902537465,0.05293956302702427
1684200599333985500,11.925985595703125,-3.1312881469652054,1.3022843750834465,0.3553425471782684
1684200599344011500,11.936011474609375,-2.352865733422339,0.833555102699995,0.9030079936325549
1684200599354037500,11.94603759765625,-1.4133131389856337,0.4848468789696693,1.6554864031016825
1684200599364063200,11.956063232421876,-0.9468614561453461,0.3161047617673874,1.9553847109556197
1684200599374089200,11.966089111328126,-1.1653121916294098,0.3882721723556518,1.295826577246189
1684200599384115200,11.976115234375,-1.4648302679941057,0.731074971434474,-0.06229600491523742
1684200599394141200,11.98614111328125,-1.7483879741609096,0.8254279103457928,-1.2272235811412333
1684200599404166100,11.996166259765625,-2.2719264028355477,0.6887842281937598,-1.846547904139757
1684200599414192000,12.006192138671874,-2.5490160820320247,0.5316454550236464,-2.4504157148092984
1684200599424218000,12.016218017578124,-2.789549177725613,0.36607553811669347,-2.8657676172703503
1684200599434244000,12.026244140625,-2.9536349935546515,0.18460662581026552,-3.1015462119132278
1684200599444270000,12.03627001953125,-2.724106691478193,-0.19123335047364234,-3.301021321031451
1684200599454296000,12.046296142578125,-2.5436764745697378,-0.6698544867962598,-3.092327132669091
1684200599464322000,12.056322021484375,-2.6219550615146754,-1.0636591588377953,-2.6393209145963192
1684200599474347000,12.066346923828124,-2.2521423826962708,-1.3690221618384122,-2.5614099919199944
1684200599484373000,12.076373046875,-2.1099606479004023,-1.4916355650722979,-2.5590040998220442
1684200599494399000,12.08639892578125,-2.160501333092153,-1.4869219805538654,-2.5457623409330843
1684200599504425200,12.09642529296875,-1.8837927621677517,-1.3210983811467885,-2.5671201862603423
1684200599514451200,12.106451171875,-1.4139447148874402,-0.9992606286853551,-2.5191636723428963
1684200599524477200,12.116477294921875,-1.0951467685133218,-0.6447241371929645,-2.4082699329972264
1684200599534503200,12.126503173828125,-1.0162079640939832,-0.4134738336294889,-2.13330557539165
1684200599544528100,12.136528076171874,-1.1552847186118365,-0.26211832003593444,-1.6718091768711805
1684200599554554000,12.14655419921875,-1.3244611355781555,-0.10328910956084728,-1.260186524066329
1684200599564580000,12.156580078125,-1.561002823548019,0.029060090267658233,-0.9144903416335582
1684200599574606000,12.166606201171875,-1.6548042660564184,0.12713292648494243,-0.6401841556757688
1684200599584632000,12.176632080078125,-1.6175974019512533,0.26859774518311025,-0.4715916760772466
1684200599594658000,12.186657958984375,-1.4316881691098213,0.4140098402023315,-0.37067280277907844
1684200599604684000,12.19668408203125,-1.1903656766042112,0.4848597384512424,-0.2683101604133844
1684200599614709200,12.206709228515624,-0.9029179772615432,0.500252537894249,-0.18468378269970415
1684200599624735200,12.2167353515625,-0.5733984381258488,0.5101011472135782,-0.19541911172568796
1684200599634761200,12.22676123046875,-0.2624035667181015,0.5404273118942976,-0.3306576032549143
1684200599644787200,12.236787109375,-0.015314765770733355,0.6885930895358323,-0.5117693726867437
1684200599654813200,12.246813232421875,0.1583981255814433,0.9861579860061407,-0.6860954275012016
1684200599664839200,12.256839111328125,0.32984804043769833,1.2796686386495828,-0.7683499323397874
1684200599674865200,12.266865234375,0.4447513076856732,1.528195071184635,-0.8007306914627551
1684200599684890400,12.276890380859374,0.517580104792118,1.6185469577610492,-0.9171241972684859
1684200599694916400,12.286916259765626,0.5490225601516664,1.4252344629257916,-1.143908753594756
1684200599704942300,12.2969423828125,0.5393685966216027,0.9875567468881606,-1.2644324910730123
1684200599714968300,12.30696826171875,0.31277167182192206,0.5618921247273683,-1.0249117872923612
1684200599724994300,12.316994384765625,-0.0010638298392295837,0.33904899950325484,-0.5300421114802361
1684200599735020300,12.327020263671875,-0.1948500796660781,0.22740181144177912,-0.13326923728287218
1684200599745046000,12.3370458984375,-0.3150374247968197,0.21058920832872388,0.1647702909618616
1684200599755071200,12.3470712890625,-0.32175796522349115,0.2826806310713291,0.4612900622934103
1684200599765097200,12.35709716796875,-0.24242548531144856,0.42115795839130876,0.7076905887156725
1684200599775123200,12.367123291015625,-0.1614542982816696,0.5443471156865358,0.7860486706376075
1684200599785149200,12.377149169921875,0.03940364349707961,0.5827648168861865,0.6793588127225637
1684200599795175200,12.387175048828125,0.3471544184170663,0.5230062214940786,0.3973065426826477
1684200599805201400,12.397201416015625,0.5421824849985539,0.4429939426243305,-0.05699556041955948
1684200599815227400,12.407227294921874,0.5566248518489301,0.342711613664031,-0.5645902777701616
1684200599825252400,12.41725244140625,0.40765477208718653,0.2395984451919794,-0.9084522305130958
1684200599835278300,12.4272783203125,0.22644611815214155,0.22311200529336928,-1.0577233390480278
1684200599845304300,12.43730419921875,0.184913499802351,0.31337153741121293,-1.004322588250041
1684200599855330300,12.447330322265625,0.4482628229379654,0.5039870482474565,-0.7454501182675362
1684200599865356300,12.457356201171875,0.7156627366386353,0.7713713259875774,-0.38139994849860664
1684200599875382300,12.46738232421875,0.6838651842311024,1.0062421581357717,-0.13724632422029973
1684200599885408300,12.477408203125,0.48302185549959537,1.0671931781828403,-0.21867373058497905
1684200599895433200,12.48743310546875,0.2509352472424507,0.9289385537028312,-0.42348903168737884
1684200599905459200,12.497459228515625,0.2688682326875627,0.7323848849892616,-0.5090145210206508
1684200599915485200,12.507485107421875,0.3888707227706909,0.5174883348554372,-0.5565303054332733
1684200599925511200,12.51751123046875,0.2695731660865247,0.22072014172077178,-0.5352414336889982
1684200599935537200,12.527537109375,-0.005168634809553623,-0.12714461692273615,-0.41600948958694933
1684200599945563100,12.537563232421874,-0.0447685315310955,-0.3792641055136919,-0.21923487159907817
