time,seconds_elapsed,z,y,x
1684200626985348600,0.0273486328125,6.195707574272156,2.7534476445138454,-0.7444444483563304
1684200626995373800,0.037373779296875,5.210356812995672,3.216581288847327,-0.36453883006870746
1684200627005399800,0.04739990234375,3.7474370547980067,3.2434178578466173,0.12759031486362218
1684200627015425800,0.05742578125,2.8035394168943166,3.053578007557988,-0.11934884847998618
1684200627025451800,0.06745166015625,2.5421681158334017,3.363993033251166,-0.41093116340935226
1684200627035477800,0.077477783203125,2.60811796708107,3.911193200281262,-1.1139207348272204
1684200627045503700,0.087503662109375,3.2379367960870264,4.124584606549144,-1.6910788177475333
1684200627055529500,0.097529541015625,4.331110803222656,4.0968256620079275,-2.0389409460425374
1684200627065555500,0.107555419921875,4.942929280635714,4.231014352223277,-2.311773260055482
1684200627075580700,0.11758056640625,4.729212295675278,4.474443461619317,-2.591677119889855
1684200627085606700,0.127606689453125,4.783027472493052,5.009654207909107,-3.516474336004257
1684200627095632600,0.137632568359375,5.264729623696208,6.106817576941848,-4.312756815886497
1684200627105658600,0.14765869140625,5.315277907672524,7.4587366282880305,-5.1170110053002835
1684200627115684600,0.1576845703125,4.809563597241044,8.048253842043875,-6.327269423115253
1684200627125710800,0.1677109375,3.7038475039184093,8.32684048179984,-6.860308962845802
1684200627135736600,0.177736572265625,2.3843372687458992,8.418519233065844,-6.879807444041967
1684200627145762600,0.187762451171875,1.5813000539064406,8.767158483213185,-6.825230050680041
1684200627155788500,0.19778857421875,1.2819526579335332,9.506387535008788,-6.595214841869473
1684200627165814500,0.207814453125,0.8730585533097386,10.081189410191774,-6.363981489440798
1684200627175839700,0.21783984375,0.3603469313368201,10.444248815357685,-5.444485886865854
1684200627185865700,0.22786572265625,0.18925269805043934,10.57553593891263,-3.6861248002231117
1684200627195891700,0.2378916015625,-0.29163477576896546,10.130928715872765,-2.4693635763853785
1684200627205917700,0.247917724609375,-0.9586158990859984,9.829815771532058,-1.608575014322996
1684200627215943700,0.257943603515625,-1.8252450038701296,10.594275710695982,0.3851765444278717
1684200627225969700,0.2679697265625,-3.440367247879505,11.524610102671383,2.9674878700792786
1684200627235995600,0.27799560546875,-5.233419708675146,11.391032822352647,5.35154223023057
1684200627246020600,0.2880205078125,-6.371444664928316,10.948064598691463,7.751671526870131
1684200627256046600,0.298046630859375,-6.981749230647087,10.027401705902815,10.321848762613534
1684200627266072600,0.308072509765625,-7.162021626645326,8.567323308610916,12.691266694647073
1684200627276098800,0.318098876953125,-6.825520558059215,7.575847926974296,14.26738905365467
1684200627286124800,0.328124755859375,-5.910790562450885,7.00218353138864,15.000067368632553
1684200627296150800,0.33815087890625,-4.482735196885466,6.4332806511163705,15.597766719800234
1684200627306176800,0.3481767578125,-2.7416473166048525,6.237633575853705,16.148665741348264
1684200627316202800,0.35820263671875,-1.1885586271822453,6.174219965085387,16.43820281418562
1684200627326227700,0.368227783203125,0.10631057627387344,5.40734302790761,16.39937419409752
1684200627336253700,0.378253662109375,1.100827882889658,4.6180169430345295,17.03448060811758
1684200627346279700,0.38827978515625,2.9101825130581855,3.050419251266122,18.713670542889833
1684200627356305700,0.3983056640625,3.8391549690306186,1.2066145083546638,18.705360979706047
1684200627366331600,0.40833154296875,4.436840876194834,-0.04054945253133774,18.751244779002665
1684200627376357600,0.418357666015625,4.521346082569658,-1.2900970936834812,18.336968396818637
1684200627386383600,0.428383544921875,6.038215165358782,-2.2427543766260145,18.743933579206466
1684200627396409600,0.43840966796875,4.589290030243992,-0.9950602543860674,16.75998445254564
1684200627406434600,0.4484345703125,3.0277041461110112,-0.12720540719926357,14.644438405728339
1684200627416460500,0.45846044921875,-0.4601297863423824,-0.14467150578498839,9.695820558062195
1684200627426486800,0.46848681640625,-1.4029434284016489,-0.5129933615237474,7.238240942972898
1684200627436512800,0.4785126953125,0.24963673186451196,1.2215659937709569,8.337000056764483
1684200627446538800,0.488538818359375,-0.5343102903187275,2.122873028704524,6.928834802061319
1684200627456564700,0.498564697265625,0.8542661745563149,1.5487000990748405,4.987905901959538
1684200627466590700,0.5085908203125,1.9269208330154417,0.4186754939258098,3.1605683097243307
1684200627476616700,0.51861669921875,5.736468599289656,-0.8687176014959812,1.4639578690737485
1684200627486641700,0.5286416015625,5.390734422934055,0.2586649647116661,1.604692035409808
1684200627496667600,0.538667724609375,1.33295716124475,0.751090169981122,2.269448906806111
1684200627506693600,0.548693603515625,-1.7645123027488587,-1.1200286963135004,3.118933400043845
1684200627516719600,0.5587197265625,1.3190560616642235,-2.7224241452187297,3.756892280885577
1684200627526745600,0.56874560546875,4.926809920483827,-3.845755974730849,3.836225345319509
1684200627536771600,0.578771484375,5.173336703634262,-5.20845770137608,3.6111166132509704
1684200627546797600,0.588797607421875,5.115964126595855,-5.929082590466737,2.7466853107720612
1684200627556823800,0.59882373046875,4.814605098539591,-5.616787742376327,0.8400771979451179
1684200627566848500,0.6088486328125,5.45340685994625,-4.66193616425991,-1.274558163768053
1684200627576874800,0.618874755859375,3.818139361269772,-4.029403400120139,-1.484416135212779
1684200627586900700,0.628900634765625,0.9102245008826255,-4.9766287211418145,-0.33151626591086386
1684200627596926700,0.6389267578125,1.400194129693508,-4.310276104986667,-2.292886481016874
1684200627606952700,0.64895263671875,2.4237141703665257,-2.062802883145213,-2.122045345708728
1684200627616978700,0.658978759765625,1.6728671614915132,-1.656731434726715,-2.7840479499608275
1684200627627004700,0.669004638671875,-0.3925234000593424,-1.138627013799548,-2.104366481155157
1684200627637030700,0.67903076171875,-1.7109166139006613,0.9254442818462848,-2.424381109842658
1684200627647055600,0.6890556640625,-1.9027084750398993,2.2288298961699007,-4.143395105481147
1684200627657081600,0.69908154296875,-2.1698609898507595,2.5487925024092197,-4.374692170795798
1684200627667107600,0.709107666015625,-2.1784218974471092,2.0728771179139613,-2.4482874706089497
1684200627677133600,0.719133544921875,-1.0875757487371562,0.26516835525631904,-0.8056687323868275
1684200627687159600,0.72915966796875,0.5134601022526621,-2.1485487372308967,0.033817513927817344
1684200627697185500,0.739185546875,1.3426423966959118,-4.257147741389274,1.9275895260572433
1684200627707211800,0.749211669921875,1.1301298190891742,-4.974110016319155,4.388902482455968
1684200627717237800,0.75923779296875,1.3218432081647216,-5.26334430681765,6.50801235923469
1684200627727262700,0.7692626953125,0.3767391170807183,-7.629010192841291,8.563705702635646
1684200627737288700,0.779288818359375,-0.2500187169194221,-7.4200272506654255,4.796462708127498
1684200627747314700,0.789314697265625,-1.2249027369782328,-5.196632823547721,0.9876350728213786
1684200627757340700,0.799340576171875,-5.492860918456316,-0.6224287187546491,-7.270677231675386
1684200627767366700,0.80936669921875,-7.963349114957452,4.993581609508395,-14.263473926037548
1684200627777392600,0.819392578125,-2.724859847933054,4.949060915258526,-11.734160031080245
1684200627787418600,0.829418701171875,4.848243748769164,2.0890385636419055,-9.187889156103134
1684200627797443600,0.839443603515625,5.849363157063722,-1.286913787472248,-6.33549832227826
1684200627807469600,0.849469482421875,2.933266451525688,-1.2879612506985663,-4.19835126902759
1684200627817495600,0.85949560546875,1.0440374165881425,0.14817922164499758,-4.512545228737593
1684200627827521500,0.869521484375,1.2356962259322404,3.1265505970492957,-2.9565304227352143
1684200627837547500,0.879547607421875,1.0899100369036197,6.0414744594156735,-2.413435352936387
1684200627847573500,0.889573486328125,0.768278036147356,7.796344781333207,-0.8394985212743282
1684200627857599700,0.899599853515625,2.0553566587924954,8.025186854711174,-0.6380009664177895
1684200627867625700,0.909625732421875,1.748931579518318,5.144128144806623,-1.376786366099119
1684200627877650700,0.919650634765625,-4.910684130591154,0.4768441897779703,-9.532897940793633
1684200627887676700,0.9296767578125,-8.33762023448944,-0.022746669337153434,-8.80044232865572
1684200627897702700,0.93970263671875,-5.086182151794433,0.38049189374297854,-1.38042150773108
1684200627907728600,0.949728759765625,-3.0995699434041977,-0.5254334486410022,0.251872820353508
1684200627917754600,0.959754638671875,-1.8523839168168603,-0.5495879389494657,-0.1157405948549509
1684200627927780600,0.969780517578125,2.2174280660592016,0.16016133586168288,0.5894938328802585
1684200627937806600,0.979806640625,4.469844735652208,1.6473346608281134,0.8079723331540822
1684200627947832600,0.98983251953125,3.2948145753458142,3.0994542080700396,1.1736468892544507
1684200627957857500,0.999857421875,1.4238801257073879,3.296378171400726,0.8392682196497917
1684200627967883500,1.009883544921875,-1.883486180436611,3.3068171478286383,0.44507425602972506
1684200627977909500,1.019909423828125,-2.977341740095615,3.2245509525522587,1.1234580862402914
1684200627987935500,1.029935546875,-1.7393899903215466,2.9563892606988547,2.6853631193250416
1684200627997961500,1.03996142578125,-0.19672668719291686,2.9536551595598457,3.435982164663076
1684200628007987700,1.04998779296875,3.639156128299236,2.606735572811961,6.0106333309501405
1684200628018013700,1.060013671875,3.3345418978393075,1.6041653811872005,8.85544233134389
1684200628028039700,1.070039794921875,-2.4563036038041113,-1.0340846893072129,11.783317152959107
1684200628038064600,1.080064697265625,0.2052244664251804,-2.4649679717749358,7.655821042877435
1684200628048090600,1.090090576171875,4.123446542429924,-2.15189980122447,3.1644238161087035
1684200628058116600,1.10011669921875,3.497750930833816,-2.0122733038693665,2.498781394049525
1684200628068142600,1.110142578125,1.7450164519011973,-2.7751287304461,3.6444998274147506
1684200628078168600,1.12016845703125,2.5548820514559742,-4.024982076546549,2.943475710850954
1684200628088194600,1.130194580078125,2.6511013687610623,-4.313437199366092,1.6197943274736404
1684200628098220500,1.140220458984375,1.756496461814642,-3.869885622859001,-0.9568184942752123
1684200628108246500,1.15024658203125,0.7426560305695981,-2.895809704312682,-3.119171884974837
1684200628118271500,1.160271484375,0.5945124647598713,-2.03979376347959,-4.074043336835503
1684200628128297500,1.17029736328125,0.613114216312021,-1.7122715356409548,-3.7964123903691767
1684200628138323500,1.180323486328125,0.5444083443544805,-1.358821085819602,-1.8737001149594783
1684200628148349400,1.190349365234375,0.6540064909316599,-1.4376719196945429,1.8447618975058198
1684200628158375700,1.200375732421875,1.0520319955386221,-1.9055542198598383,3.454246720150113
1684200628168401700,1.210401611328125,1.6143185264110564,-2.5741122371047735,3.5915634792581197
1684200628178427600,1.220427734375,1.3128630522429943,-3.24842954852879,3.612707097312808
1684200628188453600,1.23045361328125,0.682529697843641,-3.455577676492929,3.8970319884598252
1684200628198478600,1.240478515625,-0.13774287556558848,-3.893931684356928,3.0096725225970147
1684200628208504600,1.250504638671875,-0.9956022523082793,-3.791191440850496,2.1021818305924533
1684200628218530600,1.260530517578125,-2.460676412060857,-3.8444220957785844,1.6435431595906613
1684200628228556500,1.270556640625,-4.0123020431935785,-4.105784044489265,1.8404875811874866
1684200628238582500,1.28058251953125,-4.456123668813706,-3.812710029697418,2.3755089423850175
1684200628248608500,1.2906083984375,-3.717371294619143,-3.140563632571697,2.405621172054112
1684200628258634500,1.300634521484375,-3.5438700001910326,-2.621584766897559,2.735723187252879
1684200628268660500,1.310660400390625,-3.724754682868719,-0.665820116713643,2.3120897786587475
1684200628278685700,1.320685791015625,-3.308094620418548,2.7351556164979933,2.1351339598625896
1684200628288711400,1.33071142578125,-2.294155185778439,6.131473294770717,2.2526614381343126
1684200628298737400,1.3407373046875,-1.5993372303783893,7.427471721452474,0.34662148058414455
1684200628308763600,1.350763671875,-0.6545245234563947,7.186783142936229,-2.160967489299178
1684200628318789600,1.36078955078125,1.1471394060790538,5.663953982698917,-4.44259257158935
1684200628328815600,1.370815673828125,2.2237316962480542,4.625602283596992,-6.355006740346551
1684200628338841600,1.380841552734375,1.6225860040187834,2.929256631362438,-6.374406437343358
1684200628348867600,1.39086767578125,-0.13792860739603638,-0.10911562375724315,-3.791527248676121
1684200628358892800,1.400892822265625,-2.194086791829765,-2.2345336607694626,-0.7271645199924707
1684200628368918800,1.410918701171875,-2.4380673976287244,-2.747202612644434,-0.059493514715135094
1684200628378944500,1.420944580078125,-1.1670106661103665,-3.243094032719731,0.04273994831293821
1684200628388970500,1.430970458984375,-0.7636147205114364,-3.82654507830441,1.3395064367577434
1684200628398996500,1.44099658203125,-0.23204817594289778,-3.2801854537516832,1.685252595812082
1684200628409022500,1.4510224609375,0.8457002985239028,-1.751309414565563,0.6840911019414663
1684200628419048400,1.46104833984375,1.0046890834748745,-0.891418678125739,0.14822481435239315
1684200628429074400,1.471074462890625,0.49419104589819907,-1.3827069883197545,0.21794307822287082
1684200628439099600,1.481099609375,1.9520565894462167,-5.537139036121964,-1.4013418384239076
1684200628449125600,1.491125732421875,0.610522592383623,-0.014516601130366324,-0.3497007418990135
1684200628459151600,1.501151611328125,2.1227448722802102,1.4854519080013036,1.9882488696813583
1684200628469177600,1.511177490234375,2.338663897329569,2.4533862550526857,3.624690965095162
1684200628479203600,1.52120361328125,1.4506674487374722,5.340571338883042,3.800286893714964
1684200628489229600,1.5312294921875,0.7244539458595216,5.1745788126498455,1.776768557731807
1684200628499255300,1.54125537109375,-0.07502586875930428,3.201927909594774,-0.15854016440063715
1684200628509281300,1.55128125,-0.623948037276417,0.6878864025712013,-0.9997206474125385
1684200628519306500,1.561306396484375,-0.6414683502674102,-1.0845675068318843,-1.0254150606393813
1684200628529332500,1.57133251953125,-0.43524683562889693,-2.282428215366602,-1.0000865581154823
1684200628539358700,1.581358642578125,-0.2543174370266497,-3.3519717560678717,-1.0688716327890753
1684200628549384700,1.591384765625,-0.05182736400142312,-4.403219177100062,-0.6965805811583995
1684200628559410700,1.60141064453125,-0.35440599698051806,-4.898123924225568,0.04096387855112552
1684200628569436700,1.611436767578125,-1.1687434812523423,-4.742085805773735,-0.01689794330894947
1684200628579462700,1.621462646484375,-1.5569687457263468,-5.255604067954421,-0.6840963626384735
1684200628589488400,1.63148828125,-1.759413226044178,-5.361750905033945,-1.2738257578402756
1684200628599513600,1.641513671875,-1.6244447836279867,-4.854588149359822,-1.485960442045331
1684200628609539600,1.65153955078125,-1.8479739914201199,-1.900484076988697,-0.39360885720849037
1684200628619565600,1.661565673828125,-3.1208500473201273,-2.154699076554179,1.1907967614978552
1684200628629591600,1.671591552734375,-2.525359019851684,-1.5678741706222294,4.131147910587489
1684200628639617500,1.681617431640625,-2.499607323479652,-0.4470417567104101,4.873869772934913
1684200628649643500,1.6916435546875,-2.2510522493720053,0.14961773001551626,4.04067502797991
1684200628659669500,1.70166943359375,-2.959009380069375,-1.6872452309340238,0.4611047688543796
1684200628669694500,1.711694580078125,-2.4903490812689064,-3.218472217160463,-2.5796117113038894
1684200628679720400,1.721720458984375,-1.8171926303178072,-1.8870827436238526,-3.2235677867338057
1684200628689746700,1.73174658203125,0.7677168951332569,-1.0024123707145451,-4.667783136722445
1684200628699772700,1.741772705078125,1.8399517207451164,-5.055096108657121,-7.385968329197168
1684200628709798700,1.751798583984375,0.948181160441786,-3.8666953023850916,-6.575383183196187
1684200628719824600,1.76182470703125,-2.6992630498617887,1.616300055617094,-4.360688779884576
1684200628729850600,1.7718505859375,-2.8543779159888625,-0.5730711058676242,-4.410779967743158
1684200628739876600,1.781876708984375,-2.7264041547656057,3.952130190825462,-3.28778190023005
1684200628749901600,1.791901611328125,-2.6761034158095716,6.611183395373821,-3.958367623910308
1684200628759927600,1.801927490234375,-0.18181348796039817,9.630766194349526,-3.5317028847962617
1684200628769953500,1.81195361328125,4.770559912846982,9.920334831368923,-1.2835751445688306
1684200628779979500,1.8219794921875,7.582896091920137,6.295235285472869,1.5816424376033245
1684200628790005500,1.832005615234375,6.320644452017546,3.7875802646160124,2.7454680439367887
1684200628800031500,1.842031494140625,2.280328320477903,4.70796609402895,2.788754520216584
1684200628810057500,1.852057373046875,-2.2920544141069055,5.699696911731362,1.8073079267717898
1684200628820083700,1.862083740234375,-4.931591309541464,6.926989466455578,0.8163413714401423
1684200628830108400,1.8721083984375,-5.455120678126812,7.758454318878054,-0.1329937813423574
1684200628840134400,1.882134521484375,-4.5747707987651225,7.649103132799267,-0.6572539484202862
1684200628850160600,1.89216064453125,-3.0129332779586315,7.1469742796391245,-0.02093523600101471
1684200628860186600,1.9021865234375,-1.9007406820982693,5.807872624289989,0.288350493401289
1684200628870212600,1.912212646484375,-1.0509906697921454,3.91755747461617,0.24822978767603635
1684200628880238600,1.922238525390625,3.457929792577028,0.7749106060296297,1.4151111283183098
1684200628890264600,1.9322646484375,8.369442775207757,-1.7704478302776812,1.2319842196717858
1684200628900290600,1.94229052734375,9.316153132444619,-2.3596382962971925,-1.0638497129738331
1684200628910315500,1.9523154296875,7.135156416073441,-1.9897814860761165,-3.0291081676900387
1684200628920341500,1.962341552734375,4.520120632427931,-1.938182816264033,-3.940528015837073
1684200628930367500,1.972367431640625,2.6055332112848757,-1.824436610096693,-3.925473654568195
1684200628940393500,1.9823935546875,1.5236571354940533,-1.8032757486462592,-3.3385815286189318
1684200628950419500,1.99241943359375,0.9517160565696656,-1.492055251789093,-3.0537755759567022
1684200628960445400,2.002445556640625,0.738943220591545,-1.238542847535014,-2.650686358219385
1684200628970471400,2.012471435546875,0.14420052727237342,-1.2883540494084358,-1.6029063210368155
1684200628980497700,2.02249755859375,-0.8820989149861037,-0.8518687580257653,-0.3712842126756906
1684200628990522400,2.0325224609375,-1.6574891212262213,0.238892342749238,0.3155301767498255
1684200629000548600,2.042548583984375,-2.416734979003668,1.4545149179458616,0.30556510144397614
1684200629010574600,2.05257470703125,-3.2274761923491955,1.9998148043125867,0.18575389614924787
1684200629020600600,2.0626005859375,-3.416420555102825,1.3309271167218684,0.2972431171700358
1684200629030626600,2.07262646484375,-2.9914819091290235,0.5575748460501432,-0.036899113330245016
1684200629040652500,2.082652587890625,-2.283857955908775,0.11738251684308051,-0.4405876121349632
1684200629050678500,2.092678466796875,-1.725782320729643,-0.21610183427035806,-0.47336131609827276
1684200629060704500,2.10270458984375,-1.3594973776459693,-0.3202782480597496,-0.335166751242429
1684200629070729500,2.1127294921875,-1.2217314134657382,-0.5563911892235279,-0.16968115161806344
1684200629080755500,2.12275537109375,-1.3663456361055373,-0.6574035860240459,0.16615604623183608
1684200629090781400,2.132781494140625,-1.5099141490846872,-0.6988724914878607,0.6286908478893339
1684200629100807400,2.142807373046875,-1.5713665427826344,-0.8776660471051931,1.0446098827138544
1684200629110833400,2.15283349609375,-1.766900951451063,-0.8415104456186294,1.4431773852430283
1684200629120859400,2.162859375,-1.9409270004056394,-0.7638537899643182,1.7180600559145212
1684200629130885600,2.1728857421875,-1.950317929085344,-0.6502490380942821,1.9353592832759021
1684200629140911600,2.18291162109375,-1.765028727838397,-0.526812043517828,1.9667108454816042
1684200629150936600,2.1929365234375,-1.4737852894745767,-0.5642962632596492,1.8845580474518238
1684200629160962600,2.202962646484375,-1.0233375237129627,-0.48304596702754493,1.8614722092881797
1684200629170988500,2.212988525390625,-0.5661619110010564,-0.4463455911397934,1.8217624224513769
1684200629181014500,2.2230146484375,-0.14851166846975683,-0.5352385110795498,1.6331130971215664
1684200629191040500,2.23304052734375,0.1863920479223132,-0.369826999604702,1.5279603856459258
1684200629201066500,2.24306640625,0.4845017187938094,-0.30639409961402414,1.3406851251482963
1684200629211092500,2.253092529296875,0.7301952659904957,-0.2872638672083616,1.084391273482144
1684200629221118500,2.263118408203125,0.9151439832367002,-0.2262269224435091,0.8701341902956367
1684200629231143400,2.273143310546875,1.3883423638582228,-0.14062076908946036,0.6883266936846077
1684200629241169400,2.28316943359375,3.059378218269348,0.347200741776824,0.5312473956167698
1684200629251195400,2.2931953125,6.046571490293741,1.137796992716193,0.22148615765720606
1684200629261221400,2.303221435546875,5.964635549885034,1.4459206926017998,0.10223273237571119
1684200629271247400,2.313247314453125,3.3017958125352855,1.1324983017861843,0.32326530104652046
1684200629281273600,2.323273681640625,0.67316010421291,0.5180471377819776,0.4497415171884
1684200629291299600,2.333299560546875,-0.6022635903432965,0.16100012477338313,0.19251886023953557
1684200629301325600,2.34332568359375,-0.9720964351668954,0.04087210861444473,-0.14437982936203478
1684200629311350500,2.3533505859375,-1.0400725315451622,0.025474048474431035,-0.27839871596843
1684200629321376500,2.36337646484375,-0.8841377273373305,0.052231122496724125,-0.25154125031158325
1684200629331402500,2.373402587890625,-0.6568943213276565,0.08925356994569301,-0.1490826002255082
1684200629341428500,2.383428466796875,-0.40905762462243433,0.13129296877384186,-0.0350775969915092
1684200629351454500,2.393454345703125,-0.2216898635357618,0.15435118827819824,-0.007536679115146398
1684200629361480400,2.40348046875,-0.1436513689570129,0.07643968107998371,0.029280455020070074
1684200629371506400,2.41350634765625,-0.19364041161537168,-0.16335282537937162,0.05981164075359702
1684200629381532400,2.423532470703125,-0.32712212260514495,-0.426036378082633,0.04316431120485067
1684200629391557400,2.433557373046875,-0.4404778681501746,-0.5118646497547626,0.0021966332614421842
1684200629401583400,2.443583251953125,-0.4557346201233565,-0.5408966829717159,0.03525602229833603
1684200629411609300,2.453609375,-0.3917990313075483,-0.47302024757564065,0.181690738363564
1684200629421635300,2.46363525390625,-0.3113946843802929,-0.3375695746004581,0.3116870914556086
1684200629431661300,2.473661376953125,-0.22739874270185828,-0.22725685001313686,0.3906738266699016
1684200629441687300,2.483687255859375,-0.15908040875717996,-0.1385626675158739,0.4382878107599914
1684200629451713300,2.49371337890625,-0.07967325617372989,-0.15202829828858375,0.4828916532486677
1684200629461739300,2.5037392578125,0.001720247921347618,-0.20433073245584962,0.5374877513110637
1684200629471764200,2.51376416015625,0.055143795073032374,-0.26131635600328446,0.5727272608660161
1684200629481790200,2.523790283203125,0.10332724961414932,-0.2951940756857395,0.5952553190164268
1684200629491816200,2.533816162109375,0.16259703857600688,-0.2636865922659635,0.6044505789935588
1684200629501842200,2.54384228515625,0.2184606723561883,-0.19975041892826556,0.5906406648278236
1684200629511868400,2.553868408203125,0.30794132905602456,-0.1559603770405054,0.5823904306158423
1684200629521894400,2.563894287109375,0.3837522107131779,-0.10262626173794269,0.5693139452911913
1684200629531920400,2.57392041015625,0.4421498930156231,-0.05813537810444831,0.5479232206076383
1684200629541946400,2.5839462890625,0.5263252829141915,-0.09903437472581862,0.5056748552039265
1684200629551971300,2.593971435546875,0.6460489560559391,-0.23080314431786536,0.42764074453935025
1684200629561997300,2.603997314453125,0.749292180648446,-0.2710965762615204,0.45135450534299015
1684200629572023300,2.614023193359375,0.8155683412410318,-0.20842063211798667,0.6316643107421696
1684200629582049300,2.62404931640625,0.8537674312539398,-0.11272446190416813,0.8129045288592577
1684200629592075300,2.6340751953125,0.8719945773400366,-0.11063304258286952,0.8555566527582704
1684200629602101200,2.644101318359375,0.8277455396384,-0.07722937015295028,0.8286670383974909
1684200629612127200,2.654127197265625,0.7428802677795291,-0.014483867904543877,0.7513982130169868
1684200629622153200,2.6641533203125,0.6686530020520091,0.01926116530895233,0.6087713648021221
1684200629632178400,2.674178466796875,0.6201657422587276,0.06869184343218802,0.4127821981035173
1684200629642204200,2.6842041015625,0.5863724859893321,0.10252280136346817,0.15735621531307697
1684200629652230100,2.694230224609375,0.5644505770385265,0.12712474317848682,-0.0828347889445722
1684200629662256400,2.70425634765625,0.5332634116142988,0.06365794091820716,-0.3265216724939644
1684200629672282400,2.714282470703125,0.5338889961667359,-0.14466507604420184,-0.46777547878995535
1684200629682308400,2.724308349609375,0.49611719165518875,-0.39776363880038257,-0.5363737987197935
1684200629692334300,2.734334228515625,0.38635917834118005,-0.5517728817731141,-0.5650653479360044
1684200629702360300,2.7443603515625,0.2126104850232601,-0.5064706817567348,-0.5175789357483387
1684200629712385500,2.754385498046875,0.0244321382060647,-0.3158978410184383,-0.37655090103223915
1684200629722411500,2.76441162109375,-0.13420797943770885,-0.08240589600801468,-0.1742206947438419
1684200629732437200,2.774437255859375,-0.17418050886392591,0.029310850158333776,-0.01627206649556756
1684200629742463200,2.784463134765625,-0.12954320249706505,-0.04887947398126125,0.0820382317394018
1684200629752489200,2.7944892578125,-0.017104279536008835,-0.1390074886739254,0.10603051722347735
1684200629762515200,2.80451513671875,0.058377516297250985,-0.1303717622756958,0.08011062467768788
1684200629772541200,2.814541259765625,0.06731003368496895,-0.13505436713397503,0.06731091046780348
1684200629782567200,2.824567138671875,0.055748190706968306,-0.22182430357038974,0.11188421168774365
1684200629792592400,2.83459228515625,0.03087707656174898,-0.35792496488690373,0.14438815879896283
1684200629802618400,2.844618408203125,-0.00307955357581377,-0.4492898278981447,0.16559417456537484
1684200629812644600,2.85464453125,-0.032549101427197455,-0.42647944567501544,0.267189193559438
1684200629822670300,2.86467041015625,-0.04486790025234222,-0.289368730533123,0.42487537147924304
1684200629832696300,2.8746962890625,-0.002526303607225418,-0.16186989334523677,0.6095612000055611
1684200629842722300,2.884722412109375,0.07144494153261184,-0.07138415125608444,0.7834319122679531
1684200629852748300,2.894748291015625,0.1700622598901391,0.0626981559753418,0.9748603469222783
1684200629862774300,2.904774169921875,0.2330582297682762,0.24714286922216414,1.2202686474367976
1684200629872799500,2.914799560546875,0.28371728064268825,0.38082594800293446,1.5035355539634823
1684200629882825500,2.924825439453125,0.343618937767297,0.4227934506386518,1.7835199316881596
1684200629892851500,2.9348515625,0.422602896502614,0.35277591156065463,2.01340011594221
1684200629902877400,2.94487744140625,0.5276350503385067,0.22453122444152832,2.203937446975708
1684200629912903400,2.9549033203125,0.6853516233965754,0.04501403072476387,2.328485471533984
1684200629922929400,2.964929443359375,0.9517913137629628,-0.17472352969944477,2.3274241259127852
1684200629932955400,2.974955322265625,1.4823317301541565,-0.32650632879436015,2.327613511005044
1684200629942981400,2.9849814453125,2.4978771386861798,-0.3299111688017845,2.5028075808256864
1684200629953006300,2.99500634765625,3.6385885575443506,-0.16741817512214183,2.7455039920330044
1684200629963032600,3.005032470703125,3.8971427553579208,-0.03643266486227512,2.6338056583061813
1684200629973058600,3.01505859375,3.3374922720775007,0.09906009368896483,2.0394953650549055
1684200629983084500,3.02508447265625,2.67423148445785,0.1945025814026594,1.274434829649329
1684200629993110500,3.035110595703125,1.913897100791335,0.22419337078928947,0.5766816975802183
1684200630003136500,3.045136474609375,1.0834387950628994,0.4246896396487951,0.17158318584710358
1684200630013162500,3.05516259765625,0.3931172742992639,0.8235375665545464,0.08170520039275288
1684200630023188500,3.0651884765625,-0.049403497855365276,1.2680775695770978,0.10473229410648345
1684200630033213400,3.07521337890625,-0.27354791493639347,1.7491729870587587,0.17189429762288927
1684200630043239400,3.085239501953125,-0.36510523177981374,2.180736604130268,0.23644816446751354
1684200630053265400,3.095265380859375,-0.3847095114380121,2.4351187769562004,0.16123641774728895
1684200630063291400,3.10529150390625,-0.3475280740350485,2.4454601382285355,-0.12107274966314434
1684200630073317400,3.1153173828125,-0.24827786460146306,2.2448966493517157,-0.4634137764491141
1684200630083343400,3.12534326171875,0.24921397640779613,1.8982517878919838,-0.6514901241965592
1684200630093369600,3.13536962890625,4.798904840582609,1.5502145952910185,0.05338584548979997
1684200630103395600,3.1453955078125,14.281153375113009,1.7377181115865707,2.002862209184468
1684200630113420500,3.155420654296875,11.936535537815093,2.0749071624368427,2.2396789147034286
1684200630123446500,3.165446533203125,5.972881984704733,2.3642986893236637,1.1564959940977393
1684200630133472500,3.175472412109375,2.8774142159223555,2.3744483274161814,0.34643647940605876
1684200630143498500,3.18549853515625,0.8093442060291767,1.7144599855959415,0.27949381772875787
1684200630153524500,3.1955244140625,-0.04524842400252819,0.8451216218531131,0.5158779770493507
1684200630163550500,3.205550537109375,0.7499754867374897,0.24269699572920797,0.21292904945313929
1684200630173576400,3.215576416015625,-0.7518541400909423,0.10742460193037986,-0.13370850548297167
1684200630183602400,3.2256025390625,-3.1456337754428385,0.07516191622912884,-0.1442477274149656
1684200630193627400,3.23562744140625,-5.386856704717874,0.30564006637632846,0.209414027069509
1684200630203653400,3.2456533203125,-6.524362021011114,1.0333803404301405,1.371493812648952
1684200630213679400,3.255679443359375,-6.948085445976257,1.9454928470164536,3.970589684362709
1684200630223705300,3.265705322265625,-6.311391470503807,3.1337036836743355,7.023791552084684
1684200630233731300,3.2757314453125,-5.313844075477123,3.752695998239517,8.234220650291443
1684200630243757600,3.285757568359375,-5.017552267682552,3.0941935110628602,6.999634431427717
1684200630253783600,3.295783447265625,-4.47405504682362,2.0421113927721977,4.619335916678607
1684200630263809500,3.3058095703125,-3.4433749052628873,1.3769231442213057,2.730057124315202
1684200630273834500,3.31583447265625,-2.5492025445148347,0.7967191177338361,1.4363073533430695
1684200630283860500,3.325860595703125,-2.623589092457294,0.16306290252208708,0.32964141194969415
1684200630293886500,3.335886474609375,-3.129640379758179,-0.7223854690223932,-0.21451398055702448
1684200630303912400,3.345912353515625,-3.50331119530946,-1.2346236282646654,-1.06199034884274
1684200630313938400,3.3559384765625,-3.723932552830875,-1.2672592389315367,-1.9491171749934553
1684200630323964400,3.36596435546875,-3.3776009951040145,-1.1511889737308025,-2.961446836349368
1684200630333990400,3.375990478515625,-3.263881384682655,-0.6893634893864393,-3.5365430183038113
1684200630344016400,3.386016357421875,-2.515900286632776,-0.3368284008443355,-3.945136386415362
1684200630354041300,3.396041259765625,-2.0546461724355813,0.156906717979908,-3.801176243770122
1684200630364067300,3.4060673828125,-1.9762652941599488,0.5630664292037487,-3.3748502350911496
1684200630374093300,3.41609326171875,-2.0247920091807843,0.674182871389389,-2.8521497185453772
1684200630384119300,3.426119384765625,-2.165536989171803,0.5645294874936342,-2.4344822326183317
1684200630394146000,3.43614599609375,-2.2228642657637594,0.3340922538787126,-2.127047099518776
1684200630404172000,3.446172119140625,-2.166163012115657,0.12859540025293825,-1.783473608328402
1684200630414198300,3.4561982421875,-2.111939839018881,-0.049396191331744194,-1.4791016621917485
1684200630424224300,3.466224365234375,-1.964393946841359,-0.11695464681982994,-1.3052695283740758
1684200630434249000,3.4762490234375,-1.6948720725506543,-0.10763561433255672,-1.303924543505907
1684200630444275200,3.486275146484375,-1.472476106572151,-0.07410159352123737,-1.383028767620027
1684200630454301200,3.49630126953125,-1.3795666444674133,-0.06701368108689784,-1.5000103024467826
1684200630464327200,3.5063271484375,-1.3225544251739978,-0.043753217008709905,-1.8130913324788211
1684200630474353200,3.516353271484375,-1.3347595344915986,-0.026049218013882637,-2.237386419852078
1684200630484379100,3.526379150390625,-1.3623574432522059,-0.11849193938970565,-2.602272163662314
1684200630494405000,3.536405029296875,-1.3122650863498448,-0.33368308855593204,-2.7597990593671797
1684200630504431000,3.54643115234375,-1.3045502741888164,-0.6183879189312458,-2.729200799746811
1684200630514456000,3.5564560546875,-1.3042892851650714,-0.9020891252219676,-2.589391054779291
1684200630524482000,3.56648193359375,-1.3476619784235953,-1.1281669945836066,-2.3719547570347785
1684200630534508000,3.576508056640625,-1.3884358873605727,-1.3098971881747246,-2.0587033388718963
1684200630544534000,3.586533935546875,-1.295246439270675,-1.414004628381133,-1.7168655854329467
1684200630554560000,3.59656005859375,-1.08649642906785,-1.4213929850667715,-1.411306183077395
1684200630564586000,3.6065859375,-0.8100868410900235,-1.3781202450513839,-1.0689137183651327
1684200630574612200,3.6166123046875,-0.5742164765104651,-1.3642887035757303,-0.5680608764901757
1684200630584638200,3.62663818359375,-0.34670711304098367,-1.3435966286808252,-0.03765226978510618
1684200630594663200,3.6366630859375,-0.1289487437352538,-1.3086883969068526,0.44847529664486646
1684200630604689200,3.646689208984375,-0.014914952798187732,-1.2231447873950003,0.8252686281308531
1684200630614715100,3.656715087890625,-0.026373043140769003,-1.0170125584751366,1.0231512073606253
1684200630624741000,3.6667412109375,-0.14850830746889113,-0.7654606406390666,1.1327788722932337
1684200630634767000,3.67676708984375,-0.34073914454728366,-0.5306628737270832,1.278333006131649
1684200630644793000,3.68679296875,-0.5010463186204434,-0.2770563614487648,1.4047253433823585
1684200630654819000,3.696819091796875,-0.6972139106258749,-0.0778822811037302,1.5110922529533504
1684200630664845000,3.706844970703125,-0.7760287964046001,-0.033460955575108524,1.6824916066661475
1684200630674870000,3.7168701171875,-0.5351996403738856,-0.09581658172309399,1.7767974915653466
1684200630684896000,3.72689599609375,-0.01995557731389999,-0.10316811352968215,1.5262921601727604
1684200630694922000,3.736921875,0.39380394138917324,-0.1517377909094095,1.2811331582441925
1684200630704948000,3.746947998046875,0.6418634870648384,-0.10639350531697273,0.9470485031500459
1684200630714974000,3.756973876953125,0.6808205558381974,0.07152677459716797,0.4640674180522561
1684200630725000200,3.767000244140625,0.7067641215205193,0.2188455800205469,-0.20435586689710616
1684200630735026200,3.777026123046875,0.6445871398750692,0.4325941291630268,-0.9508426347360014
1684200630745052200,3.78705224609375,0.36428215189389884,0.6276970145463943,-1.5431892266988754
1684200630755077000,3.7970771484375,0.0674069912534207,0.8401613690972328,-1.8963994380235671
1684200630765103000,3.80710302734375,0.041862215630337596,1.2402946596384048,-1.9856167676120995
1684200630775129000,3.817129150390625,0.3642050680696964,1.680804968753457,-1.8747697900176048
1684200630785155000,3.827155029296875,0.9306150355476885,1.79596337980628,-1.7464689887970686
1684200630795181000,3.83718115234375,1.7341186257898806,1.4023638749480247,-1.5449910154238342
1684200630805207000,3.84720703125,2.5240999597012994,0.5634808552235364,-1.1776502796769142
1684200630815233000,3.85723291015625,2.0022119285821915,-0.45225510744452474,-0.9687903793588281
1684200630825259000,3.867259033203125,0.6363046838939189,-1.0508388402312994,-1.150986436896026
1684200630835284000,3.877283935546875,-0.22551559583637862,-1.0925824709832668,-1.5952800639420748
1684200630845310000,3.88731005859375,-0.5911094513833522,-0.7428478268146514,-2.0717983827665445
1684200630855336000,3.8973359375,-0.3094973263263702,-0.07367956871688365,-1.9089198969006538
1684200630865362000,3.90736181640625,0.6719967595219611,0.6956728186637163,-0.9435898871287703
1684200630875388200,3.91738818359375,1.785653582715988,1.245952831530571,0.4475687031939625
1684200630885414100,3.9274140625,2.0626748728513715,1.347602941712737,1.9088772268027066
1684200630895440100,3.937440185546875,2.158619464868307,1.0620569843381642,3.0643136288449164
1684200630905466000,3.947466064453125,2.556255677896738,0.6359978099018335,3.9423119766443966
1684200630915491000,3.957490966796875,2.859684497964382,0.19174714521467684,4.402143072301149
1684200630925517000,3.96751708984375,2.7032436439305543,-0.3079080113083124,4.018651119959354
1684200630935543000,3.97754296875,2.2757132278978824,-0.7392132697045802,2.757865168695152
1684200630945569000,3.987569091796875,1.70224698523283,-0.8166191654682159,1.4546867673814297
1684200630955595000,3.997594970703125,1.257525195902586,-1.0728490119874476,0.5654933640897274
1684200630965621000,4.00762109375,0.8073603387355804,-1.4638012172073125,0.1504085881322622
1684200630975647000,4.01764697265625,0.2703191438819282,-1.7251742718338965,0.22870295716822145
1684200630985673000,4.0276728515625,-0.13366262051463126,-1.7517314393699168,0.42747780906260013
1684200630995698000,4.037697998046875,-0.015541268002986906,-1.504636500942707,0.4344762896478176
1684200631005724000,4.047723876953125,0.36965281208157535,-0.7310258715957403,0.50873628860116
1684200631015750000,4.05775,0.6344979267328977,0.5525011960476637,1.030499816557765
1684200631025776000,4.067776123046875,0.7245581368863582,1.954550598219037,1.9014783487230538
1684200631035802000,4.077802001953125,0.6471440578162669,3.1918694569170474,2.8939526782691476
1684200631045828000,4.087828125,0.4067231903254986,3.768026838362217,3.7171763565689324
1684200631055854000,4.09785400390625,0.4309949138054624,3.0998236259043215,3.9054675161108374
1684200631065880000,4.107880126953125,0.6675040512125938,1.365326229929924,3.310871976177394
1684200631075905000,4.117905029296875,0.6905582521289587,-0.3996925610363483,2.1167209358155725
1684200631085931000,4.127930908203125,0.36801140155009926,-1.557110200023651,0.6904004312187433
1684200631095957000,4.13795703125,-0.07608016358520835,-1.9437778597921131,-0.7368152686521411
1684200631105983000,4.14798291015625,-0.46309806156344707,-1.895371848541498,-1.9757862784713505
1684200631116009000,4.158009033203125,-0.761256174686551,-1.7693401612967252,-2.7727015032991766
1684200631126035000,4.168034912109375,-0.9899889424711465,-1.5121411774843931,-3.1642817772895095
1684200631136061000,4.17806103515625,-1.0771833148647099,-0.9544003272175788,-3.329472047229111
1684200631146087000,4.1880869140625,-1.1597405289769172,-0.1307020171433687,-3.176853089570999
1684200631156112000,4.19811181640625,-1.200713102291152,0.7511158889442682,-2.8519623792797324
1684200631166137900,4.208137939453125,-1.1242518669664858,1.3787310704261064,-2.5530215182811022
1684200631176164000,4.2181640625,-0.8594529295444489,1.6069798540860414,-2.314968256704509
1684200631186190000,4.228190185546875,-0.4258978463947773,1.4876684150069952,-2.167161083242297
1684200631196216000,4.238216064453125,0.07840835080444812,1.045781556841731,-2.13159906373471
1684200631206242000,4.248241943359375,0.5410187749814241,0.416332730191946,-2.1361074810698626
1684200631216268000,4.25826806640625,0.7708627188783138,-0.022943068692088127,-2.1343153369560834
1684200631226294000,4.2682939453125,0.7533464244753122,-0.06231646318137645,-1.9805203212559221
1684200631236319000,4.278319091796875,0.638525867074728,0.10339315445721149,-1.6098764523103832
1684200631246345000,4.288344970703125,0.38849304856471717,0.11182546723783016,-0.9872098331466317
1684200631256371000,4.298370849609375,-0.096625486953184,0.15657178693711757,-0.43108226329535243
1684200631266397000,4.30839697265625,-0.5409902064740657,0.24315175375938414,-0.08961787321344017
1684200631276423000,4.3184228515625,-0.8583866885524243,0.22185820583999155,0.009964636914432048
1684200631286449000,4.328448974609375,-1.149458715872094,0.38120179557800293,0.1598759430490434
1684200631296475000,4.338474853515625,-1.6105039365589617,0.6727203976213931,0.4582755367778241
1684200631306501000,4.348501220703125,-2.1825427767693997,1.0922001936674117,0.8104283480040728
1684200631316525800,4.35852587890625,-2.526549690940976,1.3277794663459062,1.2917594739377498
1684200631326552000,4.368552001953125,-2.4010341365247965,1.1794850938886403,1.934934043601155
1684200631336578000,4.378578125,-1.7283236757755278,0.680637746617198,2.4677578947544094
1684200631346604000,4.38860400390625,-0.6527122133374214,-0.009201543587446213,2.8473215677365658
1684200631356630000,4.398630126953125,0.11927698882017283,-0.7382406252801418,3.0661084033071995
1684200631366656000,4.408656005859375,0.06606503859255462,-1.03800624666512,2.9655086789608
1684200631376682000,4.418681884765625,-0.17871997892446814,-0.8959323561578989,2.589362997728586
1684200631386708000,4.4287080078125,-0.49892041250765323,-0.7234761868685483,2.0877194438673556
1684200631396732200,4.438732177734375,-0.7314051532369107,-0.6789052237361669,1.7005125626556574
1684200631406758100,4.448758056640625,-0.870022765810415,-0.6079074414491653,1.4378089900776743
1684200631416784400,4.458784423828125,-1.0360112003903836,-0.6022492695569992,1.3873621206492184
1684200631426810400,4.468810302734375,-1.1271580367367715,-0.5601484959304333,1.4777099155724047
1684200631436836400,4.47883642578125,-1.022041711748764,-0.5572404995292425,1.4815509550400077
1684200631446862300,4.4888623046875,-0.7913887895565479,-0.6547656387358903,1.3250868662610649
1684200631456888300,4.498888427734375,-0.5375601589601486,-0.8439788815587759,1.0701989358700812
1684200631466914300,4.508914306640625,-0.2405536270249635,-0.9794833305478096,0.8115551600769162
1684200631476939300,4.518939208984375,-0.05614435041770339,-0.9685551092982292,0.5102420169889926
1684200631486965200,4.52896533203125,0.06813720522411167,-0.9824790052324532,0.2834754347108304
1684200631496991200,4.5389912109375,0.19300912797451017,-0.8467360713124275,-0.04556187386587262
1684200631507017200,4.549017333984375,0.337996860101819,-0.473980032518506,-0.4584196214236319
1684200631517043200,4.559043212890625,0.5128169089782982,0.028455694633722304,-0.8252705278269946
1684200631527069200,4.569069091796875,0.6588572919636965,0.5810527522712946,-1.1246879202961921
1684200631537095200,4.57909521484375,0.7984885385591536,1.0642881043910979,-1.3780445494666695
1684200631547121400,4.589121337890625,0.9916232656747103,1.265430854460597,-1.5363378994993864
1684200631557146000,4.59914599609375,1.0117126985013485,1.1201005925059317,-1.6275810358271001
1684200631567172000,4.609172119140625,0.828586666637659,0.8196797220826149,-1.5436995143085717
1684200631577198300,4.6191982421875,0.40866950208768243,0.5403484014391898,-1.3484018370054662
1684200631587224300,4.629224365234375,-0.11964856207892298,0.22398878812789916,-1.1248352198123932
1684200631597250300,4.639250244140625,-0.5736550432354212,-0.06285246975421906,-0.808414816224575
1684200631607276300,4.6492763671875,-0.8609102887459099,-0.2200444344162941,-0.4743896362327039
1684200631617302300,4.65930224609375,-1.0264334439016878,-0.21921733594238757,-0.2762684259414673
1684200631627328300,4.669328369140625,-1.0374906983584165,-0.15578326690793037,-0.23712606372907757
1684200631637353200,4.679353271484375,-0.9852521232075989,-0.078884151622653,-0.3419318614631891
1684200631647379200,4.689379150390625,-0.8695103593088686,-0.026443185767531394,-0.4320454092390835
1684200631657405200,4.6994052734375,-0.6918710882931948,-0.04803016367554664,-0.40116234132796524
1684200631667431200,4.70943115234375,-0.4786398410230875,-0.13064356495440005,-0.3297007409214973
1684200631677457200,4.71945703125,-0.1611943321712315,-0.324104528349638,-0.29861981235072016
1684200631687483100,4.729483154296875,0.1555763461589813,-0.5168009371131658,-0.2714066651239991
1684200631697509000,4.739509033203125,0.4059672573916614,-0.5876853221535683,-0.20097353098243473
1684200631707535400,4.749535400390625,0.5287655156731605,-0.458709398150444,-0.07775500146225095
1684200631717560000,4.75956005859375,0.5480342797666787,-0.19722820697426796,0.0623971272021532
1684200631727586300,4.76958642578125,0.5356744182787835,0.03134966250956058,0.1803054214850068
1684200631737612300,4.7796123046875,0.6014058044701814,0.29967443597018717,0.3127383540742099
1684200631747638300,4.78963818359375,0.7355190913617611,0.2879536030381918,0.46160175859108565
1684200631757664300,4.799664306640625,0.8533538820169866,0.18847382263243198,0.7176815291151404
1684200631767690200,4.809690185546875,0.9809953425459563,0.12985679849088191,0.9801453015878796
1684200631777716200,4.81971630859375,1.0685394782252609,0.09887363120615482,1.1092552272342144
1684200631787742200,4.8297421875,1.1337686139829457,0.007316460493206977,1.1592482154153287
1684200631797767200,4.83976708984375,1.1434202394254505,-0.12622282590270043,1.1190851318530737
1684200631807793200,4.849793212890625,1.0916660867907106,-0.1479910055965185,0.9198606364950537
1684200631817819100,4.859819091796875,0.9758394210875033,-0.05357727640867233,0.6689955318793654
1684200631827845000,4.86984521484375,0.8338046935468911,0.023293781825900077,0.444733918159455
1684200631837871000,4.87987109375,0.6306133403845131,0.10388181475698947,0.281956262319535
1684200631847897000,4.88989697265625,0.4247686962343752,0.2181178502678871,0.2215101230546832
1684200631857923300,4.89992333984375,0.3130658324629068,0.2197124259829521,0.18089535020217298
1684200631867949300,4.90994921875,0.2710778715610504,0.11419745706617832,0.07253682842254638
1684200631877974300,4.919974365234375,0.2336826452769339,0.034276363611221314,0.0005212473951280117
1684200631888000300,4.930000244140625,0.2503429804377258,-0.029843349599838254,-0.0684992434695363
1684200631898026200,4.940026123046875,0.2764332611143589,-0.08452361881434917,-0.10457213510870933
1684200631908052200,4.95005224609375,0.29171748561635613,-0.12195172445476055,-0.18948314580544828
1684200631918078200,4.960078125,0.3384767525732517,-0.12911796282231808,-0.36396789831295606
1684200631928104200,4.970104248046875,0.41346375062689183,-0.06705810475051403,-0.4808309213265776
1684200631938130200,4.980130126953125,0.4787475391812622,-0.016073182922601698,-0.47465004073455924
1684200631948156200,4.99015625,0.5260515805393458,0.014599018716812132,-0.3069628394126892
1684200631958181000,5.00018115234375,0.5548131262518465,0.0361591086179018,-0.1762812805354595
1684200631968207000,5.01020703125,0.5657983383856714,0.12102759534716605,-0.10411883838325739
1684200631978233000,5.020233154296875,0.5882599071711302,0.24386253237724304,0.0021688684716820715
1684200631988259000,5.030259033203125,0.5975520516514777,0.26168226670622824,0.14714461790025232
1684200631998285000,5.04028515625,0.5569206199251115,0.249017430922389,0.3201923233419657
1684200632008311300,5.050311279296875,0.5571380620680749,0.21826339621841906,0.5014724350780249
1684200632018337300,5.060337158203125,0.5914806227833033,0.12977087377309798,0.6812899269156157
1684200632028363300,5.07036328125,0.622670272425562,0.06239128198325634,0.8404261575132608
1684200632038388200,5.08038818359375,0.6856811476118863,0.013125439032912254,1.031127446936816
1684200632048414200,5.090414306640625,0.725077922976762,0.03890694602131843,1.2439939525477588
1684200632058440200,5.100440185546875,0.6953852338939904,0.15336509985029698,1.4302166352525352
1684200632068466200,5.110466064453125,0.575147327619791,0.34903204885721206,1.5015502253651618
1684200632078492200,5.1204921875,0.39505964053869247,0.4738771566659212,1.4528551680400967
1684200632088518100,5.13051806640625,0.20048808555305003,0.43515375051796434,1.2925110229574144
1684200632098544000,5.140544189453125,0.03523044946566224,0.22514263433814047,1.0828836453981696
1684200632108570000,5.150570068359375,-0.05290609914883971,-0.08971943389177321,0.8800191861025989
1684200632118595000,5.160594970703125,-0.07331643449291586,-0.3555529750585556,0.7501635566554963
1684200632128621000,5.17062109375,-0.03480520979091525,-0.4971995800644159,0.6725036861307918
1684200632138647000,5.18064697265625,0.15658508481010794,-0.47623570249080655,0.6315241716191172
1684200632148673000,5.190673095703125,0.6711860276609659,-0.37428105640411374,0.7058788631185888
1684200632158699300,5.20069921875,1.8113984109558163,-0.16063012241721153,0.9064061116382479
1684200632168725200,5.210725341796875,4.925803373789787,0.3244096487760544,1.4467331780284642
1684200632178751200,5.220751220703125,13.495119902044534,1.5704086575359104,2.527664958706498
1684200632188777200,5.230777099609375,14.809911876523493,2.9195389549463986,1.893571374990791
1684200632198802200,5.24080224609375,7.422898422187567,3.4441730699032544,-0.12458441104590892
1684200632208828200,5.250828125,2.2804630527734755,3.515584693688154,-1.0739648642748594
1684200632218854100,5.260854248046875,-0.7828314621567726,2.981478401508927,-0.6740571991831064
1684200632228880100,5.270880126953125,-3.371722166198492,2.194960944315791,-0.7852540131285786
1684200632238906000,5.280906005859375,-3.238039671939611,1.8832640621185301,-1.161352348087728
1684200632248932000,5.29093212890625,-2.3648189138054847,1.9404484231084584,-1.1263339339375495
1684200632258958000,5.3009580078125,-3.3590240126669406,2.3247715655773877,-1.0230237815886736
1684200632268984000,5.310984130859375,-5.333185904806852,2.964789132514596,-0.639661593106389
1684200632279009000,5.321009033203125,-6.59848524184227,3.639051498880982,2.071790491721034
1684200632289035000,5.331034912109375,-4.648158983319997,3.626166298344731,5.592173525601625
1684200632299061000,5.34106103515625,-1.759331539110094,3.112717594268918,7.707725417637825
1684200632309087200,5.351087158203125,-2.0773501716747877,2.2803607614427803,8.122615547806024
1684200632319113200,5.36111328125,-3.656709320646524,1.3886568366348742,6.874780555790663
1684200632329139200,5.37113916015625,-4.0044937075302,0.5986825169861316,4.628457380767166
1684200632339165200,5.381165283203125,-3.3117607417106627,-0.41330315323770045,2.3290786151215435
1684200632349191200,5.391191162109375,-2.958183158378303,-1.3316770583063364,0.6961120868638158
1684200632359216000,5.401216064453125,-3.139497172383964,-1.8633587536871432,-0.47015579805523156
1684200632369242000,5.4112421875,-3.435460478876531,-2.2090566896855828,-1.6877300918415188
1684200632379268000,5.42126806640625,-3.6351065606474875,-2.1393284889429807,-2.611170924910903
1684200632389294000,5.431294189453125,-3.1626448237374425,-1.5276549729585647,-3.3704169288188215
1684200632399320600,5.441320556640625,-2.362572596183419,-0.563574963247776,-3.8127877711087463
1684200632409346600,5.4513466796875,-1.81445502204746,0.34023850154876706,-3.7202623398855326
1684200632419372500,5.46137255859375,-1.3586650184750557,1.0691811371296644,-3.3764988790810104
1684200632429398500,5.4713984375,-1.0472034063383937,1.5243541778475045,-2.698855930365622
1684200632439423500,5.481423583984375,-1.3583350558683276,1.397557351449132,-1.69386348003
1684200632449449500,5.491449462890625,-1.781395925271511,0.8486357674539089,-0.8197787985429167
1684200632459475500,5.501475341796875,-1.8954741398721933,0.27286826210916043,-0.7345844408601522
1684200632469501700,5.511501708984375,-2.0782009432852266,-0.2334066048145294,-1.0336492204993963
1684200632479527700,5.521527587890625,-2.1327453111603853,-0.5104495222598314,-1.2365133875340222
1684200632489553700,5.5315537109375,-1.9812632485777137,-0.5195511126041412,-1.386913500098884
1684200632499579600,5.54157958984375,-1.8620903411865233,-0.3414437856853008,-1.4757190340161324
1684200632509605600,5.551605712890625,-1.6033043804436922,-0.17992694356143474,-1.5985639079183338
1684200632519630600,5.561630615234375,-1.3691302983880043,-0.17094634924829005,-1.7852274662584064
1684200632529656600,5.571656494140625,-1.4221546170890331,-0.22374504249989985,-1.8964435694262385
1684200632539682600,5.5816826171875,-1.6393267109394072,-0.2744295200765133,-1.8874860637277364
1684200632549708500,5.59170849609375,-1.782966535589099,-0.3619002982586622,-2.063406986518204
1684200632559734500,5.601734619140625,-1.8477271770521997,-0.5504413409084081,-2.282178332258761
1684200632569760500,5.611760498046875,-1.7464596364468334,-0.7667886743724346,-2.600882755130529
1684200632579786500,5.621786376953125,-1.6196733314424752,-1.0127110618889332,-2.7327701826661825
1684200632589812500,5.6318125,-1.396701026880741,-1.1142454367369412,-2.695442907051742
1684200632599837400,5.64183740234375,-1.2824363497972489,-1.2606763534098864,-2.573966106632352
1684200632609863400,5.651863525390625,-1.3268740419387817,-1.3441981017053126,-2.063050428165495
1684200632619889700,5.6618896484375,-1.474257729291916,-1.2804787859886884,-1.658257036858797
1684200632629915600,5.67191552734375,-1.4969512071371078,-1.379541217765212,-1.5881401290595532
1684200632639941600,5.681941650390625,-1.4155062651157377,-1.5206933172523975,-1.5619146776959298
1684200632649967600,5.691967529296875,-1.2349103362515568,-1.545261941319704,-1.4577522924318909
1684200632659993600,5.70199365234375,-1.0007263173237442,-1.4471055184721946,-1.3213669689550995
1684200632670019600,5.71201953125,-0.8096753376796841,-1.2050842300474642,-1.1012997381851077
1684200632680044500,5.72204443359375,-0.6532479276493192,-0.8632464766085147,-0.9209688899978995
1684200632690070500,5.732070556640625,-0.5768190602242946,-0.573590161305666,-0.7932248458772897
1684200632700096500,5.742096435546875,-0.5425698768809437,-0.34358255127966403,-0.7144695813313127
1684200632710122500,5.75212255859375,-0.3860179636880755,-0.2047545108258724,-0.5971221358016133
1684200632720148500,5.7621484375,-0.12373188586980104,-0.11931669977605343,-0.4185281944096088
1684200632730174500,5.772174560546875,0.0871168501779437,-0.09075696024596691,-0.2796443321153521
1684200632740200400,5.782200439453125,0.2468956164628267,-0.04968436062335968,-0.1280149700164795
1684200632750226700,5.792226806640625,0.32944106707200405,0.04230769437551498,0.08996990152150391
1684200632760251600,5.802251708984375,0.34148002604246136,0.2306307103604078,0.33149434634000063
1684200632770277600,5.812277587890625,0.48769934579133983,0.4737117369711399,0.5681617065161466
1684200632780303600,5.8223037109375,0.8856979623913764,0.7442126854270696,0.8048875188812613
1684200632790329600,5.83232958984375,1.1732079133152962,0.8806862717092037,1.106373680448532
1684200632800355600,5.84235546875,1.2315689168691635,0.7246914078772068,1.3182213644057512
1684200632810381600,5.852381591796875,1.0715127949476242,0.32973288962543007,1.3317211897090078
1684200632820407600,5.862407470703125,0.7285013215541839,-0.16864508656859398,1.1621309312447905
1684200632830433500,5.87243359375,0.3088065675832331,-0.6271230140507221,0.8042059663578868
1684200632840458800,5.882458740234375,-0.16245602267012,-0.9481745845705271,0.37138562722355123
1684200632850484700,5.892484619140625,-0.5470879388272762,-1.1046434956550597,-0.0940250221312046
1684200632860510500,5.902510498046875,-0.6634826136767864,-1.1521756466805935,-0.4709150919899344
1684200632870536400,5.912536376953125,-0.4917242904584855,-1.086018874683976,-0.6814777045726775
1684200632880562400,5.9225625,-0.15095160896778106,-0.8481886082082987,-0.7485413622811437
1684200632890588400,5.93258837890625,0.19953933346085248,-0.5523246704369783,-0.6787760443985462
1684200632900614700,5.94261474609375,0.5324387608258053,-0.2753016267359257,-0.5711261092796921
1684200632910640600,5.952640625,0.6740332337856292,0.22893442783653734,-0.436092492672801
1684200632920665900,5.962665771484375,0.7682417957901955,0.5666226603806018,-0.31025486669540403
1684200632930691800,5.97269189453125,0.9104887047767639,0.7941998283892869,-0.29457477474361654
1684200632940717800,5.9827177734375,0.7424199567914008,1.1011492237985134,-0.2349135022461414
1684200632950743600,5.99274365234375,0.2598234870970249,1.3759586831033228,-0.1804553513497114
1684200632960769500,6.00276953125,-0.07634383775638416,1.430687467634678,-0.1963663294479251
1684200632970795500,6.01279541015625,0.013511260012723505,1.2901479470878838,-0.1445236217468977
1684200632980821500,6.022821533203125,0.4191687938680872,1.2213304314494133,-0.10010317300111055
1684200632990847500,6.032847412109375,0.9457944114357233,1.611245694836974,0.10527560720294714
1684200633000872700,6.042872802734375,1.6792834582746028,2.535548405432701,0.5826932129547
1684200633010898700,6.052898681640625,2.222101610828191,3.8874844079136848,1.3538269307941198
1684200633020924700,6.062924560546875,2.2212562460452316,4.912792501047253,2.3788553302034736
1684200633030950700,6.07295068359375,2.1411638876765964,4.876415365764498,3.2818668309673664
1684200633040976600,6.0829765625,1.758312571325898,3.3443069205284117,3.5802746080026027
1684200633051002600,6.093002685546875,1.1091946561533956,0.9882634338527917,3.0925609414249657
1684200633061028600,6.103028564453125,0.5859013613462448,-1.045498063725233,2.2274195909805594
1684200633071054600,6.1130546875,0.13199907121658325,-2.3780419679939744,1.3583900009259582
1684200633081079800,6.123079833984375,-0.3506289626598358,-3.1116847440898416,0.6483534336060285
1684200633091105800,6.133105712890625,-0.7230820729844272,-3.2768010720103975,0.06077434830591082
1684200633101131800,6.1431318359375,-0.9632850599408149,-2.8754630818545817,-0.3964025795802474
1684200633111157800,6.15315771484375,-1.1371422551345078,-2.1477619707673785,-0.5846582294173538
1684200633121183700,6.163183837890625,-1.192687616745755,-1.2168559163838624,-0.4232663288474083
1684200633131209700,6.173209716796875,-1.2040460461061446,-0.21520517769157885,-0.008271569260954856
1684200633141235700,6.183235595703125,-1.0382797298442572,0.6405944900423288,0.4287150957725942
1684200633151261700,6.19326171875,-0.6030863049030304,1.227867724263668,0.8331871461704373
1684200633161286700,6.20328662109375,0.002990340922400355,1.4276292491078375,1.1423208998814225
1684200633171312600,6.213312744140625,0.5902565608810633,1.1093974121838808,1.2077949503108858
1684200633181338600,6.223338623046875,0.8848644341766834,0.38770927777588365,0.939879049912095
1684200633191364600,6.233364501953125,0.9514601821124553,-0.1949339585572481,0.6083505090415477
1684200633201390800,6.243390869140625,0.9694763157963752,-0.4916021984487772,0.2955956422239542
1684200633211416800,6.253416748046875,0.9371119232863188,-0.5582517223984003,-0.01266162091344595
1684200633221442800,6.26344287109375,0.7767851677298545,-0.46568215977251526,-0.1567138257563114
1684200633231468800,6.27346875,0.5584111507438123,-0.24590426733791826,-0.21487696865051983
1684200633241493800,6.28349365234375,0.3320546105712652,0.0010007014751434325,-0.25477467927485703
1684200633251519700,6.293519775390625,0.12144085232317448,0.17066051804423332,-0.3357023194238543
1684200633261545700,6.303545654296875,-0.045855084658786655,0.2514332598924637,-0.5369114127278327
1684200633271571700,6.31357177734375,-0.13984094382338225,0.25454466991126534,-0.7495863412894308
1684200633281597700,6.32359765625,-0.20454408294558524,0.2422422376990318,-0.8982683978900313
1684200633291623700,6.333623779296875,-0.3145996179014444,0.17187340096533296,-0.8173214685186744
1684200633301649700,6.343649658203125,-0.46645716273300347,0.12463058827519416,-0.638594840657711
1684200633311675600,6.353675537109375,-0.5050935481846333,0.1608352896004915,-0.2629638309493661
1684200633321700600,6.36370068359375,-0.5828150127034634,0.12557634469270706,0.29828429678604007
1684200633331726600,6.3737265625,-0.7739665301125496,0.1701478923469782,0.8953694615781307
1684200633341752600,6.383752685546875,-0.874774928773567,0.2390671147942543,1.5128598471477628
1684200633351778600,6.393778564453125,-0.8756932126622646,0.2624643569946289,1.8691279847383497
1684200633361804800,6.4038046875,-0.9175783707767724,0.11711422129571437,2.058508546952158
1684200633371830800,6.413830810546875,-0.9660030867278575,-0.09762567697167396,1.7278582502208648
1684200633381856800,6.423856689453125,-1.1146166812021285,-0.2083750394105911,1.2985443117722868
1684200633391882800,6.4338828125,-1.2293272754222153,-0.2654354817599058,1.0518315045304596
1684200633401908200,6.443908203125,-1.2779255943745373,-0.3691869481354952,0.8181894835248589
1684200633411934200,6.453934326171875,-1.3457102598339319,-0.36356267851293084,0.6460474947512149
1684200633421960200,6.463960205078125,-1.3743798894792794,-0.3027116117089987,0.4089830980814993
1684200633431986200,6.473986083984375,-1.359800159984827,-0.22776772214472293,0.13359613114967941
1684200633442012200,6.48401220703125,-1.263774903947115,-0.30043606799244876,-0.10220379854217171
1684200633452038100,6.4940380859375,-0.9855091667085886,-0.3822697170704603,-0.2728255920112133
1684200633462064400,6.504064453125,-0.47641573523283004,-0.3644944064050913,-0.45651758719459173
1684200633472090400,6.51409033203125,0.10499167569503187,-0.16114274811446666,-0.6675795276015997
1684200633482115300,6.524115234375,0.7599158659934997,0.014628829333186148,-1.0363592101104557
1684200633492141300,6.534141357421875,1.2538421234756707,0.15014672232568263,-1.4397287060938775
1684200633502167300,6.544167236328125,1.5075713853508232,0.24479542931318282,-1.6869982704356312
1684200633512193300,6.554193359375,1.5375040206693111,0.3929004166781902,-1.7685297216966747
1684200633522219300,6.56421923828125,1.3123521801114082,0.5672393309742212,-1.7389802404768764
1684200633532245200,6.574245361328125,1.0122305848956108,0.6794891611039638,-1.631431719905883
1684200633542271200,6.584271240234375,0.6422757211275398,0.6213339092552661,-1.423515530178696
1684200633552297200,6.594297119140625,0.244918178910017,0.39195056860744953,-1.1051837400116025
1684200633562322200,6.604322265625,-0.06275237038061023,0.09398819725215435,-0.7211480361819267
1684200633572348200,6.61434814453125,-0.36767537452876564,-0.14014263018369674,-0.30423969805911183
1684200633582374100,6.6243740234375,-0.6567179418474436,-0.26019348945319654,0.027830694603174923
1684200633592400100,6.634400146484375,-0.8875472435198724,-0.25973113263845443,0.356089273892343
1684200633602426000,6.644426025390625,-1.0939853235185146,-0.1821948884934187,0.5997955927945673
1684200633612452400,6.654452392578125,-1.2515293164886534,-0.14250994383692742,0.7312351304322481
1684200633622478300,6.664478271484375,-1.3015250811487435,-0.18329320512413977,0.8214470240160823
1684200633632504300,6.67450439453125,-1.2366992654949427,-0.30957506773769855,0.8100361338160932
1684200633642529300,6.684529296875,-0.9907809696316718,-0.4166816897600889,0.6289703954830765
1684200633652555300,6.69455517578125,-0.6903324805490673,-0.37463410762548444,0.40166356884837146
1684200633662581200,6.704581298828125,-0.4253957420915365,-0.13423486744463442,0.3011534224815666
1684200633672607200,6.714607177734375,-0.15834756443798542,0.22023206594288347,0.09902619141936302
1684200633682633200,6.72463330078125,0.11110314431264996,0.4439391145199537,-0.09597206454575061
1684200633692659200,6.7346591796875,0.4273638272941112,0.3059481094121933,-0.2552968034528196
1684200633702685200,6.744685302734375,0.761801679740101,-0.02227788278162479,-0.37734541241079567
1684200633712711200,6.754711181640625,0.9568798690736293,-0.27841712840795513,-0.23455840519815682
1684200633722736000,6.764736083984375,0.9442946743972599,-0.3948176484763622,0.034008360324800015
1684200633732762000,6.77476220703125,0.6921481516689062,-0.3739636610180139,0.27536343992576
1684200633742788000,6.7847880859375,0.3817179284065962,-0.2662619957119226,0.41640711060240865
1684200633752814000,6.79481396484375,0.11992942484691739,-0.106019995829463,0.4049992891423404
1684200633762840300,6.80484033203125,-0.05983560615107417,-0.04250760086178779,0.39177930369377134
1684200633772866300,6.8148662109375,-0.11383432284221053,0.05392097527980804,0.2472776015177369
1684200633782892300,6.824892333984375,-0.06223521463871002,0.07394494165480137,0.011474018564075232
1684200633792918300,6.834918212890625,0.09174889389276504,0.08567161980569363,-0.16204393473789094
1684200633802943200,6.844943115234375,0.32140535239353774,0.049775546038150785,-0.37878187495470045
1684200633812969200,6.85496923828125,0.5734377472229302,0.012120061382651329,-0.5031719324722885
1684200633822995200,6.8649951171875,0.7740117574937642,-0.05245324081480503,-0.5538353672608732
1684200633833021200,6.875021240234375,0.8190982689328491,-0.1076058037161827,-0.5676014422848821
1684200633843047200,6.885047119140625,0.7131317568562925,-0.12682312988340855,-0.42180604703649877
1684200633853073200,6.8950732421875,0.4764031680122018,-0.07453764685094356,-0.17320289600342512
1684200633863099100,6.90509912109375,0.18018749419376254,-0.003017301994562149,0.07966025056168437
1684200633873125000,6.915125,-0.009170710057765244,-0.014087562063336372,0.2655244752176106
1684200633883150000,6.925150146484375,-0.02180091291964054,-0.04072188648879528,0.3835125567384064
1684200633893176000,6.935176025390625,0.09191445971801876,-0.10767886895239352,0.43042526069134474
1684200633903202000,6.9452021484375,0.31820071113333104,-0.2029898392409086,0.43589097875133154
1684200633913228300,6.955228271484375,0.6239877847649157,-0.30474282527565955,0.4558145534917712
1684200633923254300,6.965254150390625,0.9767242410980165,-0.42553719638884063,0.454437566050142
1684200633933280300,6.9752802734375,1.2865018456704913,-0.4993623110562563,0.48637613436356186
1684200633943306200,6.98530615234375,1.4390356092631815,-0.4322288029819727,0.5639098942905664
1684200633953332200,6.995332275390625,1.2940116367787122,-0.22669512447714804,0.6184858263477683
1684200633963357200,7.005357177734375,0.9613798108413815,0.027553192836046216,0.5826189786747098
1684200633973383200,7.015383056640625,0.5817329896204173,0.22013620435297487,0.4158123595796525
1684200633983409200,7.0254091796875,0.2981555558398366,0.2986076835215091,0.2412058803886175
1684200633993435100,7.03543505859375,0.08540916947722435,0.2419774492830038,0.12797288444042204
1684200634003461000,7.045461181640625,0.011674801833182572,0.06593816080987452,0.05043912451341748
1684200634013487000,7.055487060546875,0.028818682727217673,-0.09442541962563991,0.03824000654518604
1684200634023513000,7.06551318359375,0.0758199417464435,-0.1739589750677347,0.04014364820942282
1684200634033539000,7.0755390625,0.09973054029643535,-0.08884732723236083,0.07174480126202105
1684200634043564000,7.08556396484375,0.05770283190608024,0.11944997076690196,0.13128069381415844
1684200634053590000,7.095590087890625,0.02537920979782939,0.22031214544177055,0.2164024246521294
1684200634063616300,7.1056162109375,0.04998538939654827,0.20905600741207597,0.34555209778696294
1684200634073642200,7.115642333984375,-0.09676409170627594,0.11587094323635101,0.565316838479042
1684200634083668200,7.125668212890625,-0.2843032638370991,-0.1327332307100296,0.9076011666417121
1684200634093694200,7.135694091796875,-0.15696517016887665,-0.16878128016889093,1.098465976063907
1684200634103720200,7.14572021484375,0.07889876466989516,-0.11348492488265037,1.3023527641445398
1684200634113746200,7.15574609375,0.3933345703117549,-0.051556584236025806,1.5521404487870634
1684200634123771100,7.165771240234375,0.7299849842406809,0.057685296249389645,1.8705786219380796
1684200634133797000,7.175797119140625,0.8806956240594387,0.2966980505079031,2.3201595417372882
1684200634143823000,7.185822998046875,0.8471579499863088,0.5891992338478564,2.746027139124274
1684200634153849000,7.19584912109375,0.8647450446031987,0.7960247057288885,2.963925209161639
1684200634163875000,7.205875,1.0269938542634247,0.777511728438735,2.907400773385167
1684200634173901000,7.215901123046875,1.258884793817997,0.6347656377583741,2.3559372498221696
1684200634183927000,7.225927001953125,1.3148011806987225,0.5190338107317686,1.4052804930470884
1684200634193953300,7.235953369140625,1.1394207945257424,0.4643225618571043,0.32471345402821894
1684200634203978000,7.24597802734375,0.9257727831482887,0.5383306318759918,-0.6611980098709463
1684200634214004200,7.256004150390625,0.8108616248548031,0.493691279682517,-1.421566441937536
1684200634224030200,7.2660302734375,0.8105806159563362,0.26078853273689745,-1.9892336429350077
1684200634234056200,7.27605615234375,1.0269907855235039,-0.08741466408073902,-2.2589805581532416
1684200634244082200,7.286082275390625,1.4014128578335046,-0.4832400282949209,-2.184567268334329
1684200634254108200,7.296108154296875,1.6819612991817294,-0.851621505266428,-1.8247842544905841
1684200634264134100,7.306134033203125,2.012514711409807,-0.9456278226971626,-1.4342610883377491
1684200634274160000,7.31616015625,2.499119247701764,-0.5779606314748525,-1.1569894767031073
1684200634284185000,7.32618505859375,2.949088874557614,0.09830898306071757,-0.9437252039462327
1684200634294211000,7.336211181640625,3.6892864791244264,0.8001198660880326,-0.8522142104625702
1684200634304237000,7.346237060546875,3.3654677819788454,1.420470609524846,-0.7734794041827321
1684200634314263000,7.356262939453125,1.6376666687726973,1.8803367764949797,-0.5390056085281074
1684200634324289000,7.3662890625,-0.3836766612589359,2.1335347079724074,-0.4043788191564381
1684200634334315000,7.37631494140625,-1.96875623370409,2.062325328761339,-0.49426659535244105
1684200634344341200,7.38634130859375,-3.185384771072864,1.8245880012661218,-0.08828793978393078
1684200634354367200,7.3963671875,-4.106579578781128,1.347751994794607,-0.0788888277977705
1684200634364393200,7.406393310546875,-5.59708818565011,0.7866326080054045,-0.3538454404883086
1684200634374418200,7.416418212890625,-6.42250206747055,0.5662222628861665,-0.4658344277247786
1684200634384444200,7.426444091796875,-5.605471398591995,0.46882396492958067,-0.26514877377301455
1684200634394470100,7.43647021484375,-3.474175993978977,0.34005203906595705,0.5924705106034874
1684200634404495400,7.446495361328125,-0.5742401496469974,0.03246376123130321,1.826980449360609
1684200634414521300,7.456521240234375,0.1996995289912447,-0.008390227204561233,3.071692340919375
1684200634424547000,7.466547119140625,-0.7256324881196021,0.018938509225845335,4.004325657486915
1684200634434573000,7.476572998046875,-1.2913549847900867,-0.04525836087465286,4.213248393908143
1684200634444599300,7.486599365234375,-1.366006613409519,-0.5179413393199443,3.4557916115045546
1684200634454624300,7.496624267578125,-1.5130126996219158,-1.117274429169297,2.177258114364743
1684200634464650500,7.506650390625,-1.8701169957756996,-1.3357049986481666,0.8459571958944201
1684200634474676500,7.516676513671875,-2.2672154486656186,-1.1379881313741207,-0.06718874539285898
1684200634484702500,7.526702392578125,-2.3193933796703816,-0.7778495820909738,-0.6110217740774154
1684200634494728400,7.536728515625,-2.073487358766794,-0.438479680070281,-0.86687343493402
1684200634504754400,7.54675439453125,-1.8352783221065998,-0.11817103687226771,-0.7192585691735148
1684200634514780200,7.5567802734375,-1.4904466475486755,-0.03477028460800648,-0.6775146461606025
1684200634524806100,7.56680615234375,-1.3135972117364405,-0.061308747443556785,-0.6379398838803172
1684200634534831400,7.576831298828125,-1.054856186113879,-0.05548574037849903,-0.5044347920149564
1684200634544857300,7.586857421875,-0.8542331490695476,-0.03536357432603836,-0.29019992066025735
1684200634554883300,7.59688330078125,-0.8865290794532745,-0.011741875720024109,-0.10809767888635397
1684200634564909300,7.606909423828125,-0.8708546135246753,-0.13300620243251324,0.03172960173785686
1684200634574935300,7.616935302734375,-0.589724134504795,-0.1807745003014803,0.2712380305588245
1684200634584961300,7.626961181640625,-0.11491466542482376,-0.15144494544267653,0.4878375852182507
1684200634594987500,7.636987548828125,0.26124617684390394,-0.17395780602395533,0.6782417913913726
1684200634605013200,7.64701318359375,0.26711481314897534,-0.2333282788813114,0.871228123012185
1684200634615038500,7.65703857421875,0.2528010045817122,-0.24431436779797075,0.9882324541926384
1684200634625064400,7.667064453125,0.22603929091691968,-0.3523375201433897,0.8800494351103901
1684200634635090400,7.67709033203125,-0.05484685795307159,-0.4446148218244314,0.5427382191851735
1684200634645116400,7.687116455078125,-0.19576924033761023,-0.49917000335454936,0.11846183651238679
1684200634655142400,7.697142333984375,-0.1551508507559076,-0.42982875610291954,-0.24780308669656514
1684200634665168400,7.70716845703125,-0.15609890872836113,-0.1773188068896532,-0.4103399195179343
1684200634675194400,7.7171943359375,-0.17422259443998336,0.008370937982201575,-0.339986864875257
1684200634685220400,7.727220458984375,-0.08665887727737426,0.16624153255820273,-0.1854658729881048
1684200634695245300,7.737245361328125,0.05403320348262786,0.23538754949867724,-0.048432314735651016
1684200634705271300,7.747271240234375,0.160425466690585,0.23011808466315267,0.06913228067606687
1684200634715297300,7.75729736328125,0.21721885560154913,0.19857903706133365,0.21616496263444424
1684200634725323300,7.7673232421875,0.2838005019467324,0.19381693722605703,0.3416638581767678
1684200634735349200,7.777349365234375,0.3212297766309231,0.22128654343187806,0.46704555708020923
1684200634745375500,7.78737548828125,0.29989246263504027,0.25119302139580246,0.5204936541512608
1684200634755401500,7.7974013671875,0.2544916245497763,0.22990882582664487,0.4644695691123604
1684200634765427500,7.807427490234375,0.16034830980114637,0.1331780518680811,0.3894938231050968
1684200634775452400,7.817452392578125,0.002740092488378286,-0.03528524839282036,0.32412937052994967
1684200634785478400,7.827478515625,-0.2030580821715295,-0.2700187178969383,0.3186728586897254
1684200634795504400,7.83750439453125,-0.44591421398520464,-0.5194324546605348,0.31622283518910405
1684200634805530400,7.8475302734375,-0.6727484546720981,-0.6961585563540458,0.1619692620664835
1684200634815556400,7.857556396484375,-0.9535528435427695,-0.9546224455356598,-0.1454553496390581
1684200634825582300,7.867582275390625,-1.392976453399658,-1.3331512225121258,-0.43756607235670086
1684200634835608300,7.8776083984375,-1.8608815499186515,-1.7277981905966997,-0.8070698313564062
1684200634845634300,7.88763427734375,-2.097286752027273,-2.0490029058516024,-1.163937396144867
1684200634855659300,7.8976591796875,-2.0663072380043563,-2.2865315590322015,-1.5882561566546558
1684200634865685200,7.907685302734375,-1.7444354371428488,-2.382723988330364,-1.9826567487627267
1684200634875711200,7.917711181640625,-1.2063142102338373,-2.2889526486992833,-2.1307225731611252
1684200634885737200,7.9277373046875,-0.5519664315838366,-2.0377719022631644,-2.0849004409238696
1684200634895763500,7.937763427734375,-0.08835530593171716,-1.7255173861831425,-1.9094722700864075
1684200634905789400,7.94778955078125,0.21723039990887044,-1.5042711747616528,-1.7940698211446404
1684200634915815400,7.9578154296875,0.3291512903451919,-1.4016741391181946,-1.6459192410722374
1684200634925841400,7.96784130859375,0.3407936512134969,-1.3417816882133482,-1.473612417125702
1684200634935866400,7.977866455078125,0.2241477780818939,-1.2292951267182826,-1.3524728858366608
1684200634945892400,7.987892333984375,0.06255787072181701,-1.0487643720448017,-1.4577704126104711
1684200634955918300,7.99791845703125,0.0014297405421733855,-0.9679384387046098,-1.788117342481017
1684200634965944300,8.0079443359375,-0.02111760683059692,-1.186145720821619,-2.073196559126675
1684200634975970300,8.01797021484375,-0.25182722764611243,-1.5831442204684019,-2.256319668380916
1684200634985996300,8.027996337890626,-0.8790857777100056,-2.013579710292816,-2.293335978350043
1684200634996022300,8.038022216796875,-1.6945055773258209,-2.359127424165606,-2.22481700726673
1684200635006048300,8.04804833984375,-2.224161904358864,-2.028837485179305,-2.0997743310593067
1684200635016073200,8.0580732421875,-2.5189713646411893,-0.011964578559994696,-1.9666094309337436
1684200635026099200,8.06809912109375,-3.052583735823631,4.5255356432139875,-1.7545158093914388
1684200635036125200,8.078125244140624,-2.686121244215965,11.382741963869332,-0.6747001732617616
1684200635046151400,8.0881513671875,11.298666673344373,18.532708411061762,4.396092686221003
1684200635056177400,8.098177490234375,14.501802205163239,14.4439099881649,8.370759118503331
1684200635066203400,8.108203369140625,4.25215709349513,3.5422295395076273,5.17113948585093
1684200635076229400,8.1182294921875,-0.16594808430327102,-2.5341373695909977,2.0546223531685768
1684200635086255400,8.12825537109375,-2.3759435344099997,-5.637022721153498,-0.023850977317243813
1684200635096280300,8.1382802734375,-2.882462146961689,-6.698305213987827,-0.7199956512764096
1684200635106306300,8.148306396484376,-2.893170587980747,-6.5748553599298,-0.9123894238315522
1684200635116332300,8.158332275390626,-3.1560698292613028,-5.725377880954742,-0.8536476042665541
1684200635126358300,8.168358154296875,-3.615235154485702,-3.9909646561324594,-0.4611383788630366
1684200635136384300,8.17838427734375,-4.18126978584528,-1.6616016711115835,0.30727979640737174
1684200635146410200,8.18841015625,-4.599453112339973,0.8019763076096773,1.439456172762811
1684200635156436200,8.198436279296875,-4.591826270723343,2.70696295671463,2.7594810794591904
1684200635166462200,8.208462158203124,-3.977063556551933,3.4157594608455892,3.685229897210002
1684200635176487200,8.218487060546876,-2.185229239374399,2.8328631265342232,3.7668931581571696
1684200635186513200,8.22851318359375,0.22130871873106805,1.245063189214468,3.3959897614926096
1684200635196539400,8.238539306640625,1.1899509583234786,-0.5236719919264317,3.00231456104964
1684200635206565400,8.2485654296875,1.2770190009236335,-1.6371213098496198,2.5344413209736345
1684200635216591400,8.25859130859375,1.4356769464850425,-1.9835820469141006,1.5917708867773412
1684200635226617300,8.268617431640624,1.1425017363410443,-1.7240344541490078,0.8145574106328188
1684200635236643300,8.278643310546874,0.40485388932228084,-0.9337386474609375,0.4490773541912436
1684200635246669300,8.28866943359375,-0.29534963157363237,-0.007471358793973922,0.28082813507243987
1684200635256695300,8.2986953125,-0.8232020509898662,0.5533540134847164,0.17313304563760756
1684200635266720300,8.30872021484375,-1.2428338227272033,0.633046558880806,0.12318287368491292
1684200635276746200,8.318746337890625,-1.4293267006754875,0.3670809157669544,0.182739809025079
1684200635286772200,8.328772216796875,-1.3877707014501095,-0.07771686140894889,0.2203334804907441
1684200635296798200,8.338798095703124,-1.2190174052666871,-0.44280864918529983,0.2576874979816377
1684200635306824200,8.34882421875,-1.0404857885211705,-0.6224246271014213,0.2648372236058116
1684200635316850200,8.35885009765625,-0.8086134806018322,-0.6166957280606031,0.05579100693538785
1684200635326876400,8.36887646484375,-0.585885506189987,-0.43571606057584283,-0.15518281679674983
1684200635336902400,8.37890234375,-0.24661679952144622,-0.15664719026088714,-0.2224599711254239
1684200635346927400,8.38892724609375,0.20199914770312605,0.24617431645095347,-0.30721842160895463
1684200635356953300,8.398953369140624,0.6067518416732549,0.5124281288564205,-0.3868485692933202
1684200635366979300,8.408979248046874,0.7954507052332163,0.3801701144427061,-0.3087719346612692
1684200635377005300,8.41900537109375,0.6524212675668298,-0.02075169612765312,-0.13936740802749992
1684200635387031300,8.42903125,0.34325054284632206,-0.5168085358977318,0.14355740706324577
1684200635397057300,8.439057373046875,0.01915368634648621,-0.8409586569547652,0.664178048595041
1684200635407083800,8.449083740234375,-0.28147300884723664,-0.8204623968929052,1.2579542349696158
1684200635417109800,8.45910986328125,-0.4848713558237999,-0.6289297712117433,1.7935368833117187
1684200635427134700,8.469134765625,-0.6095960521232336,-0.4252782531917095,2.103057005991787
1684200635437160700,8.47916064453125,-0.7159240179233253,-0.09106266519427299,2.109257614197582
1684200635447186700,8.489186767578126,-0.8530746266841888,0.23966858781874179,2.0349854864150285
1684200635457212700,8.499212646484375,-0.9327180722415447,0.3752887721419334,1.8980901675894855
1684200635467238700,8.50923876953125,-0.7856628861904144,0.25347324128746984,1.5599194122254847
1684200635477264600,8.5192646484375,-0.5619826525550335,0.03572890050709247,1.2529070345826445
1684200635487291000,8.529290771484375,-0.3675765172641724,-0.11673895824253558,1.0721360414125025
1684200635497316900,8.53931689453125,-0.20136852164939045,-0.2420119360744953,0.845917302275449
1684200635507341800,8.549341796875,-0.037311639653891324,-0.3558697859227657,0.5368025455258786
1684200635517367800,8.559367919921876,-0.051438949205726385,-0.3068669778227806,0.24325360669866203
1684200635527393800,8.569393798828125,-0.17890622221156954,-0.10384674344360828,0.060901335686445235
1684200635537419800,8.579419677734375,-0.24068112586215137,0.019977204623818395,-0.11366773410364985
1684200635547445800,8.58944580078125,-0.27380013613179327,0.04458148452639579,-0.2839100267358124
1684200635557471700,8.5994716796875,-0.40126024874448774,0.07258534373939036,-0.2987722264334559
1684200635567497700,8.609497802734374,-0.5620405932873487,0.11596505126059055,-0.25585370668321844
1684200635577523700,8.619523681640626,-0.5200872653074562,0.13188450492620468,-0.19931129685863852
1684200635587548700,8.629548583984375,-0.2821696128092706,0.06356792454719543,-0.11362462561428546
1684200635597574700,8.63957470703125,-0.019394874691218138,-0.06693827776312827,0.02612418294623494
1684200635607600600,8.6496005859375,0.16590207147076724,-0.16291092683076858,0.24888518284484742
1684200635617626600,8.659626708984375,0.2591958567179739,-0.243000947111845,0.5009963419988751
1684200635627652600,8.669652587890624,0.24466741901934144,-0.3336404184579849,0.7859098466888069
1684200635637678800,8.679678955078124,0.16788593876436353,-0.26758476874828335,1.0992207399539649
1684200635647704800,8.689704833984376,0.07806596710756421,0.08464519936740397,1.4935810000516474
1684200635657730800,8.699730712890625,0.012872487185150385,0.41916707683503623,1.8223466520801186
1684200635667755800,8.709755859375,-0.0029513971514999863,0.5185299528628587,1.8838200885660945
1684200635677781800,8.71978173828125,0.04824526773095131,0.4287777857452631,1.7689961701646446
1684200635687807700,8.729807861328124,0.06499941865503787,0.20103461351990698,1.464007553434372
1684200635697833700,8.739833740234374,0.005827756305411457,-0.03025660657584667,1.0626998122863471
1684200635707859700,8.749859619140626,-0.10415237532667815,-0.12894728243052958,0.7685776036158204
1684200635717885700,8.7598857421875,-0.2847890015274286,-0.11686229236125946,0.5404528847269714
1684200635727911700,8.76991162109375,-0.5335176786363125,-0.047236382949352264,0.280799055108428
1684200635737937700,8.779937744140625,-0.7686269957154989,-0.0184346513569355,0.06133958097323775
1684200635747962600,8.789962646484375,-1.009739206471294,-0.05861234796643257,-0.06464198351949453
1684200635757988600,8.799988525390624,-1.2081798579752445,-0.07637129201889038,-0.2644283505439758
1684200635768014600,8.8100146484375,-1.2172275992404669,-0.08682137436270713,-0.5683176277302205
1684200635778040600,8.82004052734375,-0.9208627992749213,-0.15555822598040103,-0.8388995324678719
1684200635788066800,8.83006689453125,-0.3648497226487845,-0.2139560544133186,-0.8399434885628521
1684200635798092800,8.8400927734375,0.16447335384190082,-0.25708558656573294,-0.5360654634229839
1684200635808118800,8.850118896484375,0.5146756885875016,-0.18998714980483053,-0.15276070421636104
1684200635818144800,8.860144775390625,0.6610800825797021,-0.05341068767011165,0.30720979991108177
1684200635828169700,8.870169677734374,0.7090601235032081,0.029624738413095472,0.7811443858526647
1684200635838195700,8.88019580078125,0.7680232576686888,0.0867751971334219,1.1965728606812656
1684200635848221700,8.8902216796875,0.9057874682832509,0.19541209746301172,1.5411249876454471
1684200635858247700,8.90024755859375,1.0909925714433193,0.2626777074843645,1.7788189143903552
1684200635868273700,8.910273681640625,1.2005507513362914,0.34415596725344655,1.876394614740461
1684200635878299600,8.920299560546875,1.0187766455382108,0.5097165318101644,1.9608974830277264
1684200635888325600,8.93032568359375,0.5171545728564262,0.6829822639167309,2.0518670631110667
1684200635898351600,8.9403515625,-0.1482622237533331,0.9783166248559951,2.0750307888165116
1684200635908377600,8.950377685546876,-0.7930243548691273,1.4427905778825283,2.0570831903241573
1684200635918402600,8.960402587890625,-1.0678998651474714,1.9615841501176356,1.967248605620116
1684200635928428500,8.970428466796875,-0.9158955322563648,2.3575258341878653,1.7969531214959917
1684200635938454800,8.980454833984375,-0.4785726210057735,2.3917308861285447,1.5263316154003141
1684200635948480800,8.990480712890625,-0.01742695388542488,2.0853817947000266,1.1216028137624263
1684200635958506800,9.0005068359375,0.28608598253540696,1.6211036565065382,0.8362327974766492
1684200635968532700,9.01053271484375,0.6069301208496093,1.0376152015209197,0.6691106826916337
1684200635978558700,9.020558837890626,1.1590216401178388,0.5420037674307823,0.8332317890297621
1684200635988584700,9.030584716796875,1.6905413498699664,0.20772388202548026,1.2841899154663086
1684200635998609700,9.040609619140625,1.9203882163763044,0.016287117934226988,1.709214778418839
1684200636008635600,9.0506357421875,1.7050079743787645,-0.12424889548122882,2.0126950364127754
1684200636018661600,9.06066162109375,0.8790133700609206,-0.43059214169085025,2.2741019933089612
1684200636028687600,9.0706875,-0.530549476480484,-0.8819494235128164,2.2980650526985524
1684200636038713600,9.080713623046876,-1.9693781649947166,-1.2626321636527775,2.124743498751521
1684200636048739600,9.090739501953125,-3.24513839802891,-1.4569114576935767,1.8685143828846513
1684200636058765600,9.100765625,-4.434807324540615,-1.2311007148355244,1.3492219212166965
1684200636068791800,9.110791748046875,-5.429607466685772,-0.6949199544697999,0.7037192008666694
1684200636078816800,9.120816650390625,-5.917898348629475,-0.29049627325832844,0.27764059107750655
1684200636088842800,9.1308427734375,-5.310441573557258,0.5394996756553649,-0.1701129671640694
1684200636098868700,9.14086865234375,-3.995198932701349,1.083348194169998,-0.0047502632670104504
1684200636108894700,9.150894775390626,-2.5772382601708173,1.4594424374759196,0.3667069678880274
1684200636118920700,9.160920654296875,-2.381470481137931,1.6068664568394422,0.6315173034869134
1684200636128946700,9.17094677734375,-2.506109544980526,1.5790736100286245,1.698774340686202
1684200636138972700,9.18097265625,-2.9278888501405715,1.4772884752899407,2.2748044424898923
1684200636148998700,9.19099853515625,-2.988468698787689,1.1362304740518332,1.8324883991271257
1684200636159023900,9.20102392578125,-3.235354086117446,0.771700411811471,1.5221441005825995
1684200636169049900,9.2110498046875,-2.6601836698830126,0.36480361848473547,1.031160764684528
1684200636179075800,9.221075927734375,-1.9245359837055205,0.10040975473225117,0.1725479392260313
1684200636189101800,9.231101806640625,-1.777623128734529,0.013020225092768668,-0.43708325727581976
1684200636199127600,9.24112744140625,-1.921368167324364,-0.05978314531147479,-0.8144090882033109
1684200636209153500,9.251153564453125,-1.919309188967943,-0.08206862687766552,-1.1200099916130304
1684200636219179800,9.2611796875,-1.640544854557514,0.056853521600365636,-1.4327771333903074
1684200636229205800,9.271205810546874,-1.4671081497982144,0.20885259379446505,-1.5555761223241686
1684200636239231700,9.281231689453126,-1.5268606077104807,0.28531740931570526,-1.6550649628192184
1684200636249257000,9.291257080078125,-1.5340499346926808,0.4042518317759037,-2.0658029417440296
1684200636259283000,9.301282958984375,-1.5283099297359586,0.37370237973332404,-2.6484362412050366
1684200636269309000,9.311308837890625,-1.4799194083154201,0.3228127349734306,-3.1461171750456094
1684200636279334700,9.321334716796875,-1.3793176381424068,0.09432254377305507,-3.530191603450477
1684200636289360600,9.331360595703124,-1.3234487436652183,-0.11299158840775489,-3.64371832164824
1684200636299386600,9.34138671875,-1.1500395114347337,-0.3960287778317928,-3.4966970378667113
1684200636309412600,9.35141259765625,-1.0209536973163484,-0.6663508625894784,-3.2063401730790733
1684200636319437800,9.361437744140625,-0.9475921085074543,-0.8368699263364077,-2.757287076546252
1684200636329463800,9.3714638671875,-0.8591641757309436,-0.7922942870289087,-2.358423659810424
1684200636339489800,9.38148974609375,-0.7639666026890277,-0.639378099989891,-1.8945619934633373
1684200636349515800,9.391515869140624,-0.7195648586437106,-0.4215484190136194,-1.4618191034793853
1684200636359541800,9.401541748046874,-0.7269310034975409,-0.24730361274182794,-1.1917734975755214
1684200636369567700,9.411567626953126,-0.7452949277058243,-0.20482699154019354,-0.8842267207950353
1684200636379593700,9.42159375,-0.6954384253859519,-0.2546574826359749,-0.6673182463169097
1684200636389619700,9.43161962890625,-0.5888184178367257,-0.38642742127180096,-0.5989481821849942
1684200636399644200,9.44164404296875,-0.4747407877579331,-0.501309937992692,-0.6958855846315621
1684200636409670400,9.45167041015625,-0.39838936948329207,-0.5690349822193383,-0.8368778173819184
1684200636419696400,9.4616962890625,-0.3120692226409912,-0.5275742600619793,-0.9425830481737851
1684200636429722400,9.471722412109376,-0.23910393967330454,-0.45236792016923427,-1.0238654931098221
1684200636439748400,9.481748291015625,-0.32720980088859797,-0.4248457069933414,-1.079614560599625
1684200636449774300,9.4917744140625,-0.4654899982012808,-0.5132201560169458,-1.1022463713854551
1684200636459800300,9.50180029296875,-0.45025282771140335,-0.4848106386125087,-1.1024752117052674
1684200636469826300,9.511826416015625,-0.4592588487267494,-0.4047422456413507,-1.0061080103620885
1684200636479851300,9.521851318359374,-0.41286797669082875,-0.4075309995770454,-0.5535410604894161
1684200636489877200,9.531877197265626,-0.40501872449517246,-0.40130291884243485,-0.044189854860305786
1684200636499903200,9.5419033203125,-0.4530383667767048,-0.4405933112233877,0.2362655013769865
1684200636509929200,9.55192919921875,-0.6795210175469517,-0.5169412223666906,0.12147855398505926
1684200636519955200,9.561955078125,-1.1788286758065223,-0.6651210285335779,-0.36617870623022314
1684200636529981200,9.571981201171875,-1.4035552766896784,-0.7645429412722587,-0.82198273832798
1684200636540007400,9.58200732421875,-1.0002058005809784,-0.708996995139122,-1.1404051293879747
1684200636550033400,9.592033447265624,-0.31992621975168584,-0.5724333924859761,-1.32737117780596
1684200636560059400,9.602059326171876,0.04820449732914567,-0.4628618416547775,-1.368276604168117
1684200636570084400,9.61208447265625,0.19248554249182342,-0.3450257358253002,-1.294483638204634
1684200636580110300,9.6221103515625,0.21821239668354392,-0.15011106649041175,-1.2869991276681423
1684200636590136300,9.63213623046875,0.417070250686258,0.07177694996595382,-1.2240861598983406
1684200636600162300,9.642162353515625,0.520335687110573,0.3076554978519678,-1.2141343824654818
1684200636610188300,9.652188232421874,0.3887034764450043,0.47472354436218733,-1.3450091258272527
1684200636620214300,9.66221435546875,0.30787235547304154,0.4956190328747034,-1.5147347011089325
1684200636630240300,9.672240234375,0.3414449547290802,0.4271797028988599,-1.5523708965420722
1684200636640266200,9.682266357421875,0.42000834996476766,0.3726572545945644,-1.5083099287584423
1684200636650291200,9.692291259765625,0.5528711253385991,0.39356501806676386,-1.2635381725817918
1684200636660317200,9.702317138671875,0.7934581431765109,0.5233312156647444,-0.7969646169275045
1684200636670343200,9.71234326171875,1.0881132166147232,0.7549941916823387,-0.23300036210119723
1684200636680369200,9.722369140625,1.4035913709163665,0.999432478120923,0.3756836166784167
1684200636690395400,9.7323955078125,1.5700678812742233,1.159936928331852,0.8600836286634206
1684200636700421400,9.74242138671875,1.5483961476922035,1.2647253365397453,1.0038257446438072
1684200636710447400,9.752447265625,1.432838362058252,1.3252864804863929,0.8194576037645339
1684200636720473300,9.762473388671875,1.1263175673246384,1.2968494905531405,0.4009405152708292
1684200636730498300,9.772498291015625,0.8153729647994041,1.1418547436743973,-0.03366904536783695
1684200636740524300,9.782524169921874,0.5857821554133669,0.8822054441004991,-0.26337884149104357
1684200636750550300,9.79255029296875,0.3770142807602882,0.6520639785617589,-0.2940896215751767
1684200636760576300,9.802576171875,0.26263269929885863,0.453349332422018,-0.15732231304347513
1684200636770602200,9.812602294921875,0.3207785622647032,0.3729758190244436,0.08072101166099309
1684200636780628200,9.822628173828125,0.5764356138646602,0.30812194631993767,0.3326128289759159
1684200636790654200,9.832654296875,1.069573351317644,0.25033085160851476,0.3713765671342611
1684200636800680200,9.84268017578125,1.4546283151924608,0.13109306228756903,0.32790304384976626
1684200636810705200,9.852705078125,1.6472481515884398,0.11722937210798264,0.1467825065895915
1684200636820731100,9.862731201171876,1.5144728353023529,0.2876297779113054,-0.13075783898383378
1684200636830757000,9.872757080078125,1.0416145002901553,0.5980418809950352,-0.4764899695128202
1684200636840783400,9.882783447265625,0.45386838786005973,0.7434668354958296,-0.4764019989684224
1684200636850809300,9.892809326171875,-0.47939562782645223,0.6410626920759678,-0.025887597711384294
1684200636860835300,9.90283544921875,-1.5162790079414843,0.39623862119019027,0.29397563980668784
1684200636870861300,9.912861328125,-2.222503031235933,-0.09754793556034565,0.22555238418281076
1684200636880887300,9.92288720703125,-2.3204303215026854,-0.677478405803442,0.048502749623358245
1684200636890913300,9.932913330078126,-2.05426710999012,-1.0440063638627528,-0.04349047441929579
1684200636900938200,9.942938232421875,-1.6876964818328617,-0.954157750633359,-0.08547405140697956
1684200636910964200,9.952964111328125,-1.2308838572144507,-0.3667921619534492,-0.09630904141515492
1684200636920990200,9.962990234375,-0.6768576435565948,0.31820144178569315,-0.09045330112427473
1684200636931016200,9.97301611328125,-0.08829552030218765,0.6364747797638177,-0.11782412313073873
1684200636941042200,9.983042236328124,0.22717793955802917,0.5458890844315291,-0.1906681178063154
1684200636951068200,9.993068115234376,0.18892448900938033,0.2443342415422201,-0.303964242118597
1684200636961094100,10.00309423828125,-0.018132453539967536,-0.13631693441569803,-0.42623876878693695
1684200636971119000,10.013119140625,-0.2861749029278755,-0.49192602357566356,-0.5045877906195819
1684200636981145000,10.02314501953125,-0.4625304177433252,-0.643152942353487,-0.6064157415866851
1684200636991171300,10.03317138671875,-0.6045686524152756,-0.5664198312848806,-0.7229485097326338
1684200637001197300,10.043197265625,-0.741809715938568,-0.41942894264161584,-0.7190393734648823
1684200637011223300,10.053223388671874,-0.7425432909101247,-0.23285949232578276,-0.6974243385061621
1684200637021249300,10.063249267578126,-0.6293547186255455,0.015047347006201743,-0.5684149506248534
1684200637031275300,10.073275146484375,-0.3798438781630248,0.23889292727112768,-0.3521621635764837
1684200637041301200,10.08330126953125,0.005375847819447517,0.35990707861483096,-0.06366948522552847
1684200637051327200,10.0933271484375,0.3349824807167053,0.2979787379682064,0.2589012576855719
1684200637061352200,10.103352294921875,0.6253694483816623,0.08798983362019061,0.5708205504618584
1684200637071378200,10.113378173828124,0.715101157233119,-0.14572715231776237,0.9633226154722273
1684200637081404200,10.123404052734376,0.6583270575445145,-0.3246171540468931,1.2575851093962789
1684200637091430100,10.13343017578125,0.5363244796853512,-0.3875760067850351,1.357703479966521
1684200637101456100,10.1434560546875,0.29788397235684094,-0.3664595689982176,1.5236058436982334
1684200637111482000,10.153482177734375,0.15864325944893062,-0.26091829659640786,1.5361170963555573
1684200637121508400,10.16350830078125,-0.16663206624574958,-0.1724129146695137,1.638893726349622
1684200637131534300,10.173534423828125,-0.5252052293756977,0.09838497090637684,1.9238325116112827
1684200637141559300,10.183559326171874,-0.5377046454647556,0.5584259099215269,1.7555797853611408
1684200637151585300,10.193585205078126,0.19146485767457633,1.1515174750328063,1.754679767781496
1684200637161611300,10.203611328125,0.6064461367249488,1.3884978466808795,1.743676143208146
1684200637171637200,10.21363720703125,0.6517845770984888,1.0073124177157877,1.531925928276032
1684200637181663200,10.223663330078125,0.501475942209363,0.6070932024568318,1.2034990066826343
1684200637191689200,10.233689208984375,0.370138586304523,0.2220049208343029,0.5648242326565086
1684200637201715200,10.243715087890624,0.2489653354089707,-0.1943850925028324,-0.24563304918110368
1684200637211741200,10.2537412109375,0.015144377639889716,-0.383805256074667,-0.7367378195017575
1684200637221766100,10.26376611328125,-0.31619762768261134,-0.3938169470012188,-1.029026236873865
1684200637231792000,10.273792236328125,-0.6094692108731716,-0.2936708116412163,-1.1614490864604712
1684200637241818000,10.283818115234375,-0.7634469627290964,-0.19556056602299213,-1.332134446685016
1684200637251844000,10.293843994140625,-0.856435043027997,-0.1048041902989149,-1.4570030814997852
1684200637261870000,10.3038701171875,-0.8015233031451702,-0.1447369722366333,-1.5977062681756913
1684200637271896300,10.313896240234374,-0.7151086829524487,-0.2462596566468477,-1.5410812946341932
1684200637281922300,10.32392236328125,-0.6058405720472335,-0.35288930880725383,-1.249035599976778
1684200637291948300,10.3339482421875,-0.5654617999076843,-0.4643739997833967,-0.6637377574816345
1684200637301973200,10.34397314453125,-0.5439373658418655,-0.5230144048005342,-0.007829378451406955
1684200637311999200,10.353999267578125,-0.5304647208064794,-0.4705728544235229,0.4673759580783546
1684200637322025200,10.364025146484375,-0.5138027782104909,-0.3073649904727936,0.7215634851150214
1684200637332051200,10.37405126953125,-0.52788990188241,-0.18533610912859438,0.7422859551481902
1684200637342077200,10.3840771484375,-0.5107430253136903,-0.1356868198186159,0.6324344183318317
1684200637352103200,10.394103271484376,-0.4556726608030498,-0.080448916721344,0.47323871263191103
1684200637362129200,10.404129150390625,-0.4119711009163409,0.03680208269655704,0.25383579098954795
1684200637372155100,10.414155029296875,-0.34712650749683377,0.18110767777860162,-0.013906214147061108
1684200637382181000,10.42418115234375,-0.2531833914954215,0.32982875121533867,-0.30531945611983535
1684200637392206000,10.4342060546875,-0.07184241641759873,0.2906920880913734,-0.6219773217253387
1684200637402232000,10.444232177734374,0.19101357024312018,0.15485095449388026,-0.8465789810545742
1684200637412258000,10.454258056640626,0.45369653842449187,-0.006601005700230598,-0.9460602227650582
1684200637422284300,10.4642841796875,0.5719301191389561,-0.11645078895092009,-0.917567118730396
1684200637432310300,10.474310302734375,0.5062310277819633,-0.11370704320073127,-0.8705364874862134
1684200637442336300,10.484336181640625,0.3823439513504505,-0.06893266645073891,-0.7489769772194326
1684200637452362200,10.4943623046875,0.2214548857361078,0.03604454232752323,-0.6203681329630315
1684200637462388200,10.50438818359375,0.12121120828576386,0.04819558337032795,-0.4961706754080951
1684200637472413200,10.5144130859375,0.1478356689043343,0.042267946887016294,-0.312640300527215
1684200637482439200,10.524439208984376,0.23398484309390186,0.004975450325012207,-0.12155775670111178
1684200637492465200,10.534465087890625,0.3511772441923618,-0.036440263646841047,-0.010442045167833565
1684200637502491100,10.5444912109375,0.4748234976053238,-0.03810089033544063,0.032661621890962125
1684200637512517000,10.55451708984375,0.5540022482603788,0.07257423782348632,0.0778391726143658
1684200637522543000,10.564543212890625,0.6041618982452899,0.1835410424053669,0.12960399277359247
1684200637532569000,10.574569091796874,0.5922467848502099,0.18405308358073233,0.14732903455644844
1684200637542595000,10.584594970703124,0.5105750483356416,0.09858896904587745,0.20634192614778876
1684200637552620300,10.594620361328126,0.33440146595835685,-0.06431377447843552,0.23596271903812885
1684200637562646300,10.604646240234375,0.17272256514057516,-0.21840894216895101,0.1363936529137194
1684200637572672300,10.61467236328125,0.02605214062333107,-0.37501346233189103,-0.001543576180189848
1684200637582698200,10.6246982421875,-0.07913491151332855,-0.46134792996048923,-0.10121230328679084
1684200637592724200,10.63472412109375,-0.1288596041470766,-0.3746621646761894,-0.09068667148873209
1684200637602750200,10.644750244140624,-0.1721072097212076,-0.29240473722815513,-0.0034931028127670287
1684200637612776200,10.654776123046876,-0.1783861438602209,-0.2552712306201458,0.12613047144412995
1684200637622802200,10.66480224609375,-0.13576689931750296,-0.2642792974621057,0.23760814815759657
1684200637632827400,10.674827392578125,-0.07476794847548007,-0.24446166731417177,0.2584672501824796
1684200637642853400,10.684853271484375,0.02103752733170986,-0.20647358970344065,0.18661781950220466
1684200637652879400,10.69487939453125,0.13360168410763143,-0.22701544247269628,0.04752031445726752
1684200637662905300,10.7049052734375,0.24924714802503584,-0.28818741179406643,-0.039137832167744635
1684200637672931000,10.71493115234375,0.33201194047331806,-0.33040625884234903,-0.03452668511047959
1684200637682957000,10.72495703125,0.37934769214391706,-0.3005477116733789,0.0022390110984444617
1684200637692983000,10.734983154296875,0.40174174865111706,-0.23682605786919592,0.05693301657736301
1684200637703009300,10.74500927734375,0.40549627887904643,-0.13244447689652442,0.09888400646969675
1684200637713034200,10.7550341796875,0.37549335480332374,0.03889759367108345,0.08044526345953344
1684200637723060500,10.765060546875,0.3166781777411699,0.17398937020599842,-0.05337503183484077
1684200637733086500,10.77508642578125,0.26144743503704665,0.127775316041708,-0.2969397503092885
1684200637743112400,10.785112548828126,0.2584307175643742,-0.02130114670395851,-0.5003668119236827
1684200637753138200,10.79513818359375,0.2384266249336302,-0.04349310476779938,-0.6324218511112034
1684200637763164200,10.8051640625,0.2031517518043518,0.0773375067025423,-0.6432189933270216
1684200637773190100,10.815190185546875,0.18512334316074847,0.18831307911276815,-0.5993707915112376
1684200637783216000,10.825216064453125,0.17528160197362302,0.20179156936705112,-0.48296661818102
1684200637793241300,10.835241455078124,0.173301972463727,0.12499240732491015,-0.2791179701536894
1684200637803267300,10.845267333984374,0.15519406884312628,-0.005753448960185051,-0.06707286392822862
1684200637813293300,10.855293212890626,0.11661679316759109,-0.13048223691284655,0.09134659670218825
1684200637823319300,10.8653193359375,0.05063464708551764,-0.20152327381968496,0.16309446670413016
1684200637833345300,10.87534521484375,-0.022672435057163237,-0.204449390399456,0.20272885021716355
1684200637843371300,10.885371337890625,-0.05539294752851128,-0.12981880456805228,0.1958594028390944
1684200637853397200,10.895397216796875,-0.06596782529577612,-0.009821721312403678,0.17116437591314315
1684200637863423200,10.90542333984375,-0.03705035836920142,0.10355331345498561,0.18471856175214052
1684200637873448200,10.9154482421875,0.048143122530728576,0.22523089714348316,0.29735081532821056
1684200637883474400,10.925474365234376,0.16629589309394358,0.3251391320943832,0.4826442543588578
1684200637893500400,10.93550048828125,0.260361393366009,0.4563350702345371,0.7286610421605407
1684200637903526400,10.9455263671875,0.30998554823473096,0.6435714600265026,0.9126737937308848
1684200637913552400,10.955552490234375,0.2987726648248732,0.7858873425960541,1.1007216460362077
1684200637923578400,10.965578369140625,0.2655874574512243,0.7994371445208788,1.268009326646477
1684200637933604400,10.975604248046874,0.21405893026590345,0.6881833396911621,1.36538935829401
1684200637943630300,10.98563037109375,0.1770405744701624,0.6096750356435775,1.4578171743616462
1684200637953656300,10.99565625,0.15723054310679435,0.4959744221836328,1.4413200669385493
1684200637963681300,11.005681396484375,0.1853355246067047,0.3812941500365734,1.2183464472025631
1684200637973707300,11.015707275390625,0.24037775900140404,0.28380700475275517,0.8663232537053525
1684200637983733200,11.025733154296875,0.3568817394442856,0.2646826175659895,0.40006007917448877
1684200637993759200,11.03575927734375,0.5696212576746941,0.2888888380616903,-0.05672346547991037
1684200638003785200,11.04578515625,0.9955243647664784,0.3375216438055038,-0.3512865497857332
1684200638013811500,11.0558115234375,1.6396324158877134,0.3922609497308731,-0.40374285934045906
1684200638023837400,11.06583740234375,2.397839724397659,0.46281683346927166,-0.25234993634596464
1684200638033863400,11.075863525390625,3.0522008739858864,0.4859703300416469,0.18200754922777412
1684200638043888400,11.085888427734375,3.3167999049216506,0.4943395144581794,0.6945197031058371
1684200638053914400,11.095914306640625,3.1998154474854466,0.5051607682019472,1.0837921385452152
1684200638063940400,11.1059404296875,2.827511244112253,0.47069443497657776,1.2114023271530865
1684200638073966300,11.11596630859375,2.358837501308322,0.3963648779183626,1.1910657876975834
1684200638083992300,11.125992431640626,1.9018153255924581,0.3129880910515785,1.1412272594258188
1684200638094018300,11.136018310546875,1.6231712565608323,0.23772388349175452,1.0784683131739496
1684200638104044300,11.146044189453125,2.102808730319142,0.2877607108145952,1.2301795083373783
1684200638114070300,11.1560703125,4.274485829681158,0.5942553481936454,1.6952356451660393
1684200638124095200,11.16609521484375,6.9829966003596775,1.2812111919164657,1.9714441576138138
1684200638134121200,11.176121337890624,6.665408906558156,1.936674165266752,1.258300125797838
1684200638144147200,11.186147216796876,3.504918338245153,2.078821121010184,0.16916165778860448
1684200638154173200,11.196173095703125,-0.8607797942340374,1.7975035949856042,-0.26628449980467556
1684200638164199400,11.206199462890625,-3.7582805203735825,1.5873405031144618,-0.715341687990725
1684200638174225400,11.216225341796875,-4.9062452713608735,1.7150281408727168,-1.425299052594602
1684200638184251400,11.22625146484375,-5.2550961184322835,2.2063123594135043,-1.261879591719806
1684200638194277400,11.23627734375,-5.422935733836889,2.680483530589938,-0.12910364203602076
1684200638204302300,11.24630224609375,-4.912194535154104,2.88630128673315,1.227679215954244
1684200638214328300,11.256328369140626,-4.474512727463245,2.816428124561906,3.1907971515104174
1684200638224354300,11.266354248046875,-3.2627731311798094,2.6050246772408485,5.522069477283955
1684200638234380300,11.27638037109375,-1.805037643752247,2.5116321077942847,6.67108987480402
1684200638244406300,11.28640625,-1.750576424115896,2.3038316534012555,6.07242138634324
1684200638254432300,11.296432373046875,-2.7676044724211093,1.8345120139092206,4.445092279450595
1684200638264458200,11.306458251953124,-3.2089819197595117,1.258142451018095,2.6454975574046373
1684200638274484200,11.316484130859376,-2.8360522779643533,0.5479284813046456,0.7441092250525951
1684200638284509200,11.32650927734375,-2.728043154144287,0.057443304187059396,-0.38241935467422006
1684200638294535200,11.33653515625,-3.1385859027579426,-0.1980015294343233,-1.2855220408529042
1684200638304561200,11.34656103515625,-3.355276350571215,-0.32573242181241513,-1.9557061979949473
1684200638314587400,11.35658740234375,-3.2536525438740846,-0.19601357048749923,-2.534810154286027
1684200638324613400,11.36661328125,-2.9548163122937083,0.0535918894559145,-2.7835210034772753
1684200638334639400,11.376639404296874,-2.5065470596149564,0.33463176758289337,-2.7212030789911745
1684200638344665300,11.386665283203126,-2.1831433730110525,0.5560463213086128,-2.5574483948126434
1684200638354691300,11.39669140625,-1.9269348615407942,0.5754688146591186,-2.3798060550570486
1684200638364717300,11.40671728515625,-1.7165023050785064,0.5045446821302175,-2.405911971694231
1684200638374742300,11.4167421875,-1.8650497755140065,0.4397358176112175,-2.3840046757906674
1684200638384768300,11.426768310546874,-1.986887518200278,0.31288872233033177,-2.311740234568715
1684200638394794200,11.436794189453124,-2.068640503257513,0.16598434292674064,-2.4093106742218136
1684200638404820200,11.4468203125,-2.090804404270649,0.007030629289150238,-2.5948390910521146
1684200638414846200,11.45684619140625,-2.0909844370126724,-0.13231003686189652,-2.6116560780793425
1684200638424872400,11.46687255859375,-2.2222762367427347,-0.46847558988332744,-2.4572896922320124
1684200638434898400,11.4768984375,-2.281280798897147,-0.8448620941340923,-2.3637322876125575
1684200638444924400,11.48692431640625,-2.216426926192641,-0.885099996498227,-2.3675945159986616
1684200638454949400,11.496949462890624,-2.078711815416813,-0.7807236762225628,-2.3955314474552867
1684200638464975400,11.506975341796876,-2.110388225662708,-0.6901239523649215,-2.2793384326577186
1684200638475001300,11.51700146484375,-2.034662245810032,-0.644932226985693,-2.0712278894022105
1684200638485027300,11.52702734375,-2.0091198082745074,-0.5695826792299747,-2.177756127014756
1684200638495053300,11.53705322265625,-1.9373171393454074,-0.713163467168808,-2.1508099601611494
1684200638505079300,11.547079345703125,-1.8733041013792155,-0.9072650665551424,-1.9537723073229192
1684200638515105300,11.557105224609375,-1.635765219065547,-1.1729857949972151,-1.860502195212245
1684200638525131300,11.56713134765625,-1.3266028237819671,-1.4596335761338473,-1.6802590253084897
1684200638535156200,11.57715625,-1.0788991058066486,-1.605540761193633,-1.3749851618960498
1684200638545182200,11.58718212890625,-0.8544456227764486,-1.5899989086687565,-0.9954968922376632
1684200638555208200,11.597208251953125,-0.6824369049936533,-1.5004676908254622,-0.4151552108451724
1684200638565234200,11.607234130859375,-0.7838339171975851,-1.4055869286477565,-0.024650164870917795
1684200638575260400,11.617260498046875,-0.8233715623378753,-1.168963115352392,-0.17437836952358482
1684200638585286400,11.627286376953125,-0.8407640111654996,-0.8657698576062918,-0.5901102112129331
1684200638595312400,11.6373125,-0.801253254032135,-0.6396849739819764,-1.0075678537815809
1684200638605338400,11.64733837890625,-0.6049605743423104,-0.5193664036870003,-1.2496870496228336
1684200638615363300,11.65736328125,-0.29781770218759773,-0.5944026477098464,-1.2452014286413788
1684200638625389300,11.667389404296875,-0.03233838128596544,-0.7794324673682451,-0.9885592019289732
1684200638635415300,11.677415283203125,0.22040420763939617,-0.9106821815222501,-0.6102806003212928
1684200638645441300,11.687441162109375,0.4582257062867284,-0.8801707234025001,-0.16251666681617497
1684200638655467300,11.69746728515625,0.6132090549886227,-0.6110702893942594,0.26193068850934503
1684200638665493200,11.7074931640625,0.5623138572707772,-0.2817120783001184,0.5556050072818994
1684200638675519200,11.717519287109376,0.3247290899887681,-0.08435293842256068,0.7232017538413404
1684200638685545200,11.727545166015625,-0.030737960352003574,-0.09743453831374645,0.8032303993239999
1684200638695570200,11.737570068359375,-0.3681958912715316,-0.16460720935463904,0.780579591576755
1684200638705596200,11.74759619140625,-0.5473346070647239,-0.2810112365543842,0.6081251758530736
1684200638715622100,11.7576220703125,-0.5742760977432131,-0.39000060358345506,0.2854106405571103
1684200638725648400,11.7676484375,-0.36545945204496383,-0.3805442084521055,-0.08372691547870635
1684200638735674400,11.77767431640625,-0.0059974868491292,-0.21685294489860532,-0.23742256245762108
1684200638745700400,11.787700439453126,0.15140519795417784,0.014731705185770988,-0.09569675473570823
1684200638755726300,11.797726318359375,0.14618658652305602,0.22302315796613692,0.08020750918090343
1684200638765752300,11.80775244140625,0.15802797709479927,0.22561901967823503,0.14923545269966124
1684200638775777300,11.81777734375,0.10705854509696364,0.1410463010251522,0.1397279119029641
1684200638785803300,11.82780322265625,0.026607290288060904,0.08021276987791061,0.07564853070229291
1684200638795829200,11.837829345703126,0.027412761452049017,0.14128010978102684,-0.021120237179100512
1684200638805855200,11.847855224609376,0.07121463990807533,0.4324304630339145,-0.06801233673542738
1684200638815881200,11.857881103515625,0.3094586017511785,0.8460323069572449,-0.14801701682060955
1684200638825907200,11.8679072265625,0.6382789796415717,1.159039687231183,-0.3100090752407908
1684200638835933200,11.87793310546875,0.9380968426704406,1.2219155378609896,-0.636297085109353
1684200638845959200,11.887959228515625,1.2592951281845568,0.990295816463232,-1.05054862511307
1684200638855984000,11.897984130859374,1.4245277759611605,0.725862205222249,-1.3821028849467634
1684200638866010000,11.908010009765626,1.6810579206012188,0.8995487930893897,-1.5218117998883127
1684200638876036400,11.918036376953125,2.3460358874022957,1.7572212689578532,-1.1841375958696008
1684200638886062300,11.928062255859375,3.524089487183094,3.0155846692502495,-0.03774959267973899
1684200638896088300,11.93808837890625,4.5126703164219855,4.410772953480482,1.5407845036447048
1684200638906114300,11.9481142578125,4.334455437475443,5.220706942096352,3.057483198302984
1684200638916140300,11.958140380859374,3.1835832746088504,4.609688090628385,4.171286736491322
1684200638926166300,11.968166259765624,1.6313035634815691,2.500644849833846,4.029203785894811
1684200638936192300,11.978192138671876,-0.3413958548903465,-0.20948855361044405,2.925146857956052
1684200638946217200,11.98821728515625,-2.0494857209324837,-2.3283207824915646,1.5292895884230733
1684200638956243200,11.9982431640625,-3.2239690610110756,-3.3083559017032385,0.36249066536724567
1684200638966269200,12.008269287109375,-3.7683307897448537,-3.515418689471483,-0.4651476145043969
1684200638976295200,12.018295166015625,-3.5349873132944105,-3.3275925170928238,-1.035038921292126
1684200638986321200,12.028321044921874,-2.937106760340929,-2.803168830016255,-1.4338526536673306
1684200638996347100,12.03834716796875,-2.482113752365112,-2.0465765554875133,-1.6203540071830151
1684200639006373400,12.048373291015626,-2.0300889465451237,-1.1723229471743106,-1.5981819228634238
1684200639016399400,12.0583994140625,-1.4776748442590235,-0.1813444091439247,-1.3896379566267132
1684200639026424300,12.06842431640625,-0.6943535527586937,0.8691688523948192,-0.8960469224482774
1684200639036450300,12.0784501953125,0.42260757267773147,1.7754279567778108,-0.2882499556362629
1684200639046476300,12.088476318359374,1.5648749888062476,2.1290093395024536,-0.1174161268517375
1684200639056502300,12.098502197265624,1.7719056278705596,1.6525754840910434,-0.37821722680926323
1684200639066528300,12.1085283203125,1.3920382957667112,0.8362357200860977,-0.6118522335521877
1684200639076554200,12.11855419921875,0.8822218107134103,0.17488894939422606,-0.6741207659386098
1684200639086580200,12.128580322265625,0.4698181635987013,-0.21828502352833748,-0.7213797991111874
1684200639096606200,12.138606201171875,0.18466566252112387,-0.5480734427332877,-0.6945277402818203
1684200639106631200,12.148631103515624,-0.05358838232457638,-0.700231504881382,-0.6254186943508684
1684200639116657200,12.1586572265625,-0.24331132823526858,-0.6474672984212636,-0.4261790014237165
1684200639126683100,12.16868310546875,-0.4017669926902279,-0.5533253719121217,-0.12635960402488708
1684200639136709000,12.178709228515626,-0.5749491746991873,-0.3300362564861774,0.26513050746396183
1684200639146735000,12.188735107421875,-0.6443757621467113,-0.12753624658882617,0.7622641826853156
1684200639156761300,12.19876123046875,-0.6747767456293106,0.022280805391073227,1.0191991087339818
1684200639166786300,12.208786376953125,-0.7075894664287566,0.07506547011733054,1.2566666793771086
1684200639176812300,12.218812255859374,-0.838795925962925,0.22159224838018415,1.802538228151947
1684200639186838300,12.22883837890625,-0.8876397441089153,0.357101958066225,2.3889349717997015
1684200639196864300,12.2388642578125,-0.481048692263104,0.22540508466660975,2.749593599434197
1684200639206890200,12.24889013671875,0.39738198253903534,0.24084172325134276,2.662474411168694
1684200639216916200,12.258916259765625,1.135139756205678,0.47823184474408625,2.288168512584269
1684200639226942200,12.268942138671875,1.3377823894441128,0.6623305210322141,1.8512562279611824
1684200639236968200,12.27896826171875,1.2923925111442804,0.8181237248122691,1.3010378821536899
1684200639246994200,12.288994140625,1.0215005175441503,0.8128712111115455,0.6116948510333895
1684200639257019400,12.299019287109376,0.4787129427919164,0.6066144790291785,-0.030991058330237863
1684200639267045400,12.30904541015625,0.0003162263423204422,0.3500590538173914,-0.31238398767858744
1684200639277071400,12.3190712890625,-0.30878651117589323,0.06295826821625232,-0.2599824770510197
1684200639287097000,12.32909716796875,-0.5647750232199207,-0.2505126379162073,-0.47904067690894003
1684200639297123000,12.339123046875,-0.8269593576967715,-0.4015028253287077,-0.7114575400337576
1684200639307149300,12.3491494140625,-1.070714922568202,-0.4002548710942268,-0.7939327018857002
1684200639317175300,12.35917529296875,-1.290537823188305,-0.32244390166103837,-0.8139819488324225
1684200639327201300,12.369201171875,-1.3927321232497691,-0.27660452602803703,-0.9125776398800313
1684200639337226500,12.3792265625,-1.4719418535649775,-0.2587245859444141,-0.9485137533970177
1684200639347252500,12.38925244140625,-1.4912509496688842,-0.2592307819008827,-1.0018230265192687
1684200639357278500,12.399278564453125,-1.4537468561828135,-0.32301147241592404,-1.0787687574252485
1684200639367304400,12.409304443359375,-1.3896061001837252,-0.38016193113625046,-1.0780590017206966
1684200639377330200,12.419330078125,-1.3675591035485266,-0.37781039957404133,-1.0359516522228718
1684200639387356200,12.429356201171874,-1.3114601997077464,-0.3858347160756588,-1.0394557148210704
1684200639397382100,12.439382080078126,-1.1601479407340287,-0.3077157036066055,-0.8152391092866659
1684200639407409200,12.4494091796875,-0.8398907354623079,-0.1766466067165136,-0.601568886077404
1684200639417434000,12.45943408203125,-0.3653893094182014,0.07389525729417801,-0.5655361803181469
1684200639427460000,12.469460205078125,0.11633512668199837,0.41171150013208385,-0.533978135754913
1684200639437486000,12.479486083984375,0.6770120304007082,0.46507191891968247,-0.4412573280900717
1684200639447512000,12.489511962890624,1.144233163243532,0.22920798408091067,-0.23114202088341115
1684200639457538000,12.4995380859375,1.2935446037888527,0.038006782311201096,-0.042020401866734024
1684200639467564000,12.50956396484375,1.0855653587628156,-0.013641571861505507,-0.02140752968788147
1684200639477590000,12.519590087890625,0.7236416796285658,-0.000716039314866066,-0.05724675870165229
1684200639487616000,12.529615966796875,0.34191732148118315,0.0020908347994089125,-0.06097220896556973
1684200639497642000,12.53964208984375,0.03349025473482907,-0.02665069103837013,-0.0725707306921482
1684200639507667000,12.5496669921875,-0.1569318524211645,-0.07195172201097011,-0.10879501350075006
