time,seconds_elapsed,z,y,x
1684381754341514500,0.016514404296875,0.003872457519173622,0.0074506813321262595,-0.03758048319052905
1684381754351574500,0.026574462890625,-0.02456102528274059,-0.029192977666016667,-0.14239117629546671
1684381754361633500,0.036633544921875,-0.06451368096470833,-0.0003998495051637292,-0.037577103923354296
1684381754371693600,0.046693603515625,0.02497369773685932,-0.01997378882402554,0.026248686108738182
1684381754381752600,0.056752685546875,0.1156535010933876,-0.0019470972134731708,0.059698937626741826
1684381754391812600,0.0668125,-0.04041559701859951,-0.08072793459212407,-0.015034651921410113
1684381754401871400,0.076871337890625,-0.14710662397742272,-0.09000742052029818,-0.07668359110476448
1684381754411930600,0.0869306640625,0.00912497121989727,-0.004175331189576536,-0.039822051572240884
1684381754421990400,0.096990478515625,0.08274842583537101,0.01273541680201888,0.02476770856967196
1684381754432049400,0.10704931640625,0.057305941542983053,0.03808547357060015,0.01739710673643276
1684381754442109700,0.117109619140625,-0.01901098994016647,0.00470185754802078,-0.07048915691142901
1684381754452168400,0.12716845703125,-0.04639057977497577,-0.026714824049454182,-0.08805661524608731
1684381754462227500,0.1372275390625,-0.027385435053706168,-0.0021244996069930493,0.007301025462057441
1684381754472287500,0.14728759765625,0.08888473663330078,-0.020605328193213788,0.04082258865060284
1684381754482346500,0.157346435546875,0.030220366218686102,-0.02904441777449101,0.02770699515827
1684381754492406500,0.167406494140625,-0.08470598964393139,-0.07547160323280841,-0.03397842184426263
1684381754502465500,0.177465576171875,-0.04355623313188552,-0.06912464535888284,-0.0744018368431367
1684381754512525600,0.187525634765625,0.028421207842230796,0.025041246547736228,0.005984937894809991
1684381754522584300,0.197584228515625,0.061193596631288524,0.02088345101485029,0.017084898982103913
1684381754532643000,0.20764306640625,-0.010786182430386542,0.003033394612837583,-0.016656371371727437
1684381754542702800,0.217702880859375,-0.03891571384966373,-0.026099377298541365,-0.07321816175021231
1684381754552762000,0.22776220703125,-0.017367314386367797,-0.035781489210855215,-0.04336040003253147
1684381754562822100,0.237822265625,0.044430677878856656,-0.005479655253794044,0.0443745820437558
1684381754572881000,0.247880859375,0.055498599860072134,-0.02124282237915322,0.04464052123725414
1684381754582940200,0.257940185546875,-0.04132043690383434,-0.046099433074984694,-0.013979096720181404
1684381754593000000,0.268,-0.059574470996856685,-0.028896679866872728,-0.0557984778557904
1684381754603059000,0.278058837890625,-0.0048024318456649775,-0.01053719437168911,-0.05640793325733393
1684381754613119000,0.288118896484375,0.0556523291170597,0.025481190601270645,0.019318503253068775
1684381754623178000,0.298177978515625,0.027962942680716512,-0.0007055909860879182,-0.0043367688289843494
1684381754633238000,0.308238037109375,-0.017232289829850197,-0.04383307731188833,-0.039697676273901014
1684381754643297000,0.318297119140625,-0.04371756117343902,-0.04138056959323585,-0.056834670769423244
1684381754653356000,0.32835595703125,-0.0016705635607242584,-0.03515343870669603,-0.004225965398270637
1684381754663415800,0.338415771484375,0.04636719889938831,-0.004471665521338581,0.029558395178616047
1684381754673475000,0.34847509765625,0.018382628908753394,-0.01844098976617679,-0.0045450412848033
1684381754683535000,0.35853515625,-0.042816812941432,-0.025525376802869138,-0.04378604156607762
1684381754693593900,0.36859375,-0.004804185411334038,-0.007386091663315892,-0.03459604228595271
1684381754703653000,0.378653076171875,0.060438394349813455,-0.0007821998862549662,0.0017148593601770698
1684381754713713000,0.388712890625,0.029160628032684325,-0.0010479929492808878,0.01799969400577247
1684381754723772200,0.398772216796875,-0.011391162586212157,-0.03233432616535574,-0.02480531890001148
1684381754733832000,0.40883203125,-0.042965866023302074,-0.0399574962538667,-0.036707463215664024
1684381754743891000,0.418890869140625,-0.016180150428414343,-0.02984506663288921,-0.008686177943833171
1684381754753950000,0.428949951171875,0.044722938823699945,-0.008721048327814788,0.0038231750173494216
1684381754764010000,0.439010009765625,0.030056115567684172,-0.0063084159618243575,0.006593260785192251
1684381754774069000,0.449069091796875,-0.017978724282979964,-0.03028780543170869,-0.03518810816127807
1684381754784129000,0.45912890625,-0.01708265222609043,-0.018465521419234573,-0.056805444674938914
1684381754794188000,0.46918798828125,0.020325579670071602,-0.0042352264169603585,-0.00528689089436084
1684381754804248000,0.479248046875,0.023314824613928795,-0.006669175565615296,0.029634657018911093
1684381754814307000,0.48930712890625,-0.008408931905031204,-0.032478209881763906,-0.009336805605981498
1684381754824366000,0.499365966796875,-0.03698912970125675,-0.04641834456473588,-0.019654365877620875
1684381754834425900,0.50942578125,-0.023373276802897452,-0.016829663845710455,-0.03646344359302893
1684381754844485000,0.519485107421875,0.014185177218914031,0.0025402408010326326,-0.007191080547869205
1684381754854545200,0.529545166015625,0.045158407631516455,0.0020099333166144788,0.002720419673528522
1684381754864604000,0.53960400390625,-0.001982113727927208,-0.011221559906657784,-0.009436265658773481
1684381754874663200,0.5496630859375,-0.027573066580295562,-0.02366557428035885,-0.03305958996629342
1684381754884723000,0.559722900390625,-0.009915829336643218,-0.0210344220591709,-0.005910100826621055
1684381754894782000,0.569781982421875,0.027494156125187873,-0.010841364950034767,0.010049940577708184
1684381754904842000,0.579842041015625,0.023006197056174276,-0.011878909570537506,-0.005109853827022016
1684381754914901000,0.58990087890625,-0.03909691563546657,-0.03630381431821734,-0.015114548757206648
1684381754924961000,0.5999609375,-0.03221124777495861,-0.028177005556505173,-0.039630090930406
1684381754935020000,0.61002001953125,0.00041150341033935545,-0.017199209544155745,-0.017766524570714683
1684381754945079000,0.6200791015625,0.02240998472869396,-0.01934940984798595,0.008211929761897772
1684381754955138800,0.630138916015625,0.003103226712346077,-0.017499197137728333,-0.012636102879699318
1684381754965198000,0.640197998046875,-0.044781975534558295,-0.032869656884763385,-0.0171131752285175
1684381754975258000,0.650258056640625,-0.024129063606262206,-0.005982307546306401,-0.019898549897037446
1684381754985316900,0.66031689453125,0.030490999853610992,-0.0044992111153900624,-0.005774345617741346
1684381754995376000,0.670376220703125,0.025400983238220213,0.0024191351720131934,0.0098694511779584
1684381755005436000,0.680435791015625,-0.008568506380915641,-0.028743224604520945,-0.033276776380930094
1684381755015495200,0.6904951171875,-0.017546178084611893,-0.029647699163574723,-0.025813125969376415
1684381755025555000,0.700554931640625,-0.003630465456843376,-0.019979213917814195,-0.012548369797319173
1684381755035614000,0.710614013671875,0.018815175107121468,-0.003522018379997462,0.012283015125710516
1684381755045673000,0.7206728515625,0.029741058269143104,-0.020280023495294154,-0.006525876371096819
1684381755055733000,0.73073291015625,-0.018287936362624168,-0.04184844283331186,-0.03694954660953954
1684381755065792000,0.7407919921875,-0.02232464453279972,-0.031951190332975235,-0.03384261183645576
1684381755075852000,0.75085205078125,0.011197685840725898,-0.025046178451180456,-0.018447510838508607
1684381755085911000,0.7609111328125,0.014935703325271606,-0.015499054562766105,0.009247720816731453
1684381755095969800,0.7709697265625,-0.0003337619990110397,-0.015183595405425876,0.003827376268431544
1684381755106030000,0.781030029296875,-0.020683891588449476,-0.029349702597688883,-0.030207214476168153
1684381755116089000,0.791089111328125,-0.010958616387844086,-0.02036446864204481,-0.02298318150676787
1684381755126148900,0.80114892578125,-0.0006318681627511978,-0.02166502984659746,-0.007846110390499234
1684381755136208100,0.8112080078125,0.018072247785329818,-0.020995094695780425,-0.008473631171695887
1684381755146267000,0.821266845703125,-0.003926818054914474,-0.020698230641055852,-0.019886384535208343
1684381755156327000,0.831326904296875,-0.016797405543923376,-0.024806122617609797,-0.03290847279150039
1684381755166386000,0.841385986328125,0.005349544334411621,-0.005717245135642588,-0.014022515736799687
1684381755176446000,0.851446044921875,0.02331190200448036,-0.01278402345040813,0.015080683020222932
1684381755186505000,0.8615048828125,0.01792319470345974,-0.015802731950767337,0.0006655329703353345
1684381755196565000,0.87156494140625,-0.0031821371674537655,-0.02401804097983986,-0.03735233699046075
1684381755206624000,0.8816240234375,-0.0154500825881958,-0.027036274556163697,-0.030087058695219455
1684381755216683000,0.89168310546875,-0.0024298574954271317,-0.022638916380051523,-0.008698690365534275
1684381755226743000,0.901742919921875,0.011634323692321777,-0.02910827679093927,-0.006334134924970567
1684381755236802000,0.911802001953125,-0.003930325186252593,-0.027180121739953756,-0.019531214421987533
1684381755246861800,0.92186181640625,-0.022632103046774862,-0.03447504625478759,-0.028523079047817736
1684381755256921000,0.931921142578125,0.0026607436418533323,-0.0238042886313051,-0.016627309674024583
1684381755266979800,0.941979736328125,0.009545242458581923,-0.0153150580316782,0.006695405985414981
1684381755277040000,0.9520400390625,0.013284428986907005,-0.02040193284191191,0.006923150326684117
1684381755287099000,0.962098876953125,-0.0070674541682004925,-0.028275132168736308,-0.03035011181188747
1684381755297159000,0.972158935546875,-0.007069207733869552,-0.02232800553366542,-0.02363452155496925
1684381755307218200,0.98221826171875,-0.003925064489245415,-0.02109603431960568,-0.001623838342167437
1684381755317277000,0.99227685546875,0.009991232660412788,-0.011894417666923254,0.004143310349807143
1684381755327337000,1.0023369140625,0.008048281899094581,-0.018599322133045642,-0.01455565449912101
1684381755337396000,1.01239599609375,-0.02068038445711136,-0.028460224678367375,-0.03515146594531834
1684381755347456000,1.0224560546875,-0.006014145722985267,-0.03412296314779669,-0.024473200868815184
1684381755357515000,1.032514892578125,0.005506780722737312,-0.028635270718019454,-0.004323653619084507
1684381755367574000,1.042573974609375,0.009249474382400513,-0.03343178427955135,-0.004109408080205321
1684381755377634000,1.052634033203125,0.019572130954265594,-0.029578451585955914,-0.026244630988128483
1684381755387693000,1.062693115234375,-0.0040653497427701945,-0.0306686214428395,-0.03409017512304708
1684381755397753000,1.072753173828125,0.0029699557214975356,-0.013673008179385214,-0.00451033529760316
1684381755407811800,1.082811767578125,0.019730536386370658,-0.015058215460088103,0.009258790200017393
1684381755417871000,1.09287109375,-0.0019715923339128495,-0.017032419876195488,-0.011889010839443654
1684381755427931100,1.10293115234375,-0.012450316250324249,-0.02085479117594659,-0.04753494577081874
1684381755437990000,1.112989990234375,-0.0057172086030244824,-0.022306633952073752,-0.023174740289803594
1684381755448050000,1.1230498046875,-0.005267126747965812,-0.03180495026269928,-0.013886687462683766
1684381755458109000,1.13310888671875,0.010739420679211615,-0.022518906729575246,-0.002894187071546912
1684381755468169000,1.1431689453125,-0.0019815292060375213,-0.017165910062752664,-0.011606102244835347
1684381755478228000,1.15322802734375,-0.0004845686465501785,-0.01931766300285235,-0.030577180299721656
1684381755488287000,1.163286865234375,-0.010811901393532752,-0.02773757295962423,-0.02398989259758964
1684381755498347000,1.173346923828125,-0.0030330840855836865,-0.019115436695329845,-0.014543452604673802
1684381755508406000,1.183406005859375,0.010731237372756004,-0.01724061926677823,-0.001954239340312779
1684381755518466000,1.193466064453125,-0.0031809681236743925,-0.028855434541031715,-0.011624039760325104
1684381755528525000,1.203525146484375,-0.008420622342824936,-0.018133385121729222,-0.01686694538248703
1684381755538584000,1.213583984375,0.002502338209748268,-0.013377715027239173,-0.004663279103301465
1684381755548644000,1.22364404296875,0.006387655210494995,-0.0082316939082928,-0.005091276990715414
1684381755558702800,1.233702880859375,-0.0006412205129861831,-0.01747265619067475,-0.011759027784224598
1684381755568763100,1.24376318359375,-0.009622399348020554,-0.02713405410852283,-0.02306311487518251
1684381755578822100,1.253822265625,-0.01006955859363079,-0.02409271365124732,-0.024685418847389517
1684381755588881000,1.263880859375,-0.007824994537234306,-0.01300802319832146,-0.024524602262489495
1684381755598941200,1.273941162109375,0.0030938743621110915,-0.009666676881164312,-0.01494781388817355
1684381755609000000,1.284,-0.0002028290957212448,-0.0216538143328391,-0.01097127494001761
1684381755619060000,1.29406005859375,0.013860767570137976,-0.02753019555294886,-0.021756872848514467
1684381755629119200,1.304119140625,-0.014872574961185454,-0.007966430568229406,-0.006162596016656607
1684381755639178000,1.314177978515625,-0.008438157999515533,-0.0164650865833275,-0.005292352520767599
1684381755649238000,1.324238037109375,0.007421089911460876,-0.013651746195647865,-0.008903510488942265
1684381755659297000,1.334297119140625,0.0008358663022518157,-0.012372246045432984,-0.0163921674775891
1684381755669357000,1.344357177734375,-0.01697100854516029,-0.020514983028639106,-0.020061576705332845
1684381755679416000,1.354416015625,-0.0073977090358734125,-0.018547080489154905,-0.004059011333528906
1684381755689475000,1.36447509765625,0.015787351718544958,-0.023068284240644422,0.0025029227316379545
1684381755699535000,1.37453515625,0.014891279661655425,-0.014124788801185785,-0.004293221948202699
1684381755709594000,1.384593994140625,-0.008451602002978325,-0.012160338594112545,-0.025134916180558502
1684381755719654100,1.394654052734375,0.011292962908744812,-0.01675309147816151,-0.014947978284955024
1684381755729713000,1.404712890625,0.01204115092754364,-0.016348237004317343,0.00483640718050301
1684381755739772200,1.414772216796875,-0.002923193970322609,-0.01612051092935726,-0.0010459653889760374
1684381755749832200,1.424832275390625,0.016529109996557236,-0.032177765630465,-0.016525548066291956
1684381755759891000,1.434890869140625,0.0029120880544185636,-0.025080920970998705,-0.02586752303773537
1684381755769951200,1.444951171875,-0.027464930030703542,-0.0173683555659838,-0.01783895048610866
1684381755780010000,1.455010009765625,0.006647182929515838,-0.011885339311324059,-0.009009144554194062
1684381755790069000,1.465069091796875,0.0006575871258974075,-0.008892642035055905,-0.017965499475225806
1684381755800129000,1.47512890625,-0.0198462717205286,-0.009542977436259389,-0.010261464436538517
1684381755810188000,1.48518798828125,0.006336801806092262,-0.02357241610419005,-0.004615604036673903
1684381755820248000,1.495248046875,0.008581365862488746,-0.018940262791514395,-0.002658643016312271
1684381755830307000,1.50530712890625,0.002299509114027023,-0.00416522992067039,-0.006628368631191551
1684381755840366000,1.515365966796875,-0.0006973346143960953,-0.008904862195812165,-0.0038162338199093935
1684381755850425900,1.52542578125,-0.003985854765772819,-0.022697532965801653,-0.015185641232039778
1684381755860485000,1.535485107421875,-0.00862520500421524,-0.026708905765321103,-0.02669887756165117
1684381755870545200,1.545545166015625,-0.009526537758111953,-0.020566475753858685,-0.012937862305250018
1684381755880604000,1.55560400390625,0.017106033101677895,-0.00005052461083978414,-0.008182758466340602
1684381755890663200,1.5656630859375,-0.005194061511754989,-0.017056093012727796,-0.036032139503676446
1684381755900723000,1.575722900390625,-0.0060977323532104485,-0.020308464138489215,-0.04073642647080123
1684381755910782200,1.5857822265625,-0.00011222820281982422,-0.028941907248087227,-0.019093425792921333
1684381755920842000,1.595842041015625,0.004078209224343299,-0.01648700615419075,-0.020206812128610908
1684381755930901000,1.60590087890625,0.0031809681236743925,-0.024110011845920234,-0.00019912103498354554
1684381755940960000,1.6159599609375,-0.008048866420984268,-0.01874612845890224,-0.018105291538406162
1684381755951020000,1.62602001953125,0.0016717326045036314,-0.018985289243329314,-0.014000851894263177
1684381755961079000,1.6360791015625,0.010049684849381447,-0.028577549181412903,-0.021100052907597273
1684381755971139000,1.64613916015625,-0.008356909456849098,-0.026911442600097507,-0.007877930300869047
1684381755981198000,1.656197998046875,-0.0171884506881237,-0.022920655930880454,-0.017721571184135972
1684381755991256800,1.6662568359375,0.005252513700723648,-0.019627149077132342,-0.014973843378573656
1684381756001317000,1.676317138671875,0.002408230185508728,-0.012746029527578502,-0.023754458140209316
1684381756011376000,1.686376220703125,-0.0023860183537006375,-0.008683109203912317,-0.023059845205862073
1684381756021436000,1.696435791015625,-0.0038859015226364135,-0.024868629927188156,-0.011203202266059815
1684381756031495200,1.7064951171875,-0.002687047126889229,-0.011525419957749545,-0.011755538919195532
1684381756041555000,1.716554931640625,-0.005982581540942192,-0.0025742709347978234,-0.0184532281932421
1684381756051614000,1.726614013671875,0.004936871880292892,-0.006362082377821206,-0.011035535815265028
1684381756061673000,1.7366728515625,0.0007446808874607086,-0.011656243263185024,-0.016860570440627633
1684381756071733000,1.74673291015625,0.005529577076435089,-0.018421207353472708,-0.0012545301057398318
1684381756081792000,1.7567919921875,-0.01167991639971733,-0.02154708428904414,-0.00899272314235568
1684381756091851000,1.76685107421875,-0.0001572363883256912,-0.007662807979155331,-0.020350239187292753
1684381756101911000,1.7769111328125,0.013754384586215019,-0.012265680398419498,-0.020784867744892833
1684381756111970000,1.786969970703125,0.0016325696378946303,-0.021917324107233432,-0.005389017828274518
1684381756122030000,1.797030029296875,0.002529226216673851,-0.005355097292363643,-0.012754377230815588
1684381756132089000,1.807089111328125,-0.005849895071983337,-0.014903280626703054,-0.012526705954782663
1684381756142148000,1.817148193359375,-0.00495090040564537,-0.0038881117460317907,-0.01535294235665351
1684381756152208100,1.8272080078125,0.001187163957953453,-0.02124192733000964,-0.013532576795388012
1684381756162267000,1.837266845703125,0.004631751453876495,-0.012657474461290985,0.0025689371725544333
1684381756172327200,1.8473271484375,-0.0052495910912752144,-0.020803627244289965,-0.004300272743497043
1684381756182386000,1.857385986328125,0.00028407763838768005,-0.011378704963438213,-0.020759970765653998
1684381756192446000,1.867446044921875,0.012404139021039009,-0.003584708352666348,-0.0002490976565517485
1684381756202505200,1.877505126953125,-0.011388239976763725,-0.01802311141397804,-0.023951697745360434
1684381756212564000,1.88756396484375,-0.0016617957323789595,-0.012819113030098379,-0.011664408303331583
1684381756222624000,1.8976240234375,-0.004953238493204117,-0.019365758194588124,-0.004393193457648158
1684381756232683000,1.90768310546875,0.0026771102547645566,-0.014634327492211012,-0.007568206764571368
1684381756242742000,1.917741943359375,-0.002264437800645828,-0.01819938129633665,-0.026444774936418978
1684381756252802000,1.927802001953125,0.012552607581019401,-0.026487390235438942,-0.02129721944751218
1684381756262861000,1.937861083984375,-0.0018149404674768447,-0.011867018203344196,-0.017994195846747607
1684381756272921000,1.947921142578125,-0.003156418204307556,-0.018391615932807324,-0.018758914875239133
1684381756282979800,1.957979736328125,-0.004202712386846542,-0.02635539788622409,-0.0033536943420767783
1684381756293039000,1.9680390625,0.00971709189414978,-0.013901793700270355,-0.001308598380535841
1684381756303099100,1.97809912109375,0.00447509958744049,-0.026321294687222687,-0.016492065921798346
1684381756313158100,1.988158203125,-0.007200725159049033,-0.006960943320114165,-0.008886230560578405
1684381756323218200,1.99821826171875,0.012851882788538932,-0.01180122295813635,-0.0018522220042534172
1684381756333277000,2.00827685546875,0.009858546191453934,-0.012188834036234766,-0.022997812820319086
1684381756343337000,2.0183369140625,-0.007502338454127311,-0.0004237966363318264,-0.00513681489918381
1684381756353396000,2.02839599609375,0.012853051832318305,-0.00046699645724147554,-0.022222408001031726
1684381756363455000,2.038455078125,0.008366261807084083,-0.009336458546109497,-0.02424284444535151
1684381756373515000,2.048514892578125,-0.002406476619839668,-0.01596422438910231,-0.011543759332038462
1684381756383574000,2.058573974609375,0.007621580919623374,-0.015995806837454437,-0.017584738263022155
1684381756393633000,2.068633056640625,0.002985153290629387,-0.01706975621189922,-0.01437830690452829
1684381756403693000,2.078693115234375,0.0001397007316350937,-0.017003924434073267,-0.004010295087285339
1684381756413752000,2.088751953125,-0.006742459997534751,-0.019395477479416875,-0.019930132345389574
1684381756423812000,2.09881201171875,-0.014371639701724052,-0.012185180774424225,-0.02542695792969316
1684381756433871000,2.10887109375,0.0008867197066545486,-0.028040410097409037,-0.004868263623490929
1684381756443930000,2.11893017578125,0.010463526347279548,-0.018675711837504057,-0.018269907515589146
1684381756453990000,2.128989990234375,0.0013332944303750991,-0.010704532028920948,-0.008936846502963452
1684381756464049200,2.139049072265625,0.0017827917635440825,-0.004908175508771091,-0.003985489439591765
1684381756474109000,2.14910888671875,0.006569441518187523,-0.01395969789996743,-0.007582235289923846
1684381756484168000,2.15916796875,-0.0070446578145027154,-0.025546675319224596,-0.011824220241233706
1684381756494227000,2.16922705078125,-0.013029577443003653,-0.013563446857687084,-0.004993570503592491
1684381756504287000,2.179286865234375,0.0007382511466741561,-0.01992207690309733,-0.016477142347302288
1684381756514346200,2.18934619140625,0.0038783027380704877,-0.016653119968716053,-0.028030418426357208
1684381756524406000,2.199406005859375,-0.005998948153853416,-0.016052414129208773,-0.019592479622550306
1684381756534465300,2.20946533203125,0.0002893383353948593,-0.016548910675570367,-0.018514548192732034
1684381756544524300,2.219524169921875,0.003583703705668449,0.002449438978731632,-0.02174907313454896
1684381756554584300,2.229584228515625,-0.023497195443511008,-0.005794420291390269,-0.007981134947016836
1684381756564643300,2.239643310546875,0.016606266885995865,-0.008114004079066216,-0.015258395940996705
1684381756574703000,2.249703125,0.013171616262197493,-0.009127144910674541,-0.030407029630895702
1684381756584762400,2.259762451171875,0.010775661036372184,-0.022487616542167962,-0.02458983125211671
1684381756594821000,2.269821044921875,0.010178279665112495,-0.008357767973374576,-0.02515362088102847
1684381756604881400,2.27988134765625,0.0038899931758642195,-0.017461148415971545,-0.029957970689143985
1684381756614940400,2.2899404296875,0.00972585972249508,-0.011152440193202346,-0.022802838237490505
1684381756625000200,2.300000244140625,0.0028419454276561737,-0.0052970834948122495,-0.016073913574963808
1684381756635059500,2.3100595703125,-0.0022439795345067974,-0.014975797873642295,-0.026080088076181708
1684381756645118200,2.3201181640625,-0.00194236623942852,-0.013831395345181225,-0.013582023693993688
1684381756655178200,2.33017822265625,-0.004333645290136337,-0.022690098578017202,0.0030898923067376014
1684381756665237200,2.3402373046875,0.004046060520410537,-0.01974924108684063,-0.024700305889267474
1684381756675297300,2.35029736328125,-0.002237549793720245,-0.005985412818845361,-0.005452164458669722
1684381756685356300,2.360356201171875,-0.002238134315609932,-0.015128960875049233,0.0032781448878347872
1684381756695415300,2.370415283203125,0.004497895941138267,-0.019180665684957056,-0.024822580562066286
1684381756705475300,2.380475341796875,-0.013606500548124312,-0.011570026284456253,-0.01439505710992962
1684381756715534300,2.390534423828125,0.0030050270348787305,-0.006554645807854831,-0.009156626733485608
1684381756725594400,2.400594482421875,0.013178630524873733,-0.010572923272196203,-0.012408139342721551
1684381756735653400,2.4106533203125,0.02275777525305748,-0.020753120899759232,-0.01580180036900565
1684381756745712400,2.42071240234375,-0.0005880290210247039,-0.019870748574659227,-0.021200334944296628
1684381756755772400,2.4307724609375,-0.002982230681180954,-0.012042886226903646,-0.034554669095948336
1684381756765831200,2.4408310546875,-0.002983399724960327,-0.02518688382981345,-0.01194015650479123
1684381756775891200,2.45089111328125,-0.0020879121899604796,-0.006740395904611796,-0.018597093643341212
1684381756785950200,2.4609501953125,-0.006877484554052352,-0.018702636377047745,-0.01839585371650755
1684381756796009200,2.47100927734375,0.0037508769661188123,-0.0001112235558219254,-0.017129888901300728
1684381756806069200,2.4810693359375,-0.0062754270076751705,-0.018243914557807148,-0.014246022294368594
1684381756816128300,2.491128173828125,0.0031488194197416305,-0.00790211489405483,-0.018015585694648326
1684381756826188300,2.501188232421875,0.013917466193437575,-0.02428430896690115,-0.01484661853602156
1684381756836247300,2.511247314453125,-0.0011959317862987517,-0.011182670934684573,-0.00356757455477491
1684381756846306300,2.521306396484375,0.0029939211189746857,-0.02403965002344921,-0.012240418092999607
1684381756856366300,2.531366455078125,0.006588146218657494,-0.02814222650406882,-0.014280362955387682
1684381756866425300,2.54142529296875,0.008983516922593117,-0.009464121780078858,-0.01819587416499853
1684381756876484400,2.551484375,0.004050152173638344,-0.011902162581961601,-0.01281352353952825
1684381756886544100,2.561544189453125,-0.00687456194460392,-0.013746329143922775,-0.026481325820833443
1684381756896603400,2.571603271484375,-0.021689269238710403,-0.006224701467435806,-0.010621274192258714
1684381756906663200,2.5816630859375,-0.022140520137548445,-0.009185779762733727,-0.011311010022088884
1684381756916722200,2.59172216796875,-0.014807108509540557,-0.009015300300344824,-0.014682587080728261
1684381756926781200,2.60178125,0.006439677658677101,-0.01483419744586572,-0.02462435457622632
1684381756936841200,2.61184130859375,0.0037438627034425734,-0.02111764336321503,-0.0035697117129340765
1684381756946900500,2.621900390625,-0.0014952069938182829,-0.00802186881620437,-0.004156553423870355
1684381756956960300,2.631960205078125,-0.005984335106611251,-0.01427968710195273,-0.016773385347519067
1684381756967019300,2.642019287109375,-0.01197276186645031,-0.019791892918478698,-0.01172729920540005
1684381756977078300,2.652078369140625,0.008377952244877815,-0.014150452965404837,-0.013768139116931706
1684381756987138300,2.66213818359375,-0.0029939211189746857,-0.014243081418611109,-0.0035351335898973044
1684381756997197300,2.672197265625,0.020201076507568357,-0.01234258155953139,-0.003252992180269211
1684381757007257300,2.68225732421875,-0.005532499685883522,-0.012007632250431924,-0.006451806487888097
1684381757017316400,2.69231640625,-0.009124386698007582,-0.029974191171582787,-0.013601459046825765
1684381757027375000,2.702375,0.004489712634682655,-0.027943671724665907,-0.006665814564749598
1684381757037435400,2.712435302734375,-0.0026899697363376614,-0.02023855897374451,-0.01706199303055182
1684381757047494100,2.722494140625,0.0013473229557275771,-0.0375774509832263,-0.006327047597058117
1684381757057554200,2.73255419921875,0.017210077998042105,-0.022760569998342542,-0.009825137112196534
1684381757067613400,2.742613525390625,0.00748714088499546,-0.01419023698652163,0.006008939824905246
1684381757077672200,2.752672119140625,0.006290040054917335,-0.027949699606653302,-0.006891257351078092
1684381757087732200,2.762732177734375,-0.013463877207040786,-0.02750475058443844,-0.03417635556915775
1684381757097791200,2.772791259765625,0.008380874854326247,-0.016364293089974672,-0.016335779381543396
1684381757107851300,2.782851318359375,-0.003592471534013748,-0.00923292510639876,-0.010644435872137545
1684381757117910300,2.79291015625,0.005830021327733993,-0.02851851247055456,0.004070939233340323
1684381757127969300,2.80296923828125,0.004630582410097122,-0.021846396029181776,-0.002618420603778213
1684381757138029300,2.813029296875,-0.0067465516507625575,-0.01951784348376095,-0.0035404856184497475
1684381757148088300,2.82308837890625,-0.0047977556705474855,-0.018924115374311802,-0.009985259577352553
1684381757158147300,2.833147216796875,0.010313888743519782,-0.021688392455875873,0.00213524019671604
1684381757168207400,2.843207275390625,0.0017833762854337692,-0.014270261686481534,-0.017795111344382167
1684381757178266400,2.853266357421875,0.0029810616374015804,-0.004745696689747274,-0.011485818599723278
1684381757188326400,2.863326416015625,-0.003302548676729202,-0.005956698181014508,-0.013470434811990707
1684381757198385200,2.87338525390625,-0.009435936865210532,-0.01567852104920894,-0.012817176801338792
1684381757208444400,2.8834443359375,0.008521744629740714,-0.010079440666828305,-0.008431545595638454
1684381757218504200,2.893504150390625,-0.00180208098590374,-0.0001090315987356007,-0.005444784869812429
1684381757228563200,2.903563232421875,-0.006739537388086319,-0.013805402387399225,-0.02394013517173007
1684381757238623500,2.91362353515625,0.015258359408378601,-0.016155710106901824,0.0013892258686944842
1684381757248682200,2.92368212890625,-0.0016553659915924071,-0.018261377149261532,-0.002133450098428875
1684381757258741500,2.933741455078125,-0.008541033852100371,-0.00988930665589869,-0.005744041811022907
1684381757268801300,2.94380126953125,-0.0065986676126718515,-0.019421707899216562,-0.0074396850140765304
1684381757278860300,2.9538603515625,-0.010490998876094818,-0.020806348924338816,-0.017666370398178696
1684381757288920300,2.96392041015625,0.007768880435824394,-0.01629778545871377,-0.026550536865834144
1684381757298979300,2.973979248046875,-0.0009141922354698181,-0.0002003083450719714,-0.017307492224220185
1684381757309038300,2.984038330078125,0.005370002600550651,-0.009314100583828986,-0.007425400760397315
1684381757319098000,2.99409814453125,0.00267827929854393,-0.014172902259230612,-0.01820000235084444
1684381757329157400,3.004157470703125,0.013303718209266662,-0.019278079911135136,-0.005836944258864969
1684381757339217200,3.014217041015625,0.0011877484798431396,-0.018644951373059302,-0.014163001919724047
1684381757349276400,3.0242763671875,0.007024199548363685,-0.006185301038809121,0.0038679640071466563
1684381757359335200,3.034335205078125,0.0058282677620649335,-0.012199465028103441,-0.01693785519422963
1684381757369395200,3.044395263671875,-0.011225158369541167,-0.023609971635602415,-0.02014558346066624
1684381757379454500,3.054454345703125,-0.0094242464274168,-0.015247308291401713,0.0014991890491917728
1684381757389514200,3.06451416015625,0.0006049801558256149,-0.015050525343976913,-0.018473485529981553
1684381757399573200,3.0745732421875,0.005395721563696861,-0.0031334757201373574,-0.016717600039672105
1684381757409632300,3.08463232421875,0.00269873756468296,-0.0064284073459915814,-0.00682021967517212
1684381757419692300,3.0946923828125,0.009435352343320847,-0.01881221596505493,-0.011636424317862838
1684381757429751300,3.104751220703125,0.0027080899149179456,-0.02095489054955542,-0.017863756133802235
1684381757439810300,3.114810302734375,-0.015547697743773459,-0.006633337067253887,-0.023212916875723747
1684381757449870300,3.124870361328125,-0.006872808378934859,-0.014244707120116799,-0.013765179974865167
1684381757459929300,3.134929443359375,-0.0037292496562004087,-0.03131979709425941,-0.016932484899368137
1684381757469989400,3.1449892578125,0.0031482348978519436,-0.028372601193841544,-0.008978091828804463
1684381757480048000,3.155048095703125,0.0016477672070264815,-0.018196440420579163,-0.012537738805450498
1684381757490107400,3.165107421875,0.004641688326001167,-0.01791334916288033,-0.02755388695579022
1684381757500167400,3.17516748046875,0.0032990415453910825,-0.029653252121526745,-0.008957651828974485
1684381757510226200,3.18522607421875,0.004648702588677406,-0.021805004572868346,-0.03161795805692673
1684381757520286200,3.1952861328125,-0.008372107025980948,-0.010914393653627485,0.0016231259561143815
1684381757530345200,3.20534521484375,0.004642272847890853,-0.01890268899379298,-0.007871244831755757
1684381757540405500,3.215405517578125,0.009278115954995154,-0.00516969425547868,-0.008745780910272151
1684381757550465500,3.225465576171875,-0.003589548924565315,-0.02031167900888249,-0.01881451751999557
1684381757560524500,3.235524658203125,-0.010773907470703125,-0.028604747715592384,-0.018360070017073304
1684381757570584600,3.24558447265625,0.011073182678222656,-0.03384980876222252,-0.0020411687050946054
1684381757580643300,3.255643310546875,0.002393032616376877,-0.012009641544427721,-0.0028851635148748754
1684381757590702600,3.26570263671875,-0.008980594313144684,-0.02325721267517656,-0.022108572363015264
1684381757600762600,3.2757626953125,0.007331658062338829,-0.015487966913171112,-0.020236367016658187
1684381757610821400,3.2858212890625,0.0020949264526367185,-0.005891505724005401,-0.009346760744415223
1684381757620881700,3.295881591796875,0.015861585998535155,-0.008109930692147464,-0.0022008527788333595
1684381757630940400,3.3059404296875,0.012573065847158432,-0.027777101252414286,-0.008718454511929303
1684381757640999700,3.315999755859375,0.007187281155586242,-0.021317732512578368,-0.010449808349180967
1684381757651059500,3.3260595703125,-0.01795417436361313,-0.010479618965554981,-0.010423084739036857
1684381757661118500,3.336118408203125,-0.01092179150879383,-0.021208901843242346,-0.026595490252412854
1684381757671177500,3.346177490234375,-0.0008966565787792205,-0.01924666185956448,-0.005788081882148981
1684381757681237500,3.356237548828125,-0.0016448445975780486,-0.013538056688103824,-0.006552928774803877
1684381757691296500,3.366296630859375,0.006287701967358589,-0.021654818979837,-0.01886038422202691
1684381757701356300,3.376356201171875,-0.0028396073400974273,-0.011608970055356622,0.0017173435782082379
1684381757711415600,3.38641552734375,-0.006279518660902977,-0.01503140051839873,-0.011098006592225283
1684381757721474300,3.396474365234375,-0.009577391162514687,-0.012153232999891041,-0.00503677032450214
1684381757731534600,3.40653466796875,0.005083586874604225,-0.022508147873543202,-0.012926372796855866
1684381757741593600,3.416593505859375,0.010023965886235237,-0.020469280723389237,-0.01146004483764991
1684381757751653400,3.4266533203125,0.0032891046732664107,-0.015253482303861528,0.005507620972953736
1684381757761712600,3.436712646484375,-0.013020809614658355,-0.02165399699592963,-0.018789364812429994
1684381757771771400,3.446771484375,-0.0037497079223394393,-0.01916552291475236,-0.01739968228600919
1684381757781831400,3.45683154296875,-0.002405307576060295,-0.013592691218480467,0.00032623627968132496
1684381757791890400,3.466890380859375,-0.007042904248833656,-0.03469732896964997,-0.01722638981202617
1684381757801949400,3.476949462890625,0.012262100201845169,-0.01289142934763804,-0.0193622145306319
1684381757812009500,3.487009521484375,0.008518822020292282,-0.005887140076141804,-0.00007454480724409222
1684381757822068500,3.497068359375,0.013005027523636817,-0.008746091437526046,-0.00966295055411756
1684381757832128500,3.50712841796875,-0.013179215046763419,-0.010685772529523819,-0.0010700951832346617
1684381757842187500,3.5171875,0.0031306992411613463,-0.01899308895729482,-0.01578709599021822
1684381757852246500,3.52724658203125,0.01195522620975971,-0.012363770478032528,-0.00037546398257836696
1684381757862306600,3.537306640625,0.013451017725467682,-0.01014901703801006,-0.014105663975607603
1684381757872365600,3.547365478515625,-0.019016835159063338,-0.0133377300767228,-0.01810804975107312
1684381757882425600,3.557425537109375,-0.00016425065100193021,-0.024758264887891707,-0.007511544673889875
1684381757892484400,3.567484375,0.002825578814744949,-0.006655220105499029,-0.011121898924466222
1684381757902543600,3.577543701171875,-0.006899111863970756,-0.00962000646153465,-0.011655713540222495
1684381757912603400,3.587603271484375,-0.002862403693795204,-0.012540058626700192,-0.013081234565004705
1684381757922662400,3.597662353515625,0.002822656205296516,-0.013144088934455065,0.007027085625194013
1684381757932722700,3.60772265625,0.0008814590096473693,-0.020411613985709846,-0.014760949546564369
1684381757942781400,3.617781494140625,-0.006900280907750129,-0.01578203622261062,-0.010827738283481448
1684381757952840400,3.62784033203125,-0.012139350605010986,-0.020369016952998933,-0.014230605529528111
1684381757962900500,3.637900390625,-0.001963409027457237,-0.015083788292761892,-0.02015093548921868
1684381757972959500,3.64795947265625,0.006718494600057602,0.0007950411015190184,-0.01100738743301481
1684381757983019500,3.65801953125,-0.003156418204307556,-0.024385595650598405,-0.008477540161833167
1684381757993078500,3.66807861328125,-0.014231938970088958,-0.023243220682442188,-0.008783555637393145
1684381758003137500,3.678137451171875,-0.008996376404166222,-0.01935952938320115,-0.0012215411515906452
1684381758013197300,3.688197265625,-0.00047229368686676023,-0.011885321045015006,0.000516881747264415
1684381758023256600,3.698256591796875,0.006265490135550498,-0.02865434074467048,-0.005917790942732245
1684381758033315300,3.7083154296875,-0.0031640169888734818,-0.025038926726486534,-0.013034217085503041
1684381758043375600,3.718375732421875,-0.017078560572862625,-0.019535470471996812,-0.01577673899298534
1684381758053434600,3.7284345703125,-0.00855155524611473,-0.011784472752735017,-0.00695517116645351
1684381758063494400,3.738494384765625,0.00282031811773777,-0.014617851281445472,-0.020269027177244422
1684381758073553700,3.7485537109375,0.005367079991102218,-0.006929470469616353,-0.006366575889848172
1684381758083612400,3.7586123046875,0.002375496959686279,-0.009211900584679097,-0.021223387026321143
1684381758093672400,3.76867236328125,0.0010229133069515229,-0.027390695750713345,-0.013241357030160725
1684381758103731500,3.7787314453125,0.008205518287420272,-0.020051986893080173,-0.01714612765004858
1684381758113791500,3.78879150390625,-0.007059855383634567,-0.019153905542194843,-0.015992811162769793
1684381758123850500,3.7988505859375,0.010445990690588951,-0.022532405531965196,-0.02121427213810384
1684381758133909500,3.808909423828125,0.0040080665975809095,-0.006420260572154075,-0.010831373278982937
1684381758143969500,3.818969482421875,0.00431260250210762,-0.011777896881476044,-0.003004862638097256
1684381758154028300,3.8290283203125,0.0017693477600812912,-0.015571078619360922,-0.008829970328696072
1684381758164087600,3.839087646484375,-0.006759995654225349,-0.011492558867763727,-0.010198664866015315
1684381758174147600,3.849147705078125,-0.013496610432863234,-0.021328509634919463,-0.015652327162027357
1684381758184206600,3.85920654296875,0.010592121163010596,-0.02735076559912413,-0.007545337345637381
1684381758194266600,3.8692666015625,0.0032592940568923947,-0.011024375100433826,-0.005296371108759195
1684381758204325400,3.879325439453125,0.006249123522639274,-0.0260300749219954,-0.007377524764370173
1684381758214384600,3.889384521484375,-0.012303601256012917,-0.025136688012536615,-0.0016354739810340105
1684381758224444400,3.8994443359375,-0.004824643677473068,-0.014257511802762746,-0.015682740566600115
1684381758234503400,3.90950341796875,0.0017559037566184997,-0.011911587997432797,-0.01921140788309276
1684381758244563500,3.9195634765625,-0.006923077261447906,-0.019850710433628408,-0.008575776371918618
1684381758254622500,3.92962255859375,0.005196399599313736,-0.01160977377295494,0.00614310586489737
1684381758264681500,3.939681396484375,-0.010664017355442047,-0.0037726138738915322,-0.0013154665127396582
1684381758274741500,3.949741455078125,-0.01575169588327408,-0.01965392748620361,-0.01490671469280496
1684381758284800500,3.959800537109375,-0.0033329438149929044,-0.022212361531052736,-0.004217325434088707
1684381758294859500,3.969859619140625,0.010135609567165374,-0.014936379178706556,-0.004347819945961237
1684381758304919600,3.97991943359375,-0.004231353959441185,-0.019980547358375043,-0.0077429605432786045
1684381758314978600,3.989978515625,-0.007672434324026108,-0.021842286109644917,-0.004858436349220573
1684381758325038300,4.000038330078125,0.006392915907502174,-0.030070235424581912,-0.002745280120149255
1684381758335097600,4.01009765625,-0.007972878575325013,-0.01711708421865478,-0.0020584486334584654
1684381758345156400,4.02015625,-0.013961889857053756,-0.01586633523888886,-0.022133487608563155
1684381758355216400,4.03021630859375,-0.001995557731389999,-0.019369685451034454,-0.017841306839976458
1684381758365275400,4.040275390625,0.011470657563209533,-0.0029393048549070954,-0.0015958908893167973
1684381758375335400,4.05033544921875,-0.005440729749202728,-0.015371190399397164,-0.0041731940314173694
1684381758385394700,4.060394775390625,0.0011427402943372726,-0.021703937084879724,-0.011728267319779842
1684381758395453400,4.070453369140625,0.006224573603272438,-0.00456718005137518,-0.012747764826938509
1684381758405513500,4.080513427734375,-0.015174772778153418,-0.011980981705524026,-0.010517448491603135
1684381758415572500,4.090572509765625,-0.0008113163828849792,-0.013440587662998587,-0.01705733512174338
1684381758425631500,4.100631591796875,-0.003954290583729743,-0.02079604672603309,-0.004289934012573212
1684381758435691500,4.11069140625,0.0033744448691606518,-0.023365678018331525,-0.007709898523893207
1684381758445750500,4.12075048828125,-0.0018657938718795776,-0.01375054866131395,-0.0007359861243516206
1684381758455810600,4.130810546875,0.0017225860089063643,-0.012306980523187667,-0.004146981877926737
1684381758465869300,4.140869384765625,0.020877952855825423,-0.0073620166679844255,-0.017243797604553402
1684381758475928600,4.150928466796875,0.0015776245802640915,-0.0076103471395559605,-0.015940441654715688
1684381758485988400,4.16098828125,-0.006050970602035522,-0.024001053312420844,-0.013884659902378915
1684381758496047600,4.171047607421875,0.008461538875102996,-0.014042773073539136,0.004686111989617347
1684381758506107600,4.181107666015625,-0.008298457267880439,-0.008750932009425014,-0.01478228459553793
1684381758516166400,4.19116650390625,-0.01593055958151817,-0.007058540209382772,-0.014058628229796886
1684381758526225700,4.2012255859375,0.000678045392036438,-0.01609930374454707,-0.014690788653492926
1684381758536284700,4.21128466796875,-0.009341244319081305,-0.00817477608928457,-0.00899312500115484
1684381758546343700,4.22134375,0.00038344635963439937,-0.012494922577030956,-0.009093808896653354
1684381758556402700,4.231402587890625,0.018490765458345413,-0.01292586134020239,-0.009018643034901469
1684381758566462500,4.24146240234375,-0.015175357300043105,-0.00918411752860993,-0.0071800294308923185
1684381758576521700,4.251521728515625,0.0032300679624080657,-0.02680865807905793,-0.0013884221510961651
1684381758586581800,4.261581787109375,-0.00964168857038021,-0.014460304365865885,0.003159907069336623
1684381758596640500,4.271640625,-0.00036415713727474213,-0.011179090738110244,-0.012392722577881068
1684381758606699800,4.28169970703125,-0.006648936495184898,-0.0019587328523397443,-0.013544906553998589
1684381758616759600,4.291759521484375,-0.009343582406640053,-0.021781696762517094,-0.005195851610042154
1684381758626818600,4.301818603515625,-0.0038058220237493514,-0.019193543432839213,-0.012165453160647302
1684381758636877600,4.311877685546875,-0.0053045361489057535,-0.011221797368675469,-0.011485599404014646
1684381758646937600,4.3219375,-0.004707154777646065,0.0008548997962847352,0.007470500277448445
1684381758656996600,4.33199658203125,-0.002610474759340286,-0.013125365967676043,-0.009299524069204926
1684381758667056600,4.342056640625,-0.011593407160043716,-0.02222657271949574,-0.020353563655540346
1684381758677115600,4.35211572265625,-0.00575870965719223,-0.012022190498746931,-0.01088365145549178
1684381758687174700,4.362174560546875,0.01698328350484371,-0.0008480316640809178,-0.005768883991334587
1684381758697234700,4.372234619140625,-0.004870236384868621,-0.01328346087252721,-0.013402429343387484
1684381758707293400,4.38229345703125,0.006795651489496231,-0.004598287575691938,-0.003413845297787338
1684381758717353500,4.392353515625,0.009486790269613266,-0.00884852889869362,-0.012813176479656248
1684381758727412700,4.402412841796875,0.00948269861638546,-0.0025935053582303224,-0.0039382527643814684
1684381758737471500,4.412471435546875,0.007537994289398193,-0.00941390769649297,-0.012837872529495507
1684381758747531800,4.42253173828125,-0.0017389526218175887,-0.027881822002213445,-0.009219115776754916
1684381758757590500,4.432590576171875,-0.0020376433074474334,-0.02774553707037121,-0.004281604575645179
1684381758767649500,4.4426494140625,0.010834113225340843,-0.020493611447047443,0.0013572415615431964
1684381758777709800,4.452709716796875,-0.01655073730647564,-0.013894103584159165,-0.0063966422345489255
1684381758787768600,4.4627685546875,-0.010115735822916031,-0.006570226969476789,-0.012240692087635396
1684381758797828600,4.47282861328125,-0.0039794250249862665,-0.004985332398209721,-0.022570856112521142
1684381758807887600,4.4828876953125,-0.011008300748467445,-0.020086291021481156,-0.021268924934789536
1684381758817946600,4.492946533203125,0.0032107787400484085,-0.023362572745792565,-0.009176829271297902
1684381758828006400,4.50300634765625,0.0023123685956001282,-0.029421690121665595,0.0013953633485361933
1684381758838065700,4.513065673828125,-0.005169511592388153,-0.030905097079835832,-0.009378233594913035
1684381758848124400,4.52312451171875,0.006793313401937485,-0.023677155120298266,0.00022838366208598017
1684381758858184700,4.533184814453125,-0.0002437456279993057,-0.00609585092337802,-0.024655005442816763
1684381758868243700,4.54324365234375,0.0025976152777671814,-0.018896314051933587,-0.010434428116958588
1684381758878303500,4.553303466796875,-0.012813888865709304,-0.012703743022121489,-0.010835264002811163
1684381758888362800,4.56336279296875,-0.004437105664610862,-0.012387754141818731,-0.0005574146870523691
1684381758898421500,4.57342138671875,-0.006379471904039383,-0.02006944948453456,0.0025194902739487587
1684381758908481500,4.5834814453125,-0.017004910814762113,-0.011338646947685629,-0.011565295310411602
1684381758918540800,4.593540771484375,0.0004980126500129699,-0.007292385497875511,-0.011806794182397424
1684381758928599600,4.603599609375,0.0034919337689876553,-0.010475381181854754,-0.0022258776222355663
1684381758938659600,4.61365966796875,0.016059738919138908,-0.016263974520657212,-0.015068006201740354
1684381758948718600,4.623718505859375,-0.0048883565634489055,-0.009702807640470565,-0.011203348396532238
1684381758958778600,4.633778564453125,-0.009976619613170623,-0.006872643982153386,-0.004432758283056318
1684381758968837600,4.643837646484375,0.002743161228299141,-0.009595328678004443,-0.0003833184954710305
1684381758978896600,4.653896728515625,0.005583937612175941,-0.00939730362156406,0.0038676534798927605
1684381758988956700,4.663956787109375,0.00289221431016922,-0.002866239618696272,0.003681738986354321
1684381758999015700,4.674015625,0.0027408231407403945,-0.031113862725999204,-0.007503872824087738
1684381759009075700,4.68407568359375,0.009773790517449378,-0.02411748276632279,0.0022817725279368458
1684381759019134500,4.694134521484375,0.0049812955439090725,-0.010178626724984496,0.0037709881723858416
1684381759029193700,4.70419384765625,0.006326280412077903,-0.012542524578422308,-0.007975143597647547
1684381759039253800,4.714253662109375,-0.0011585223853588103,-0.008009904383774847,-0.01731178480684757
1684381759049312500,4.7243125,-0.007296002227067947,-0.012046904814895242,-0.017664141908474266
1684381759059371800,4.734371826171875,-0.011039280408620834,-0.010128193445689975,-0.012466335803363471
1684381759069431600,4.744431640625,-0.004608955100178718,-0.009659078096598387,-0.010349197518918662
1684381759079490600,4.754490478515625,-0.010749942073225974,-0.016237561437766997,-0.0024543891484849153
1684381759089550800,4.76455078125,0.0013695347875356673,-0.013971790196560323,-0.016346483438648283
1684381759099609600,4.774609619140625,0.006013561201095581,-0.0027756569921039043,-0.010719985326379538
1684381759109668600,4.784668701171875,0.006615034225583076,-0.016600677395425735,-0.011393719869479537
1684381759119728600,4.794728759765625,-0.005506780722737312,-0.005549030695576221,-0.013130425735283642
1684381759129787600,4.80478759765625,0.011998480829596519,-0.01284282269924879,-0.000335606896225363
1684381759139846700,4.8148466796875,-0.005812485671043395,-0.018579484921414403,-0.004436977800447494
1684381759149906700,4.82490673828125,0.008849661409854888,-0.024192776492238045,-0.009655534432642162
1684381759159965400,4.83496533203125,-0.020030396115779874,-0.014726133961509912,-0.024955778487678614
1684381759170025500,4.845025390625,-0.0013274492114782332,-0.01030367787675932,-0.013589147554524242
1684381759180084700,4.855084716796875,0.006153261932730674,-0.021952030094433573,-0.009512417901214211
1684381759190143500,4.8651435546875,0.005403320348262786,-0.021466036675777286,-0.020099990753270684
1684381759200203800,4.875203857421875,0.00928746830523014,-0.017858495436795054,-0.002174183967616409
1684381759210262500,4.885262451171875,-0.007172668108344078,-0.014998886488284915,0.00933762758988887
1684381759220321500,4.895321533203125,-0.011509820529818535,-0.011841847229469567,-0.015785945212747902
1684381759230381800,4.9053818359375,0.006289455533027648,-0.013235402213409542,-0.014637304900586604
1684381759240440600,4.915440673828125,0.004041968867182732,-0.011828658954333514,-0.004684687217511236
1684381759250500600,4.92550048828125,-0.007924363258481025,-0.023207035124208776,-0.00832708057416603
1684381759260559600,4.9355595703125,0.013171031740307808,-0.023157131567876785,-0.017045754281803965
1684381759270618600,4.94561865234375,0.0038911622196435925,-0.012043836074974387,0.0003569419451989233
1684381759280678400,4.955678466796875,-0.003591302490234375,-0.010391264828667044,-0.0056038296227343375
1684381759290737700,4.965737548828125,-0.006135726276040077,-0.01747123141856864,-0.025879286540765312
1684381759300796400,4.97579638671875,0.003743278181552887,-0.01621624465510249,-0.026678711556456982
1684381759310856700,4.985856689453125,0.006287701967358589,-0.005329981117416173,-0.02756112041417509
1684381759320915700,4.995915771484375,0.006435001483559608,-0.0015095095138065516,-0.009591273557394742
1684381759330975500,5.0059755859375,-0.0034428339302539825,-0.020278416060097514,-0.00047017479501664633
1684381759341034800,5.01603466796875,-0.0004524199426174164,-0.011071703107189386,-0.0035908092998899518
1684381759351093500,5.026093505859375,-0.0076315177917480465,-0.011687496917974204,0.013346936296485364
1684381759361153500,5.036153564453125,0.014213818791508674,-0.013464114669058471,-0.0017161928007379172
1684381759371212800,5.046212890625,-0.0004541735082864761,-0.020324940349254757,-0.009793627729080616
1684381759381271600,5.056271484375,0.011213467931747436,-0.0053739481233060354,-0.005399922814778984
1684381759391331600,5.06633154296875,0.002982230681180954,-0.004524893545918166,-0.0005257043745368719
1684381759401390600,5.076390625,-0.005699088424444198,-0.010478431655466556,-0.002824829896073788
1684381759411450600,5.08645068359375,0.0020820669710636137,-0.022729517272952943,0.0022183519029058516
1684381759421509600,5.096509521484375,0.008070493730902671,-0.0006876169379800558,-0.013659509376995265
1684381759431568600,5.106568603515625,-0.005395137041807174,-0.009658438775781542,-0.01419880388546735
1684381759441628700,5.116628662109375,0.01450549521446228,-0.013678104479610919,-0.0033996158430352804
1684381759451687700,5.126687744140625,0.0032797523230314253,-0.014937803950812666,-0.013369422122929244
1684381759461746700,5.13674658203125,-0.01811608692705631,-0.012140410050936043,-0.00894256385769695
1684381759471806500,5.146806396484375,-0.0033037177205085754,-0.011845007300935686,-0.008409826954174787
1684381759481865700,5.15686572265625,0.0032785832792520523,-0.015940880046132953,-0.01740859624482691
1684381759491925800,5.16692578125,-0.00929448256790638,-0.011184661962371318,-0.00853542609522119
1684381759501984500,5.176984619140625,-0.011090718334913253,-0.009849084243364632,-0.0061055685997940595
1684381759512043800,5.187043701171875,0.011351999619603157,-0.016418945886660367,-0.006579597586020827
1684381759522103600,5.197103515625,-0.004362871384620666,-0.0053755920911207795,-0.01062441599741578
1684381759532162600,5.20716259765625,0.006108838269114494,-0.023709029829595236,0.0008342223344370722
1684381759542221300,5.21722119140625,-0.01558861427605152,-0.011589753898233175,-0.0003657097735442221
1684381759552281300,5.22728125,0.003868365865945816,-0.009445965068880468,-0.013332560711260884
1684381759562340400,5.23734033203125,-0.005855740290880203,-0.008196677393838763,-0.006310680984146892
1684381759572400400,5.247400390625,-0.009744564422965049,-0.0030998109125532206,-0.006547394083160907
1684381759582459400,5.25745947265625,0.010606734210252761,-0.0006857903070747852,-0.010620013816934079
1684381759592518400,5.267518310546875,0.016144494593143464,-0.007040529628656804,-0.008666541661601513
1684381759602578400,5.277578369140625,-0.0048024318456649775,-0.020607026959955692,-0.01031629989631474
1684381759612637200,5.28763720703125,0.0046247371912002564,-0.02346663590846583,-0.009559252717625349
1684381759622696400,5.297696533203125,0.00821954681277275,-0.008693356603290885,-0.014313479773700236
1684381759632756500,5.307756591796875,0.002377250525355339,-0.0049079563130624585,-0.005532134359702468
1684381759642815200,5.317815185546875,0.017041151171922682,-0.004039155855588615,-0.0035394992377609014
1684381759652875500,5.32787548828125,0.0014811784684658049,-0.01890376670602709,-0.01377033107401803
1684381759662934300,5.337934326171875,0.004319616764783859,-0.004396371795423328,-0.020301723870448766
1684381759672993500,5.34799365234375,-0.002859481084346771,-0.012675777302961795,0.0035423487819731233
1684381759683053300,5.35805322265625,0.011208791756629944,-0.011881521652732045,0.001742660682555288
1684381759693112300,5.3681123046875,0.013306056296825408,-0.0037716822921298443,-0.010953940212726592
1684381759703171300,5.37817138671875,0.0038783027380704877,-0.0025645715246908366,-0.011378814561292529
1684381759713231400,5.3882314453125,-0.006292378142476082,-0.007026263641286641,-0.01520947876535356
1684381759723290400,5.398290283203125,-0.010029811105132102,-0.01750984639590606,-0.007865180417150258
1684381759733349400,5.408349365234375,0.00478314262330532,-0.003850720611400902,0.004994246357027441
1684381759743409400,5.418409423828125,0.003438742277026176,-0.01585974110132083,-0.0006129625328816473
1684381759753468200,5.42846826171875,-0.006437924093008041,-0.017504896226152776,-0.006417812886741012
1684381759763528400,5.438528564453125,-0.0056903205960989,-0.020238029250781983,-0.010836981035862118
1684381759773587500,5.44858740234375,-0.0004512508988380432,-0.0048502895753830665,-0.008039203543495386
1684381759783646500,5.458646484375,-0.000602057546377182,-0.016245763010531662,-0.011119706967379897
1684381759793706500,5.46870654296875,0.0011900865674018858,-0.010601601377408952,-0.0007406440331600606
1684381759803765200,5.47876513671875,0.01660392879843712,-0.0032687377386726437,0.0019096147472970186
1684381759813824500,5.488824462890625,0.0014905308187007902,-0.011194087377842514,-0.004980382228456437
1684381759823884500,5.498884521484375,-0.004047814086079597,-0.019753990327194333,-0.015787205588072537
1684381759833943300,5.508943359375,0.0025339023917913435,-0.0163412227416411,-0.014154014895670116
1684381759844003300,5.51900341796875,-0.0012070377022027968,-0.014479867582861333,-0.002703541603963822
1684381759854062300,5.529062255859375,-0.016622633498907087,-0.01604821287812665,-0.005967274373956024
1684381759864121300,5.539121337890625,0.002528641694784164,-0.011749273575190454,-0.02450821738326922
1684381759874181400,5.549181396484375,-0.00015665186643600462,-0.020613474967051296,-0.002105648776050657
1684381759884240400,5.559240478515625,-0.00015548282265663146,-0.012994981053657829,0.004722827270813286
1684381759894299400,5.56929931640625,-0.007788754180073737,-0.020480149177275597,-0.01374291334412992
1684381759904359400,5.579359375,-0.0023977087914943693,-0.007588902492728084,-0.008394264058861881
1684381759914418400,5.58941845703125,-0.010175357055664061,-0.012769191207457333,-0.008621515209786594
1684381759924477400,5.5994775390625,0.011669979527592658,-0.016833974694646894,-0.004790193418599665
1684381759934537500,5.609537353515625,0.002841360905766487,-0.014512253748811781,-0.011157810488063842
1684381759944596200,5.61959619140625,0.004791325929760932,-0.029500746707245704,-0.01385903227077797
1684381759954656300,5.62965625,0.006586392652988433,-0.013773619009647518,-0.006816091489326209
1684381759964715500,5.639715576171875,0.016613281148672103,-0.01185834170654416,-0.012078870855737478
1684381759974774300,5.649774169921875,0.0011953472644090652,-0.018932426544930783,-0.005371756166219711
1684381759984834600,5.65983447265625,-0.009582651859521864,-0.017088223450351506,-0.009414565283618866
1684381759994893300,5.669893310546875,0.008225976553559302,-0.012013112143147736,-0.01338809029078111
1684381760004952300,5.679952392578125,-0.0077829089611768714,-0.016099906532745806,-0.01329716060431674
1684381760015012400,5.690012451171875,0.011671148571372032,-0.01339780796719715,-0.012764003575686364
1684381760025071400,5.7000712890625,-0.0073345806717872615,-0.020075678295921533,-0.00017068039178848266
1684381760035131400,5.71013134765625,-0.0026946459114551543,-0.01276937387054786,-0.00467546273143962
1684381760045190400,5.7201904296875,-0.005387538257241249,-0.0037253589323721823,0.003911711817327887
1684381760055249400,5.73024951171875,-0.00987783541381359,-0.02207945586638525,-0.014065039704274385
1684381760065309200,5.74030908203125,0.004185761252045631,-0.011384878975898027,0.001980287097021937
1684381760075368400,5.750368408203125,-0.0037421091377735135,-0.008967990559898316,-0.012813797534164041
1684381760085427200,5.76042724609375,-0.015115736067295073,-0.0013618994703516363,-0.013636767822224645
1684381760095487200,5.7704873046875,-0.004041968867182732,-0.01769152310574427,-0.02203994583990425
1684381760105546500,5.78054638671875,-0.006436170527338981,-0.011212810344621538,-0.012500055409874766
1684381760115605200,5.790605224609375,0.013463877207040786,-0.011939097058866172,0.008498509884625673
1684381760125665500,5.80066552734375,-0.001050970357656479,-0.01662272483045235,-0.014636683846078812
1684381760135724300,5.810724365234375,-0.0013467384338378906,-0.016252229283936322,-0.005900894606858492
1684381760145784300,5.820784423828125,-0.007924363258481025,-0.016463205153495072,-0.011827928301971404
1684381760155843300,5.83084326171875,0.0070411506831645964,-0.01596667207451537,-0.01733417930174619
1684381760165902300,5.84090234375,0.000004091653227806091,-0.018405936719104645,-0.0030476240675896406
1684381760175962400,5.85096240234375,-0.0053869537353515625,-0.0027617563309147953,0.0006707571347244084
1684381760186021400,5.861021484375,-0.015707856741547583,-0.01233852643892169,-0.022725772679597137
1684381760196080400,5.871080322265625,-0.009425999993085861,-0.01932650389643386,-0.02786536405775696
1684381760206140200,5.88114013671875,0.010174772533774376,-0.012769739196728915,-0.03029372371584177
1684381760216199400,5.891199462890625,0.0011988543957471847,-0.010891012778040022,-0.002514357441104948
1684381760226259500,5.901259521484375,-0.002991583031415939,-0.010381163559760898,-0.009727467157691717
1684381760236318500,5.911318359375,0.0018014964640140532,-0.00005523731857538223,-0.011741181600280105
1684381760246377500,5.92137744140625,-0.0016366612911224365,-0.008543390205968171,-0.010119937073998152
1684381760256437200,5.931437255859375,0.0039022681355476378,-0.003217007551435381,0.0026877412466332316
1684381760266496500,5.94149658203125,-0.007172083586454391,-0.012010079935844986,0.003755607940163463
1684381760276555300,5.95155517578125,-0.005672784939408302,0.006818520908430218,-0.011906747425533831
1684381760286615300,5.961615234375,0.009138415223360062,-0.011995539953839033,-0.018999445632845162
1684381760296674600,5.971674560546875,-0.003880640825629234,-0.02005830703601241,0.00031169629767537115
1684381760306733300,5.9817333984375,-0.00837035346031189,-0.01223923078291118,0.008684607041254639
1684381760316793300,5.99179345703125,-0.011064999371767043,-0.007688271213974803,-0.0003166830000467598
1684381760326852400,6.001852294921875,-0.007628010660409927,-0.025861075030639766,-0.017530085466336456
1684381760336912400,6.011912353515625,0.013768997633457182,-0.027166549872327594,-0.015145674547832458
1684381760346971400,6.021971435546875,0.018553309300541877,-0.004782247574161738,0.0009702150053344667
1684381760357030400,6.032030517578125,0.004039630779623985,-0.027424451889842747,-0.01802932195905596
1684381760367090400,6.04209033203125,0.00822831464111805,-0.018203052824456244,-0.004892868341784924
1684381760377149400,6.0521494140625,0.0028431144714355467,-0.007852138272486627,-0.019671371811348943
1684381760387208400,6.06220849609375,-0.0034393267989158626,-0.007429072288516908,-0.01781372471330687
1684381760397268200,6.072268310546875,0.0019464578926563262,-0.0024085772453807295,-0.007073043658770621
1684381760407327500,6.082327392578125,-0.0029939211189746857,-0.021402853512763977,0.0021622926004230976
1684381760417386200,6.09238623046875,-0.009130816438794136,-0.002727744463458657,-0.014328531212359667
1684381760427446300,6.1024462890625,-0.0025479309171438217,-0.009177377260569483,-0.0006537512009963393
1684381760437505500,6.112505615234375,0.009724106156826019,-0.008934892007894813,-0.015470851381588727
1684381760447565300,6.1225654296875,0.010323241093754768,-0.02098411664403975,-0.006464702502079308
1684381760457624300,6.132624267578125,-0.014070610928535461,-0.018424805816356093,0.005472366996482014
1684381760467683300,6.142683349609375,0.0007405892342329024,-0.013275752490106969,-0.0013452040638774632
1684381760477743400,6.152743408203125,-0.007938391783833503,-0.009317954775039106,0.001003404888883233
1684381760487802400,6.16280224609375,-0.004793664017319679,-0.015131993082351981,-0.002708583105262369
1684381760497861400,6.172861328125,0.00492868857383728,-0.025273667064122853,-0.02410666911136359
1684381760507921400,6.18292138671875,0.009568038812279701,-0.01605232279766351,-0.029755305990204213
1684381760517980400,6.19298046875,-0.0013549217402935027,-0.011639109465293585,-0.010548830010555683
1684381760528039400,6.203039306640625,0.007776479220390319,-0.013350169433187693,-0.021723372437711806
1684381760538099500,6.213099365234375,-0.009279869520664214,-0.01098990657525137,-0.0047479434457607566
1684381760548158700,6.22315869140625,-0.004939794489741325,-0.002186495459917933,-0.012661292119883
1684381760558218500,6.233218505859375,0.008829787665605545,-0.005072791485954076,-0.013796086569782345
1684381760568277500,6.243277587890625,0.0028431144714355467,-0.017906773291621356,-0.009004998102039098
1684381760578336500,6.25333642578125,0.004485620981454849,-0.018132270876877007,0.007090944641642272
1684381760588396500,6.263396484375,0.002237549793720245,-0.023084486456774175,0.003825841898471117
1684381760598455600,6.27345556640625,0.00492868857383728,-0.004134451189916581,-0.010076024867035448
1684381760608514600,6.2835146484375,0.0227349788993597,-0.02037391232382506,-0.024794633109215647
1684381760618574600,6.29357470703125,0.013905191233754157,-0.018305800812877714,0.0005620543295517563
1684381760628633600,6.303633544921875,-0.005097615399956703,-0.003820836929790675,-0.017567805394530296
1684381760638692600,6.313692626953125,0.0020820669710636137,-0.008599869633559137,-0.009357117741648107
1684381760648752400,6.32375244140625,-0.012136427995562553,-0.009046115563716739,-0.022841325350664556
1684381760658811600,6.333811767578125,-0.006003039807081222,-0.014063487068004905,-0.014470131640136242
1684381760668871700,6.34387158203125,0.006421557480096817,-0.016322810302115975,-0.012253624634444713
1684381760678930400,6.353930419921875,-0.00540098226070404,-0.014999105683993548,-0.0232463442212902
1684381760688989700,6.36398974609375,-0.008244681254029274,-0.010162278378382324,-0.012962887148652225
1684381760699049500,6.374049560546875,-0.006749474260210991,-0.004231883682403713,-0.011203695456404239
1684381760709108500,6.3841083984375,-0.018276830446720124,0.0016560966439545153,0.010055986726004629
1684381760719167500,6.39416748046875,-0.0037602293163537977,-0.004094064380601049,-0.010587408455274998
1684381760729227500,6.4042275390625,0.004016834425926208,-0.012513609011191874,-0.004375036746449768
1684381760739286500,6.41428662109375,0.005060790520906448,-0.00018213336756452917,0.003031750645022839
1684381760749345500,6.424345458984375,-0.0028717560440301893,-0.008987736439984292,-0.0147125438275747
1684381760759405600,6.434405517578125,-0.001373041918873787,-0.0062557907254435115,-0.020236111288331447
1684381760769464600,6.444464599609375,-0.006458382359147072,-0.0104763675625436,-0.01909939887598157
1684381760779524600,6.454524658203125,0.018985855498909947,-0.002178951474279165,-0.016457944456487895
1684381760789583400,6.464583251953125,0.004772036707401275,-0.0065704461651854215,-0.01467056784937158
1684381760799642600,6.474642578125,-0.0007663081973791122,-0.012534030744712798,-0.007142455633170903
1684381760809702700,6.48470263671875,-0.000623100334405899,-0.0032330636370927093,-0.013781181261595337
1684381760819761400,6.494761474609375,-0.017981646892428396,0.006347451064269989,-0.01390385779319331
1684381760829820700,6.504820556640625,0.002669511470198631,-0.0216457040916197,0.009242734114360064
1684381760839880400,6.51488037109375,0.0031219314128160475,-0.02661766555160284,0.004044800145085901
1684381760849939700,6.524939697265625,-0.009601356559991836,-0.011069127557612956,-0.006254932208918034
1684381760859998500,6.53499853515625,-0.00003214870393276214,-0.013330277422629296,-0.006035188511013984
1684381760870058500,6.54505859375,-0.0022767127603292464,-0.013282949415873735,-0.002327091240696609
1684381760880117800,6.55511767578125,0.015232640445232391,-0.011519209412671625,-0.018246197846438734
1684381760890177500,6.565177490234375,-0.01633972490429878,-0.01245997912781313,-0.002253952939249575
1684381760900236500,6.575236572265625,-0.003325345030426979,-0.011782152931485325,-0.006323138606920838
1684381760910295600,6.585295654296875,0.008044190245866775,-0.015631996760051697,-0.004440064806677401
1684381760920355600,6.59535546875,0.005952770924568176,-0.0085388601613231,-0.006601498890575021
1684381760930414300,6.605414306640625,0.007147533667087555,-0.006820639800280332,-0.012402750781551003
1684381760940473600,6.6154736328125,0.0005605564922094345,-0.014997132922615855,-0.018170447462797164
1684381760950533600,6.62553369140625,-0.011409282764792441,-0.019892357618268578,-0.0012045900167897343
1684381760960592400,6.63559228515625,0.012835516175627708,-0.0012293225992470978,-0.013155943769030272
1684381760970651600,6.645651611328125,-0.007660743886232376,-0.0057074178613722324,-0.0057090252965688705
1684381760980711400,6.65571142578125,-0.00990180081129074,-0.0250431097112596,-0.014495065151993185
1684381760990770700,6.665770751953125,0.01000292309820652,-0.004338084003236145,-0.0036309951798059042
1684381761000830700,6.675830810546875,-0.00570727173089981,-0.016058569875359533,-0.005141034416574985
1684381761010889500,6.685889404296875,-0.007201309680938721,-0.004330485218670219,-0.006810282803047448
1684381761020948700,6.69594873046875,-0.005253682744503021,-0.0033666634215041994,-0.015060900607518852
1684381761031008500,6.706008544921875,0.010759878945350645,-0.022060111845098436,-0.021622451080195604
1684381761041067500,6.716067626953125,0.0007382511466741561,-0.006164769707433879,-0.01944242189368233
1684381761051126500,6.72612646484375,-0.004793664017319679,-0.016249416272342204,-0.010476879019197076
1684381761061186600,6.7361865234375,0.0002928454667329788,-0.023316706043761223,-0.005898172926809639
1684381761071245300,6.746245361328125,-0.002101356193423271,-0.02049078016914427,-0.009781206638924777
1684381761081304600,6.7563046875,-0.004347089293599129,-0.012650478464923799,-0.020719437825866042
1684381761091364600,6.766364501953125,0.004936287358403206,-0.00864964532572776,-0.015248806128744035
1684381761101423600,6.776423583984375,-0.0053869537353515625,-0.007171170271001756,-0.029832134086079893
1684381761111482600,6.786482666015625,0.001496376037597656,-0.012338690835703164,0.0027174787977710365
1684381761121542400,6.79654248046875,-0.002096095496416092,-0.019520345968101174,-0.01397427441459149
1684381761131601700,6.8066015625,0.014069441884756088,-0.008379998071491718,-0.01381731202090159
1684381761141661700,6.81666162109375,-0.0067272624284029,-0.01123894943287596,-0.005096903013903647
1684381761151720400,6.826720458984375,0.007344517543911934,-0.011540380064863711,-0.015222593975253402
1684381761161779700,6.83677978515625,-0.00402677129805088,-0.008747278747614473,-0.015369747360981999
1684381761171839500,6.846839599609375,-0.002680617386102676,-0.012029624886531382,-0.01235986148789525
1684381761181898500,6.8568984375,0.006144494104385376,-0.011557367732282726,-0.016573460594937205
1684381761191957500,6.86695751953125,0.0013519991308450698,-0.00873105826517567,-0.017703633668646215
1684381761202017500,6.877017578125,-0.00044599020183086393,-0.004748400103487074,-0.0034827275492250918
1684381761212076500,6.88707666015625,0.009874328282475472,-0.016553404187597334,-0.0113732250707224
1684381761222135600,6.897135498046875,0.015707856741547583,-0.016323193894606083,-0.025414427241683003
1684381761232195600,6.907195556640625,0.0019411971956491468,-0.013403689718712121,-0.013985307265259324
1684381761242254600,6.917254638671875,-0.001945288848876953,-0.013567849038168787,-0.02117328254058957
1684381761252313600,6.927313720703125,-0.00015197569131851195,-0.023824655565898863,-0.017848010575398802
1684381761262373400,6.937373291015625,-0.003143558722734451,-0.013309015438891946,-0.0022133104016073047
1684381761272432600,6.9474326171875,0.009277531433105468,-0.0069184010863304135,-0.012095511463284492
1684381761282492700,6.95749267578125,0.0008984101444482803,-0.004995488466043025,-0.012113156717829405
1684381761292551400,6.967551513671875,-0.0022445640563964844,-0.023226927134767174,-0.02079043896915391
1684381761302610700,6.977610595703125,0.008237082469463348,-0.01932131626466289,-0.024711521403025835
1684381761312670500,6.98767041015625,-0.0031359599381685253,-0.022312643567752092,-0.031724140111450104
1684381761322729500,6.9977294921875,0.0028407763838768003,-0.009662457363773136,-0.024070246091112493
1684381761332788500,7.00778857421875,-0.0006038111120462417,-0.03057564592976123,-0.017696528074424712
1684381761342848500,7.0178486328125,0.006875146466493606,-0.005298581332154571,0.00024438494881615043
1684381761352907800,7.02790771484375,0.009269932648539543,-0.020722287370078266,-0.013681045355368404
1684381761362966500,7.037966552734375,0.007778232786059379,-0.027058796915225683,-0.026729144835751503
1684381761373026600,7.048026611328125,-0.01586217052042484,-0.009586359920259564,-0.012585249475296587
1684381761383085600,7.05808544921875,-0.004347673815488815,-0.006983264749776572,-0.01423203030163422
1684381761393145600,7.0681455078125,-0.0010585691422224045,-0.008710380803328007,-0.007449311358947306
1684381761403204400,7.078204345703125,-0.00839081172645092,0.00038669776264578103,-0.010266852997709065
1684381761413263600,7.088263671875,0.003879471781849861,-0.01858803355405107,-0.021218089796695858
1684381761423323600,7.09832373046875,-0.00539747512936592,0.006261142753995955,-0.011238693704549222
1684381761433382400,7.10838232421875,0.0011836568266153334,-0.021808511704206467,-0.0042744259161874645
1684381761443441700,7.118441650390625,-0.0022568390160799027,-0.001780526741221547,0.00871080092843622
1684381761453501400,7.12850146484375,-0.002405307576060295,-0.007852814125921577,-0.01085921113397926
1684381761463560700,7.138560791015625,0.0020808979272842407,-0.021026001290697604,-0.009376480029243975
1684381761473619500,7.148619384765625,0.007465513575077056,-0.02087102992469445,-0.015272314868494867
1684381761483679500,7.158679443359375,0.009560440027713776,-0.009242715848051012,0.006792199157085269
1684381761493738800,7.16873876953125,0.0017810381978750228,-0.019224176033120603,-0.00786397484075278
1684381761503797500,7.178797607421875,-0.01542611719071865,-0.005455287997517735,-0.015232640445232391
1684381761513857500,7.188857421875,-0.015275895065069198,-0.002841799297183752,-0.009646035951934754
1684381761523916500,7.19891650390625,0.006420388436317443,-0.0032481333420611917,-0.006819379424955695
1684381761533976600,7.2089765625,0.0019376900643110274,-0.015813582138344644,-0.010552373674511908
1684381761544035000,7.21903515625,0.005830021327733993,0.010510379429999737,-0.007015011594910174
1684381761554094000,7.229093994140625,0.015858663389086723,-0.01211602452835068,-0.015508699173945933
1684381761564153900,7.23915380859375,0.006877484554052352,-0.018275369141995904,-0.018952135892398653
1684381761574213000,7.249213134765625,-0.0037508769661188123,-0.013169077245239167,-0.012486045150831342
1684381761584272000,7.25927197265625,-0.013325930041074753,-0.0038351577160879967,-0.018308230231981724
1684381761594332000,7.269331787109375,0.014507833302021026,-0.019875753543339668,-0.014286062043812124
1684381761604391200,7.27939111328125,0.00537877042889595,-0.014268161060940473,-0.014896905684843658
1684381761614450000,7.289449951171875,-0.005843465331196784,-0.0170703042011708,0.001334536539390683
1684381761624510000,7.299510009765625,0.0016378303349018097,-0.011030037656240164,0.0009913856575265525
1684381761634569000,7.30956884765625,-0.0012058686584234238,-0.00972843527207151,-0.007455960295442491
1684381761644628000,7.3196279296875,0.003887655088305473,-0.017390512598864732,-0.018629625939764083
1684381761654688000,7.32968798828125,0.0056850598990917205,-0.013528302479069679,-0.03828212865386158
1684381761664747000,7.3397470703125,0.0007516951501369476,-0.017729955419991165,-0.006752323804423212
1684381761674807000,7.34980712890625,0.0009030863195657729,-0.0019648703321814534,-0.014219371749460696
1684381761684866000,7.359865966796875,0.0025450083076953888,0.0023237485061399638,0.009060436350014061
1684381761694925000,7.369925048828125,-0.001204115092754364,-0.009693491822853683,-0.00862135081300512
1684381761704984800,7.37998486328125,0.005531915163993835,-0.013704736758209764,-0.012067911070305854
1684381761715044000,7.390044189453125,0.005233224478363991,-0.0081500069742091,-0.011207896707486361
1684381761725102800,7.400102783203125,-0.006289455533027648,-0.010863905575405806,-0.020444913467112927
1684381761735163000,7.410162841796875,-0.00509293922483921,-0.007918865099456161,-0.02202283030832186
1684381761745222100,7.42022216796875,-0.017812135544419287,0.00645094797136262,-0.014108458720892668
1684381761755281000,7.430281005859375,0.017054595175385476,-0.011381262246705591,-0.006190415605343878
1684381761765341000,7.4403408203125,-0.006734276691079139,-0.015150058462005107,-0.017533702195528893
1684381761775400000,7.45039990234375,0.01032265657186508,-0.001882032620627433,-0.0014191278166137634
1684381761785459000,7.460458984375,0.0034393267989158626,-0.034819274848885834,-0.004680741694755852
1684381761795519200,7.470519287109375,0.0031359599381685253,-0.02844270728798583,-0.022531583548057822
1684381761805578000,7.480577880859375,0.0041834231644868845,-0.014494480630103498,-0.0016141754646785556
1684381761815637000,7.490636962890625,-0.013926234021782875,0.00275706188948825,0.008539828275702894
1684381761825697000,7.500697021484375,-0.008540449330210685,-0.002961918545514345,-0.015775917009077964
1684381761835756000,7.510756103515625,-0.0007616320222616196,-0.018759061005711553,0.0019154051672667263
1684381761845815800,7.52081591796875,0.015246668970584869,-0.011501454560272396,0.00527845185957849
1684381761855875000,7.530875,-0.003011456775665283,0.0008466616909019648,-0.0002364573706872761
1684381761865933800,7.540933837890625,-0.0018178630769252776,-0.013864110304694623,-0.01034667676826939
1684381761875993900,7.550993896484375,-0.004063596177101135,-0.012580865561123937,0.0008310987955890595
1684381761886053000,7.56105322265625,-0.003017301994562149,-0.007725223957188427,0.0011082169702276586
1684381761896111900,7.57111181640625,-0.0013677812218666075,-0.01613455772101879,-0.008302183594927192
1684381761906172200,7.581172119140625,0.001180149695277214,-0.020390023208409547,-0.009913235520757735
1684381761916231000,7.59123095703125,0.008815759140253067,-0.0032327348435297605,-0.01978327122060582
1684381761926290000,7.6012900390625,-0.0004576806396245956,-0.026941874270979313,-0.022131807108130303
1684381761936350200,7.61135009765625,-0.003596563187241554,-0.009347637527249753,-0.005329926318489015
1684381761946409000,7.621408935546875,0.008080430603027343,0.00037453240081667896,-0.014844846704043447
1684381761956468200,7.63146826171875,0.01047521678507328,0.0018824344794265925,-0.015333251275494694
1684381761966528000,7.641528076171875,0.0029962592065334317,-0.007259871467761695,-0.026964889820385723
1684381761976587000,7.6515869140625,0.004637596672773361,-0.016989274854212998,-0.016145170446578413
1684381761986646800,7.661646728515625,0.009718260937929152,-0.0026301841068081555,-0.01430931505523622
1684381761996706000,7.6717060546875,-0.008091536518931389,-0.016279500883352012,0.004261584700923413
1684381762006764800,7.681764892578125,-0.0012058686584234238,-0.01801359466696158,-0.004728544625546783
1684381762016825000,7.6918251953125,0.0010392799198627471,-0.006187182468641549,0.011264978923276067
1684381762026884000,7.701884033203125,0.004632920497655868,0.004898476098664104,0.004560987772606313
1684381762036942800,7.71194287109375,-0.0013467384338378906,-0.00337517552152276,-0.012574234890937805
1684381762047003100,7.722003173828125,-0.010476385828852653,-0.01996197052206844,-0.00743272555032745
1684381762057062000,7.732061767578125,0.0008984101444482803,-0.005749996627774089,-0.008718089185748248
1684381762067121200,7.74212109375,0.01002513493001461,-0.015112849990464746,-0.01114862253461033
1684381762077181200,7.75218115234375,0.017059271350502968,-0.012967910383641718,-0.008981507628597318
1684381762087240000,7.762239990234375,-0.013166940087080001,-0.009499284425005316,-0.008129731371160596
1684381762097299200,7.77229931640625,-0.0179553434073925,-0.020860892123170195,-0.012635335694719104
1684381762107359000,7.78235888671875,-0.0017974048107862472,-0.006934420639369636,-0.015039145433437078
1684381762117418000,7.79241796875,-0.007336334237456321,-0.003937887438200414,-0.02767579630240798
1684381762127477000,7.80247705078125,0.0032867665857076642,-0.0203809265865013,-0.0041222492954693735
1684381762137537000,7.812537109375,0.010768646773695946,-0.019163897213246673,0.0022765848961658775
1684381762147595800,7.822595703125,-0.0022474866658449173,-0.0004281622841954231,-0.009696323100756854
1684381762157656000,7.832656005859375,-0.005387538257241249,-0.0002881692916154861,-0.005738068727962673
1684381762167715000,7.842715087890625,0.013768413111567497,-0.02162203095508739,-0.018933778251800686
1684381762177774000,7.852774169921875,-0.0011959317862987517,-0.019021072942763565,-0.003695694446470588
1684381762187834000,7.862834228515625,-0.002091419321298599,-0.009531542726792394,-0.0065500061653554435
1684381762197892900,7.872892822265625,-0.010171849924325942,-0.006959335884917527,-0.007938282185979187
1684381762207952100,7.8829521484375,-0.01285889705121517,-0.007878405224904418,-0.005367554915137589
1684381762218012200,7.89301220703125,-0.00013736264407634735,0.000821326320245862,-0.014469090460520237
1684381762228071000,7.90307080078125,0.004202712386846542,-0.004451298586744814,-0.018953341468796132
1684381762238130200,7.913130126953125,0.0030050270348787305,-0.002125997444335371,-0.006137534640636295
1684381762248190000,7.92318994140625,-0.005222703084349632,-0.02339727873299271,-0.016110300062596797
1684381762258249000,7.9332490234375,-0.009112111738324165,-0.014856792870163917,-0.02050736597776413
1684381762268308000,7.943307861328125,-0.0035778584867715833,-0.008372490618471055,-0.000849072843696922
1684381762278368000,7.953367919921875,-0.0005862754553556442,-0.006067318948637694,-0.01791806187061593
1684381762288427000,7.963427001953125,0.0112368488073349,-0.011099011239223182,-0.022850020113773642
1684381762298486000,7.973486083984375,0.006745967128872871,-0.018671017396077513,-0.014922423718590289
1684381762308546000,7.983546142578125,-0.005675707548856735,-0.011489015203807502,-0.006283263254258781
1684381762318605000,7.99360498046875,0.007644377273321151,-0.0024285057885572313,-0.025939839355275034
1684381762328665000,8.0036650390625,-0.002530395260453224,-0.017994287178292868,-0.00933910716092214
1684381762338723800,8.013723876953126,0.0007598784565925597,-0.013345474991761147,-0.013020225092768668
1684381762348783000,8.023783203125,-0.0008855506628751755,-0.006196881878748535,-0.022283490538503974
1684381762358843100,8.033843017578125,-0.0026847090393304824,-0.010990673760231584,-0.0019377631295472383
1684381762368902000,8.04390185546875,-0.001188333001732826,-0.003942837607953697,-0.008367357785627246
1684381762378961200,8.053961181640625,0.000005845218896865844,-0.019107819644454866,-0.01732663531610742
1684381762389021000,8.06402099609375,0.007492986103892326,-0.012947872242610901,-0.00006690949006006121
1684381762399080000,8.074079833984374,-0.0038771336942911147,-0.0031583361667580903,-0.024948435431439427
1684381762409139000,8.084138916015625,-0.0017845453292131422,-0.017734668127726762,-0.01804762480072677
1684381762419199000,8.094198974609375,0.0018044190734624861,-0.009817026870977134,-0.014916231439821421
1684381762429258000,8.104258056640624,-0.0017886369824409484,0.0020997852908447383,-0.00551054358240217
1684381762439317000,8.11431689453125,-0.011066168415546416,-0.013492445714399217,-0.006222308580949902
1684381762449377000,8.124376953125,-0.008823357924818993,-0.02011310596317053,-0.0017750833811238406
1684381762459436000,8.13443603515625,0.0020978490620851514,-0.009699446639604866,-0.004460724002216011
1684381762469495000,8.1444951171875,0.008685410758852959,-0.026468466339260338,-0.01807586451452225
1684381762479554800,8.154554931640625,0.018712299254536626,-0.0116685730217956,-0.017384448184259233
1684381762489614000,8.164614013671875,0.007042904248833656,-0.011105842838808893,-0.008926873098220676
1684381762499672800,8.1746728515625,-0.0014870236873626708,-0.01106781238336116,-0.009673928605858235
1684381762509732900,8.18473291015625,0.002851297777891159,-0.011152915117237715,-0.024055066788289694
1684381762519792000,8.194792236328125,-0.007771803045272827,-0.0170216792864725,-0.004486333367507905
1684381762529852000,8.204851806640624,-0.009264087429642676,-0.017234152993373573,-0.00908034662688151
1684381762539911700,8.21491162109375,-0.006268412744998932,-0.006118501146603375,-0.019610490203276276
1684381762549970700,8.224970703125,-0.0065665189087390895,-0.008797237102873622,-0.009356131360959261
1684381762560030700,8.23503076171875,0.0003191489517688751,-0.01346930230082944,-0.02602108789794147
1684381762570089500,8.24508935546875,0.0033148236364126202,-0.0008901903053745627,-0.005831921023875475
1684381762580148700,8.255148681640625,0.006608019962906837,-0.01880553049594164,-0.006835764304175973
1684381762590208800,8.265208740234375,0.0004693710774183273,-0.0026599399242550133,-0.02238203727584332
1684381762600267800,8.275267822265626,-0.006717325556278228,-0.005787241631932556,-0.004707940228935331
1684381762610326800,8.285326904296875,0.004353519034385681,-0.00897537014875561,-0.02145317719420418
1684381762620386600,8.295386474609375,-0.008814005574584007,-0.005051602567452937,-0.021537805004045365
1684381762630445800,8.30544580078125,0.0028588965624570845,0.002616027717292309,-0.0072599080003798
1684381762640504600,8.315504638671875,-0.0023801731348037716,-0.013079353135172276,-0.008095281112287193
1684381762650564600,8.325564697265625,0.007197802549600601,-0.007612904422823339,-0.006294570099562406
1684381762660623600,8.33562353515625,-0.0011819032609462737,-0.013144582124799489,0.0038714894047938283
1684381762670682600,8.3456826171875,0.0100385789334774,-0.002617068896908313,-0.010727401447854935
1684381762680742700,8.35574267578125,-0.002237549793720245,-0.012681165864132343,0.005572667299490422
1684381762690801700,8.3658017578125,-0.00957154594361782,-0.01245289179990068,-0.009536492896545679
1684381762700860700,8.375860595703125,0.010182955840229987,-0.014361465367581695,-0.011498732880223541
1684381762710920400,8.38592041015625,0.004940963533520699,-0.008100450477749108,-0.01170422885706648
1684381762720979700,8.395979736328124,0.0070341364204883575,-0.03426796110905707,-0.013288812901079654
1684381762731039700,8.406039794921876,0.00029985972940921784,-0.005555277773272246,-0.009951302508823572
1684381762741098800,8.4160986328125,-0.004787234276533127,-0.009218549521174282,-0.0263669421935454
1684381762751157800,8.42615771484375,-0.01182020165324211,0.0015369089773856102,0.0016194544279947876
1684381762761217500,8.436217529296876,-0.006731354081630707,-0.006177683987934142,0.0039080402892082925
1684381762771276800,8.44627685546875,0.011225742891430855,-0.022242044283263384,-0.01357995960107073
1684381762781335600,8.45633544921875,-0.00014086977541446686,-0.02338054679390043,-0.01972744938014075
1684381762791395600,8.4663955078125,0.01407937875688076,-0.0017050686185248196,0.008645042215846478
1684381762801454800,8.476454833984375,0.011684592574834823,-0.008123466027155518,-0.0016635310317389667
1684381762811513600,8.486513671875,0.0036076691031455992,-0.006134338036552071,-0.005913699289504438
1684381762821573600,8.49657373046875,0.01018938558101654,-0.00992536434996873,-0.009953019541874527
1684381762831632600,8.506632568359375,0.00016717326045036316,-0.017143095442745834,-0.013804909197054802
1684381762841691600,8.516691650390625,0.003759644794464111,-0.00963493003603071,0.007651007943507283
1684381762851751700,8.526751708984374,0.0010714286237955093,-0.010947382607776671,0.0025890301125124095
1684381762861810700,8.536810791015625,0.0031663550764322278,-0.019383184253424404,-0.006633793724980205
1684381762871869400,8.546869384765625,-0.0025175357788801193,-0.012427812157571315,-0.010112009495869278
1684381762881929700,8.5569296875,0.007505845585465431,-0.0003912278072908521,-0.017402312634512782
1684381762891988700,8.56698876953125,0.003916881182789802,0.0011860679794102906,-0.023118461791612206
1684381762902047700,8.5770478515625,-0.0032680618852376935,-0.0099177290327847,-0.024344679118320344
1684381762912107800,8.587107666015624,0.002717442265152931,-0.015737612558994443,-0.017315876460075378
1684381762922166500,8.59716650390625,0.0016729016482830046,-0.007604392322804778,-0.015713756759371606
1684381762932225800,8.607225830078125,-0.009099836778640747,-0.006136146401148289,-0.007072696598898619
1684381762942285800,8.617285888671875,0.004818798458576202,-0.010439652281347661,-0.022023597493302075
1684381762952344600,8.627344482421876,-0.0016179565906524658,-0.01016677189040929,-0.009307981370296328
1684381762962403800,8.63740380859375,0.015291677156090736,0.0028931641582399603,-0.006097841951064765
1684381762972463600,8.647463623046875,0.013795885640382767,-0.003974547920469194,-0.017360902911890297
1684381762982522600,8.657522705078126,0.01275134502351284,-0.01881796985240653,-0.015079093851335346
1684381762992582700,8.667582763671875,-0.001460135680437088,-0.013589421549160033,-0.023189079342409966
1684381763002641700,8.6776416015625,0.009465747481584548,-0.007922025170922279,-0.02805447515537962
1684381763012700700,8.68770068359375,0.003181552645564079,-0.017439722035452722,-0.009425324139650911
1684381763022760700,8.6977607421875,-0.009540566283464431,-0.009134780227858573,-0.022105156563222407
1684381763032819700,8.70781982421875,-0.0013128361642360687,-0.016350812553893774,-0.009090849754586815
1684381763042878700,8.717878662109374,0.01739069526195526,-0.009075432989746331,-0.014514171711262314
1684381763052938800,8.727938720703126,0.006318681627511978,-0.002481112758629024,-0.019684048629831523
1684381763062997500,8.73799755859375,-0.005053191736340523,-0.0036349224362522362,0.0013526201853528619
1684381763073056800,8.748056884765624,-0.0026589900761842724,-0.020191468429006636,-0.011438600190822034
1684381763083116800,8.75811669921875,0.00407645565867424,-0.011770225031673907,-0.012015943421050905
1684381763093175600,8.768175537109375,0.0010796119302511214,-0.012043507281411438,-0.013967205352988094
1684381763103234800,8.77823486328125,0.0024281039297580718,-0.0057034723386168475,-0.0078002071558497844
1684381763113294600,8.788294677734376,0.00047930794954299924,-0.007754157790727913,-0.0195104090959765
1684381763123353600,8.798353515625,0.0013753800064325332,-0.010592194228246808,-0.015548574526607989
1684381763133412600,8.80841259765625,-0.0031149171501398086,0.0012399170584976673,-0.008353530189674347
1684381763143472600,8.81847265625,0.00945522608757019,0.004063705774955451,-0.012547584346029907
1684381763153531600,8.82853173828125,-0.0028179800301790237,-0.009339563818648457,-0.01906544180745259
1684381763163590700,8.838590576171875,-0.0029670331120491026,-0.015076883627939968,-0.02202597211347893
1684381763173650700,8.848650634765624,0.003168693163990974,-0.014922259321808814,-0.01758044568039477
1684381763183709700,8.858709716796875,0.010498597660660743,-0.006322426220867782,0.004740107199177146
1684381763193768700,8.868768798828125,0.015880290699005126,-0.011978387889638542,-0.009108348878659307
1684381763203828500,8.878828369140624,-0.012403554499149321,-0.0017699322819709777,-0.006344674585293978
1684381763213887700,8.8888876953125,-0.006115852531790733,-0.006171382111310958,-0.01523534385897219
1684381763223946500,8.898946533203125,0.011391162586212157,0.0017732384839095174,-0.02090316036231816
1684381763234006500,8.909006591796874,0.0028647417813539504,-0.007159041441790759,-0.02183684274954721
1684381763244065800,8.919065673828126,0.0033136545926332472,-0.011507665105350316,-0.00041933965692296624
1684381763254125600,8.92912548828125,0.003909866920113563,-0.006882617386896162,0.0019414163913577794
1684381763264184800,8.939184814453125,0.0013660276561975478,-0.017553776869177817,-0.015982143638283014
1684381763274243600,8.94924365234375,-0.002824409770965576,-0.02110874767070636,-0.015248422536253928
1684381763284303600,8.9593037109375,0.009904138898849486,-0.00262238439284265,-0.013074147237092255
1684381763294362600,8.969362548828125,0.004069441395998001,-0.0015608013096265493,-0.024668102386407553
1684381763304421600,8.979421630859376,0.005411503654718399,-0.01731967585235834,-0.029026882117800412
1684381763314481700,8.989481689453125,0.000023380875587463377,-0.004865852470695972,-0.016158413520641624
1684381763324540700,8.999540771484375,0.0028676643908023833,-0.010055091676861047,-0.01746096575288102
1684381763334599700,9.009599609375,0.002115384718775749,-0.014465437198709696,-0.016137480330467222
1684381763344659500,9.019659423828125,0.00779693748652935,-0.014213380400091409,-0.009168262372352182
1684381763354718700,9.02971875,-0.005368833556771278,-0.02297887065783143,-0.019519213456939903
1684381763364777500,9.039777587890624,-0.006713818424940109,0.005612670516315847,-0.01827518647890538
1684381763374837800,9.049837646484375,0.0010655834048986434,-0.01658025566190481,-0.004971614400111139
1684381763384896800,9.059896728515625,0.020368249768018723,-0.009440960100200027,-0.00582682472364977
1684381763394955500,9.06995556640625,-0.003122515934705734,0.0014645743935368955,-0.006211586257535964
1684381763405015800,9.080015869140626,-0.003574351355433464,0.0015082856711000202,-0.033056338563282044
1684381763415074600,9.090074462890625,0.015430793365836143,-0.011071757906116544,-0.02337064645439386
1684381763425133800,9.1001337890625,0.011239771416783333,-0.009282554668094961,-0.003109309393260628
1684381763435193900,9.11019384765625,-0.01210427929162979,-0.01375803784802556,-0.011929580311849713
1684381763445252600,9.120252685546875,0.004506079247593879,0.0006033909869380295,-0.01672965580364689
1684381763455312000,9.130311767578124,-0.01030745900273323,-0.009078757457993924,-0.005875814964529127
1684381763465371600,9.14037158203125,-0.00312660758793354,-0.007260200261324644,-0.01226264819111675
1684381763475430700,9.1504306640625,0.0015104045629501341,0.006066898823529482,-0.016828823595494032
1684381763485489700,9.16048974609375,-0.002978139027953148,-0.02913682703198865,-0.01995150392698124
1684381763495549700,9.1705498046875,-0.007771803045272827,-0.012272511998005211,-0.023547957516368477
1684381763505608400,9.1806083984375,-0.007474865925312042,-0.019723248129058627,-0.01047468706211075
1684381763515667700,9.190667724609375,-0.0038841479569673536,-0.013880823977477847,-0.0035455088534392413
1684381763525727700,9.200727783203124,0.012426935374736785,-0.007063746107462793,-0.010850333707779646
1684381763535786800,9.210786865234375,0.007344517543911934,-0.013512118529248981,-0.023039277341868728
1684381763545844700,9.2208447265625,-0.0037274960905313488,-0.011277180817723274,-0.02653269068188965
1684381763555904800,9.23090478515625,-0.011055647021532057,-0.010053465975355357,0.0015623904785141349
1684381763565964000,9.240964111328125,-0.013006781089305877,-0.005435523851122706,-0.01911324473824352
1684381763576022800,9.251022705078125,-0.0023860183537006375,-0.017008344880864022,-0.03671170099936426
1684381763586082800,9.261082763671874,0.006288286489248275,-0.008790460302215069,-0.0007391827284358441
1684381763596141800,9.271141845703125,-0.010918284377455711,-0.012240290228836237,-0.00469990305295214
1684381763606201900,9.281201904296875,-0.008075169906020164,0.004420812116935849,0.002270721410959959
1684381763616260900,9.2912607421875,-0.0020849895805120466,-0.005514050713740289,-0.010584284916426986
1684381763626320000,9.30131982421875,0.0012058686584234238,0.012880652225296944,-0.019668869327008724
1684381763636380000,9.3113798828125,0.001202361527085304,-0.0038738640249706803,-0.0012412139664404094
1684381763646439000,9.32143896484375,-0.00014905308187007903,-0.004626728218887001,-0.013623981405887753
1684381763656498000,9.331497802734376,0.0007446808874607086,0.0029033384923823177,0.0022329284175299107
1684381763666557700,9.3415576171875,-0.008382628419995307,-0.01154145777709782,-0.02315291205048561
1684381763676617000,9.351616943359375,-0.01032967083454132,-0.006133132460154593,-0.012321136912703513
1684381763686675700,9.36167578125,-0.0046446109354496,0.00013354498548433184,-0.01283971742670983
1684381763696735700,9.37173583984375,0.0020908347994089125,-0.013717687571328133,-0.0203042994200252
1684381763706795000,9.381794921875,0.005831190371513366,-0.015367263142950833,-0.02595257097268477
1684381763716853800,9.391853759765626,0.002689385214447975,-0.0029955102878622708,-0.015934084979165344
1684381763726914000,9.4019140625,0.0029886604219675063,-0.007655629319697618,-0.005875814964529127
1684381763736972800,9.411972900390625,-0.0016565350353717804,0.0074122307515703135,-0.012717040895111859
1684381763747031800,9.42203173828125,0.0022317045748233796,-0.007656853162404149,-0.010857055709511041
1684381763757091800,9.432091796875,0.009265840995311737,-0.021906455653347073,-0.01550975861987099
1684381763767150800,9.44215087890625,0.007472527837753295,-0.011552472361456602,-0.017020090117584912
1684381763777209900,9.4522099609375,0.013604162460565566,-0.0014474405956454574,-0.0181247816901654
1684381763787270000,9.462269775390626,0.001931260323524475,-0.00588461932549253,-0.007360281368624419
1684381763797329000,9.472328857421875,0.012700491619110106,0.003147029321454465,-0.010346731567196548
1684381763807388000,9.482387939453124,0.005517886638641357,-0.012414258556254207,-0.02036479743560776
1684381763817448000,9.492447998046876,-0.0024129063606262205,-0.008147979413904249,-0.0021830979264341292
1684381763827506700,9.502506591796875,-0.005555880561470985,-0.006984159798920154,-0.0033042839760892093
1684381763837566000,9.51256591796875,-0.005111643925309181,-0.001896134211216122,-0.01956044051647186
1684381763847626000,9.5226259765625,0.01104863275885582,-0.004623495082184672,-0.010971147075854242
1684381763857684700,9.532684814453125,-0.006907879692316055,-0.002077829187363386,-0.0069371971183456475
1684381763867744000,9.542743896484374,-0.0004769698619842529,0.007613982135057449,-0.013184293080680072
1684381763877803800,9.5528037109375,0.0022165070056915284,-0.008091225991677492,-0.02530698481183499
1684381763887863000,9.562863037109375,0.008950783696770668,0.0035518289963714774,-0.02648925339896232
1684381763897921800,9.572921875,0.00341243879199028,0.001669595446344465,-0.016016995755955575
1684381763907981800,9.58298193359375,-0.01319791974723339,-0.006137023183982819,-0.001596895536314696
1684381763918041000,9.593041015625,-0.007058686339855193,-0.009431826945673674,-0.019316201698128133
1684381763928099800,9.603099853515625,-0.014386252748966216,-0.008579283503256738,-0.014393011283315717
1684381763938159900,9.613159912109374,-0.006451952618360519,-0.007173818885814398,-0.0032249716621823607
1684381763948219000,9.623218994140625,-0.005108136793971062,0.00466614691382274,0.007501900062710046
1684381763958278000,9.63327783203125,-0.004811199674010277,-0.006351323521789163,-0.02041442699730396
1684381763968337700,9.643337646484374,0.012097849550843238,-0.0080240973059088,-0.002729370164964348
1684381763978397000,9.65339697265625,-0.0061596916735172265,-0.003835504775959998,-0.012680563075933605
1684381763988455700,9.66345556640625,0.006261983004212379,-0.000347279067710042,-0.0158156462312676
1684381763998516000,9.673515869140624,0.0013239420801401138,0.0012187098736874758,-0.013038454869203268
1684381764008575000,9.683574951171876,0.0020797288835048672,-0.018003128071874378,-0.01123814571527764
1684381764018633700,9.6936337890625,-0.01018587844967842,-0.004930296009033918,-0.0050613019775599235
1684381764028694000,9.703694091796875,-0.0074848027974367135,0.0005240604067221283,-0.009219682032335549
1684381764038752800,9.713752685546876,-0.0151145670235157,-0.0059345411481335755,-0.00760831957925111
1684381764048812000,9.72381201171875,-0.013165186521410941,-0.005285685317963361,-0.005002721924427896
1684381764058872000,9.7338720703125,0.005541852036118507,-0.005645933465100825,0.004526793242059648
1684381764068930800,9.743930908203126,0.003598316752910614,-0.0009429068733006716,-0.01130288151456043
1684381764078990000,9.753989990234375,0.0049491468399763105,-0.012567549421824514,-0.007801851123664528
1684381764089049900,9.7640498046875,-0.015250176101922988,-0.004501110811531543,-0.013250709380395709
1684381764099108900,9.77410888671875,-0.007615735700726508,-0.009565244066994636,-0.01564337667059153
1684381764109167900,9.78416796875,-0.0047679450541734695,-0.023850922518316654,-0.005478066084906459
1684381764119228000,9.794227783203125,0.009447627303004264,-0.0017954503157176075,-0.007798106530308723
1684381764129286700,9.80428662109375,0.004957914668321609,-0.0011553075149655341,0.005201258437521755
1684381764139346000,9.814345947265625,0.003763736447691917,-0.009621577364113182,-0.01893441757261753
1684381764149406000,9.824406005859375,0.011547814452648162,-0.006367324808519333,-0.005986910656187683
1684381764159465000,9.83446484375,0.010946925950050354,-0.020847996108978986,-0.029265622777119277
1684381764169525000,9.84452490234375,0.0030108722537755964,0.001866944649349898,0.000033390812948346136
1684381764179583700,9.854583740234375,0.0065998366564512245,-0.0023371011780574918,-0.0016348711928352712
1684381764189643000,9.86464306640625,0.0016635492980480193,-0.0011538644765503705,-0.01876194708254188
1684381764199703000,9.874703125,0.011689268749952316,-0.004868172291945666,-0.03616228695567697
1684381764209761800,9.88476171875,0.021565350598096847,-0.0012071107674390077,-0.013477613471448421
1684381764219821000,9.894821044921875,0.015880290699005126,-0.010107990907877683,-0.02799109106296673
1684381764229880800,9.904880859375,0.00914718305170536,-0.005934139289334416,-0.018265852394979448
1684381764239939800,9.91493994140625,-0.010908347505331038,-0.016354648478794843,-0.007637326478026807
1684381764249998800,9.924998779296875,0.005250760135054588,-0.01068219233294949,-0.010699307864531875
1684381764260059000,9.935058837890624,0.0013631050467491149,-0.00805164289996028,-0.007014792399201541
1684381764270117600,9.94511767578125,0.008246434819698334,-0.009885872589796781,-0.019105006632860747
1684381764280177000,9.955177001953125,-0.006121697750687599,-0.007781465922761708,-0.03513690769700333
1684381764290237000,9.96523681640625,-0.00013385551273822782,-0.006302041019964963,-0.02295950837023556
1684381764300296000,9.9752958984375,-0.003573182311654091,-0.007625964833796024,-0.02412672551870346
1684381764310355000,9.98535498046875,0.003011456775665283,-0.006695917442068457,-0.00953488546134904
1684381764320414700,9.995414794921874,-0.00656476534307003,-0.01186292655011639,-0.017278887184243648
1684381764330474000,10.005473876953126,-0.00042670097947120663,-0.0030491767038591205,-0.01769703953107819
1684381764340532700,10.01553271484375,-0.0002782324194908142,-0.003033924335800111,-0.013163506020978093
1684381764350592800,10.0255927734375,-0.0016284779846668243,-0.009581501082051545,0.006837335206754505
1684381764360652000,10.035652099609376,-0.0037263270467519758,0.0037445385568775236,-0.012647172262985258
1684381764370710800,10.045710693359375,-0.012559037321805954,-0.012748422414064407,-0.012134290837403387
1684381764380770800,10.055770751953125,0.007193126374483108,-0.012364026206359267,-0.005635357272159308
1684381764390829800,10.065829833984376,0.013027823877334595,-0.0015079751438461244,-0.008943184912204742
1684381764400888800,10.075888916015625,0.0018044190734624861,-0.006611983751971274,-0.009057751202583312
1684381764410948900,10.085948974609375,-0.005980243453383445,-0.01824838980352506,-0.0300228891515173
1684381764421008000,10.0960078125,-0.00957329950928688,-0.01806442980505526,-0.012766688723117113
1684381764431067000,10.10606689453125,-0.007927870389819144,-0.01548524523312226,-0.008749708166718483
1684381764441127000,10.116126953125,0.0019487959802150724,-0.0061271959097124636,-0.02395175254428759
1684381764451186000,10.12618603515625,0.004946224230527877,0.0014931429008953273,-0.007267561583872884
1684381764461245000,10.136244873046875,0.0022545009285211562,-0.007377287302352487,-0.024062775170709937
1684381764471305000,10.146304931640625,0.006144494104385376,0.0006931698959320783,-0.013707239242549985
1684381764481363700,10.15636376953125,0.007640285620093345,-0.005457680884003639,-0.0126315911013633
1684381764491423000,10.166423095703125,-0.006880407163500786,-0.009386928358022123,-0.032535876619443294
1684381764501483000,10.17648291015625,-0.00718260498046875,0.0019137794657610356,-0.011678272431902587
1684381764511541800,10.186541748046874,-0.006433247917890549,0.004684248826093971,-0.004934113667625933
1684381764521601000,10.19660107421875,-0.001496376037597656,-0.009632062225509434,-0.010337178287561982
1684381764531660800,10.206660888671875,0.008078092515468597,-0.007769318827241659,-0.003710161363240331
1684381764541720000,10.216719970703124,0.011367781710624695,-0.0025582513817586005,-0.01628477984666824
1684381764551779000,10.226779052734376,0.0016413374662399291,-0.005989979396108538,-0.021542188918218016
1684381764561839000,10.236839111328125,0.01032265657186508,-0.0030765579011291263,-0.01661474245339632
1684381764571898000,10.246898193359375,-0.005685644420981407,-0.011294259816687554,-0.014505750942789017
1684381764581957000,10.25695703125,-0.009575637596845626,0.014435005527827888,-0.016774426527135074
1684381764592017200,10.26701708984375,-0.0008937339693307876,-0.003657408262696117,-0.02186296357149258
1684381764602076200,10.277076171875,0.0010538929671049118,-0.013419526608660816,-0.01953289492242038
1684381764612135200,10.28713525390625,0.014973112726211548,0.00046814723471179604,-0.02366626840010285
1684381764622195000,10.29719482421875,-0.001342062258720398,0.004965933577995747,-0.017927943943813442
1684381764632254200,10.307254150390625,0.001048047748208046,-0.015124120303150265,-0.008583064629230648
1684381764642313000,10.31731298828125,-0.0056885670304298395,-0.015059439302794634,-0.010475874372199177
1684381764652373000,10.327373046875,0.007031213811039924,-0.00904165858430788,-0.0016946933549828827
1684381764662432300,10.337432373046875,0.009572130465507507,-0.00909236585823819,-0.00677471829932183
1684381764672491000,10.347490966796874,-0.00030512042641639707,0.004984199887048453,-0.007460654736869037
1684381764682551000,10.357551025390626,0.019446458747982977,-0.007832374126091599,-0.011674326909147202
1684381764692610000,10.367610107421875,0.01016366661787033,-0.01498029138566926,-0.00804240014757961
1684381764702669000,10.3776689453125,-0.007791676789522171,-0.0050499585996381935,-0.02054930542334914
1684381764712729000,10.38772900390625,-0.0015115736067295073,-0.007823186172638087,-0.016990864023100585
1684381764722788000,10.3977880859375,-0.00854629454910755,-0.007862129943538456,-0.013582681281119583
1684381764732847000,10.40784716796875,0.007615151178836822,0.004312821697816252,-0.015881989465747027
1684381764742907100,10.4179072265625,-0.0025590368330478666,-0.007271123514138162,-0.03175667240787297
1684381764752966100,10.427966064453125,-0.012882862448692321,0.0013008534654974937,-0.015089414315950124
1684381764763025200,10.438025146484375,0.015094693279266356,-0.0008518127900548278,-0.010957721338700502
1684381764773085200,10.448085205078126,-0.000016366612911224363,-0.00950936742760241,0.0013328925715759396
1684381764783144200,10.458144287109375,-0.002564297530055046,-0.014168171285185962,0.0027305209424346682
1684381764793203200,10.468203125,0.01134615440070629,0.003350844797864556,-0.022463979938253758
1684381764803263200,10.47826318359375,0.008051204508543014,-0.0020189568732865153,-0.00033295828141272066
1684381764813322000,10.488322021484375,-0.003926818054914474,-0.0023183599449694155,-0.008377860913332551
1684381764823381200,10.49838134765625,-0.0027320553123950956,-0.01232482670713216,-0.01098517560120672
1684381764833441000,10.50844091796875,0.007589432215690612,-0.006844952257629483,-0.02230082526579499
1684381764843500000,10.5185,-0.0016927753925323485,-0.004394161572027952,-0.017652177476044743
1684381764853559000,10.52855908203125,0.0020446575701236723,0.0008869206360541283,-0.014084749051742255
1684381764863619000,10.538619140625,0.003393149569630623,-0.009308547625876963,-0.022516002386435866
1684381764873678000,10.548677978515625,-0.011721417453885078,-0.011168569344095885,-0.02433439518632367
1684381764883737000,10.558737060546875,-0.004086392530798912,-0.003201682118140161,-0.022134163461998105
1684381764893797000,10.568797119140624,0.007136427751183509,-0.015056681090127675,-0.023600327024422586
1684381764903856000,10.578856201171876,-0.002593523624539375,-0.016656115643400696,-0.020029117474146187
1684381764913915100,10.5889150390625,0.00024608371555805207,-0.010886574064940214,-0.019354378284048287
1684381764923975200,10.59897509765625,-0.006784545573592185,-0.005104647928941995,-0.026450967215187846
1684381764934034200,10.6090341796875,-0.000353051221370697,-0.005932513587828725,-0.003946984060108662
1684381764944093200,10.61909326171875,-0.0037941315859556196,-8.037175983190536e-7,-0.01781240953905508
1684381764954153000,10.629153076171875,-0.004541735082864761,-0.012052311642374842,-0.031366284850798544
1684381764964212200,10.639212158203126,-0.003495440900325775,0.006154504041746258,-0.01002756434911862
1684381764974271000,10.64927099609375,0.003839139771461487,-0.010142295036278665,-0.0038456608437933025
1684381764984331000,10.6593310546875,-0.00798690710067749,-0.011266129700746386,-0.017924546410329638
1684381764994390000,10.66939013671875,0.003539280042052269,-0.012297482042480259,-0.010451306186523289
1684381765004449000,10.679448974609375,-0.0063327101528644555,-0.0032566089094616473,-0.004562010685913265
1684381765014509300,10.68950927734375,0.003097381493449211,-0.00801587746683508,-0.006952047627605497
1684381765024568000,10.699568115234374,0.0047463177442550655,-0.002514686234667897,0.0016307430069893599
1684381765034627000,10.709626953125,0.017763035705685614,-0.014087982188444583,-0.0012450316250324249
1684381765044687000,10.71968701171875,0.00594341857433319,-0.006821699246205389,-0.01832211262686178
1684381765054746000,10.72974609375,-0.014704817178845404,-0.015365801838226615,-0.011345935204997657
1684381765064805000,10.73980517578125,0.005340776506066322,-0.013125895690638571,-0.0043603871665894986
1684381765074865200,10.749865234375,-0.004385667738318443,-0.003583703705668449,-0.007303454881161451
1684381765084924200,10.759924072265624,-0.013659692040085792,-0.012915084217861294,-0.01295278587974608
1684381765094983200,10.769983154296876,0.008636310920119286,-0.0070686049456708125,-0.0044226935467682775
1684381765105043200,10.780043212890625,-0.005432546442747116,-0.011928539132233709,0.0004024615873582661
1684381765115102000,10.79010205078125,-0.0037853637576103208,-0.010580211529508233,-0.005625274269562214
1684381765125161200,10.8001611328125,0.005792027404904365,-0.008484883218072354,-0.011929288050904869
1684381765135221000,10.810220947265625,0.025989012259244916,-0.0026817133646458388,-0.018462251749914137
1684381765145280000,10.820280029296875,0.004737549915909767,-0.015965503030736,-0.01972041685115546
1684381765155339300,10.83033935546875,-0.004244797962903976,-0.010141801845934242,-0.013077435172721743
1684381765165399000,10.84039892578125,-0.006644260320067406,-0.010811627398896961,-0.019492014922760426
1684381765175458300,10.850458251953125,-0.0030517887860536572,-0.015767825034167616,-0.0066465618750080465
1684381765185517000,10.86051708984375,0.015801380243897437,-0.00909797361511737,-0.009545461654290556
1684381765195577000,10.8705771484375,0.008769581910967826,-0.018115045747440307,-0.006696301034558564
1684381765205636000,10.880635986328125,0.0020376433074474334,0.00039000396458432077,-0.0012027085869573055
1684381765215695000,10.890695068359374,-0.004246551528573036,-0.0011300086769275366,-0.024402217991836367
1684381765225755100,10.900755126953126,0.0123696522295475,-0.011275354186818003,-0.017679595205932853
1684381765235814100,10.910814208984375,0.014164134430885314,-0.004850088645983487,0.0019867168378084896
1684381765245873200,10.920873046875,-0.001246200668811798,-0.0002687156724743545,-0.0019443207344971595
1684381765255933000,10.930932861328126,0.0017459668844938276,-0.005927581684384495,0.001202361527085304
1684381765265992200,10.9409921875,0.012220599147677421,-0.010144614857528359,-0.00490161790382117
1684381765276051000,10.951051025390624,0.0021972177833318707,-0.008170556571893393,-0.007754577915836125
1684381765286111200,10.961111328125,0.0018991116195917128,-0.000019599749613553284,-0.02001090596402064
1684381765296170200,10.971170166015625,0.004741641569137573,-0.006895513401087373,-0.018202742297202347
1684381765306229000,10.98122900390625,0.004143675675988197,-0.004384608292393386,-0.006217595873214304
1684381765316289300,10.991289306640626,0.014170564171671866,-0.0011688793825916945,-0.017864285856764764
1684381765326348000,11.00134814453125,0.011926000115275382,0.009355053648725152,-0.0194266763352789
1684381765336407300,11.0114072265625,0.009981295788288116,-0.010510105435363949,-0.01888856913689524
1684381765346467000,11.021467041015624,0.009083470165729522,-0.004850983695127069,-0.003740099843777716
1684381765356526000,11.031526123046875,0.00324818814098835,-0.009975066976901143,-0.001616696215327829
1684381765366585000,11.041585205078125,-0.0027361469656229016,-0.005701499577239155,-0.022549137471057475
1684381765376645000,11.05164501953125,0.0063899932980537415,-0.01877550068385899,-0.0011796382386237382
1684381765386704100,11.0617041015625,0.014914660537242889,-0.014956307721883057,-0.017649748056940733
1684381765396763100,11.07176318359375,-0.002745499315857887,0.005473846567515283,-0.00951017114520073
1684381765406823200,11.0818232421875,-0.0037912089765071866,-0.00016039645979180932,-0.0030499804214574396
1684381765416882000,11.0918818359375,-0.0016968670457601547,-0.004917071201279759,-0.011147964947484433
1684381765426941200,11.101941162109375,-0.0031926585614681243,-0.002804408162552863,-0.011027809166535734
1684381765437001200,11.112001220703124,-0.00020107553005218505,-0.01392734826663509,-0.009722918846737592
1684381765447060200,11.122060302734376,-0.0009480945050716399,-0.005208181368652731,-0.005323112985212356
1684381765457119200,11.132119140625,-0.0027408231407403945,-0.016032266390323638,-0.01228816622486338
1684381765467179000,11.142178955078125,-0.006930091524124145,-0.01230564708262682,-0.006929726197943091
1684381765477238300,11.15223828125,-0.007226444122195244,-0.009423534041363745,-0.01143122060196474
1684381765487297000,11.162297119140625,-0.0018394903868436813,-0.013044555816426872,-0.006759959121607244
1684381765497357000,11.172357177734375,0.003848492121696472,-0.006015588761400431,-0.01940766110755503
1684381765507416000,11.182416015625,-0.013808745121955871,0.00009931392231956124,-0.01639596686987206
1684381765517475000,11.19247509765625,0.004897708913683891,-0.022987090496905147,-0.00864471342228353
1684381765527535000,11.20253515625,0.016270166799426077,-0.005455525459535419,-0.01077293935632333
1684381765537594000,11.212593994140626,0.011478840869665146,0.00187823322834447,-0.01289906466482207
1684381765547652900,11.22265283203125,0.0063958385169506065,0.003591521685943007,-0.005831172105204314
1684381765557713200,11.232713134765625,0.011034604233503342,-0.0027233788155950605,-0.011964578559994696
1684381765567772000,11.24277197265625,0.014471592944860457,0.002790270039346069,-0.027432123739644883
1684381765577831000,11.252830810546875,0.005192307946085929,0.0016135178775526582,-0.029340258915908635
1684381765587891200,11.26289111328125,-0.001692190870642662,-0.0013095664949156344,-0.0010695471939630805
1684381765597950000,11.272949951171874,0.01985679311454296,-0.0140361058707349,-0.01293625487005338
1684381765608009200,11.28300927734375,0.008936170649528502,-0.0025269611943513153,-0.014376462007313967
1684381765618069000,11.293069091796875,0.0020540099203586576,-0.0020517448980361223,-0.01672187435599044
1684381765628128000,11.3031279296875,0.003545125260949135,-0.019694789219554514,-0.015157218855153769
1684381765638187000,11.31318701171875,0.011622048732638359,-0.00980235902480781,-0.009169906340166926
1684381765648247000,11.3232470703125,0.024339491486549375,-0.016886691262573004,0.004132496694847941
1684381765658305800,11.333305908203124,0.013713468053936957,-0.0028484847662970424,0.0035092136973515153
1684381765668365000,11.343364990234376,-0.002747252881526947,-0.00820266874320805,-0.000553323033824563
1684381765678425000,11.353425048828125,-0.012927870634198188,-0.01477567219166085,-0.015146204270794987
1684381765688483800,11.36348388671875,-0.006498714369535446,0.00008870119675993918,-0.01002358229374513
1684381765698543000,11.373543212890626,-0.009639350482821465,-0.002963343317620456,-0.0004534611222334206
1684381765708603000,11.383602783203125,-0.00036766426861286163,-0.005447744011878967,-0.02046356336865574
1684381765718662100,11.393662109375,0.0009773205995559692,-0.007848959934711457,-0.0010715199553407728
1684381765728721000,11.403720947265626,-0.0012637363255023955,-0.008004826349858194,-0.01933408441469073
1684381765738781000,11.413781005859375,-0.013084522500634193,0.0008819887326098978,-0.0016290990391746162
1684381765748840200,11.423840087890625,0.00846270791888237,-0.012403773694857954,-0.021225907776970414
1684381765758899000,11.43389892578125,0.009960837522149085,-0.0060201005397364496,-0.011682857275474816
1684381765768959000,11.443958984375,-0.0038069910675287244,-0.011956998041737823,-0.017977153380401432
1684381765779018000,11.45401806640625,-0.004551671954989433,-0.01382352256597951,-0.009988456181436777
1684381765789077000,11.464076904296874,-0.004104512709379196,-0.0077566420087590805,-0.0054897017237730324
1684381765799137000,11.474136962890626,-0.0026057985842227933,-0.003881718537863344,-0.0018577384295873343
1684381765809196000,11.484196044921875,-0.008441665130853652,-0.014778229474928229,-0.009052362641412764
1684381765819255000,11.494255126953124,0.0005348375290632248,-0.021855711846798655,-0.006528780714236199
1684381765829315000,11.504315185546876,0.0032283143967390057,-0.00548860574522987,-0.010907562054041772
1684381765839374000,11.5143740234375,0.006971008056402206,-0.002746631827019155,-0.009854326674062759
1684381765849432800,11.524432861328124,0.010109306082129477,-0.012890972689911722,-0.007443575737904756
1684381765859493000,11.5344931640625,-0.004712415474653244,-0.015807974381465462,0.004195862520951777
1684381765869551900,11.5445517578125,-0.0020171850413084028,-0.008517598177585751,-0.018578078415617344
1684381765879611100,11.554611083984375,-0.0023100305080413818,-0.017410897799767552,-0.010570146793220192
1684381765889671200,11.564671142578124,0.002924363014101982,-0.010304499860666692,-0.020096629752404987
1684381765899730000,11.57472998046875,0.00801087249815464,-0.0023114187475293873,-0.016354411016777155
1684381765909789200,11.5847890625,-0.015184125128388404,-0.009419003996718675,-0.008300302165094763
1684381765919849000,11.594848876953124,-0.013985855254530905,-0.004442074100673199,-0.01515641513755545
1684381765929908000,11.604907958984375,-0.0032148703932762144,-0.014066135682817548,-0.005246303155645728
1684381765939967000,11.614967041015625,0.006056231299042702,-0.004352057729661464,-0.0001841426615603268
1684381765950027000,11.625027099609374,0.005451835665106773,-0.0006399601376615464,-0.030564576546475288
1684381765960086000,11.6350859375,0.006648351973295211,-0.0031445085708051916,-0.015472933740820734
1684381765970145000,11.64514501953125,0.012182605224847792,-0.00578598125660792,-0.003441792750637978
1684381765980205000,11.655205078125,0.012032383099198341,-0.012280147315189241,-0.012209968155808746
1684381765990264000,11.66526416015625,0.00005903671085834503,0.0001238821079954505,-0.0182274018144235
1684381766000323000,11.675322998046875,0.0042430443972349165,0.0010306582219898701,-0.019475209918431935
1684381766010382800,11.6853828125,0.0006517419070005417,-0.008921155743487178,0.0006541713261045515
1684381766020442000,11.695442138671876,0.0029050737917423247,-0.005160634166188538,-0.014870364737790078
1684381766030500900,11.7055009765625,0.0029039047479629517,-0.000538417725637555,-0.015402699782513081
1684381766040561000,11.715560791015625,-0.007868249157071114,-0.0007306706284172833,-0.0033032793290913103
1684381766050620200,11.7256201171875,-0.006823708540201187,0.0005636617647483944,-0.01898539884118363
1684381766060679000,11.735678955078125,0.0102390699416399,-0.010024678272288291,-0.020094985784590243
1684381766070739000,11.745739013671875,-0.0020335516542196275,-0.00028727424247190357,-0.005502013216074556
1684381766080798000,11.7557978515625,-0.003382628175616264,-0.006362630367092788,-0.007262483549956232
1684381766090857000,11.76585693359375,-0.008621113350987433,-0.005094930252525955,-0.017753719888068734
1684381766100917000,11.7759169921875,0.0159206227093935,-0.001720814176928252,-0.0297170746053569
1684381766110976000,11.78597607421875,0.012325813087821005,0.0039574506551958615,-0.025360304167959837
