time,seconds_elapsed,z,y,x
1684213742070701600,0.02870166015625,-0.11193124743355437,-0.8664116626411675,-0.6653945847779512
1684213742080726500,0.0387265625,-0.13214167629135773,-1.6781214287579058,-1.0411690946102141
1684213742090750500,0.04875048828125,-0.30970015542209145,-0.668999915793538,-0.6537228516846895
1684213742100774400,0.0587744140625,-0.3750929573088884,-0.5686550429910421,-0.3649269526034593
1684213742110799600,0.068799560546875,-0.21117431474030016,-0.5154910235583782,-0.06048690966665744
1684213742120823600,0.078823486328125,-0.17858780391216278,-0.36908816393613814,0.00870586902499199
1684213742130848800,0.088848876953125,-0.16555296577215195,-0.0731768798917532,-0.11273381425440311
1684213742140872400,0.09887255859375,0.08689033881253562,-0.0815858117967844,0.19006547573804855
1684213742150896600,0.108896728515625,0.025457097339630124,0.3682277477145195,0.30946050144731996
1684213742160921600,0.118921630859375,0.08261164771318436,0.4972697226911783,0.6315022520482539
1684213742170945500,0.128945556640625,0.15011225380050017,-0.029086978274583813,1.5915303560197351
1684213742180969500,0.138969482421875,0.07909399498105049,-0.2388660392642021,1.642633935791254
1684213742190994400,0.148994384765625,0.061515083670616144,0.4750789336711168,0.4340361446648836
1684213742201018600,0.1590185546875,-0.10095745174288749,0.7598170817941426,-0.010645312654972075
1684213742211043000,0.16904296875,-0.3167220168828964,0.6730600048393011,-0.22172435032725332
1684213742221067300,0.1790673828125,-0.3220691865971312,-0.4629138641029596,-0.038598318463563916
1684213742231091200,0.18909130859375,-0.3073953490784392,-0.8439215984135866,-0.016150924333930016
1684213742241116200,0.1991162109375,-0.37286187378857283,-0.8129413537383079,-0.1762339342623949
1684213742251140000,0.20914013671875,-0.2608265631923452,-1.5078636462956667,-0.28497487948834893
1684213742261164300,0.219164306640625,-0.3101905692875385,-2.3439362847745415,-0.5033861597448587
1684213742271189200,0.229189208984375,-0.4588718587031588,-1.685131599780917,-0.3057376815319061
1684213742281213000,0.239212890625,-0.5171778806667775,-0.9730354695826768,0.04144961624145507
1684213742291238100,0.249238037109375,-0.6293044497430325,-0.34623569613695143,0.4049444902151823
1684213742301262000,0.259261962890625,-0.6015981487045065,0.3158399733513593,0.8435358139663934
1684213742311286300,0.269286376953125,-0.32862288255691524,0.1374427235752344,1.0749310789585114
1684213742321311200,0.279311279296875,-0.1671229185026139,-0.2697135974705219,0.9065712390720844
1684213742331335200,0.289335205078125,-0.17155717462301254,-0.0020657003581523894,0.513669068828225
1684213742341359000,0.299359130859375,-0.14053546542618423,0.42094110077023505,0.07802490444481372
1684213742351384000,0.309384033203125,-0.017681714097782967,0.5919383034229279,-0.22440438319146633
1684213742361408300,0.319408203125,0.05302906794138253,0.2224310372918844,-0.41363808428049087
1684213742371433200,0.32943310546875,0.050499184137582774,-0.077367901840806,-0.2725900296896696
1684213742381457200,0.33945703125,-0.09261047915816306,0.32873686432540417,-0.21917875749766824
1684213742391481000,0.349481201171875,-0.2697241188645363,0.9968038831830024,-0.20930150660574434
1684213742401506300,0.35950634765625,-0.36033319507241246,1.3146563654005528,-0.073298460444808
1684213742411530200,0.3695302734375,-0.4386942726690322,1.2761965786248444,-0.011492284873127936
1684213742421555000,0.379554931640625,-0.5414800358176232,1.1444447601675987,0.07001461646854877
1684213742431579100,0.3895791015625,-0.6079927816450595,1.1058113703906536,0.19015081593394279
1684213742441603000,0.39960302734375,-0.6776900027275085,1.0860083532899618,0.12993278633654118
1684213742451628300,0.409628173828125,-0.560194161703065,-0.019836919370293617,-0.4748246666491031
1684213742461652000,0.41965185546875,-0.35602409970164295,-0.11210428417921066,-0.16544482922255993
1684213742471676200,0.42967626953125,-0.21287008580751715,0.1696849510103464,-0.0864566327035427
1684213742481701000,0.439701171875,-0.14904365645460785,0.2525081956475973,-0.029340076252818106
1684213742491725300,0.449725341796875,-0.12379596408195793,0.1739467001080513,-0.055204000827670095
1684213742501750300,0.459750244140625,-0.08082527575306594,0.3008399726182222,-0.17929565992057322
1684213742511774000,0.46977392578125,-0.00750401895456016,0.032523382464051245,-0.24872166284620761
1684213742521798100,0.479798095703125,0.11738258990831672,-0.6054717387348413,-0.6202110427051782
1684213742531823000,0.489822998046875,0.061239116273447865,-1.0895821201235056,-0.614293927615881
1684213742541847300,0.499847412109375,-0.0808135853152722,-1.19442430434525,-0.1238011517137289
1684213742551872300,0.509872314453125,-0.08748999433927238,-1.8197037363559005,0.02520633744895458
1684213742561896200,0.519896240234375,-0.07898308195248245,-3.001629793655872,-0.016124036327004432
1684213742571920100,0.529920166015625,-0.06447400654144585,-3.435010689282417,-0.37240181852877136
1684213742581945000,0.539945068359375,0.0015570932488888501,-3.282686038395762,-0.659587359803915
1684213742591969300,0.54996923828125,0.1347813954114914,-2.7882664444386958,-0.9795800689205527
1684213742601993000,0.559992919921875,0.004293897801637649,-2.6642940278112888,-1.3364648771047591
1684213742612018200,0.57001806640625,0.0078688336789608,-2.6826778257638213,-1.5310656581848858
1684213742622042000,0.5800419921875,0.3227659732222557,-1.9831471626281738,-1.2764146052896976
1684213742632067300,0.5900673828125,0.3331085035383701,-1.6758967384457588,-1.7566560362905264
1684213742642091000,0.600091064453125,0.173200777111575,-1.2127104871422052,-2.2954013864472507
1684213742652115200,0.610115234375,0.160764416321367,-1.569398603710532,-1.3150541325464844
1684213742662140200,0.62014013671875,0.30533896453790366,-1.9347300454616545,-0.764859459875524
1684213742672164000,0.6301640625,0.1829753713466227,-1.8389993884563445,-0.6513067304536699
1684213742682188000,0.64018798828125,-0.029906477963924406,-1.606605760076642,-0.6730427614435553
1684213742692213000,0.650212890625,-0.08488660690784454,-1.2866373086184262,-0.8507681033074855
1684213742702237200,0.6602373046875,-0.11906016773171722,-0.9451964455425739,-0.973618822428584
1684213742712262100,0.67026220703125,0.09548647298589348,-0.3163303872168064,-0.6742363551422953
1684213742722286300,0.680286376953125,0.06616203269362449,0.377410002079606,-0.45103433347791433
1684213742732310000,0.69031005859375,-0.18637597357034683,0.9023632659882307,-0.5190373178631067
1684213742742335000,0.7003349609375,-0.24187048177719114,1.4788275214254856,-0.21550416063815353
1684213742752359200,0.710359130859375,-0.8821510835647582,3.626071021276712,0.7774591214686631
1684213742762384100,0.720384033203125,-1.9123266366042195,13.93135326449275,8.003530903220176
1684213742772408300,0.730408203125,-0.5561386757671832,9.030419543543458,9.278900383371115
1684213742782432000,0.740431884765625,0.6417898373067379,1.327749655729532,5.44568649482727
1684213742792457200,0.750457275390625,-0.18047244861498474,4.704561254021525,2.724148484793305
1684213742802481200,0.760481201171875,-0.28061040066853166,1.9961165343165397,-1.8657114542931317
1684213742812505300,0.77050537109375,-0.043267479318380354,1.1387748978376389,-3.6113445767879484
1684213742822530300,0.7805302734375,0.05290054619088769,0.6927174759894609,-3.496388702569902
1684213742832554000,0.790553955078125,-0.2163688146434724,1.311906774431467,-2.6988193977475166
1684213742842579200,0.8005791015625,-0.16053192273974418,1.0664894138276577,-1.4662351663559674
1684213742852603100,0.81060302734375,0.022104279780387877,0.56224342238307,-0.9722545483380556
1684213742862627300,0.82062744140625,-0.11845350707545876,0.11070844590663909,-0.6820660258546472
1684213742872652000,0.830652099609375,-0.3182382666647434,-0.3768839323788881,-0.014469254857301711
1684213742882676200,0.84067626953125,-0.43060909282565113,-0.682340458881855,0.6037544134229421
1684213742892700200,0.8507001953125,-0.5276571160398423,-0.8657610897779464,1.0861425010636447
1684213742902725000,0.86072509765625,-0.2471533906161785,-0.7204594693958759,1.1940966798260808
1684213742912749000,0.8707490234375,0.27047829823270436,-0.4830307694584131,0.596673222990334
1684213742922774000,0.88077392578125,0.5779295056842267,-0.3071656685084104,-0.22717355564385652
1684213742932798200,0.890798095703125,0.7042191132128238,-0.2893663924455643,-0.6062877312928437
1684213742942822100,0.900822265625,0.8260241226732731,-0.41888825989365575,-0.5554021781861782
1684213742952847400,0.910847412109375,0.8219627184532582,-0.5889771155297756,-0.13808452861011028
1684213742962871000,0.92087109375,0.7360894385956227,-0.6920072818934917,0.2010273069962859
1684213742972896000,0.93089599609375,0.5247065956711768,-0.6425695895075798,0.7956105719700455
1684213742982920200,0.940920166015625,0.2462858140014112,-0.5065402398616076,1.146586740632355
1684213742992944000,0.950944091796875,-0.23237799241915344,-0.20840485002696513,1.0561097663715482
1684213743002969300,0.96096923828125,-0.7185366846397518,0.1675105295807123,1.046178739465773
1684213743012993000,0.970992919921875,-0.8211050787106156,0.30581776103079317,0.9796003810562193
1684213743023017200,0.981017333984375,-0.9059982614897191,0.33479309562444687,0.5248720153659582
1684213743033042200,0.991042236328125,-1.022247974910587,0.38540158535540103,0.23434257049039006
1684213743043066400,1.00106640625,-0.9410079078115522,0.2990098345816135,0.08737447820082306
1684213743053091000,1.011091064453125,-0.8048305279970168,0.12139467509388922,0.12253785377964377
1684213743063115000,1.021114990234375,-0.6455227402247488,-0.10036416202485561,0.32851942218244073
1684213743073139200,1.03113916015625,-0.5204221963502467,-0.22487784592211246,0.5460279083803296
1684213743083164200,1.0411640625,-0.40684930092319843,-0.23177169708907602,0.6807312701195478
1684213743093188000,1.05118798828125,-0.312724179418385,-0.19667291117906568,0.7767831219032406
1684213743103213000,1.061213134765625,-0.2768810048818588,-0.18865619346201418,0.8690078166142106
1684213743113237200,1.0712373046875,-0.2887761714674532,-0.2611784088373184,0.9358714217059314
1684213743123261200,1.08126123046875,-0.37269597916975616,-0.36477848404347896,0.9882106807522475
1684213743133286100,1.0912861328125,-0.5104666195251047,-0.3890408186405897,0.9789293499268591
1684213743143310000,1.10131005859375,-0.5880817741252482,-0.2916343373775482,0.9407644544444977
1684213743153334000,1.111333984375,-0.6027740240834653,-0.15809446645975112,0.8575257608741521
1684213743163359200,1.121359130859375,-0.6745265702605248,-0.0954676221549511,0.806298993114382
1684213743173383200,1.131383056640625,-0.8195126949526369,-0.09678338092863559,0.7720553627289831
1684213743183408400,1.141408447265625,-0.9804876852847635,-0.07271510759890079,0.5695731807492673
1684213743193432000,1.15143212890625,-0.9710266139782965,0.039241877064108845,0.3179305158898234
1684213743203456300,1.161456298828125,-1.0177287439204752,0.13438041339516638,0.15473609594255686
1684213743213481000,1.17148095703125,-1.1767441246174275,0.17717326093912122,-0.006571779605746269
1684213743223505000,1.1815048828125,-1.3577534565880893,0.12687164520025251,-0.23396643065437672
1684213743233529000,1.191529052734375,-1.460914409724623,0.05323533110320568,-0.3705528296612203
1684213743243554000,1.201553955078125,-1.4836862135030329,-0.03677168755829334,-0.33950215009823437
1684213743253578000,1.211577880859375,-1.498058583857119,-0.0479144283413887,-0.12886223449558018
1684213743263603000,1.22160302734375,-1.4647268076196311,0.02780044559538364,0.10566226843297481
1684213743273627100,1.231627197265625,-1.3672726878225803,0.09101473439931869,0.2827726932689547
1684213743283651000,1.241651123046875,-1.5084244950488208,0.08845335947871208,0.24266835415661334
1684213743293676000,1.251676025390625,-1.8217866801097988,0.11352642593681811,0.1558949105888605
1684213743303700000,1.261699951171875,-2.0136101054310798,0.18324995050430296,-0.0034093700520694253
1684213743313724200,1.27172412109375,-2.0575781342342494,0.22395313229262828,-0.2106863850928843
1684213743323749000,1.2817490234375,-1.9426795431613921,0.03172317199707031,-0.2552085406474769
1684213743333773000,1.29177294921875,-1.6030498211607336,-0.2728255920112133,-0.05349018264710903
1684213743343798000,1.301798095703125,-1.2868550430223344,-0.4856973583191633,0.27041268565058707
1684213743353822000,1.311822021484375,-1.068933592109382,-0.6007821196138858,1.0146494826056063
1684213743363846100,1.32184619140625,-0.7620343194521964,-0.48657472567558285,2.0720045728631318
1684213743373871000,1.33187109375,-0.3095581166028976,-0.2733341260552406,3.3727824889063833
1684213743383895000,1.34189501953125,0.38914047962278125,0.3159381730288267,4.634687799589336
1684213743393919000,1.3519189453125,1.2692097884774207,0.9516910682588815,5.665448020648956
1684213743403944000,1.36194384765625,1.9178665889441966,1.4125006535589695,5.9861734279543155
1684213743413968100,1.371968017578125,2.2686519112095236,1.8644313513547182,5.539342683646082
1684213743423993000,1.3819931640625,1.8692809833429753,2.2904244748175144,4.000509898591042
1684213743434017000,1.39201708984375,1.7187889547109603,2.3022540288209914,2.4164890414185822
1684213743444041000,1.402041015625,1.6415337194643913,2.0365426527291537,0.5524544342964888
1684213743454066000,1.41206591796875,1.1606477069497108,1.6183651714533567,-0.8751397434979676
1684213743464090000,1.422090087890625,0.2698268485866487,1.2451923685520887,-1.2962785587973893
1684213743474115000,1.432114990234375,-0.8697102657951414,0.7339584179162979,-1.3427785902962088
1684213743484139000,1.442138916015625,-2.0665910233817995,0.33311201066970825,-1.1572919667810202
1684213743494163000,1.452162841796875,-3.06608852956295,0.01190086567401886,-0.960974152649939
1684213743504188200,1.462188232421875,-3.6693478529453274,-0.22450725904405117,-0.6872194630950689
1684213743514212000,1.472212158203125,-3.5655554700374603,-0.20666239027380942,-0.09074731563478708
1684213743524236000,1.482236083984375,-2.9372996525645254,0.029418986707925796,0.4479372442454099
1684213743534261000,1.492260986328125,-2.0947288842380045,0.26059797860085965,0.8757695658341049
1684213743544285200,1.50228515625,-1.43881465998888,0.5164268431037664,1.0454995250299572
1684213743554310100,1.51231005859375,-0.515987940229848,0.7111825224846601,1.1505842858359216
1684213743564333800,1.522333740234375,-0.17056465645432473,1.0226227995723485,0.8290881864190102
1684213743574358000,1.53235791015625,0.05754033482074737,1.1808522905886172,0.27610475981235505
1684213743584383000,1.542383056640625,0.5243383103480562,1.2704250094860792,-0.19144933131188152
1684213743594407200,1.5524072265625,0.7415233002126217,1.418733994990587,-0.23616467135101554
1684213743604430800,1.562430908203125,0.4499474150240421,1.5635972239553928,-0.1964806034773588
1684213743614456000,1.5724560546875,0.8445838617146014,1.7284645455509424,0.15716215404570102
1684213743624480000,1.58247998046875,0.5637544114679098,1.9440145911574362,0.12488485529720783
1684213743634505000,1.5925048828125,0.12594985418021679,1.8893617944717407,0.29765871223360296
1684213743644529200,1.602529052734375,0.43670273352563377,1.869366469669342,0.5154442618072033
1684213743654552800,1.612552734375,1.2097082365863026,1.7201204955756664,0.8567194129273294
1684213743664578000,1.622578125,1.6049631074361501,1.4534692082852125,0.8820771415457129
1684213743674602000,1.63260205078125,1.2876527692712842,1.1540186441987752,0.594979863075912
1684213743684626200,1.642626220703125,2.0655818463392555,1.1764765597224234,0.49386049876958127
1684213743694651100,1.652651123046875,2.7623101654052733,1.2675719581425189,0.8588888659209013
1684213743704675000,1.662675048828125,3.004798486819863,1.2364964363992212,0.8009165694236755
1684213743714700000,1.672699951171875,3.1821213853627444,1.1783505369007587,0.721904699768126
1684213743724724000,1.682723876953125,3.4616531970143316,1.076391799160838,0.9524632216751575
1684213743734748200,1.692748046875,3.375621219463646,1.2104665076076984,1.0044581973284483
1684213743744772900,1.70277294921875,2.9614184870377183,1.2731471279263495,1.2225146727979181
1684213743754797000,1.712797119140625,2.3596935336157676,0.9717916070014238,1.1818822181582451
1684213743764822000,1.722822021484375,2.035083393831551,0.6726935096144676,0.8457759941086173
1684213743774846000,1.732845947265625,2.1227061477050184,0.4217570933282375,0.5812649337172507
1684213743784870100,1.7428701171875,2.502142394915223,0.2018967833071947,0.19158786299973726
1684213743794894800,1.752894775390625,2.6969676324009892,-0.10543781202733517,-0.38892683687210083
1684213743804919000,1.7629189453125,2.5764009325638413,-0.5341571455836296,-0.7263350834310054
1684213743814943000,1.77294287109375,2.298110645405948,-0.8699223011106252,-1.0832976330265403
1684213743824968200,1.78296826171875,2.0529393685176966,-0.8249737368375063,-1.3580790352806449
1684213743834991900,1.792991943359375,2.0441186409413814,-0.7795961334973573,-1.4334016950294375
1684213743845016800,1.803016845703125,2.146532721233368,-0.6894073285281658,-1.5660525081530212
1684213743855041000,1.813041015625,2.4260808994978666,-0.48682256295681,-1.599408542048931
1684213743865065200,1.823065185546875,2.6999682755216954,-0.3373918799459934,-1.7353350158423184
1684213743875090200,1.833090087890625,2.7947736343756318,-0.3131476655274629,-1.8437062509730457
1684213743885113900,1.84311376953125,2.6846713376685973,-0.3839513865470886,-1.9532155502229929
1684213743895138000,1.853137939453125,2.553633220438659,-0.5983826572567225,-2.139984322503209
1684213743905163000,1.8631630859375,2.2916098852097986,-0.6335960094571114,-2.4634952688738703
1684213743915187200,1.873187255859375,2.114758111310005,-0.7113759992301464,-2.5236472474977374
1684213743925212200,1.883212158203125,2.0762918947935103,-1.111694583210349,-2.369202827978134
1684213743935236000,1.893236083984375,1.8916715327188371,-1.4588807119399307,-2.4508950227588415
1684213743945260000,1.903260009765625,1.667733013473451,-1.6525304759055375,-2.456319093634188
1684213743955285000,1.913284912109375,1.5270023542687297,-1.8496055381447076,-2.5101550209790466
1684213743965309200,1.92330908203125,1.3698062979534267,-2.0503081432312724,-2.627422387009859
1684213743975332900,1.933332763671875,1.3827633946821092,-2.131619229739904,-2.6823855648189783
1684213743985358000,1.943358154296875,1.2553405453398823,-1.834602614802122,-2.5855168436944482
1684213743995382000,1.953382080078125,1.3010656469434498,-1.7196581387609242,-2.469778879188001
1684213744005407000,1.963406982421875,1.3200748833179472,-1.6726339372575283,-2.3963562078416345
1684213744015431000,1.973430908203125,1.253822834253311,-1.578395564636588,-2.2851497492849826
1684213744025455000,1.983455078125,1.028791259074211,-1.2550737110972403,-2.1951146735727787
1684213744035480000,1.99347998046875,0.9231196382910013,-1.0579349359720944,-2.095490808521211
1684213744045504000,2.00350390625,0.5809665352925658,-0.7350216632336377,-2.0165625254958868
1684213744055529200,2.013529296875,0.4247694268867373,-0.6007359423846006,-1.814910364599526
1684213744065553000,2.023552978515625,0.17714286580085753,-0.2510965752840042,-1.569221785838902
1684213744075577000,2.0335771484375,-0.07064005489051342,0.06554653114378452,-1.2107009008854628
1684213744085602000,2.04360205078125,-0.34922260299324986,0.6109574766695499,-0.5813920672282576
1684213744095626200,2.053626220703125,-0.43047289922535414,0.6970528748452663,-0.006367196944355964
1684213744105650000,2.06364990234375,-0.8468804482191801,0.9413222344577312,0.2892275684967637
1684213744115675000,2.0736748046875,-0.9771373519435524,0.7984685917496681,0.38587913973927496
1684213744125699000,2.083698974609375,-1.1171586938351392,0.5839794533729553,0.7266779055193067
1684213744135724000,2.09372412109375,-1.3722877395056188,0.3817202664941549,0.9177724320441484
1684213744145748200,2.103748291015625,-1.623347636041045,0.25178689563572404,1.1204530592054127
1684213744155772000,2.11377197265625,-1.2538975069247185,-0.03485387123823166,1.1169535266518593
1684213744165797000,2.123797119140625,-1.087608189702034,-0.21845219678878783,1.0220108051538468
1684213744175821000,2.133821044921875,-0.863480139233917,-0.17892741113007068,1.0953823308348656
1684213744185845200,2.14384521484375,-0.5901029046893119,-0.11344167026281356,1.1719628816902636
1684213744195870000,2.153869873046875,-0.3777013862416148,0.09012216947376728,1.5036565499946475
1684213744205894000,2.163893798828125,-0.006051993515342474,0.2909767502516508,1.8024585870444774
1684213744215920000,2.173920166015625,0.28055063330531116,0.06742401545345783,1.8315186773121357
1684213744225944000,2.183944091796875,0.5503758744567633,-0.14445055651068686,1.6250816202268004
1684213744235968000,2.193968017578125,1.234823096359521,-0.24530337883532047,1.2828095670238135
1684213744245993200,2.2039931640625,1.9924650260716676,-0.48951603982448577,0.6902762203171848
1684213744256017200,2.21401708984375,2.072052211397141,-0.6912433117836714,-0.26047610578686
1684213744266041000,2.224041015625,1.3694101382426918,-0.7129127072781324,-1.0673887007549405
1684213744276066000,2.234066162109375,0.5564870508134365,-0.7302092945158482,-1.5426371457740664
1684213744286090200,2.24409033203125,0.7536135509788989,-0.8649468507856131,-1.4367100889250635
1684213744296115200,2.254115234375,1.2560431406512855,-0.7984528096586465,-0.8295131338328122
1684213744306139100,2.26413916015625,0.9654663495026529,-0.5808651207447052,-0.2407008534759283
1684213744316163000,2.2741630859375,0.5033960235517472,-0.4118792579144239,0.2612818692117929
1684213744326188000,2.28418798828125,-0.24229484466910362,-0.15117372728586195,0.6362962083265185
1684213744336212200,2.294212158203125,-0.8328904282461851,0.08261457032263278,0.6276560980141163
1684213744346236200,2.304236083984375,-0.9819260475248098,0.43334465526938437,0.5537614252418279
1684213744356261400,2.314261474609375,-1.0523077437400816,0.7243050389081239,0.21099486652016639
1684213744366285000,2.32428515625,-1.0691583407759666,0.7928367233425379,-0.2866445662662387
1684213744376310000,2.33431005859375,-1.1579489693850278,0.5289736054658889,-0.45154345204383134
1684213744386334200,2.344334228515625,-1.2288830387860536,0.07089666000008582,-0.21572306408584116
1684213744396358100,2.354358154296875,-1.3692840276449918,-0.24973931545615194,0.16532646353989838
1684213744406383000,2.364383056640625,-1.4368904139280319,-0.4872597853302955,0.5630041776224971
1684213744416407000,2.374406982421875,-1.2001450200796127,-0.7505021409600973,0.8680012699201702
1684213744426431200,2.38443115234375,-0.5918208145231009,-0.9364175112813711,0.985668741184473
1684213744436456200,2.394456298828125,-0.007047580423951149,-1.2462240496873855,0.9488467847436666
1684213744446480100,2.404480224609375,0.5257505517661571,-1.4482599492043255,0.9536275892794132
1684213744456505000,2.414505126953125,0.9877426248490809,-1.6320792240291833,1.0504752676159144
1684213744466529000,2.424529052734375,1.215295827460289,-1.6907295659184456,1.3534832319229841
1684213744476553200,2.43455322265625,0.9922983884572982,-1.5277134251475333,1.7187994761049747
1684213744486578200,2.444578125,0.4535550841271877,-1.0530191068798302,2.2320713623091577
1684213744496602000,2.45460205078125,-0.18915711045516653,-0.3374666987478733,2.716127090901136
1684213744506626000,2.4646259765625,-1.0573159272909163,0.6132862118780612,2.970213787911832
1684213744516651300,2.4746513671875,-1.7387503772437571,1.7575456786066292,3.2053374257773157
1684213744526675200,2.48467529296875,-1.9612731844723224,2.9004882175177333,3.3632007138296958
1684213744536700200,2.4947001953125,-1.7616168735682964,4.003625400263071,3.485074989134073
1684213744546724000,2.50472412109375,-1.2192097860336304,4.419140384331345,3.4061832387268542
1684213744556748000,2.514748046875,-0.37292496562004085,4.051747333875298,3.040617988219857
1684213744566773200,2.524773193359375,0.6417535969495773,3.269898453015089,2.417273323664069
1684213744576797200,2.534797119140625,1.6135013648092746,1.9101690201789139,1.6698326161012051
1684213744586822100,2.544822265625,2.2581822473824023,0.28522797746658324,0.6406900593712925
1684213744596846000,2.55484619140625,2.0877298191308973,-1.074325514280796,-0.5056619957223534
1684213744606870300,2.564870361328125,1.3996762432992458,-1.546001946032047,-1.7551897631302475
1684213744616895200,2.574895263671875,0.44172322856876994,-1.7622271144211292,-2.627799111367762
1684213744626919200,2.584919189453125,-0.22802312167789784,-1.8325760774105786,-2.4546213498055933
1684213744636943000,2.594943115234375,-0.7306441788017749,-1.6668682133376598,-2.113863208296895
1684213744646968000,2.604968017578125,-1.0817080257475375,-1.7718185341089963,-1.8040891108557582
1684213744656992300,2.6149921875,-1.3078548686921596,-1.8915087433725595,-1.5684543085977434
1684213744667017200,2.625017333984375,-1.7889187219917773,-1.5448399165153504,-1.4964552403137088
1684213744677041200,2.635041259765625,-2.3267653697431085,-0.6748743607848883,-1.2393886507093905
1684213744687065000,2.645065185546875,-2.426998014342785,0.6406435898810625,-0.7322749948740005
1684213744697090000,2.655090087890625,-2.2667735501170156,2.1666695003330707,-0.2638321382164955
1684213744707114200,2.6651142578125,-1.7810872977137564,3.5818303130120035,0.21442454870790242
1684213744717138200,2.67513818359375,-1.049535940939188,4.56184205134809,0.40170506990253924
1684213744727163100,2.6851630859375,-0.10524079161789268,4.3692660540938375,0.2839329692199826
1684213744737187000,2.69518701171875,0.7473416311025619,3.309544819226861,0.22401567613482473
1684213744747212300,2.70521240234375,1.4176011915683746,1.8638760555595157,-0.04242167614400386
1684213744757236200,2.715236328125,1.6335352680563926,0.37604163633584975,-0.634926381278038
1684213744767260200,2.72526025390625,1.822550942480564,-0.38454584530889985,-1.3433628199249505
1684213744777285000,2.73528515625,1.6170108342349527,-0.554449407505989,-1.7497540018171072
1684213744787309000,2.74530908203125,0.9695546417295933,-0.506524457770586,-1.7439716190233825
1684213744797333200,2.755333251953125,0.3215583509981632,-0.3877455181330442,-1.4633277544766663
1684213744807358200,2.765358154296875,-0.03649407619331032,-0.4043640599787235,-1.1780842871800064
1684213744817382100,2.775382080078125,-0.1559036418845877,-0.5627168851137161,-0.7918070880338549
1684213744827407000,2.785406982421875,-0.44324177990555763,-0.6808516816288233,-0.613620558398962
1684213744837431300,2.795431396484375,-0.4510100758194923,-0.9245914644092321,-0.562461741308868
1684213744847455200,2.805455322265625,-0.1340004741668701,-0.9922294148743152,-0.46964580270648
1684213744857480000,2.81547998046875,-0.05516838152501732,-0.9955892466962337,-0.5276347580775618
1684213744867504000,2.825504150390625,0.06735211926102638,-0.9956506214946508,-0.5118409766182304
1684213744877529000,2.835529052734375,0.21843469766471535,-0.8116384544461965,-0.6485927953198551
1684213744887553300,2.84555322265625,0.1965629479985684,-0.6754711576342582,-0.4873416183948517
1684213744897577000,2.855576904296875,-0.04684245172832161,-0.26643092253804207,-0.40781741530299187
1684213744907602200,2.865602294921875,0.002698116510175168,0.2503127314299345,-0.4428410901501775
1684213744917626000,2.875626220703125,0.23263733747508375,0.6527636512637138,-0.35052053384929893
1684213744927650300,2.885650390625,0.48891164419054983,1.0026157843321561,-0.5402294512346386
1684213744937675300,2.89567529296875,0.46369069369435306,1.157187921884656,-0.5130348625779152
1684213744947699000,2.905698974609375,0.16673728018589318,0.9930401467353105,-0.5929468959435821
1684213744957724200,2.91572412109375,-0.2220961793143302,0.7143851179182529,-0.7227361821562052
1684213744967748000,2.925748046875,-0.4610908499268815,0.4042243592470884,-0.7929422295436263
1684213744977772300,2.935772216796875,-0.4764380201298743,0.1580471201866865,-0.9413196041092275
1684213744987797200,2.94579736328125,-0.4286276001522317,-0.034409634602069854,-1.1020037948012351
1684213744997821200,2.9558212890625,-0.4453144945263862,-0.035711949372291565,-1.159873507706821
1684213745007845000,2.96584521484375,-0.5926140107274055,0.06824059253334999,-1.3091349716305731
1684213745017870000,2.9758701171875,-0.5870704051256179,0.16961890003681182,-1.371915252931416
1684213745027894300,2.985894287109375,-0.4392155931293964,0.2501975806176662,-1.2376318701699376
1684213745037919000,2.9959189453125,-0.1753624121248722,0.24787585967183112,-1.0159127805396915
1684213745047943200,3.005943115234375,0.18876191885881125,0.12016191842854022,-0.8571937524408102
1684213745057967000,3.015967041015625,0.41983628133349116,0.05211071098744869,-0.6004866437986492
1684213745067992300,3.025992431640625,0.4596317006271332,-0.1278705931097269,-0.2906546786904335
1684213745078016000,3.03601611328125,0.4068634025137871,-0.23923896422982213,0.06822685626894236
1684213745088040200,3.046040283203125,0.3074165014643222,-0.11542962920963763,0.4145648437365889
1684213745098065200,3.056065185546875,0.32051088777184483,-0.24856384193599224,0.8968389496088027
1684213745108089000,3.066089111328125,0.39568274087309835,-0.1534983708411455,1.060697970944643
1684213745118114300,3.0761142578125,0.36191257321834563,-0.05974748947620392,1.1196230381220578
1684213745128138000,3.086137939453125,0.21676519354991614,0.08658581204116345,1.0336091807499528
1684213745138162200,3.096162109375,0.07106376019529997,0.15309680430293082,0.8289128298521041
1684213745148187100,3.106187255859375,-0.0731506494719535,0.10848960081338882,0.6204755388602614
1684213745158211300,3.11621142578125,-0.20229725386686623,0.023848493099212643,0.36499183453321454
1684213745168236300,3.126236328125,-0.3112053723532706,0.03768237266242504,0.18910539853423833
1684213745178260000,3.136260009765625,-0.3442588431060314,0.029262919363379478,-0.009653671269118785
1684213745188284200,3.1462841796875,-0.18835406871028243,0.04630523957908153,-0.14948299771994353
1684213745198309000,3.15630908203125,-0.037926118290424346,0.046847091370821,-0.2615489957153797
1684213745208333300,3.166333251953125,-0.038605405791476366,-0.22504852631390093,-0.23832068034112452
1684213745218356200,3.176356201171875,-0.14061616597957907,-0.37268180451393124,-0.4212850919023156
1684213745228381200,3.186381103515625,-0.2491455873467028,-0.39341245785355566,-0.575518499019742
1684213745238405000,3.196405029296875,-0.3955168097216636,-0.23386136284470557,-0.6235916250541805
1684213745248430300,3.206430419921875,-0.4376736974496394,-0.012124153035879135,-0.6324246275901794
1684213745258454000,3.2164541015625,-0.4645874233383685,0.17561375653743744,-0.4953825937703252
1684213745268478200,3.226478271484375,-0.33492059446163475,0.2772135978370905,-0.25029957968741656
1684213745278503200,3.236503173828125,0.06141330379657447,0.16834698040485382,0.042322307422757145
1684213745288527400,3.24652734375,0.3023661592721939,-0.10619009169936179,0.489729974836111
1684213745298551000,3.256551025390625,0.1809819325070828,-0.4793535422503948,1.0091384640991687
1684213745308576000,3.266575927734375,-0.0016250439185649156,-0.7785626987963914,1.507592720399797
1684213745318600200,3.27660009765625,0.04675948615260422,-0.8597451904892921,1.8815145881026982
1684213745328625200,3.286625244140625,0.1364401954691857,-0.7499135274171829,2.1234838540792462
1684213745338649000,3.296649169921875,0.15533552314043045,-0.5329138675242662,2.317271272949874
1684213745348673000,3.306673095703125,0.09883556421808898,-0.3289917158693075,2.275959603874385
1684213745358698200,3.3166982421875,-0.145002345174551,-0.3115560124218464,2.0048241569072007
1684213745368722200,3.32672216796875,-0.44559265388064084,-0.4953010529667139,1.357569624453783
1684213745378746400,3.336746337890625,-0.7955471513450145,-0.6176268714308738,0.5220137033253908
1684213745388771000,3.34677099609375,-1.0058780740637332,-0.7464525733083486,-0.22671119882911442
1684213745398795000,3.356794921875,-1.207923910452798,-0.7148948210060596,-0.6146174604818224
1684213745408820200,3.3668203125,-1.5932370138071477,-0.6122492700457572,-0.8030597189322114
1684213745418844200,3.37684423828125,-1.7660509104929862,-0.5158370605170727,-0.7709332268312573
1684213745428868000,3.3868681640625,-1.6699262857340276,-0.4684644839674234,-0.6518818999931216
1684213745438893000,3.39689306640625,-1.4180080188035964,-0.4916577280282974,-0.16335516346693038
1684213745448917200,3.406917236328125,-1.0229287237163633,-0.46891515034437176,0.4263955667838454
1684213745458941200,3.416941162109375,-0.8576911805689335,-0.3414326797693968,0.7948989165693521
1684213745468966100,3.426966064453125,-0.8860897381879389,-0.12953706501722334,0.8651409120529889
1684213745478990000,3.436989990234375,-0.9388275680977851,0.13102818035781383,0.6145534553349018
1684213745489015000,3.44701513671875,-1.2491174330413342,0.4417968417942524,0.20959727468192577
1684213745499039200,3.457039306640625,-1.6549159097373485,0.7041454634547233,-0.26493951493650675
1684213745509063200,3.467063232421875,-2.0477051211260258,0.7554419354498386,-0.746298844051361
1684213745519088400,3.47708837890625,-2.310655800332874,0.581113542547822,-1.1620473446145654
1684213745529112000,3.487112060546875,-2.1918413509905337,0.44128187800943847,-1.3507818640097975
1684213745539137000,3.497136962890625,-1.7307283988296984,0.5327905334055424,-1.1495111036464571
1684213745549161200,3.5071611328125,-1.1164261417768895,0.8253419856280088,-0.7233265492647886
1684213745559185200,3.51718505859375,-0.4520902722716331,1.2459826421469449,-0.012195026315003632
1684213745569210000,3.527210205078125,0.3093548491157591,1.5032120210975408,0.8069830298557877
1684213745579234000,3.537234130859375,0.6200340787030756,1.6285580641657114,1.566918915724009
1684213745589258200,3.54725830078125,0.1639513757944107,1.9574258613944053,2.090390270511806
1684213745599283200,3.557283203125,-0.5346199407897889,2.118208544024825,1.8578434973970055
1684213745609307100,3.56730712890625,-0.9291958894647657,1.8322236107110976,0.9412284186944365
1684213745619332000,3.57733203125,-1.1249369266211986,1.340172499451041,-0.24960560607388615
1684213745629356000,3.58735595703125,-1.1770575744807719,0.7328922499895095,-1.4295052721127868
1684213745639380200,3.597380126953125,-1.3794704906165598,0.4098264170378446,-2.1460621811121703
1684213745649405200,3.6074052734375,-1.6342179896235465,0.4527800081014633,-2.1471499763488766
1684213745659429000,3.61742919921875,-1.6727312601521611,0.9466320313036442,-1.5463145191125571
1684213745669453000,3.627453125,-1.5066484252870083,1.5524164892494678,-0.6589978694781661
1684213745679478300,3.637478271484375,-0.8667756736479699,1.8379712144523859,0.1254375207439065
1684213745689502200,3.647502197265625,-0.2421348318018019,1.3980629628837107,0.9078884591504931
1684213745699527200,3.657527099609375,0.39483620704635974,0.6955085680127143,1.8467684150226413
1684213745709551000,3.667551025390625,0.7872527857303618,0.11675006415843962,2.540400813899934
1684213745719575000,3.677574951171875,1.0997522164821625,-0.26959377048313615,2.7102400786891576
1684213745729600300,3.687600341796875,0.9861527253091334,-0.3503852170318365,2.3425766868591307
1684213745739624200,3.697624267578125,0.6757376265507191,-0.2373807691425085,1.870155281959474
1684213745749649200,3.707649169921875,0.30304646968655286,0.062276131170988076,1.316630880343914
1684213745759673000,3.717673095703125,-0.054062648772820826,0.35317630905508995,0.8631538298889994
1684213745769697300,3.727697265625,-0.61608607172966,0.7084744325697422,0.4599953463077545
1684213745779722200,3.73772216796875,-1.029780343176797,0.9819050047367811,0.08189210126698017
1684213745789746000,3.747745849609375,-1.1990613164961337,0.9801385795861483,-0.44027766940295693
1684213745799770000,3.75777001953125,-1.3302794664680957,0.7635802337199449,-0.22992256209105252
1684213745809795000,3.767795166015625,-1.5768471661508083,0.6085054073423147,-0.14223960246294737
1684213745819819300,3.7778193359375,-1.2413900536596774,0.26593583249747754,-0.11088643282204866
1684213745829844200,3.78784423828125,0.11160976952738128,-0.13701076189875602,0.47287382484227414
1684213745839868200,3.7978681640625,0.8162807272940874,-0.28410218830704687,0.9286942235529422
1684213745849892000,3.80789208984375,1.064401501637697,-0.5130103126585484,0.9865642287194728
1684213745859917000,3.8179169921875,1.6075579462349414,-0.5015706347554921,1.039763027204573
1684213745869941200,3.827941162109375,1.9841466950595377,-0.432825015309453,0.9680725864782929
1684213745879965200,3.837965087890625,1.9659639726370572,-0.694147801053524,1.0666142092511057
1684213745889990100,3.847990234375,1.6303572225421665,-0.8417834173411131,0.8162450714588165
1684213745900014000,3.85801416015625,1.5736159291446208,-1.1677987477481364,1.024984560267627
1684213745910039300,3.868039306640625,1.6353122146010397,-0.9947440280437468,0.7451172330513596
1684213745920063200,3.878063232421875,1.7697877589337527,-0.3420616253226995,-0.23521453101933001
1684213745930087200,3.888087158203125,3.016557313674688,0.42965456857979295,-1.3367027775138616
1684213745940112100,3.898112060546875,4.39011127372384,0.9722831899106502,-1.884896047234535
1684213745950136000,3.908135986328125,4.582987715229391,1.106802719515562,-1.8081386785075066
1684213745960160300,3.91816015625,3.360570657587051,1.425972129550576,-0.9616647652626037
1684213745970185000,3.92818505859375,2.496670100983977,1.7181752067267895,0.6667202804237604
1684213745980209200,3.938209228515625,0.9159050307370722,1.7790712817162275,1.38949474876374
1684213745990234000,3.948234130859375,0.0020984335839748383,1.4993074148744343,1.1304784863963722
1684213746000258300,3.95825830078125,0.29459216426983476,0.8056435979455709,0.14697306072562932
1684213746010282000,3.968281982421875,1.027080948024988,0.013497779476642607,-1.2413716412201523
1684213746020307000,3.978306884765625,1.7209471556581555,-0.5958481703430414,-2.0024965907424686
1684213746030331100,3.9883310546875,1.8051175771206616,-0.6706196259498596,-2.308144255903363
1684213746040356000,3.998356201171875,1.7840439555622636,-0.6812421422511339,-2.438220542363822
1684213746050380300,4.00838037109375,1.7067779066607356,-0.8675725231140852,-2.4165613760024307
1684213746060404000,4.018404052734375,1.6707121754147112,-0.7326695471495389,-2.1860990079462526
1684213746070429200,4.02842919921875,1.6467138985812664,-0.5902542958587408,-2.0329215396225453
1684213746080453000,4.038453125,1.6672354392148554,-0.6926987712889909,-1.9762904286012053
1684213746090477300,4.048477294921875,1.4963241612799465,-0.9132856420189142,-1.9264213590607047
1684213746100502300,4.058502197265625,1.2791104202449322,-1.1228747333943843,-1.8910493091672658
1684213746110526200,4.068526123046875,1.1477905634641647,-1.335747084224224,-2.003825793519616
1684213746120551200,4.07855126953125,0.968448287922889,-1.495031637251377,-2.1562316929489374
1684213746130575000,4.0885751953125,0.8136382499612868,-1.686481845346093,-2.3830060201421377
1684213746140599300,4.098599365234375,0.6853497237004339,-1.862342854642868,-2.600383865697682
1684213746150624000,4.1086240234375,0.5687397986650466,-1.913919312623143,-2.6976392480522393
1684213746160648200,4.118648193359375,0.3536808975763619,-1.8029829031795261,-2.610646024253964
1684213746170672000,4.128672119140625,0.09748071554303168,-1.4692735111385582,-2.4262939577266573
1684213746180697000,4.138697021484375,-0.12188333539366722,-0.9737731362074613,-2.096802183380723
1684213746190721000,4.148720947265625,-0.3623369361102581,-0.39890053387582297,-1.7763135074406862
1684213746200746000,4.15874609375,-0.5609533825725317,0.11483517044782637,-1.464415549713373
1684213746210770200,4.168770263671875,-0.6913683994680643,0.5952244854867458,-1.0525289852753281
1684213746220793900,4.1787939453125,-0.9006330811947584,1.0151122778117656,-0.5751151789158583
1684213746230819000,4.188819091796875,-0.9398544999927282,1.2608470338016748,0.03459054412692785
1684213746240843000,4.198843017578125,-1.00847839275524,1.49439217030406,0.6128095342770219
1684213746250868000,4.208867919921875,-0.973059434980154,1.4567103821635246,1.2612225891157984
1684213746260892000,4.218891845703125,-0.9189857533566653,1.1184452265143394,2.0206734679460525
1684213746270916000,4.228916015625,-0.7711573909759522,0.7322340783417225,2.725004809361696
1684213746280941000,4.238941162109375,-0.5898562364518642,0.2970686373859644,3.412932712987065
1684213746290964700,4.24896484375,-0.3588508475601673,-0.21297698024809358,3.998094069620967
1684213746300989000,4.258989013671875,-0.0751502257913351,-0.8658060979634523,4.257719403797388
1684213746311014000,4.269013916015625,0.14373364041298628,-1.579126801520586,4.221518794125318
1684213746321038000,4.2790380859375,0.2905157086111605,-2.0224960071980953,4.050806253632903
1684213746331063000,4.28906298828125,0.4281669603705406,-1.9638778140127657,3.9169124547109004
1684213746341087000,4.2990869140625,0.4261135349720716,-1.631290703999996,3.708064829352498
1684213746351111000,4.30911083984375,0.3217740395754575,-1.3758248275905847,3.5240298659503457
1684213746361135900,4.319135986328125,0.3183598472177982,-1.2657044107049702,3.3838094943553205
1684213746371160000,4.32916015625,0.5899796436358243,-1.2401783397823571,3.2850735180541872
1684213746381185000,4.33918505859375,1.2584037323027848,-1.444702548983693,3.190614780680835
1684213746391209000,4.349208984375,2.2433283771216868,-1.7287211506605147,3.2432202894479034
1684213746401233000,4.35923291015625,3.647668520578742,-2.0125404303729533,3.6363261655703183
1684213746411257900,4.3692578125,4.254093614515662,-2.2800345982283354,4.035916727536916
1684213746421282000,4.379281982421875,3.469091822582483,-2.5902467948257923,3.269872441790998
1684213746431306800,4.389306640625,2.1034324151754378,-2.946322916975617,1.0514061187252401
1684213746441331000,4.3993310546875,0.7440098563313484,-3.0488048018068072,-1.4149766882836818
1684213746451355000,4.40935498046875,-0.01086860001683235,-2.9157325484007597,-3.1123131051212547
1684213746461380000,4.419380126953125,-0.48683998901564624,-2.498351185938716,-3.7704330227211114
1684213746471403800,4.42940380859375,-1.1444546970397234,-1.6367881323724984,-3.7795194154962894
1684213746481428000,4.439427978515625,-2.452359250092506,-0.8798287780970334,-3.995336879867315
1684213746491453000,4.449452880859375,-3.2853865295261144,-0.5499228699922561,-4.409874835596979
1684213746501477000,4.45947705078125,-3.6064223179548978,-0.33032793290913104,-4.6047292991772295
1684213746511502000,4.469502197265625,-3.547081071192026,-0.3039683337718248,-4.6436587492913
1684213746521525800,4.47952587890625,-3.033984249293804,-0.658052405321598,-4.425381616808473
1684213746531550000,4.489550048828125,-2.480415131753683,-0.6722235540151595,-3.6326240961819884
1684213746541575000,4.499574951171875,-2.1205349411457775,0.0957984615445137,-2.777121073307097
1684213746551599000,4.50959912109375,-2.1566502106219527,1.7422060706555842,-1.9428090147599577
1684213746561624000,4.5196240234375,-2.2087907322257756,4.049651238378882,-0.7170546293884515
1684213746571648000,4.52964794921875,-2.233900039041042,6.17602379963696,0.890253141477704
1684213746581672000,4.539671875,-2.3881167872846123,7.469709273201227,2.0147332642421123
1684213746591697000,4.54969677734375,-2.237290850523114,7.427020470553636,2.975845071797073
1684213746601721000,4.55972119140625,-0.8286866198807954,5.90492722337544,4.073103133375943
1684213746611744800,4.569744873046875,1.4786246923297643,3.242971283122897,4.923225632256269
1684213746621770000,4.57977001953125,3.821641524171829,0.16204641895592212,5.188082437345385
1684213746631794000,4.5897939453125,5.234707994920015,-2.049434283006191,4.866849080517888
1684213746641819000,4.59981884765625,5.029913152083754,-3.062819298633933,4.241963323999941
1684213746651842800,4.6098427734375,3.345960532954335,-3.3929993475049733,2.546053725095093
1684213746661867000,4.619866943359375,1.6836176880866287,-3.136684160789847,0.8828869966238737
1684213746671892000,4.62989208984375,0.5059697464972734,-2.298347669032216,-0.01647387267798185
1684213746681916000,4.639916015625,-0.1647790587902069,-1.396984519997239,-0.5356392008349299
1684213746691941000,4.649941162109375,-0.6846171716421842,-0.4568512030631304,-1.0343535693764685
1684213746701964800,4.65996484375,-1.3059896593421696,0.5734457843989134,-1.6476941417902706
1684213746711989000,4.669989013671875,-1.7041875979065895,1.6636784773856401,-2.499023386111855
1684213746722014000,4.680013916015625,-1.8774480693161486,2.3689415466934443,-3.212993493488431
1684213746732038100,4.6900380859375,-1.9826701927661894,2.683784910222888,-3.546297227337956
1684213746742061800,4.700061767578125,-1.7288690346986055,2.4412211854845283,-3.5836490528717633
1684213746752086800,4.710086669921875,-1.1674258227825165,1.54536247908473,-3.3751676304772493
1684213746762111000,4.720111083984375,-0.35456922471821306,0.37770167850255965,-2.828639663620293
1684213746772136000,4.730135986328125,0.525581040418148,-0.5322907671898603,-1.7014888603419065
1684213746782160100,4.74016015625,1.2539958527326582,-1.0713912143945694,-0.6220639770954847
1684213746792183800,4.750183837890625,1.8492986641526221,-1.306738431882858,0.26463380998820063
1684213746802209000,4.760208984375,2.004008748871088,-1.2996166171789167,0.9246554695561527
1684213746812233000,4.77023291015625,1.8971476260423659,-0.9156815972447395,1.4935457826077938
1684213746822258000,4.7802578125,1.8152572783410548,-0.5211860203295946,1.865000091153383
1684213746832281900,4.79028173828125,1.7113082435667515,-0.12413374466896056,2.0243100708827377
1684213746842305800,4.800305908203125,1.4368728782713411,0.28879531455934043,1.9958429780721663
1684213746852331000,4.8103310546875,0.9715817636430263,0.7363076113909482,1.6620754261031745
1684213746862355000,4.82035498046875,0.46364860811829567,1.0643863040685653,1.2274129662334918
1684213746872379000,4.83037890625,-0.21893972457740454,1.0913730951935052,0.8062687441065907
1684213746882403800,4.84040380859375,-0.5277227651545777,0.7818938890457153,0.3399275359034538
1684213746892428000,4.850427978515625,-0.8019850754380226,0.24105156660974025,-0.21793869430869817
1684213746902453000,4.860452880859375,-1.1028069278776644,-0.44120881277322765,-0.810527862855792
1684213746912477000,4.870476806640625,-0.9948913275599479,-0.662504124033451,-1.2069476858317851
1684213746922500900,4.8805009765625,-1.147130053728819,-0.5154273106724023,-1.5815727333679794
1684213746932525800,4.89052587890625,-1.327783557999134,-0.1408586694985628,-1.8209598738968371
1684213746942550000,4.900550048828125,-1.15833650739789,0.29904782850444317,-1.8497969690635798
1684213746952575000,4.910574951171875,-0.9490998827219009,0.7478501651465892,-1.8285373234137892
1684213746962599000,4.920598876953125,-0.6508242076337337,1.0388274999201297,-1.8448355472639202
1684213746972622800,4.930622802734375,-0.5022680059025064,1.0227496408224106,-1.6985215349689124
1684213746982647800,4.940647705078125,-0.3657271996030584,0.9287456614792347,-1.5265253844067452
1684213746992672000,4.950672119140625,-0.35541155729386953,0.881703924319148,-1.483380654685199
1684213747002696000,4.960696044921875,-0.2143839609691873,0.6244423966646194,-1.4160638989984988
1684213747012721200,4.97072119140625,0.012383753820136189,0.31275019064247606,-1.43329443526268
1684213747022744800,4.980744873046875,0.25168339872863144,0.05179740725457668,-1.0292375415369868
1684213747032769800,4.990769775390625,0.5601589442592114,-0.1580430285334587,-0.5184215240523219
1684213747042794000,5.0007939453125,0.7812368133764713,-0.1498597220778465,-0.17115356225818396
1684213747052818200,5.010818115234375,0.8118762087248266,-0.12396832497417926,0.09989595999121666
1684213747062843000,5.0208427734375,0.7470868526238947,-0.04684533780515194,0.24330986693054435
1684213747072866800,5.03086669921875,0.6322820042490959,0.026398762103915212,0.1287105510652065
1684213747082892000,5.04089208984375,0.5625426245253533,-0.1302180330187082,0.1339753397256136
1684213747092916000,5.050916015625,0.38414420570544894,-0.28235563690066334,0.1610389954790473
1684213747102940000,5.06093994140625,0.12026881286911666,-0.41838674011230464,0.01355827749222517
1684213747112964900,5.07096484375,-0.10629530563950539,-0.3365688731253147,-0.33716245510429144
1684213747122989000,5.080989013671875,-0.25018355209231374,-0.021339140626788138,-0.6727414404094219
1684213747133013000,5.091012939453125,-0.3257330063343048,0.55123979780972,-0.7341404964849353
1684213747143038000,5.101037841796875,-0.34704591654129324,1.0960814190149306,-0.8631927005946636
1684213747153062000,5.111061767578125,-0.2737901261944324,1.308783089452982,-1.0693491871729492
1684213747163086800,5.1210869140625,-0.2710906579773873,1.2985568789929152,-1.1305953907743096
1684213747173111000,5.131111083984375,-0.31004794594645496,1.1822761859118938,-1.0532242740631104
1684213747183135000,5.141135009765625,-0.24413959575295446,0.8653186067074536,-0.7854086191684008
1684213747193160000,5.151159912109375,-0.20926110153011976,0.447538015794754,-0.549343024277687
1684213747203183900,5.161183837890625,-0.10236965662837028,0.12459727052748203,-0.3472515951812267
1684213747213209600,5.171209716796875,0.135904846483469,-0.26972587243020535,-0.13732581919729708
1684213747223233800,5.18123388671875,0.24604396806955336,-0.6544459052622318,0.07524287251085042
1684213747233257700,5.1912578125,0.3170235571127385,-1.050975618353486,0.27823358853459357
1684213747243282400,5.201282470703125,0.5263444260060787,-1.4484937579602002,0.4763181200772524
1684213747253306600,5.211306640625,0.8503893331229686,-1.744520777338743,0.5858358948945999
1684213747263330800,5.221330810546875,1.166774811527878,-2.01827225202322,0.7040893493533134
1684213747273355800,5.231355712890625,1.5765478909432886,-2.436906244894862,0.7229965866580605
1684213747283379500,5.24137939453125,1.9727087707221507,-3.085008334088325,0.7064423422202467
1684213747293404700,5.25140478515625,2.117099413739145,-3.77736457554996,0.8216472227632999
1684213747303428600,5.2614287109375,1.8220085061669349,-3.6849639397501943,0.9540408462554216
1684213747313452800,5.271452880859375,1.040461969254166,-2.2336235601872203,1.0761132744804025
1684213747323477800,5.281477783203125,0.15131635062694548,-0.21391104622781276,1.048418919607997
1684213747333501700,5.291501708984375,-0.4756617019951343,1.446166776317358,0.8548860600203275
1684213747343526700,5.301526611328125,-0.9615336862288415,2.3999556936383244,0.5538236768230795
1684213747353550600,5.311550537109375,-1.2391127563774584,2.7884347867429256,0.45481706688702106
1684213747363574800,5.32157470703125,-1.173258401393518,2.696488908973336,0.50251668343395
1684213747373599700,5.331599853515625,-0.8476584468543529,2.1611843469202516,0.5054807939365505
1684213747383623700,5.341623779296875,-0.14227737719006836,1.4424287588328122,0.5424482963278889
1684213747393647600,5.351647705078125,0.4595546168029308,0.9151438371062278,0.5987330781295895
1684213747403672600,5.361672607421875,0.4617046344436705,0.6477694962382317,0.5477282825574279
1684213747413696800,5.37169677734375,0.19013211123347282,0.37284313255548474,0.4302414285570383
1684213747423721500,5.381721435546875,-0.09155366358160973,0.1916699883252382,0.344158889862895
1684213747433745700,5.39174560546875,-0.2722504224717617,0.05829261449277401,0.19527970325499772
1684213747443769600,5.40176953125,-0.3611072481848299,-0.06271802971959113,0.11967676526010036
1684213747453794800,5.411794921875,-0.48076691617965694,-0.18153847041130064,0.19553250897228716
1684213747463818500,5.421818603515625,-0.7086741929255426,-0.27591128306686874,0.36995296407192946
1684213747473843500,5.431843505859375,-1.0180337182164192,-0.4071352782577276,0.6922193172089756
1684213747483867600,5.44186767578125,-1.3667492484703658,-0.551827242308855,1.042550173705071
1684213747493891800,5.451891845703125,-1.800000234106928,-0.7133417463451623,1.2572498860925436
1684213747503916800,5.461916748046875,-2.2771955754101274,-0.8693003698199987,1.4278513674259186
1684213747513940500,5.4719404296875,-2.7401532786548137,-0.9938999784350394,1.5136702867478131
1684213747523964700,5.481964599609375,-3.223431593133509,-1.0925251878380775,1.5973708987414836
1684213747533989600,5.49198974609375,-3.4946120482861995,-1.1249445254057646,1.7815464396581053
1684213747544013800,5.502013916015625,-3.5309178718984127,-1.2101987965822218,1.9746799246646463
1684213747554038800,5.512038818359375,-3.4323335790276523,-1.3000368884176015,2.354508824454248
1684213747564062700,5.522062744140625,-3.171944859263301,-1.4077479060739277,2.8105361439138647
1684213747574086700,5.532086669921875,-2.7683436003506183,-1.4256407056391238,3.3539845571950075
1684213747584111600,5.542111572265625,-2.1726281164765355,-1.356730251020193,3.7739503831923007
1684213747594135800,5.5521357421875,-1.5971895508252083,-1.2673439946055411,4.0345360868334765
1684213747604160500,5.562160400390625,-0.9551521684981882,-0.9957575890004634,3.9378433067977427
1684213747614184700,5.572184814453125,-0.39969007681831714,-0.6061509531706571,3.3577637834727763
1684213747624208600,5.582208740234375,-0.36931978073492644,-0.4296726887583732,2.6838877860754726
1684213747634233600,5.592233642578125,-1.2876247122205793,-0.5142541752398013,1.92604273500666
1684213747644257500,5.602257568359375,-2.654693840295076,-0.312504106926918,1.1552597303010523
1684213747654281700,5.61228173828125,-4.221984073549509,-0.3782388541191816,-0.5545534524023532
1684213747664306700,5.622306640625,-5.101860197919607,-1.2077876437872648,-1.9930016171663998
1684213747674330600,5.63233056640625,-2.9218156677067277,-2.080930660510063,-1.5268325506597757
1684213747684355800,5.64235595703125,2.5472820978462694,-2.159592693814635,0.42709845435619354
1684213747694379500,5.652379638671875,8.23957720888853,-1.017819783204794,2.592908122989535
1684213747704403700,5.66240380859375,8.957488162845372,3.3084617001652714,3.194525816644728
1684213747714428700,5.6724287109375,6.401515393543243,8.483264969220757,2.285428566226363
1684213747724452600,5.68245263671875,3.683838150590658,10.013257445216178,1.7276608279526233
1684213747734477800,5.692477783203125,0.15843911517895756,8.405479134228825,0.5129045141965151
1684213747744501500,5.70250146484375,-2.20803246120438,5.41084782115817,-2.4687881145849824
1684213747754525700,5.712525634765625,-3.1578304091930387,3.1036230181872844,-5.399757102823257
1684213747764550700,5.722550537109375,-2.9123733011007307,1.8326047189831733,-6.649999155980348
1684213747774574800,5.732574951171875,-0.8232710245728492,0.5734212344795465,-5.911386774778366
1684213747784598500,5.7425986328125,1.151385373085737,-1.0126900191009045,-4.649309614659845
1684213747794623500,5.75262353515625,2.0768226406693455,-2.017065214321017,-2.250691014844179
1684213747804647700,5.762647705078125,2.5414146671175954,-2.407539865157008,0.2384785012513399
1684213747814672600,5.772672607421875,2.661422856289148,-2.5182027183562514,2.496569855479896
1684213747824696600,5.782696533203125,2.303649867093563,-1.9801018035829066,4.249434682793915
1684213747834720500,5.792720458984375,1.6669301726579666,-1.0953373226493597,5.2366018458426
1684213747844745700,5.802745849609375,0.9037574237603694,-0.4383750506520271,6.542008736860752
1684213747854769700,5.812769775390625,0.17102058352828026,-0.4365443280935287,7.478148015722632
1684213747864794600,5.822794677734375,-0.38318562633898107,-0.30501287438869473,6.543464780887961
1684213747874818600,5.832818603515625,-0.1764882195507176,0.048320671054720876,4.117964311626554
1684213747884842800,5.8428427734375,0.5071241406967864,-0.012837854263186455,2.049519477071613
1684213747894867700,5.85286767578125,0.669223787677288,-0.17469839525818823,0.8193472752578556
1684213747904891600,5.8628916015625,0.42733401667773724,-0.443477926748991,0.15747268129959702
1684213747914915600,5.87291552734375,0.3021837884426117,-0.9139858992427587,0.14158201533704995
1684213747924940500,5.8829404296875,0.3605003683328628,-1.4905863482803106,0.6052721245095133
1684213747934964700,5.89296484375,0.4936690678507089,-2.0093916109532115,1.46982997597754
1684213747944989700,5.90298974609375,0.9107933137465268,-2.31551683049798,2.4864433060020206
1684213747955013600,5.913013671875,1.5244944631010293,-2.367722818553448,3.2468492936000226
1684213747965037600,5.92303759765625,2.351258005964756,-2.1207588130295276,3.8348105100855228
1684213747975062500,5.9330625,3.284618467763066,-1.5975936015814542,4.2421521245703095
1684213747985086700,5.943086669921875,4.1085920876473185,-0.9889432328104972,4.2326536438629025
1684213747995111700,5.953111572265625,4.816629297843575,-0.4117524166643619,4.061234124144912
1684213748005135600,5.963135498046875,5.088278247290849,0.0215063138872385,3.482965449634194
1684213748015159600,5.97315966796875,5.0159343110918995,0.40726971829235553,2.711953604608774
1684213748025184500,5.9831845703125,4.795217676502466,0.5856669680684805,1.8875582521811127
1684213748035208700,5.993208740234375,4.4220290915101765,0.5533738872289657,1.3135317452847957
1684213748045233700,6.003233642578125,3.9405379527091977,0.36966800965070723,1.0375628868117928
1684213748055257600,6.013257568359375,3.4652439149826764,0.1811445026576519,0.7723539072841406
1684213748065281500,6.023281494140625,3.095241558811068,-0.022049334722757337,0.5320826773971319
1684213748075306800,6.033306640625,2.9683798504829406,-0.10445756881833076,0.38412937346249815
1684213748085330700,6.04333056640625,3.0177205122351642,-0.1720680467545986,0.2665598096147179
1684213748095354600,6.053354736328125,3.127728700917959,-0.13763736936450005,0.11134703607112169
1684213748105379600,6.063379638671875,3.180157391813397,0.016600421667098998,0.0031289456754922864
1684213748115403800,6.07340380859375,3.231075093623996,0.22337387109994886,-0.24181524445861577
1684213748125428700,6.0834287109375,3.3353216500401497,0.44548400587439535,-0.7584566070958971
1684213748135452700,6.09345263671875,3.406144660282135,0.5970832650959491,-1.2898875425860286
1684213748145476600,6.1034765625,3.4032053919598457,0.6304594649970531,-1.7180644398286937
1684213748155501600,6.11350146484375,3.2775779016017914,0.6199170281946659,-2.098368994306028
1684213748165525800,6.12352587890625,3.0519115356504916,0.533162289327383,-2.321168280388415
1684213748175550700,6.13355078125,2.777074019294977,0.3814811970412731,-2.243882211612165
1684213748185574700,6.14357470703125,2.564581607693434,0.22448387816846369,-2.1557617373496294
1684213748195598600,6.1535986328125,2.355854686105251,0.050097033077478405,-1.962241737243533
1684213748205623600,6.16362353515625,2.1497179271407423,-0.06747136172652245,-1.7684519802853464
1684213748215647700,6.173647705078125,2.0190058269947766,-0.11453180358707904,-1.6079638966873286
1684213748225671700,6.183671630859375,1.980912535443902,-0.17703297568559645,-1.4720207640200853
1684213748235697000,6.19369677734375,2.0253262621879577,-0.34480478655099867,-1.4155471816480159
1684213748245720600,6.203720458984375,1.954921769618988,-0.5242220270246267,-1.4457143563747406
1684213748255745500,6.21374560546875,1.7720903367877006,-0.7562889076679945,-1.4279983746811746
1684213748265769700,6.223769775390625,1.6318004070878027,-0.858038971093297,-1.3434040287181734
1684213748275793700,6.233793701171875,1.5790736100286245,-0.8217500986158848,-1.1423764294609426
1684213748285818600,6.243818603515625,1.6696739184081553,-0.6856739872187375,-0.8117246714249253
1684213748295842600,6.253842529296875,1.8189619780778883,-0.4659638993233442,-0.5288602082192897
1684213748305867800,6.26386767578125,1.812435206657648,-0.20246903023719787,-0.46971419176757334
1684213748315891700,6.2738916015625,1.6820657824695109,0.13175591011047363,-0.5445628042638302
1684213748325916000,6.283916015625,1.4637603006750344,0.5223801985502243,-0.708950233387947
1684213748335940600,6.293940673828125,1.2923860814034938,0.9311328488767147,-0.9061199881732463
1684213748345964500,6.303964599609375,1.1937538577377795,1.2262310629725455,-1.185000642439723
1684213748355989800,6.31398974609375,1.1311129849076271,1.4247802894175052,-1.2336153280049562
1684213748366013700,6.324013671875,1.158304943215847,1.3883447019457815,-1.1269476819217203
1684213748376037600,6.33403759765625,1.104555232849717,1.1820774484694003,-0.8207245549604296
1684213748386062600,6.3440625,0.9134861330270767,1.0570616602689027,-0.4413628342911601
1684213748396086800,6.354086669921875,0.6691442927002906,1.0113532175391913,-0.19259499421566723
1684213748406110700,6.36411083984375,0.3639496685365215,0.9447960480481385,0.036899990113079546
1684213748416135700,6.3741357421875,-0.08414656566288321,0.8939449817329644,0.2329062540769577
1684213748426159600,6.38415966796875,-0.44364155634548513,0.8678121770888566,0.3664180679440498
1684213748436184600,6.3941845703125,-0.8275625842869281,0.8592740658462047,0.5079314019590616
1684213748446208800,6.404208740234375,-1.0121412991769612,0.7825707653939723,0.7423308172032237
1684213748456232700,6.414232666015625,-0.843168661154434,0.43620004470050333,1.066731405889988
1684213748466258000,6.4242578125,-0.4651700820645317,0.05912731175124645,1.325915133778751
1684213748476281600,6.434281494140625,0.25122867723107334,-0.40862814716398715,1.2236077287316323
1684213748486306600,6.444306640625,1.0650397995412348,-1.0371768101036547,0.42621787212938067
1684213748496330800,6.454330810546875,1.6476368586450814,-1.3569815954327582,-0.5514727297827601
1684213748506354700,6.464354736328125,2.332667871785164,-1.5317308440953492,-1.74689510525465
1684213748516379600,6.474379638671875,2.9808173072516917,-1.614597343352437,-3.187739809766412
1684213748526403600,6.484403564453125,3.2866455896764992,-1.457419991737604,-4.51305317825973
1684213748536428800,6.4944287109375,3.122533470362425,-0.868479116564989,-5.686780731534958
1684213748546452700,6.50445263671875,2.198663305965066,-0.01868424220383167,-6.023991994217038
1684213748556476700,6.5144765625,1.5179741214215754,1.1817448555141687,-5.992546470117569
1684213748566501600,6.524501708984375,1.1890543017446995,1.6963257784903047,-5.604327489253878
1684213748576525600,6.534525634765625,0.7389630943357944,1.714427252370119,-4.343052877689898
1684213748586549800,6.5445498046875,-0.08565700675845146,1.9423036955863235,-2.8554841236650943
1684213748596574700,6.55457470703125,-1.0146002366364002,2.337584869921207,-1.4061898629769682
1684213748606598700,6.5645986328125,-1.437156955909729,2.5375878023058176,0.5944155071914196
1684213748616623600,6.57462353515625,-1.295378833478689,2.406751345127821,2.838859736600518
1684213748626647800,6.584647705078125,-1.4896347466439008,1.6550462581187486,4.222506343857944
1684213748636671700,6.594671630859375,-1.7283043865531682,0.7356032625138759,4.6329383255735035
1684213748646696700,6.60469677734375,-1.0300228466957806,-0.37276714470982547,4.595487715840339
1684213748656720600,6.614720703125,-0.016612112104892728,-1.2446177835345267,3.821054079672694
1684213748666745600,6.62474560546875,0.836527981030941,-1.6138316196769475,2.432240006649494
1684213748676769800,6.634769775390625,1.6529051544368265,-1.887829762598872,1.0108023056581616
1684213748686793700,6.644793701171875,2.195555403077602,-1.8361048360586165,0.13211802142113446
1684213748696818700,6.654818603515625,2.460701546502113,-1.5528221474409103,-0.29977818860560657
1684213748706842600,6.664842529296875,2.429602643883228,-1.2477362078160046,-0.42356399661973115
1684213748716867600,6.67486767578125,2.307260458806157,-0.9872504574179649,-0.14586553787514567
1684213748726891800,6.684891845703125,2.1533844868242737,-0.520015807506442,0.3450950016692281
1684213748736915700,6.694915771484375,1.9643314029991625,0.06661153002679347,0.7749290184691547
1684213748746940700,6.704940673828125,1.6029998445391653,0.6226344704598188,1.0021095883756876
1684213748756964600,6.714964599609375,1.057374379479885,1.0058265630722045,0.9523232286825776
1684213748766988800,6.72498876953125,0.5372451747268439,1.070379407003522,0.8401108079537749
1684213748777013800,6.735013671875,0.16320377229750155,0.8787859910458325,0.8728101315066218
1684213748787037700,6.74503759765625,-0.14230886830687522,0.5533592741817236,0.8092926219724118
1684213748797062700,6.755062744140625,-0.14972294395565985,0.17545768919289112,0.6184397952489554
1684213748807086600,6.765086669921875,-0.08463410258465447,0.008127776876091957,0.5233154335737228
1684213748817110800,6.77511083984375,0.03976269520097412,-0.073699442461133,0.4442199772879481
1684213748827135700,6.7851357421875,0.1751227581501007,-0.15441490116417408,0.4648085918083787
1684213748837159700,6.79515966796875,0.27806875336170195,-0.13250760526061056,0.5390396569281816
1684213748847184600,6.8051845703125,0.29083703125370663,-0.08873159189820289,0.548941311609
1684213748857208800,6.815208740234375,0.3368342460632324,-0.11402326954305171,0.5099531170450151
1684213748867232800,6.825232666015625,0.36233222340252247,-0.11551321583986282,0.5998565292015672
1684213748877257500,6.835257568359375,0.43208208798766135,-0.14964578706622123,0.5113065774805844
1684213748887281700,6.84528173828125,0.3527577548494562,-0.11955576922893524,0.5609307323493063
1684213748897306600,6.855306640625,0.1585843323359266,-0.12600363019406793,0.7663165268160402
1684213748907330800,6.865330810546875,-0.10227613312602042,-0.1602946068525314,0.8695277488350868
1684213748917354500,6.8753544921875,-0.43082770401239395,-0.33991701450943945,1.1775436044320464
1684213748927379700,6.885379638671875,-0.6024830783128738,-0.7720727522552013,1.481674727550149
1684213748937403600,6.895403564453125,-0.6636065323174,-1.2045184128582478,1.7153097342930732
1684213748947427800,6.905427734375,-0.865524942934513,-1.6386667857259511,1.613419385614246
1684213748957452800,6.915452880859375,-1.4085820188105105,-2.028059486544132,1.4774128323219715
1684213748967476500,6.9254765625,-2.0917022298932073,-2.312984681671858,1.4160576153881848
1684213748977501700,6.935501708984375,-2.4118787711441514,-2.2956705587774513,1.3906576550632714
1684213748987525600,6.945525634765625,-2.348424243843555,-2.037604729002714,1.6101441633358597
1684213748997549800,6.9555498046875,-2.2262989163875577,-1.239376960271597,1.9893039316922425
1684213749007574800,6.96557470703125,-1.9453928937733171,0.6697709001660347,2.470179861204326
1684213749017598700,6.9755986328125,-1.155755258733034,3.033310880076885,2.8032705368250608
1684213749027623700,6.985623779296875,0.11819149513840675,4.790186696597933,2.8552035531580446
1684213749037647600,6.995647705078125,1.2245271816641092,5.270030068191885,2.4162492413133383
1684213749047671800,7.005671875,1.4083593159705399,4.646021971291304,1.4902540475860238
1684213749057696500,7.015696533203125,1.456688754853606,3.4768718089342117,0.20152254316732285
1684213749067720700,7.025720703125,1.493470379284024,2.7146388981699943,-0.7683043396323919
1684213749077745700,7.03574560546875,1.6647066513895987,2.1743699917078017,-1.3241907942041753
1684213749087769900,7.045769775390625,1.5122487295120954,1.7769857076138258,-1.5543486263558268
1684213749097793500,7.05579345703125,1.0643781207621097,1.380712015110254,-1.7057354118704795
1684213749107818500,7.065818603515625,0.5622727215427905,0.686398794361949,-1.7330387215986847
1684213749117842700,7.0758427734375,0.13990487590506673,-0.16906068163216112,-1.4502783032894133
1684213749127866600,7.08586669921875,0.11575286981463431,-0.6253840614289045,-1.0042699812799691
1684213749137891800,7.095891845703125,0.7062683738928288,-0.7638882767558097,-0.31021716503351926
1684213749147915500,7.10591552734375,1.2970979123562574,-0.8675836290299892,0.4295245124593377
1684213749157940700,7.115940673828125,1.5924918945282698,-1.1107137554794548,1.0869789518877864
1684213749167964700,7.125964599609375,1.801672405102849,-1.205914835652709,1.4714903104051946
1684213749177988900,7.13598876953125,2.0858336301207543,-0.913347601339221,1.8821648687049746
1684213749188013800,7.146013916015625,1.8561223726928233,-0.6661591394096612,2.064800486703217
1684213749198037500,7.15603759765625,1.7881037523470817,-0.33275837492644783,1.8059104810640214
1684213749208062700,7.166062744140625,2.077240427689999,-0.140336106929183,1.4762746220722793
1684213749218086700,7.176086669921875,2.6191385427892206,0.17557634713649747,0.834784059973061
1684213749228110800,7.18611083984375,3.1215777770727873,0.377654332229495,0.33205431831032034
1684213749238135800,7.1961357421875,3.3187843567371367,0.5186743297696114,-0.1529778540983796
1684213749248160000,7.206159912109375,3.1027760459691285,0.61571314676404,-0.5853387590274214
1684213749258184700,7.216184814453125,2.714544205623865,0.4321662591397762,-1.1123328811138868
1684213749268208600,7.226208740234375,2.220287254882604,0.23776713811159134,-1.4254095272317528
1684213749278232800,7.23623291015625,1.6527480641789734,0.15670973410308361,-1.559031523475051
1684213749288257800,7.2462578125,1.122327036383748,0.055773909670114516,-1.8118033384948968
1684213749298281700,7.25628173828125,0.7006383321166038,-0.12079729372262954,-2.004167446564138
1684213749308306700,7.266306640625,0.3618248949348926,-0.31590602432489395,-2.110569135187566
1684213749318331000,7.276330810546875,0.2394850479453802,-0.6021580841422081,-2.2021955717444417
1684213749328354800,7.286354736328125,0.15133622437119484,-0.8310422430962323,-2.1870482714951036
1684213749338379800,7.2963798828125,0.0443709105156362,-0.9514379702806472,-2.0174898694738745
1684213749348403700,7.30640380859375,-0.013937924459576607,-0.8749801690220832,-1.794749035580456
1684213749358427600,7.316427734375,-0.10034954897761345,-0.6712158382773399,-1.6618430786520242
1684213749368452900,7.326452880859375,-0.18122852767929434,-0.4390454972594976,-1.648234532277286
1684213749378476800,7.336476806640625,-0.2464426119983196,-0.26258418398201466,-1.5994839453727006
1684213749388501800,7.346501708984375,-0.29822204520478846,-0.08036182295978068,-1.61124364901036
1684213749398525700,7.356525634765625,-0.3517541672974825,0.08995908786654472,-1.489742883193493
1684213749408550000,7.3665498046875,-0.439062959850952,0.20000410142838954,-1.391473647621274
1684213749418574800,7.376574951171875,-0.5493431704081595,0.1811702216207981,-1.285123396924138
1684213749428598800,7.386598876953125,-0.4720568093709647,0.041349078476428984,-1.0590826447024941
1684213749438623700,7.396623779296875,-0.3581440144650638,-0.043916298615932464,-0.6108852882161736
1684213749448647700,7.406647705078125,-0.18916472750604152,-0.07705635167360306,0.05700199016034603
1684213749458671900,7.416671875,0.21635390933528542,-0.09770926360189915,0.6477241957917809
1684213749468696800,7.42669677734375,0.5730730055637657,-0.029029110607504842,0.9086763946577906
1684213749478720800,7.436720703125,0.8111258287489413,0.0968178677201271,0.9053943042472005
1684213749488745700,7.446745849609375,0.9966438703157007,0.17453823626041412,0.8655649826839565
1684213749498769700,7.456769775390625,0.8631449159301817,0.1562210738033056,0.6715539841905236
1684213749508793900,7.4667939453125,0.45614583127275105,-0.06592822393774986,0.2990153875395655
1684213749518818800,7.47681884765625,0.20695888900235293,-0.3024748803436756,0.04567629402577877
1684213749528842800,7.4868427734375,0.06905716961324214,-0.5518482850968838,-0.11579758573919534
1684213749538867700,7.49686767578125,0.09290200945064425,-0.8015408388018608,-0.10041764577776192
1684213749548892000,7.506891845703125,0.30687282304167746,-0.9782453131854534,-0.03655833706855774
1684213749558915800,7.516915771484375,0.5920885255485773,-1.050740640553832,-0.02640197697430849
1684213749568940800,7.52694091796875,0.9367460856486112,-1.0019330627650023,0.06629384237974882
1684213749578964700,7.53696484375,1.1842367453951388,-0.9685808282613754,0.1717377918869257
1684213749588988700,7.54698876953125,1.289678722140938,-0.9285247122049332,0.25680560058057306
1684213749599014000,7.557013916015625,1.3218793023914097,-0.8393190730541944,0.35816081946939227
1684213749609037800,7.567037841796875,1.2591156799644232,-0.7553595178633928,0.48711336259692906
1684213749619062800,7.577062744140625,1.141386030184105,-0.658619391554594,0.6874474266320466
1684213749629086700,7.587086669921875,1.0236124681968242,-0.5816764371275901,1.0305831109270454
1684213749639111000,7.59711083984375,1.0078812305796891,-0.7437871534913778,1.2316142173156142
1684213749649135900,7.607135986328125,1.1640472862601279,-1.158665008699894,0.9580240706726908
1684213749659159600,7.61715966796875,1.4098790728837252,-1.5336977602541446,0.3311027166739106
1684213749669184800,7.627184814453125,1.4676158070594072,-1.8616040189743042,-0.2928556958660483
1684213749679208700,7.637208740234375,1.3806781128406524,-2.1912024685651064,-0.9111752257362008
1684213749689233000,7.64723291015625,1.1264168629806488,-2.546733231791854,-1.4282204929992555
1684213749699257900,7.6572578125,0.7390811677575111,-2.8190725015908478,-1.8545070464506743
1684213749709281800,7.66728173828125,0.4215256226599216,-2.964696193534136,-2.136615430592
1684213749719306800,7.677306640625,0.3697416594088077,-3.039385816076398,-2.0955983605489132
1684213749729330700,7.68733056640625,0.4904501058042049,-3.0280905150800943,-1.6695771800354122
1684213749739355000,7.69735498046875,0.821247994312644,-3.055825494223833,-0.8559884683042764
1684213749749379800,7.7073798828125,1.1528788265138863,-2.9307787263631817,0.053496904648840424
1684213749759403800,7.71740380859375,1.3324725925981997,-2.662245278587937,0.96270667553097
1684213749769428700,7.7274287109375,1.2542062806129455,-2.2630939848214386,1.8211621184706688
1684213749779453000,7.737452880859375,0.7429109551787376,-1.587510014462471,2.354649986490607
1684213749789476900,7.747476806640625,-0.2665981140648015,-0.4871352821677923,2.418750702740252
1684213749799501800,7.757501708984375,-1.397937875199318,1.2302899829745293,2.453258829280734
1684213749809525800,7.76752587890625,-2.297182716906071,3.55184784720242,2.568165603660047
1684213749819550700,7.77755078125,-2.791953608518839,5.94450169339478,2.917033694127202
1684213749829575000,7.787574951171875,-3.44350963755846,8.107173648524284,3.281718654668331
1684213749839598800,7.797598876953125,-4.1404163819313045,9.243578310099243,3.206163355207443
1684213749849623800,7.807623779296875,-4.159462443184852,8.809724536263943,3.5328874184057115
1684213749859647700,7.817647705078125,-2.4124469264209267,6.804730868008733,4.545190191754698
1684213749869672000,7.827671875,1.2047335169136524,3.3872599270701405,4.278690295633673
1684213749879697000,7.83769677734375,3.635043432283401,-0.013164017477631568,2.7037761433720586
1684213749889720600,7.847720458984375,3.1210394324123856,-2.13464822217226,0.5799997360870242
1684213749899745800,7.857745849609375,0.8585352301776409,-2.8753105216413735,-2.012510912017524
1684213749909769700,7.867769775390625,-1.5077414812207222,-2.3347908552885053,-3.4765377546742555
1684213749919794000,7.8777939453125,-1.972273886436224,-1.4451175595253705,-3.5807825575247403
1684213749929819000,7.88781884765625,-1.5409376483798025,-0.8864560872823,-3.5480627757057546
1684213749939842800,7.8978427734375,-0.6865396641373634,-0.44872927140593527,-3.3134447492748498
1684213749949867800,7.90786767578125,-0.04686813415884972,0.1754535975396633,-2.5535911348626015
1684213749959891700,7.9178916015625,-0.052028329933620984,0.9242401667535305,-1.7888681608483195
1684213749969916000,7.927916015625,-0.5070365354785695,1.1387100159078836,-1.5019140902414918
1684213749979940900,7.93794091796875,-0.6672995416164398,0.7412333773553371,-1.358406952060759
1684213749989964800,7.94796484375,-0.21947982280347494,0.1834580402970314,-1.2829475141897797
1684213749999989800,7.95798974609375,0.11952537409067153,-0.0791629685640335,-1.1865619004070758
1684213750010013700,7.968013671875,0.4158335850307718,-0.15354513259232044,-1.1239081680953502
1684213750020038000,7.978037841796875,0.6741618286013603,-0.17405425213575362,-1.113764667482674
1684213750030062600,7.9880625,0.6301403160452842,-0.06827332575917243,-1.0892501116901636
1684213750040086800,7.998086669921875,0.5333294625878334,0.0813069948554039,-1.120555058275163
1684213750050110700,8.00811083984375,0.5142588879475369,0.20858605181276796,-1.1415689124703408
1684213750060136000,8.018135986328126,0.16286412854697555,0.37319618377685543,-1.3231243340164422
1684213750070159600,8.02815966796875,-0.4194353723824024,0.516949990195036,-1.7105986339926718
1684213750080184600,8.0381845703125,-0.9619733928203582,0.7090420033246279,-1.9822861618846654
1684213750090208800,8.048208740234376,-1.097880577391386,0.9420254142910242,-2.141509340113401
1684213750100233000,8.05823291015625,-0.6119617583412676,0.9912895036756991,-2.2766560617059466
1684213750110258000,8.0682578125,0.053822702537104486,0.8691565774351357,-2.2820319095253945
1684213750120281600,8.078281494140626,0.40419568114187565,0.7677467057496309,-2.287112866051495
1684213750130306800,8.088306884765625,0.6371697762906551,0.7426572726786136,-2.2810566347524524
1684213750140330800,8.098330810546875,0.7593980526644736,0.7612211033731698,-2.293071189934015
1684213750150355000,8.10835498046875,0.6276175195693969,0.900829480549693,-2.2156945202648637
1684213750160380000,8.1183798828125,0.662444502800703,0.9983271472275257,-1.9835557434290647
1684213750170403800,8.12840380859375,0.6427648198187351,1.0829665013760328,-1.7768284712255
1684213750180428800,8.1384287109375,0.2529343121051788,1.1191641884386538,-1.642262472130358
1684213750190452700,8.14845263671875,-0.07405892342329025,1.1369634645015,-1.587396032693982
1684213750200477000,8.158476806640625,-0.20616912686415015,1.189541793000698,-1.540783919122815
1684213750210501600,8.168501708984374,-0.19155249942541122,1.10824239692986,-1.6408017519280313
1684213750220525600,8.178525634765625,-0.10542210300154983,0.9004764293283224,-1.7137202731445431
1684213750230550300,8.18855029296875,-0.009735869659855961,0.6054477733373642,-1.624377271349728
1684213750240574500,8.198574462890624,0.09714161978177725,0.26123218485116956,-1.603304672704637
1684213750250598400,8.208598388671875,0.06547470801658928,0.0809060128390789,-1.5172145352259276
1684213750260623400,8.218623291015625,-0.07146722642965614,-0.014199205744266509,-1.2452674796149135
1684213750270647300,8.228647216796874,-0.1488799903254956,-0.07419862415492534,-0.8423986266300082
1684213750280672300,8.23867236328125,-0.11952296293787658,0.02345218725800514,-0.5539809132114052
1684213750290696400,8.248696533203125,-0.12377126803211867,0.18304712140858173,-0.2562786540970206
1684213750300720400,8.258720458984374,0.012418752068281172,0.16763035656809805,0.06596592559963464
1684213750310745600,8.26874560546875,0.08705876331515609,-0.20603402924239633,0.1338391461253166
1684213750320769300,8.278769287109375,0.405640655785799,-0.519868507990241,0.22913901049792765
1684213750330794200,8.288794189453125,0.8562064219038933,-0.5897352404206991,0.3520265544980764
1684213750340818400,8.298818359375,1.238986499649286,-0.7771884878337383,0.6252279940843581
1684213750350842400,8.30884228515625,1.2980045058071612,-0.7420400175631046,0.7571449399754404
1684213750360867600,8.31886767578125,1.108553947097063,-0.6493377684682607,0.8164756653442978
1684213750370891300,8.328891357421876,0.5961049946483225,-0.5173924732655286,0.8024199597239494
1684213750380915500,8.33891552734375,0.1604769046168774,-0.25580606814920903,0.7980655639067292
1684213750390940400,8.3489404296875,-0.18281506621837615,0.025203999361395835,0.6283066708773374
1684213750400964600,8.358964599609376,-0.45388475447297094,0.2471533906161785,0.21450725855529307
1684213750410989300,8.3689892578125,-0.6828139216125011,0.37507132999897,-0.1614393929734826
1684213750421013200,8.37901318359375,-0.7010813997089862,0.2933814733058214,-0.27511370294839144
1684213750431038500,8.38903857421875,-0.6935903133012354,0.11154255864322185,-0.21418080307990311
1684213750441062400,8.3990625,-0.7367908648632466,0.0053548050314188,-0.08865443500876426
1684213750451086600,8.409086669921875,-0.5409257629357278,-0.11657236950397491,0.05273585714846849
1684213750461111300,8.419111328125,-0.20509236447811124,-0.25004443588256836,0.2630760591521859
1684213750471135500,8.429135498046875,-0.0470341383755207,-0.3007300825029611,0.46326545401960606
1684213750481160400,8.439160400390625,-0.04376439598985016,-0.3358499112010002,0.5228744118079542
1684213750491184400,8.449184326171874,-0.1957739165127277,-0.4939882168024778,0.7679132944881916
1684213750501208300,8.459208251953125,-0.4218529549181461,-0.4904460141509771,0.733864894413948
1684213750511233300,8.4692333984375,-0.5477532708682119,-0.47135903636515136,0.612251608133316
1684213750521257500,8.479257568359374,-0.5461820029634982,-0.3009106997668743,0.44717795031070706
1684213750531282400,8.489282470703126,-0.4464963977873325,-0.14424538932740688,0.2859711970493197
1684213750541306400,8.499306396484375,-0.2567922296423465,-0.01507365049123764,0.26736586530059575
1684213750551330300,8.509330322265624,-0.13028766418881713,0.03117255237698555,0.26733839277178045
1684213750561355300,8.519355224609376,-0.17519889212623238,-0.04166588934063911,0.33620997668504715
1684213750571379500,8.52937939453125,-0.36169527720585465,-0.06411562155783176,0.35060587404519317
1684213750581404400,8.539404296875,-0.46860520761236546,-0.07410217804312706,0.26844723079651595
1684213750591428600,8.5494287109375,-0.6010379940710961,-0.07987842335700988,0.16401888807266948
1684213750601452300,8.559452392578125,-0.745621967703104,-0.0860778625190258,0.050180619707703586
1684213750611477200,8.569477294921874,-0.7904666332103312,-0.03953706061840057,-0.010751987899839877
1684213750621501400,8.57950146484375,-0.7811739042080938,-0.020670447584986686,-0.05921294420808553
1684213750631526400,8.5895263671875,-0.779232122490555,0.02908990088403225,-0.07929244016259908
1684213750641550300,8.59955029296875,-0.8077109057389199,-0.14385025252997874,-0.023393735069036484
1684213750651574300,8.60957421875,-0.7686636744640767,-0.3513444174528122,0.11279080513864755
1684213750661599500,8.619599609375,-0.7212487200774252,-0.39355391215085983,0.1703431226581335
1684213750671623400,8.62962353515625,-0.6374398254036903,-0.4681505957126617,0.2895785738915205
1684213750681648400,8.6396484375,-0.5148163391672075,-0.4258353025525808,0.4546621685862541
1684213750691672300,8.64967236328125,-0.5114698052182793,-0.4313654641509056,0.5984583528414368
1684213750701696500,8.659696533203125,-0.7279004330515861,-0.5438783291310072,0.7688602199494838
1684213750711721500,8.669721435546874,-1.0699487605012952,-0.6615694735318421,0.8680506620198488
1684213750721745400,8.679745361328125,-1.223655513396114,-0.7417354816585778,0.997873265980184
1684213750731770600,8.6897705078125,-1.1660871215246618,-0.7965051827222108,1.183072012464702
1684213750741794300,8.699794189453126,-0.9427531440436839,-0.8258218780994415,1.3875585200041531
1684213750751818500,8.709818603515625,-0.5114753581762314,-0.9516460600733756,1.7464935387164353
1684213750761843500,8.719843505859375,0.07908215841278433,-1.0225848056495188,2.2253671884953974
1684213750771867400,8.729867431640624,0.8751466116301715,-0.9394728071987628,2.79804900278449
1684213750781892400,8.739892333984375,1.6570001686654985,-0.8493968149542808,3.4023063972935077
1684213750791916300,8.749916259765625,2.191693759213388,-0.4185854775547981,3.883503229323029
1684213750801940500,8.7599404296875,2.5146295360445974,0.4357002784848213,4.13246220805645
1684213750811965400,8.76996533203125,2.399784720985591,1.6271347533643246,3.997196828520298
1684213750821989400,8.7799892578125,2.2259747989997267,2.258706563517451,3.3198008403033015
1684213750832014300,8.790014404296874,2.2035865877114236,1.9222376436352728,2.226945251467079
1684213750842038300,8.800038330078126,1.830803076388687,1.1795961530476808,1.0048783224366604
1684213750852062500,8.8100625,1.2794564572036267,0.6269470729619264,-0.07643851203620433
1684213750862087400,8.82008740234375,0.7487478446386754,0.23394845660626887,-1.076739443554729
1684213750872111400,8.830111328125,0.17124153280258178,-0.010465279912948608,-1.7116712316602467
1684213750882136300,8.84013623046875,-0.43379955943003295,-0.24714286922216414,-1.69383571524024
1684213750892160500,8.850160400390624,-1.0528126245222986,-0.6191589033037423,-1.3157771861240266
1684213750902184400,8.860184326171876,-1.6002679353572427,-0.28265140497684477,-0.5880984329991042
1684213750912209400,8.87020947265625,-2.1126960642136634,0.5016103822439909,0.4093475474797189
1684213750922233300,8.8802333984375,-2.397515899270773,1.4177403077781199,1.1738871277511118
1684213750932258300,8.89025830078125,-2.452722822707891,2.5055636015355587,1.5927810867331922
1684213750942282500,8.900282470703125,-2.0274024839401243,3.1920354611337185,1.52421330807209
1684213750952306400,8.910306396484375,-1.3043291787840425,3.1530034274280068,1.3540942034281789
1684213750962331400,8.920331298828126,-0.6451264343835413,2.6263217322915793,1.051907930767536
1684213750972355300,8.930355224609375,-0.4127287143506109,1.9452724822640417,0.5462462273061275
1684213750982380300,8.94038037109375,-0.31355522341504694,1.382676008659601,0.2244251337185502
1684213750992404500,8.950404541015626,-0.6180069567896426,1.0205021541565655,-0.14113836322277784
1684213751002428400,8.960428466796875,-0.9874516060132533,0.5834136361837386,-0.15897592546939848
1684213751012453400,8.970453369140625,-1.3367616680942476,0.23010113352835176,-0.07607464715987443
1684213751022477300,8.980477294921876,-1.7771745081841945,-0.05983809036910533,0.06475713433176279
1684213751032501500,8.99050146484375,-2.1046154874801632,-0.7936451171159744,0.4288014588817954
1684213751042526500,9.0005263671875,-1.6011422339737413,-1.1886205865025519,1.1216188881143927
1684213751052550400,9.01055029296875,-0.49405894395112987,-1.1425620151609182,1.7199360789194702
1684213751062575400,9.020575439453125,0.27698735133316366,-1.1954366962581873,2.0125831004709003
1684213751072599300,9.030599365234375,1.1753683062195777,-1.1567360864639282,2.3400088821977376
1684213751082624500,9.04062451171875,1.8879180254042147,-0.8804530474752187,1.8236369841516016
1684213751092648400,9.0506484375,2.197678386580944,-1.0267495241135358,1.1295149020612238
1684213751102672400,9.06067236328125,2.3094904098153113,-0.8431254795998334,0.42570641547590493
1684213751112697300,9.070697265625,2.0509055246025323,-0.6573807896703481,-0.5384656564325094
1684213751122721500,9.080721435546875,1.5260042831420897,-0.6021347032666206,-1.4930390021294355
1684213751132745500,9.090745361328125,1.532190278300643,-0.3324117534458637,-2.368934532430768
1684213751142770200,9.100770263671874,2.0702426777571437,-0.009931611427664756,-3.166493315859139
1684213751152794400,9.11079443359375,2.694795549058914,0.1814139672487974,-3.573084696498513
1684213751162819300,9.1208193359375,2.8032202679425477,0.12830723096132277,-3.178074448059499
1684213751172843500,9.130843505859374,2.164953344064951,0.08597206405699252,-2.184865959019959
1684213751182867200,9.1408671875,1.252677755871415,0.26741058122515676,-0.837055804297328
1684213751192892400,9.150892333984375,0.12642331691086292,0.5187275212615728,0.010210428369045257
1684213751202916400,9.160916259765624,-0.6100585550684482,0.706207072159648,-0.27625410515516996
1684213751212941300,9.17094140625,-0.21335805198755114,0.573142417538166,-1.3503674379900097
1684213751222965200,9.18096533203125,0.577058677666448,0.517050527960062,-2.314470536315441
1684213751232989200,9.1909892578125,1.0594809963703156,0.9406780913352966,-2.5010762269884346
1684213751243014400,9.201014404296876,0.9227870453357696,1.1862561954587698,-2.434278526739776
1684213751253038000,9.2110380859375,1.2078455114543438,1.2537398321449755,-2.2668203118681904
1684213751263063300,9.221063232421875,2.1774048293590544,1.3317933781623839,-1.5581743221238256
1684213751273087200,9.231087158203126,1.720236815431714,1.4229209252864121,-1.3145154956251381
1684213751283111400,9.241111328125,1.3828618866205216,1.147066340842843,-1.4175608595579863
1684213751293136400,9.251136474609375,1.0906284143060445,0.8224117773950099,-1.5966618736892937
1684213751303160000,9.26116015625,0.8429086219787597,0.5014017079293728,-1.8927654654353856
1684213751313185300,9.271185302734375,0.709946258687973,0.32767595709562297,-2.1747762344211337
1684213751323209200,9.281209228515625,0.5677636105766519,0.2846978161126375,-2.487701781630516
1684213751333233400,9.2912333984375,0.4219278102526441,0.13310147950053214,-2.7900089041918514
1684213751343258400,9.30125830078125,0.33151038415934886,-0.0973708254277706,-3.103315851934254
1684213751353282300,9.3112822265625,0.09583408084716648,-0.32636253640949725,-3.1805724023550748
1684213751363307300,9.321307373046874,-0.12942834394574165,-0.555639494073391,-3.099237350448966
1684213751373331200,9.331331298828125,-0.4292582262059673,-0.6557219165474176,-2.942684560473263
1684213751383355400,9.34135546875,-0.7721633531481027,-0.531168485161662,-2.855719685986638
1684213751393380000,9.351380126953124,-1.019589788552001,-0.42608489339947697,-2.7581664897292852
1684213751403404300,9.361404296875,-1.1743448814559727,-0.3375748352974653,-2.573930450797081
1684213751413429200,9.37142919921875,-1.2293290289878844,-0.25065350769162176,-2.2835908294051883
1684213751423453400,9.381453369140624,-1.2013947278797625,-0.23812252742052076,-1.8211533506423234
1684213751433477000,9.39147705078125,-1.0358855281841008,-0.3646294309616089,-1.2110180040106178
1684213751443502000,9.401502197265625,-0.8428682169031352,-0.521541409638524,-0.536731964507699
1684213751453526300,9.4115263671875,-0.5132879605561494,-0.7494231135517359,0.09238894536197186
1684213751463551200,9.42155126953125,0.03386427567899227,-0.9466109885156154,0.7810890024036169
1684213751473575400,9.431575439453125,0.6766898857742547,-1.1033943723767996,1.4282298453494906
1684213751483599000,9.44159912109375,1.2085292559348046,-1.1931962238550184,1.9517109908789396
1684213751493624300,9.451624267578126,1.5601478141538798,-1.1916963406860828,2.3479203859746454
1684213751503648300,9.461648193359375,1.8700088592261075,-1.0816273617267609,2.842891476334631
1684213751513673200,9.471673095703125,2.0147849944293497,-0.7211673254042863,3.585456979076564
1684213751523697400,9.481697509765626,2.132520562493801,-0.22171967415213584,4.1232887215197085
1684213751533721000,9.49172119140625,2.3042530936837196,0.12958382676839827,4.479431771425903
1684213751543746300,9.501746337890625,2.463120882603526,0.3509258997797966,4.8008910459637635
1684213751553770200,9.511770263671876,3.015084318512678,0.6107230833917856,5.2528562305510045
1684213751563795500,9.52179541015625,3.5263223608016965,0.471553682154417,5.831655066415667
1684213751573819100,9.531819091796875,3.10629779035449,-0.02576806298494339,6.2337412445902824
1684213751583843300,9.54184326171875,2.422689503493905,-0.5586106188386678,5.834014196762443
1684213751593868300,9.551868408203125,1.3464777370750902,-1.3955109403133392,4.043302161613107
1684213751603892200,9.561892333984375,-0.16289865187108515,-2.3460493314057587,1.7559020030528305
1684213751613917400,9.57191748046875,-1.1225830569714308,-3.133736416900158,-0.4704904368370771
1684213751623941000,9.581941162109375,-1.145689791792631,-3.7479151937037702,-2.1057269558534024
1684213751633965300,9.59196533203125,-0.5227647774210199,-3.8658541753858326,-2.7333143725454807
1684213751643990300,9.601990234375,-0.5051484932422637,-3.5674475673943755,-2.836541815046966
1684213751654014500,9.612014404296875,-1.5538964986741541,-3.1873703919321295,-3.1453476519778367
1684213751664039400,9.622039306640625,-2.6174229710429904,-3.21789997023046,-3.3108038793772456
1684213751674063000,9.63206298828125,-2.8274884477585553,-3.172676680669188,-3.238933113647997
1684213751684087300,9.64208740234375,-2.352143556627631,-2.665115865588188,-3.036320875547826
1684213751694112300,9.6521123046875,-1.5188351221650838,-2.1642601011037823,-2.8451529915258287
1684213751704136400,9.662136474609374,-0.6181430042594671,-2.1245640505313874,-2.7541782968759536
1684213751714161400,9.672161376953126,-0.12743161717057228,-2.215775184285641,-2.7002684275120497
1684213751724185300,9.682185302734375,0.26110709716677666,-2.151935457059741,-2.5739047318339345
1684213751734209300,9.692209228515624,0.9114180945813656,-2.099920607662201,-2.118422771297395
1684213751744234200,9.702234130859376,1.5716659641206263,-2.083554579272866,-1.2976666521549225
1684213751754258400,9.712258544921875,1.9225567925870417,-2.0605314310818907,-0.34695611936599013
1684213751764283100,9.722283203125,1.7977251287817955,-1.3871844259947537,0.760873897370696
1684213751774307300,9.732307373046876,0.9082219288885592,0.4032558064758777,2.048880448515713
1684213751784331300,9.742331298828125,-0.47580315629243847,3.3122201759159564,3.5090117450386282
1684213751794356200,9.752356201171875,-1.671086123293638,7.171935117894411,4.9164171212852
1684213751804380200,9.762380126953126,-2.6438556354165077,9.794550396883487,5.036348738089203
1684213751814405000,9.772405029296875,-3.936954833525419,11.4534469006896,3.69681512106359
1684213751824429300,9.78242919921875,-3.467111462420225,11.402544396448135,2.6322362170323728
1684213751834453200,9.792453369140626,-0.7116437102556228,8.851572211912274,1.5395768814206123
1684213751844478500,9.802478515625,2.6578619489371773,3.897991188880801,0.8604571381509304
1684213751854502100,9.812502197265625,3.926484877437353,-0.5606681358903646,-0.15140461343228817
1684213751864527000,9.822527099609376,2.728078225457668,-3.100016518127918,-1.6511837374716996
1684213751874551300,9.83255126953125,0.7688836008250713,-3.8241198969841,-2.5810645404607055
1684213751884575500,9.842575439453125,-0.5411655630409717,-2.6864450693428514,-2.6906802226945756
1684213751894600400,9.852600341796874,-0.04945526457522064,-1.6396084504902362,-2.2079969514995814
1684213751904624000,9.8626240234375,0.6527285799503326,-1.0882809743970632,-1.4045634308189152
1684213751914649300,9.8726494140625,1.1181576417446135,-0.34571138000190255,-0.5817191072255372
1684213751924673300,9.88267333984375,0.9726806647956371,0.29658289969563484,-0.43421763871163127
1684213751934698200,9.8926982421875,0.32665768343117085,0.614832856798172,-0.9594491350397467
1684213751944722200,9.90272216796875,-0.5842249525666237,0.46118134122192855,-2.143074397473037
1684213751954746400,9.912746337890624,-1.2990847022593022,-0.013124854511022566,-3.2693063323408365
1684213751964771300,9.922771240234376,-1.7945242869138716,-0.5789964042633772,-3.1085388472795485
1684213751974795300,9.932795166015625,-1.8620985244929789,-0.8275345272362232,-2.4826024126648902
1684213751984819200,9.942819091796874,-1.7887001108050344,-0.7156704815536737,-0.9988207759633659
1684213751994844200,9.95284423828125,-1.2250129193544388,-0.5001233585566282,0.46733811028599737
1684213752004868400,9.962868408203125,-0.20049100816249846,-0.052719198274612425,1.4541352709785103
1684213752014893300,9.972893310546874,0.7177472878277301,0.6881026756703853,2.059150498117506
1684213752024917200,9.982917236328126,1.006536172646284,1.430802618446946,2.1360756246268746
1684213752034941200,9.992941162109375,0.8093220672626048,1.8895669616550206,1.686977812169492
1684213752044966100,10.002966064453124,0.7743477114498615,1.806491788083315,0.8444313015013932
1684213752054990300,10.012990234375,0.7667793220221996,1.40455466299057,-0.22449790669381617
1684213752065015300,10.023015380859375,0.7848071461439132,1.021449079617858,-1.3045742395862936
1684213752075039500,10.03303955078125,0.936913770365715,0.6380418829500675,-1.9359797532618044
1684213752085063200,10.043063232421876,1.1549696613132954,0.40347207957506176,-2.612013513214886
1684213752095088000,10.053088134765625,1.4250690432310102,0.08631517840623855,-3.2507047999843954
1684213752105112300,10.0631123046875,1.508762056440115,-0.09006839345991612,-3.5288682458922267
1684213752115137300,10.07313720703125,1.270350775206089,-0.185256614151597,-3.646358314763009
1684213752125161200,10.0831611328125,1.053094583268836,-0.08881810113787651,-3.4131168373823164
1684213752135185200,10.09318505859375,0.829322068240121,-0.11663608238995074,-2.9981305533632634
1684213752145210400,10.10321044921875,0.7502280732590705,-0.19499650239944458,-2.297510633686185
1684213752155234300,10.113234375,0.5519266110301018,-0.20151392146945,-1.5089306910052895
1684213752165259300,10.12325927734375,0.31230299486424773,-0.2743453489243984,-0.9531249004542827
1684213752175283200,10.133283203125,0.02467617609500885,-0.1995394065260887,-0.6547182924628258
1684213752185308200,10.14330810546875,-0.31447153454236687,-0.02818739908635616,-0.4625288103081286
1684213752195332400,10.153332275390625,-0.5101484934866428,0.08656418473124504,-0.33056846366673703
1684213752205356300,10.163356201171876,-0.6177320853710174,0.10056289946734905,-0.007460252878069877
1684213752215381800,10.1733818359375,-0.4834241892227903,-0.20707856985926626,0.7129967322997749
1684213752225406000,10.183406005859375,-0.1984416744172573,-0.7007774483263493,1.527663448525965
1684213752235431000,10.193430908203124,0.0369171969762072,-0.913603037405014,2.2368455909736453
1684213752245454800,10.203454833984376,0.20138532665371894,-0.7947060243457555,2.7341201359704135
1684213752255478800,10.213478759765625,0.2551098295133561,-0.5863175409317016,2.9514480049043894
1684213752265504000,10.22350390625,0.23185411467552183,-0.45056759274899955,2.715422449763119
1684213752275528000,10.23352783203125,0.20921317073516546,-0.4427145411610603,2.1726636261813344
1684213752285553000,10.243552978515625,0.19793891252689064,-0.5643669904083013,1.6447069426730274
1684213752295576800,10.253576904296875,0.22265958535075187,-0.9618015433847904,1.3107514669165015
1684213752305600800,10.263600830078126,0.3224034965854138,-1.8677450059473513,1.3390811970829963
1684213752315626000,10.2736259765625,0.6176864195983857,-3.26226868878901,1.5700097213461994
1684213752325650000,10.28364990234375,1.1685632293146102,-4.85735293789804,1.9087746432110666
1684213752335675000,10.2936748046875,1.8651158264875412,-5.729751858255267,2.5843580290481447
1684213752345698800,10.30369873046875,1.9615609153725206,-4.609429731953144,3.191157216994464
1684213752355723000,10.313722900390625,0.48307460860013957,-1.120157875651121,3.406656993718445
1684213752365748000,10.323748046875,-1.8274843072295188,3.1576930465489625,3.1468869903743264
1684213752375772000,10.33377197265625,-4.324699767136574,7.393926010203361,2.4169018600031733
1684213752385796900,10.343796875,-6.5980924431324,10.482260273844004,-0.8893921407341957
1684213752395820800,10.35382080078125,-7.0780246620535845,9.683055769035219,-5.93370265148282
1684213752405845000,10.363844970703125,-5.387867927587032,4.803270634576678,-7.6983444258302445
1684213752415870000,10.373869873046875,-2.2771778936229645,0.7191478022754192,-4.912027946415543
1684213752425894100,10.38389404296875,-0.038668314959853886,-1.697142355570197,-3.2461054894953962
1684213752435918800,10.3939189453125,1.1867103689670562,-2.942957239934802,-2.712397256723046
1684213752445942800,10.40394287109375,1.6913902217842638,-3.4102520956009625,-1.9234099022850393
1684213752455967000,10.413967041015624,1.8377673624433577,-3.2550621184110637,-1.1683975904241204
1684213752465992000,10.423991943359376,1.736912786553055,-2.1357517994999884,-0.2941755462929606
1684213752476015900,10.434015869140625,1.4403016836762428,-0.4060036438792944,0.42159196589440107
1684213752486040800,10.444040771484374,0.9345171575527638,0.7221995910614728,0.5533700878366827
1684213752496065000,10.45406494140625,0.11258812217339872,0.9081284053862094,0.5867004027694463
1684213752506089000,10.4640888671875,-0.8728678530432283,0.3805319334924221,0.7794885814696549
1684213752516114000,10.474114013671874,-1.713136628037691,-0.2747556832909584,1.3452408887565135
1684213752526137900,10.484137939453126,-2.147351051878929,-0.7229074470698833,2.095098886594176
1684213752536162800,10.494162841796875,-2.098949132281542,-0.8406389234811067,2.725367212933302
1684213752546187000,10.50418701171875,-1.6781985856473445,-0.5166021996706723,2.8395673003479835
1684213752556211000,10.5142109375,-1.144755798878148,0.10547288334071636,2.5567341090634463
1684213752566236000,10.52423583984375,-0.6830280027545989,0.6600415333122015,1.9993939485520122
1684213752576259800,10.534259765625,-0.4507705679751932,0.9614829789549112,1.2374272875085472
1684213752586284800,10.544284912109376,-0.4277300302579999,1.0822381871014832,0.37079409107118844
1684213752596309000,10.55430908203125,-0.4130792813539505,1.1561106480419636,-0.5778676924943924
1684213752606333000,10.5643330078125,-0.47766763499006626,1.2635586308479307,-1.4827201449498533
1684213752616358000,10.57435791015625,-0.706531481808424,1.3240718439996242,-2.0403455521434544
1684213752626381800,10.5843818359375,-0.9309155528642237,1.2863158215790986,-2.0420283906638623
1684213752636406800,10.59440673828125,-1.0428525176525116,1.2083066992253064,-1.869534227451682
1684213752646431000,10.604430908203126,-1.6912250943504272,1.0809522389441728,-1.6850798695936797
1684213752656455000,10.614454833984375,-2.0567560041964055,0.9173726190716027,-1.5591782384693622
1684213752666479900,10.62447998046875,-2.219206327778101,1.000920670852065,-1.5481123623147606
1684213752676503800,10.63450390625,-2.215786874723434,1.0682131688803433,-1.7033870951786636
1684213752686529000,10.644529052734375,-2.1465910272918642,0.8708622123092412,-1.9401073545858263
1684213752696553000,10.654552978515625,-2.4132138191401955,0.52332069427073,-2.187118414121866
1684213752706577000,10.664576904296876,-2.796857747173309,0.39154315685033797,-2.225086033466458
1684213752716601900,10.674601806640625,-2.744862186998129,0.11614099234938621,-1.820479543033987
1684213752726625800,10.684625732421875,-2.5059353574573993,-0.34676644201278684,-1.2766831930980085
1684213752736651000,10.694651123046874,-1.8317616922877729,-1.2319570394039154,-0.6473693910047411
1684213752746675000,10.704675048828125,-1.3500013811565934,-2.319565229105949,0.07797229747474194
1684213752756700000,10.714699951171875,-1.1892670677125454,-3.642869595864415,0.871806215161085
1684213752766723800,10.724723876953124,-0.6051321315169335,-4.731797051471472,2.050888135076314
1684213752776748000,10.734748046875,0.8703541166566312,-5.051448692065477,3.5228690054774283
1684213752786773000,10.74477294921875,2.5662673688232895,-3.000419248822331,4.7501697435081
1684213752796796700,10.754796630859374,3.4123686493635175,1.1744985376477242,4.721988481901586
1684213752806822000,10.76482177734375,3.1846225545287132,4.885933720216155,4.5939568530112505
1684213752816845800,10.774845703125,2.622846749657392,6.77245123117268,4.584260511644184
1684213752826870000,10.7848701171875,1.924107090768963,6.996121454870701,2.890210569131374
1684213752836895000,10.79489501953125,1.3264051092527807,5.988778057494759,0.5380015460520983
1684213752846919000,10.8049189453125,0.5776455741763115,4.561628116336465,-1.896222327890992
1684213752856943900,10.81494384765625,-0.41439299430102106,3.8181343928337097,-4.0549572358325126
1684213752866967800,10.8249677734375,-1.4087490459404886,3.2790468051105734,-5.298576363718509
1684213752876992000,10.834991943359375,-1.9750296148851512,2.3151222782224417,-6.215472597450018
1684213752887017000,10.845016845703125,-2.3549323105633255,0.81077394657135,-6.090052904623747
1684213752897041000,10.855041015625,-2.2527006011009214,-0.3719470604985952,-4.8060514974668616
1684213752907065900,10.86506591796875,-1.5385621514201164,-1.1383961276531218,-2.9455364427730437
1684213752917090000,10.875090087890625,-0.7822797465581447,-1.4182359823405741,-1.6323162476554511
1684213752927114000,10.885114013671876,0.1911526499202475,-1.552941974428296,-0.22515929321199654
1684213752937138700,10.895138671875,1.256059215003252,-1.2736246823102235,1.2042618077486753
1684213752947163000,10.905162841796875,2.092693579018116,-1.3199842824250458,2.525975105923414
1684213752957187800,10.915187744140624,2.8524019397407767,-1.470305192273855,3.6081554253578183
1684213752967212000,10.9252119140625,3.6164801861107345,-1.6333528972268103,4.628533368612826
1684213752977235700,10.935235595703125,3.961563789603114,-1.6498019277244804,5.410357991814613
1684213752987261000,10.945260986328124,4.0550586503803725,-1.6887269939243792,5.453653528183699
1684213752997284900,10.955284912109375,4.386801710784435,-1.8444424562931059,5.205324079525471
1684213753007309800,10.965309814453125,4.788324409857392,-1.304439507290721,4.93152350500226
1684213753017334000,10.975333984375,4.677756249204278,-1.0166273585498333,3.7939024533748626
1684213753027357700,10.985357666015625,4.814044542047381,-0.7371195122957229,2.8272032010763883
1684213753037383000,10.9953828125,4.684677572900057,-0.5054658886283636,1.8713722565338013
1684213753047406800,11.00540673828125,4.032271064510941,-0.5356535216212273,1.0134566195592283
1684213753057432000,11.01543212890625,3.127346423602104,-0.5658364784389734,0.20525456930249927
1684213753067456000,11.0254560546875,2.249353628760576,-0.6303419760972261,-0.5091922156751155
1684213753077480000,11.03547998046875,1.660556545972824,-0.5784001919358969,-0.9459951947048306
1684213753087505000,11.0455048828125,1.1770248412549495,-0.328272753944993,-1.140854334460199
1684213753097528800,11.05552880859375,0.7811877135377376,-0.10457096606492995,-1.290274496077001
1684213753107554000,11.065553955078125,0.3902005100697279,0.02264262444078922,-1.3511749549806118
1684213753117577700,11.07557763671875,0.13796236353516578,0.07736030305624007,-1.428922796049714
1684213753127602700,11.085602783203125,-0.05634034791383892,0.07620762588977813,-1.4814303974002598
1684213753137627000,11.095626953125,-0.09966916549801826,0.09775836344063281,-1.8591794221758842
1684213753147651000,11.105651123046876,-0.09696805331315844,0.174661570379138,-2.3169945018351075
1684213753157676000,11.115676025390625,-0.2590232583637349,0.4212468057185411,-2.6518641698271033
1684213753167699700,11.12569970703125,-0.447595883461833,0.7127677458494901,-2.75398861952275
1684213753177725000,11.135724853515624,-0.5665781636517495,0.9040081105858087,-2.6464012282460927
1684213753187748900,11.145748779296875,-0.6554279020369053,0.93507661806643,-2.511717740251124
1684213753197773000,11.15577294921875,-0.8091770327687263,0.6545335835456848,-2.3259183975249527
1684213753207798000,11.165798095703124,-0.8275801199436187,0.29744974565804005,-1.8651044283106921
1684213753217821200,11.1758212890625,-0.6802975548774004,0.05634791016578674,-1.2772817435130477
1684213753227846100,11.18584619140625,-0.6100935533165931,-0.18524959988892079,-0.8000804108604789
1684213753237870000,11.1958701171875,-0.5117272871106863,-0.38018940366506576,-0.37267771286070345
1684213753247894000,11.20589404296875,0.026523886320926247,-0.43670507161319255,0.031153555415570734
1684213753257919000,11.2159189453125,0.8983715660035609,-0.3513122687488794,0.4025169708073139
1684213753267943200,11.225943115234376,1.7015432208776473,-0.18025778295099734,0.6389563674464821
1684213753277968100,11.235968017578125,2.1702865217864513,-0.0027986908078193665,0.6784916744992137
1684213753287992000,11.245991943359375,2.3374925154626367,0.21756664612591264,0.6842977304294705
1684213753298016000,11.25601611328125,2.227721642667055,0.38908933395743367,0.6407642936512827
1684213753308041200,11.266041259765625,1.9953221690684555,0.2544903093755245,0.47104836298078295
1684213753318065200,11.276065185546875,1.6792992403656244,0.09914601840674876,0.2256280797675252
1684213753328089900,11.28608984375,1.49463474688828,0.061112932610511775,-0.1037193176716566
1684213753338114000,11.296114013671875,1.4979022242516278,-0.033031916508078574,-0.5595280259445309
1684213753348138000,11.306137939453125,1.5995418130397796,-0.08288111230432987,-0.8970140139147639
1684213753358163200,11.3161630859375,1.7559499338477849,-0.2074164235115051,-1.0001610846564173
1684213753368187100,11.326187255859375,1.8626818773388862,-0.5280266800045966,-1.0261004125550388
1684213753378212000,11.336212158203125,1.848640492504835,-0.8477554774880409,-1.0066887328594922
1684213753388236000,11.346236083984374,1.6830325816750527,-1.0372551360368727,-0.9727920162156224
1684213753398260200,11.35626025390625,1.5526725098371505,-0.9941548299789428,-0.7898577075317501
1684213753408285200,11.36628515625,1.2675152595192194,-0.712169195434451,-0.5927449436306953
1684213753418308900,11.376308837890624,0.9312451501447707,-0.47044484412968157,-0.45146804872006174
1684213753428334000,11.386333984375,0.740045628875494,-0.3061275576323271,-0.44487581084817646
1684213753438358000,11.39635791015625,0.4025999729156494,-0.2123795988768339,-0.49873716489523645
1684213753448383000,11.406383056640625,0.0044277898469939824,-0.12407821508944034,-0.4770905657544732
1684213753458407200,11.4164072265625,-0.2900700837355107,-0.006934183177351951,-0.3878057238876819
1684213753468431000,11.42643115234375,-0.3800835686704144,0.02262567330598831,-0.19329758952707052
1684213753478456000,11.4364560546875,-0.3430243328750133,0.051416298982501024,0.17800971176326275
1684213753488480000,11.44647998046875,-0.18633089231960476,0.09474339953362941,0.6337716582849622
1684213753498505200,11.456505126953125,-0.05569024997465312,0.11936287700533867,1.3131518060564995
1684213753508529200,11.466529052734375,0.12499240732491015,0.046563598254323005,1.9063386482357978
1684213753518553000,11.476552978515626,0.2845780256578699,-0.12738017924427986,2.359400103627145
1684213753528578000,11.486578125,0.30706516727600247,-0.26893618335723873,2.6454890818372365
1684213753538602200,11.496602294921875,0.28094989828858524,-0.4404483497947454,2.776091437998414
1684213753548627200,11.506627197265624,0.1539958355018869,-0.5456991148173809,2.6808415502473713
1684213753558651000,11.51665087890625,-0.005035035025142133,-0.7905360451847314,2.223996776925027
1684213753568675000,11.526675048828125,-0.004683737369440496,-1.2377081502765417,1.7759186629042027
1684213753578700000,11.536699951171874,0.055436092550493775,-1.807203735744953,1.3488690161257981
1684213753588724200,11.54672412109375,0.24852939167711882,-2.4452923804461957,1.1389449937075375
1684213753598749200,11.556749267578125,0.7607920643061399,-3.129637164887786,0.9817468915656209
1684213753608773000,11.566773193359374,1.3850275402218102,-3.9396243449956176,0.7794464958935976
1684213753618797000,11.576797119140625,1.729130900505185,-4.686187977463007,0.391045144200325
1684213753628822000,11.586822021484375,1.7364421003013848,-5.180621015423536,-0.15781564951837063
1684213753638846200,11.59684619140625,1.5672177525401114,-5.2833916540682315,-0.5043509131237864
1684213753648871200,11.60687109375,1.3101923717290163,-5.141870721268654,-0.5995110767647623
1684213753658895000,11.61689501953125,1.0104179825156927,-4.8418531709492205,-0.49981736134737725
1684213753668920000,11.626920166015625,0.8396423136591911,-4.4090147116363045,-0.29475276165902614
1684213753678944000,11.636944091796876,0.7540531114399432,-3.903425488889217,0.07749503535181283
1684213753688968200,11.64696826171875,0.7983341517150402,-3.399116953602433,0.7027922952800989
1684213753698993000,11.656992919921874,0.8401520167469978,-2.8693314472317692,1.417149356147647
1684213753709017000,11.66701708984375,0.8354653202354908,-2.434172436016798,1.984939014481008
1684213753719042000,11.6770419921875,0.7986801886737346,-2.2121996638864276,2.36683229945451
1684213753729066200,11.687066162109375,0.6864262668907642,-2.4155571673959493,2.388357610303163
1684213753739090000,11.69708984375,0.24476265955474227,-3.0028268944859504,2.072771027190983
1684213753749115000,11.707114990234375,-0.8357657644867896,-3.672976564836502,1.5816656723484397
1684213753759139000,11.71713916015625,-2.4342495929062364,-3.30473478859663,0.5358098812267184
1684213753769164000,11.7271640625,-4.909520932030677,1.2745417971551418,-0.9954688351869583
1684213753779188200,11.737188232421875,-3.7889082983493805,11.339549303352833,0.5690192001283169
1684213753789212000,11.7472119140625,-1.4991139381289482,18.50991790258288,2.717875103612244
1684213753799237000,11.757237060546874,1.7534861740827559,27.814988499999046,4.039687478247284
1684213753809261000,11.767260986328125,3.470022381430864,34.07918567312956,5.661359290030599
1684213753819286000,11.7772861328125,-1.3847101448357104,18.673379449033735,4.656506540426611
1684213753829310200,11.787310302734374,-6.015920331442356,2.1452894431740046,-0.9829986451923847
1684213753839334000,11.797333984375,-5.511642775815725,-4.6527673538982866,-7.532090618312359
1684213753849359000,11.807359130859375,-0.9238976369261741,-7.283106505137681,-9.459486083102226
1684213753859383000,11.817383056640624,3.0873744786977766,-8.253775245589017,-8.546013978600502
1684213753869408300,11.827408203125,4.679133967298269,-8.89165989215076,-7.698638440340757
1684213753879432000,11.837431884765625,5.096362185025215,-8.444000295802951,-7.660041290920972
1684213753889456000,11.8474560546875,4.405751910448074,-6.446590214544535,-8.01514184603691
1684213753899481000,11.857481201171876,3.9483120938420293,-5.932423133066297,-5.99662760195136
1684213753909505000,11.867505126953125,2.064630683094263,-5.113447759860754,-2.5957331172823905
1684213753919530200,11.8775302734375,-0.7656815899133682,-1.161719720095396,0.7689771243274212
1684213753929554000,11.887553955078126,-3.374965093642473,3.9324242043584583,3.654820730420947
1684213753939579100,11.8975791015625,-4.652781382423639,6.563661181220412,5.322145455354452
1684213753949603000,11.90760302734375,-4.914772276687621,7.077807219910621,5.477026220464706
1684213753959627300,11.917627197265626,-2.7446961827814578,5.073029824754595,5.051258722451329
1684213753969652200,11.92765234375,-0.7278139238119125,2.983758036878705,3.332847661142051
1684213753979676000,11.937676025390624,1.4626491245627402,-0.1595762294501066,1.1541340872719883
1684213753989700000,11.9477001953125,2.2602292430400848,-2.1991636567026376,-0.5341498390600085
1684213753999725000,11.95772509765625,2.0581156021118163,-3.147556267938018,-2.023779325006902
1684213754009749200,11.967749267578125,1.6539701533198357,-3.069458298256993,-3.165181940999627
1684213754019774000,11.97777392578125,1.0305752198815346,-2.060031080344319,-3.740194536323845
1684213754029798100,11.987798095703125,0.7636193966865539,-1.0923615217089653,-3.810705704137683
1684213754039823000,11.997822998046875,0.8131202905017882,-0.19439502937495706,-3.451267704339325
1684213754049847000,12.007846923828126,0.8188988008379936,1.0522487070292235,-2.8875694069728253
1684213754059871000,12.01787109375,0.6193968037128448,1.9919851336002348,-2.280098895636201
1684213754069896000,12.02789599609375,0.4580875033924356,2.3455776222407816,-2.1538322305917736
1684213754079920000,12.037920166015626,0.31343934195041656,2.5233020873218774,-2.118428324255347
1684213754089945000,12.047945068359375,0.25095866465065625,2.109612565115094,-2.1311828841492533
1684213754099969000,12.057968994140625,0.49758594903349873,1.347453888630867,-2.302644489443302
1684213754109993000,12.067992919921876,0.5567758411595598,0.5931605386942624,-2.111143135683238
1684213754120018000,12.078017822265625,0.43701315118167544,0.18209142811894416,-1.856686144055426
1684213754130042000,12.0880419921875,0.32417350193262096,-0.18051321901679038,-1.632016095665097
1684213754140067000,12.098067138671874,0.3179330731730908,-0.3100689887344837,-1.3466376038119197
1684213754150091300,12.10809130859375,0.288566766500473,-0.39718262404203414,-0.9656064886257052
1684213754160115000,12.118114990234375,0.16903792181108146,-0.30113047999739645,-0.4823220366671681
1684213754170140000,12.128139892578124,0.18668460112810134,-0.44722588110566136,-0.48547962391525507
1684213754180164000,12.1381640625,0.33015900608301163,-0.41351591920554637,-0.03263970232009888
1684213754190189000,12.14818896484375,0.29153500518891956,-0.45979134816825384,0.6531356994464993
1684213754200213000,12.158212890625,-0.18863226459715515,-0.4626981755256653,1.18434393209666
1684213754210237000,12.16823681640625,0.3451695282101631,-0.5406850860476493,0.973549848845601
1684213754220262100,12.17826220703125,0.11459084029793738,-0.37578736931383605,1.3478838044807313
1684213754230286000,12.1882861328125,-0.03310848887562751,-0.1193394961297512,1.6436346372663975
1684213754240311000,12.19831103515625,-0.036667094672657545,-0.050502691268920895,1.7625415871977805
1684213754250335200,12.208335205078125,-0.36955574491526927,-0.12631693392693996,1.7546105019375682
1684213754260360200,12.218360107421875,-0.7180617606043815,-0.11889116784036159,1.621094596417248
1684213754270384000,12.228384033203126,-0.8369780628859996,0.024144261175394057,1.5236708717584608
1684213754280408000,12.238407958984375,-0.7744283754706383,0.029160628032684325,1.4584543032214046
1684213754290433300,12.248433349609375,-0.6881003375828266,-0.04266308368444442,1.1893486085161566
1684213754300457200,12.258457275390626,-0.6198597450494766,-0.05886719951033592,0.8612555950522423
1684213754310482200,12.268482177734375,-0.4299871250024065,-0.11447568948566914,0.622145517899096
1684213754320506000,12.278506103515625,0.007718063564039766,-0.3466775946855545,0.18165712835490702
1684213754330530000,12.288530029296876,0.15535656592845914,-0.3953799585342407,0.06334171457588672
1684213754340555300,12.29855517578125,0.25658874295949935,-0.34247838943004605,-0.04732376897186041
1684213754350579200,12.3085791015625,0.27694413324594497,-0.1856628568649292,-0.14334814822673797
1684213754360604200,12.318604248046874,0.323606515699625,-0.15841478445529936,0.06414718573987484
1684213754370628000,12.328628173828125,0.1753927707305178,0.13087094396948815,-0.05907938095629215
1684213754380652300,12.33865234375,0.09759886202998459,0.3100222269833088,-0.23808394897580146
1684213754390677200,12.34867724609375,-0.19627784744687377,0.27361586560606954,-0.6797317376881837
1684213754400701000,12.358700927734375,-0.44768765339851374,-0.4293775052040815,-1.1625190537795425
1684213754410726100,12.36872607421875,-0.38090021881554276,-0.5720154593348503,-0.9959200860857963
1684213754420750000,12.37875,-0.28792149086687713,0.3143091105222702,-0.5132239554092288
1684213754430775000,12.388775146484376,-0.10768296060562133,0.4503407982558012,-0.3976517028585076
1684213754440799200,12.39879931640625,0.04237776393704116,1.8642425507843494,-0.34497342111617324
1684213754450823200,12.4088232421875,0.38718262355327604,3.0952988419562577,-0.9938879957363009
1684213754460848000,12.41884814453125,0.7136112109363079,0.5666536400407552,-0.6864344501972198
1684213754470872000,12.4288720703125,0.7192927637040615,0.34354981805384155,0.0918228359118104
1684213754480897300,12.438897216796875,0.8114063992559909,-0.5245931984245776,0.6274214124754071
1684213754490921200,12.448921142578126,1.0426210469841957,-1.684357692798972,1.2331488795369863
1684213754500945200,12.458945068359375,1.3094739943265914,-2.30869078387022,1.709884348243475
1684213754510970000,12.46897021484375,1.253393795186281,-1.7695470820456742,1.2094494395196438
1684213754520994300,12.478994384765626,1.0560825861036778,-0.7460054140627383,0.5911050674691796
1684213754531019300,12.489019287109375,1.0547041373573243,0.14814531937539577,-0.13224749301970004
1684213754541043000,12.49904296875,0.9758487734377383,0.5808762266606092,-1.0280801881954074
1684213754551068200,12.509068115234374,0.6538765809416771,0.5970370878666639,-1.6597046053186058
1684213754561092000,12.519092041015625,0.2322386570136994,0.5589619164943694,-2.0406404434368013
1684213754571116300,12.5291162109375,-0.13464001417942345,0.40484979766905305,-2.0191461122483014
1684213754581141200,12.539141357421874,-0.3567920883994549,0.21749650349915026,-1.647475238342583
1684213754591165200,12.549165283203125,-0.36252624813728035,0.01834580402970314,-1.0091220974862576
1684213754601190100,12.559190185546875,-0.3872282162606716,-0.3788835817635059,-0.25849603788554665
1684213754611214000,12.569214111328124,-0.5380733691792935,-0.3925385976284742,-0.08058014188557863
