time,seconds_elapsed,z,y,x
1684211639482573600,0.035573486328125,0.14895195958316326,-0.23722937797307966,0.16811317164897918
1684211639492599800,0.045599853515625,0.179413769874908,-0.00762742613852024,-0.10040507855713367
1684211639502625800,0.055625732421875,0.1125292315930128,0.1382446876078844,-0.3820610427558422
1684211639512651800,0.06565185546875,0.032267982930876314,0.08115326559841632,-0.4193500321865082
1684211639522678500,0.075678466796875,0.08597560772094875,0.0568026681959629,-0.30599662472903727
1684211639532704500,0.08570458984375,0.18450959517657756,-0.002339256602525711,-0.02521159814596176
1684211639542730500,0.09573046875,0.27661391491089016,-0.27812895911633967,0.25091537349820137
1684211639552756500,0.105756591796875,0.3000771715521812,-2.3309207358568904,-0.7539993354260921
1684211639562782500,0.115782470703125,0.248614713606704,-2.83318636713922,-1.3838696023583412
1684211639572809700,0.125809814453125,-0.09813947171270847,-2.626159819728136,-1.1213514693498612
1684211639582835700,0.135835693359375,-0.5696329481124878,-1.6071172167301178,-1.3091706274658441
1684211639592861700,0.14586181640625,-0.45453240472674367,-0.6391185722708702,-1.4834329693943262
1684211639602888700,0.155888671875,0.1373380941569805,0.14273556928634643,-1.3706459636479615
1684211639612915500,0.16591552734375,0.18544073854684828,0.5974684650212526,-1.4262643904954193
1684211639622941400,0.17594140625,0.2115688670158386,0.9458528636246919,-0.8949836771309375
1684211639632967400,0.185967529296875,0.3554419158995151,1.38441262319386,0.32319501228928565
1684211639642993400,0.195993408203125,0.26892215483188625,0.9209200824201107,0.5647650498151778
1684211639653020400,0.2060205078125,-0.027306506332289426,0.0043313072025775905,0.988249989849329
1684211639663046700,0.216046630859375,-0.10522561231506988,-0.7559089684396981,1.359973762986064
1684211639673072600,0.22607275390625,0.047663065662514416,-0.6355190864741802,0.9228355606526136
1684211639683098600,0.2360986328125,0.11134908189773558,-0.09779460379779338,0.25496260306239127
1684211639693124600,0.24612451171875,0.10419804109930991,0.2161222925364971,-0.10088672459423541
1684211639703151400,0.2561513671875,0.04181433963431045,0.7077244909852742,-0.3395002504020929
1684211639713177300,0.26617724609375,0.042879338517319406,0.8637520880430937,-0.3904916019707918
1684211639723203300,0.276203369140625,0.07303131567491218,0.6071499010801314,-0.3187666744530201
1684211639733229300,0.286229248046875,0.004901782300602645,0.4285281948983669,-0.39564913086444137
1684211639743256600,0.296256591796875,0.0160509345581755,-0.44050797102749345,-0.37258302031457424
1684211639753282600,0.306282470703125,0.35605800197124476,-6.235594178980588,-0.22329203803539274
1684211639763308500,0.31630859375,0.41577622882034626,-12.306846521544456,-0.00435790294855833
1684211639773334500,0.32633447265625,0.19523378175403922,-9.66430898298919,-1.2705565269112586
1684211639783361500,0.336361572265625,0.37566166057493533,-4.536611748501659,-2.2876041566997767
1684211639793387500,0.346387451171875,0.761620404889062,-0.6082499712765217,-2.0974387277185915
1684211639803413500,0.35641357421875,0.5846668511152268,1.2689923463344572,-1.9386574480384586
1684211639813439500,0.366439453125,0.2647568518459797,1.7221265747010708,-1.6027350561231373
1684211639823465500,0.376465576171875,-0.27001630674414334,1.2956915526896715,-1.122608483673632
1684211639833492500,0.386492431640625,-0.35352351505756374,0.13516133463978766,-0.6971890684455633
1684211639843518500,0.3965185546875,-0.31683775221705435,-0.5374415740817785,-0.10896423258781432
1684211639853544400,0.40654443359375,-0.6191793615698814,-0.2547983524113893,0.1472942555040121
1684211639863570400,0.4165703125,-0.8911468754470347,0.20898644930720328,-0.139597563521564
1684211639873597400,0.426597412109375,-0.5006184485971927,0.6912801366627216,0.1063838607057929
1684211639883623700,0.436623779296875,-0.21499182720184326,0.9359165760219097,0.08693506387025117
1684211639893649700,0.446649658203125,-0.7522831791579723,3.0684277861654756,0.3956178589433431
1684211639903675600,0.456675537109375,-1.8640590109109878,9.247920138695836,3.7009658110022543
1684211639913702400,0.466702392578125,-0.7979681679468601,9.82529741732478,8.803456123518943
1684211639923728400,0.476728271484375,0.30546186026521027,4.20605409848988,5.144684609645605
1684211639933754400,0.48675439453125,0.4055915559470653,5.833746485736966,-1.1500965023189782
1684211639943780400,0.4967802734375,0.4967430684685707,4.043195778629183,-4.956422968459129
1684211639953806300,0.506806396484375,0.3260719559650868,2.331764200943708,-4.7868145898163315
1684211639963833600,0.51683349609375,-0.2644844646453857,1.1891776358634232,-3.4312373082235452
1684211639973859600,0.526859619140625,-0.27179800252914427,0.12246551919579506,-1.91426067340672
1684211639983885600,0.536885498046875,-0.3336206177789718,-1.1690858649492264,0.023753508292138577
1684211639993911600,0.54691162109375,-0.5128092371284961,-1.5618056643635034,1.850221916477382
1684211640003938600,0.5569384765625,-0.5881786586284637,-1.3825678721100092,1.967745595356822
1684211640013964300,0.56696435546875,-0.42358671990819274,-0.7447282337337732,0.9604790626093744
1684211640023990300,0.576990234375,-0.24717677149176595,0.21220365778803824,-0.05072890124022961
1684211640034016300,0.587016357421875,-0.00859239871315658,0.5946428862065076,-0.7290598322197794
1684211640044043500,0.59704345703125,0.24285138257332145,0.5699275471448898,-0.950569370752573
1684211640054069500,0.607069580078125,0.4847676031883806,0.42293899658918377,-0.8128682885020971
1684211640064095500,0.617095458984375,0.7005062301695346,0.19574761302769184,-0.5042351777896285
1684211640074121500,0.62712158203125,0.7943336839020252,0.05720832638740539,-0.09938099620640277
1684211640084148500,0.6371484375,0.7027286554593593,0.023308979395031928,0.28656887068152426
1684211640094174500,0.647174560546875,0.5337970800995826,-0.03425765891075134,0.6422703143000602
1684211640104200700,0.65720068359375,0.4168306697767228,-0.1247246962994337,0.9479057045012712
1684211640114226700,0.667226806640625,0.3466154892347753,-0.2127379107952118,1.0988929693043232
1684211640124252700,0.677252685546875,0.27829905498623847,-0.2409130349218845,1.0718062249362468
1684211640134279400,0.687279541015625,0.2075741713564843,-0.3304559432029724,0.899227598311007
1684211640144305400,0.697305419921875,0.048588966602087016,-0.31556057188808917,0.6986889516144991
1684211640154331400,0.707331298828125,0.035450229696184395,-0.4054781587004661,0.4553796692058444
1684211640164357400,0.717357421875,0.06860197319164872,-0.4443482798427343,0.3355062123298645
1684211640174384600,0.727384521484375,0.051244011155515905,-0.3549883269131183,0.23819325456917284
1684211640184410600,0.73741064453125,0.016063830572366714,-0.09722118782401085,0.13480506854802368
1684211640194436600,0.7474365234375,-0.02351429270878434,0.11194470970332622,0.000173018479347229
1684211640204462600,0.757462646484375,-0.010756517944484949,0.10981880359053611,-0.17708470587283373
1684211640214488600,0.767488525390625,0.06908361922875046,0.028491350468993187,-0.31707886749655007
1684211640224515300,0.777515380859375,0.19080898758172987,-0.1332259826630354,-0.46524610644280906
1684211640234541300,0.787541259765625,0.15843348915576935,-0.287891643717885,-0.5512924047797918
1684211640244567300,0.7975673828125,0.004556932651996613,-0.2711106047868728,-0.533537260119617
1684211640254593300,0.80759326171875,-0.18216610079035161,-0.08673077346980572,-0.5474062109962106
1684211640264620500,0.81762060546875,-0.271008751847595,0.25776830813288687,-0.5155290174812078
1684211640274646500,0.827646484375,-0.221930102032423,0.5317547606170178,-0.5580129452064633
1684211640284672500,0.837672607421875,-0.0765476714991033,0.6194330440700054,-0.582279079195857
1684211640294698500,0.847698486328125,0.09556348374485969,0.5645774182885885,-0.6016755613222717
1684211640304725500,0.8577255859375,0.13901442987136542,0.35584582052528857,-0.6506029660984873
1684211640314751500,0.86775146484375,-0.01812843495197594,-0.007179682371020317,-0.67289400062263
1684211640324777700,0.87777783203125,-0.07279058398790657,-0.2789765158563852,-0.49954059023261066
1684211640334803500,0.887803466796875,-0.06639248044863343,-0.3985474826544523,-0.23143238213211298
1684211640344830500,0.89783056640625,-0.0999637645304203,-0.37749358870983124,0.14861469045281409
1684211640354856400,0.9078564453125,-0.15655965810790656,-0.24366204136908054,0.5074100084334612
1684211640364882400,0.91788232421875,-0.07752981440424919,-0.0021527941197156905,0.6861497880369425
1684211640374908400,0.927908447265625,-0.06992518461942672,0.1598246512532234,0.8338041090250015
1684211640384934400,0.937934326171875,-0.005998363631963729,0.3846317700266838,0.9716899001926184
1684211640394961700,0.947961669921875,0.0923028745137155,0.3445072649091482,0.7369003165870904
1684211640404987600,0.957987548828125,0.0969920552432537,0.17417524816691873,0.51626171566993
1684211640415013600,0.968013671875,0.2701322612740099,-0.18198329156935214,0.3428194579526782
1684211640425039600,0.97803955078125,0.45280689610838887,-0.5775730934619904,0.35047727922946215
1684211640435066400,0.98806640625,0.49057519348859785,-0.811253254520893,0.5049778128504753
1684211640445092400,0.99809228515625,0.45248190193772314,-0.8316448851644992,0.6340633347079158
1684211640455118300,1.008118408203125,0.2999718114815652,-0.6247364111751318,0.7110106730490923
1684211640465144300,1.018144287109375,0.05449161477461457,-0.3407172249764204,0.7466890124127268
1684211640475171600,1.028171630859375,-0.16177680823430418,-0.11773907519578933,0.6598740677908063
1684211640485197600,1.038197509765625,-0.25636998564228414,-0.014845686954259871,0.4965644970312714
1684211640495223600,1.0482236328125,-0.2682406023085117,0.042620998108386994,0.42992724804133176
1684211640505249500,1.05824951171875,-0.21961071917414665,0.02397767243683338,0.38521190800219773
1684211640515275500,1.068275634765625,-0.23814824638366697,-0.04222878392040729,0.3856836171671748
1684211640525302500,1.078302490234375,-0.2862064671099186,-0.12425474070012568,0.34607875200957056
1684211640535328500,1.08832861328125,-0.17600874720439313,-0.2807943789333105,0.3514139755576849
1684211640545354500,1.0983544921875,-0.06889759513735771,-0.4571422949641943,0.4480111862644553
1684211640555380500,1.10838037109375,0.024425708465278147,-0.5499748924404383,0.5566255825012922
1684211640565407500,1.118407470703125,0.11181757619231938,-0.6644687021046877,0.6694108346819877
1684211640575433500,1.12843359375,0.21372326857075094,-0.6703010615199804,0.7958174927189946
1684211640585459500,1.13845947265625,0.33177681654319163,-0.6218406897336244,0.8380117898479104
1684211640595485400,1.1484853515625,0.42428222789168357,-0.5932382801055908,0.8427130994066595
1684211640605512200,1.15851220703125,0.45368148698583244,-0.6329658948600292,0.8544622816503047
1684211640615538200,1.1685380859375,0.5143685953997075,-0.7435644506514072,0.7312471131309867
1684211640625564400,1.178564453125,0.34622722056955096,-0.7617465885519981,0.8342530218362808
1684211640635590400,1.18859033203125,0.3260226369306445,-0.7184083820849657,0.87547116740942
1684211640645616400,1.198616455078125,0.25199074764475227,-0.7334253339529037,0.8150123147934675
1684211640655643100,1.20864306640625,0.17279636102914808,-0.6014455519586801,0.792146402990818
1684211640665669000,1.218669189453125,0.07885200291872024,-0.3939636619955301,0.727484837988019
1684211640675695000,1.228695068359375,0.10222104193791746,-0.2812807011455297,0.7025415353894233
1684211640685721000,1.23872119140625,0.19554946010708807,-0.21965923449099062,0.7319523387908935
1684211640695748400,1.248748291015625,0.180599728256464,-0.27029987292587754,0.7892495125055312
1684211640705774300,1.2587744140625,0.1355924195334315,-0.3512351118594408,0.8606234346285462
1684211640715800300,1.26880029296875,-0.02086874663606286,-0.33183541486263274,0.8941779137060045
1684211640725826300,1.278826416015625,-0.2991188479140401,-0.2620785725474357,0.8774412984386086
1684211640735853300,1.288853271484375,-0.2541642922915518,-0.12910218073129653,0.8532768712580203
1684211640745879300,1.29887939453125,-0.033645226100832225,-0.07895546329319476,0.7661699579522013
1684211640755905000,1.308905029296875,0.09086948070973157,-0.15770049870610237,0.6776783122897148
1684211640765931000,1.318930908203125,0.20655133111476898,-0.22312661834061145,0.48410921234488485
1684211640775958300,1.328958251953125,0.19332491592541337,-0.1985889739334583,0.20206132621914147
1684211640785984300,1.338984375,0.2361750466145575,-0.21323709248900413,0.16283903063833713
1684211640796010200,1.34901025390625,0.26676176192760465,-0.19526772055625916,0.0954521323248744
1684211640806036200,1.3590361328125,0.27956016096323727,-0.24676000738441942,0.10687690491974353
1684211640816062200,1.369062255859375,0.22365312643274662,-0.3440279569596052,0.2154167746156454
1684211640826089200,1.379089111328125,0.1381799518086016,-0.40489772846400734,0.31681466360241173
1684211640836115200,1.389115234375,0.14493570967912672,-0.5410130028277635,0.5799573582500219
1684211640846141400,1.399141357421875,0.1430465349316597,-0.3457178097426891,0.5755693524241448
1684211640856167400,1.40916748046875,0.27030615653619167,-0.31340836229026314,0.8126689665377139
1684211640866194200,1.419194091796875,0.28169600394815203,-0.38820962851345536,1.084407640095055
1684211640876220200,1.42922021484375,0.05972659281864762,-0.3862894741058349,1.1058838511049747
1684211640886246100,1.43924609375,0.06127089965119958,-0.4091396038174629,1.0410147808313368
1684211640896272100,1.449272216796875,0.1683772294126451,-0.4387187495231628,0.9036530135378241
1684211640906299400,1.45929931640625,0.2236298916876316,-0.5051601836800576,0.9547054476439952
1684211640916325400,1.469325439453125,0.13502543330043554,-0.2055564748585224,0.811242148604989
1684211640926351400,1.479351318359375,0.2404572539784014,0.06651216130554675,0.8461740535154938
1684211640936377300,1.48937744140625,0.5650581875428557,0.3026017215937376,0.9666749946400522
1684211640946403300,1.4994033203125,0.7819605245411395,0.29250936664640903,1.0455407338231801
1684211640956430000,1.50943017578125,0.6349439169347286,0.527507624566555,0.7511532983452082
1684211640966456000,1.5194560546875,0.13857377343177796,0.7455956642180681,0.18211422447264194
1684211640976482000,1.52948193359375,-0.39239378233030436,0.7906617173910141,-0.3618874387770891
1684211640986508000,1.539508056640625,-1.1161904333248733,0.712284930768609,-0.837488350495696
1684211640996535300,1.549535400390625,-1.4965619155585765,0.40486733332574365,-1.2049173490479588
1684211641006561300,1.559561279296875,-0.9195126998402178,0.06373334424197673,-1.1919044304788111
1684211641016587300,1.569587158203125,-0.08151639982238411,-0.16830489482879638,-0.6487392180532217
1684211641026613200,1.57961328125,0.6125334938146174,-0.39007600690722466,0.1544569867402315
1684211641036640300,1.58964013671875,0.9901520240783691,-0.5960439851760864,1.1101023455828427
1684211641046666200,1.599666259765625,0.9146189364492893,-0.8209042954415082,2.0061498525530097
1684211641056692200,1.609692138671875,0.7155740354418754,-1.036433882781863,2.463300038562715
1684211641066718500,1.619718505859375,0.5631028156913817,-1.029000517910719,2.4146117032393812
1684211641076744200,1.629744140625,0.39251317092627286,-0.6808493435412645,1.8091203830212355
1684211641086771200,1.639771240234375,0.2689163096129894,-0.15963468163907527,0.8107774537026882
1684211641096797200,1.649797119140625,0.19986191647872328,0.14091303003430367,0.0051630818516016
1684211641106823200,1.6598232421875,0.03177665574997663,0.31045769579112525,-0.5177005163013935
1684211641116849200,1.66984912109375,-0.24521979220509527,0.43295653273463247,-0.6845271552711725
1684211641126876400,1.67987646484375,-0.181277627518028,0.4982049577146768,-0.9194891728341579
1684211641136902400,1.68990234375,-0.40630335747823115,1.012131216174364,-0.7704033577382564
1684211641146928400,1.699928466796875,-0.874387463825941,1.2163093884170055,-0.41731121983528136
1684211641156954400,1.709954345703125,-1.0349392603099346,1.3972995772957801,-0.18113222769796847
1684211641166981000,1.719981201171875,-1.1188941393256187,1.650722549700737,0.18775953688323496
1684211641177007000,1.730007080078125,-1.0457961698889733,1.6988561737507581,0.41255204260945316
1684211641187033000,1.740033203125,-0.6583810527540743,1.402253400310874,0.4810810966953635
1684211641197059000,1.75005908203125,-0.347498117288202,0.9076754009217023,0.5928767533168197
1684211641207085000,1.7600849609375,-0.11562193691134452,0.6590010843485593,0.3804010005891323
1684211641217112300,1.7701123046875,0.18958719070181249,0.5548275931686163,0.27587591949254275
1684211641227138300,1.78013818359375,0.5478877109028398,0.3570212940454483,0.7268585227832197
1684211641237164300,1.790164306640625,0.7843827832520007,0.12399053680598734,0.7152525484025478
1684211641247190300,1.800190185546875,0.8757749726615845,0.010904255852103233,0.8166533599987625
1684211641257217300,1.81021728515625,0.7008673185668886,0.3418424296140671,0.4273442458108067
1684211641267243300,1.8202431640625,0.39918884929791093,0.4947843356162309,0.47450376413166523
1684211641277269200,1.830269287109375,0.1639176196552813,0.42798458954095836,0.34894700092226266
1684211641287295200,1.840295166015625,-0.28075974601134657,0.26954174803495407,0.05086012640446424
1684211641297322200,1.850322265625,-0.8614673381067812,0.16767302666604517,-0.16822189272046087
1684211641307348200,1.86034814453125,-1.3879682698488234,-0.0014952069938182829,-0.34655192247927186
1684211641317374200,1.870374267578125,-1.8149498198270797,0.15553484510481358,-0.18222791398018598
1684211641327400200,1.880400146484375,-1.1813583404146135,0.4349725487321615,0.5689210004508495
1684211641337426200,1.89042626953125,-0.7750361321054399,0.798506001150608,1.1027031752422451
1684211641347453400,1.900453369140625,-0.5772728684064,1.2372937242567539,1.2798363964319228
1684211641357479400,1.9104794921875,-0.7519160994112492,1.4904314499795437,0.80685764991045
1684211641367505400,1.92050537109375,-0.7963293146986514,1.4062866013497113,0.48062195475101466
1684211641377531400,1.930531494140625,-0.8599136058587581,1.1073591843545436,0.15028233140408992
1684211641387558100,1.94055810546875,-1.090083055382967,0.6222825882822275,-0.3432596029356122
1684211641397584100,1.950584228515625,-0.9955635277330874,-0.06347966174185275,-0.6153644794568419
1684211641407610000,1.960610107421875,-0.00886485897898674,-0.4203571634024381,-0.3771282625287771
1684211641417636000,1.970635986328125,-0.02218841439988464,-0.7227770986884832,-0.4194982084855437
1684211641427663400,1.980663330078125,-0.31292141902353615,-1.1198872420161963,-0.29641952582746744
1684211641437689300,1.990689453125,-0.7912965081632137,-1.5007073448002337,-0.24687135880440472
1684211641447715300,2.00071533203125,0.043534021300077434,-1.7569786923736332,0.1559022171124816
1684211641457741300,2.0107412109375,0.5323135635435581,-1.7701865489929913,0.373217518825829
1684211641467767300,2.020767333984375,1.2346306425273417,-1.53262457806468,0.8794897554010153
1684211641477794000,2.0307939453125,2.2329688956707714,-1.1256178946226834,1.2922151087507605
1684211641487820000,2.040820068359375,2.388545241829753,-0.9054898735761642,1.2076187169611454
1684211641497846000,2.050845947265625,2.4749089355528353,-0.6268535494595766,1.3842811057686806
1684211641507872300,2.060872314453125,2.5395687469899655,-0.12499825254380702,1.3872750268876552
1684211641517899300,2.070899169921875,2.093389160066843,0.05565291363894939,1.0708981701806186
1684211641527925200,2.08092529296875,1.7093834129840135,0.3839174842774868,0.8160179847046732
1684211641537951200,2.090951171875,1.6353502085238694,0.9268535641223191,0.4982876675620675
1684211641547977200,2.100977294921875,1.5486914773769676,1.0351105252236128,-0.12212123580276965
1684211641558004200,2.111004150390625,1.3792413580358027,0.7794073329269886,-0.7531339507684112
1684211641568030500,2.121030517578125,1.2052256843447684,0.3547790680766105,-1.2194468096598983
1684211641578056400,2.131056396484375,1.0987914816912263,-0.07566986575126647,-1.4344237315535544
1684211641588082400,2.14108251953125,0.8375047171086072,-0.4866916300535202,-1.4147417104840279
1684211641598108400,2.1511083984375,0.4531377354979515,-0.7409001998782158,-1.3175345511853693
1684211641608134700,2.161134765625,0.20162863389030097,-0.7672855179786682,-1.4006336901545524
1684211641618160600,2.17116064453125,0.106642438576743,-0.46509120814204213,-1.6170251550212502
1684211641628186600,2.1811865234375,0.18674999451451002,-0.13057049971818924,-1.7407038493990896
1684211641638212600,2.191212646484375,0.4101227696359157,0.03985094887316227,-1.8153946409851311
1684211641648239900,2.201239990234375,0.6775638190645724,0.16265958241820336,-1.7607120336830615
1684211641658265900,2.211265869140625,0.731371324032545,0.226566529661417,-1.5670014794409275
1684211641668291800,2.221291748046875,0.5415372458975762,0.5554056853175163,-1.2329621247932314
1684211641678317800,2.23131787109375,0.32297347849309443,1.123753854316473,-0.7707467643484472
1684211641688344800,2.2413447265625,0.2675941941637546,1.615257268565893,-0.31374241655021906
1684211641698370800,2.251370849609375,0.3225526957977563,1.779549420621991,0.02446224108338356
1684211641708396800,2.261396728515625,0.26927111440002915,1.7753554760634898,0.32995530020445585
1684211641718422800,2.2714228515625,0.40788112818896766,1.3504466407060622,0.378989672486484
1684211641728449800,2.28144970703125,0.6031605391830206,0.7745265751481055,0.013562661406397818
1684211641738475800,2.291475830078125,0.6482423013817519,0.2027946089297533,-0.6458174853876233
1684211641748501800,2.301501708984375,0.650225072696805,-0.26453707161545753,-0.9065285689741372
1684211641758527700,2.31152783203125,0.5274503414213657,-0.811710350638628,-1.2853309021949768
1684211641768553700,2.3215537109375,0.5210585214924067,-1.194654021447897,-1.4366452069953084
1684211641778580700,2.331580810546875,0.40074937661290166,-1.0172568886250257,-1.2895143253594636
1684211641788607000,2.34160693359375,0.38611879371404645,-0.4253606707781553,-0.9799927413746714
1684211641798633000,2.351633056640625,0.47433995187208056,-0.046776948744058605,-0.518247921051085
1684211641808659000,2.361658935546875,0.3413262967854738,0.03431669562160969,-0.29452187551259995
1684211641818685700,2.371685791015625,0.08341317335441709,0.20120646295547484,-0.3299935863882303
1684211641828711700,2.381711669921875,0.22417174347937105,0.07557692677080631,-0.20413257953524588
1684211641838737700,2.391737548828125,0.018577932285144923,0.006291793620586395,-0.17296061168015003
1684211641848763600,2.401763671875,-0.047299876639619466,-0.4746685993045568,-0.2812228334784508
1684211641858791000,2.411791015625,-0.018438596879690884,-0.8489642687559127,-0.19284195471405982
1684211641868817000,2.42181689453125,0.056460869020968675,-1.1041752936214209,-0.20611966169923543
1684211641878843000,2.4318427734375,-0.007553191858530044,-1.3567308355420826,-0.042973464807868005
1684211641888868900,2.441868896484375,-0.18430208990573882,-1.35593413220644,0.335908071129024
1684211641898894800,2.451894775390625,-0.215630125105381,-1.183321895572543,1.0922305888056754
1684211641908921600,2.461921630859375,0.10852627956196666,-1.196820844092965,1.5999825425446033
1684211641918947600,2.471947509765625,0.262009014442563,-1.1859364619851112,2.0083172597199677
1684211641928973600,2.4819736328125,0.45808863590359683,-1.050583988687396,2.381793137221038
1684211641938999800,2.491999755859375,0.4790851005725562,-0.9238602275252342,2.324127422454953
1684211641949026800,2.50202685546875,0.4315899205565452,-0.8591425484210252,1.9551292748898266
1684211641959052800,2.512052734375,1.0842755381479858,-0.7463117035329342,1.9984104904726145
1684211641969078800,2.522078857421875,0.9577987374842166,-0.7761708352237939,1.202378478220105
1684211641979104800,2.532104736328125,0.9113720634825527,-0.729159493201971,0.927460005582869
1684211641989131800,2.5421318359375,1.1341489916026593,-0.6928425636738539,0.8090326558619737
1684211641999157800,2.55215771484375,1.703385195482522,-1.1474503717243671,0.5371434679180384
1684211642009184000,2.56218408203125,1.8402352138616143,-1.700872189748287,0.3506184412658214
1684211642019210000,2.5722099609375,1.8034324005126952,-2.0569640939891336,-0.273896728374064
1684211642029235700,2.582235595703125,1.457216578119993,-2.0366011049181223,-1.2670470574855803
1684211642039262700,2.5922626953125,0.9195780201613902,-1.680321569150686,-2.166246891006827
1684211642049288700,2.602288818359375,0.3700871118456125,-1.0206418548882008,-2.501910924246907
1684211642059314700,2.612314697265625,-0.05070201323330402,0.050437224817276,-2.276892500810325
1684211642069340700,2.622340576171875,-0.1022260103739798,1.1954378653019666,-1.623918421666324
1684211642079368000,2.632367919921875,-0.0337375805594027,2.0314391921103,-1.0351309834897517
1684211642089394000,2.642393798828125,0.04488558203950524,2.0836457646876574,-0.84932374971807
1684211642099420000,2.652419921875,0.3055851213186979,1.2599071226030587,-0.7136845684334635
1684211642109446000,2.66244580078125,1.0720452943891285,-0.020932897913455963,-0.520168659980595
1684211642119472600,2.67247265625,1.9572867451846598,-1.216871698474884,-0.2411167408004403
1684211642129498600,2.68249853515625,2.4765496884971854,-2.022458597797155,0.01868862611800432
1684211642139524600,2.692524658203125,2.4803508343458174,-2.3105711907893416,0.180765732473135
1684211642149550600,2.702550537109375,1.8009172028213738,-2.2078607578992844,0.242159820112586
1684211642159576800,2.712576904296875,0.9672995562791824,-1.8645371498167513,0.4251432286351919
1684211642169603800,2.722603759765625,0.3654776087561622,-1.47840900375247,0.6582564034610986
1684211642179629800,2.7326298828125,0.1397556766927242,-1.051891564154625,0.6333908422738314
1684211642189655800,2.74265576171875,0.1463180674156174,-0.7281757428616284,0.4205360271006822
1684211642199681800,2.752681884765625,0.22212416329979895,-0.6543833614200353,0.38285423896014686
1684211642209708800,2.762708740234375,0.3822212382862344,-0.8049871798634529,0.49919163066446776
1684211642219734800,2.77273486328125,0.5811316992590203,-1.0976485222011805,0.7644967640429735
1684211642229760800,2.7827607421875,0.6661053633958101,-1.39545365716815,0.8998843086540699
1684211642239786800,2.792786865234375,0.6006237141817807,-1.582166315346956,0.8611489198073744
1684211642249813800,2.802813720703125,0.47004093950390813,-1.6238339582532644,0.6961094565153122
1684211642259839700,2.81283984375,0.16400456728637217,-1.537816886010766,0.43330841491222377
1684211642269865700,2.82286572265625,-0.15212239717966877,-1.078283311995864,0.1243304362848401
1684211642279891700,2.8328916015625,-0.3542787173390388,-0.29478666392862796,-0.15554010580182073
1684211642289918700,2.842918701171875,-0.2470832479894161,0.682830872747302,-0.13223755614757537
1684211642299945000,2.852945068359375,0.03556406533420086,1.769478692984581,0.4685767121702432
1684211642309971000,2.862970947265625,0.4259831865906715,2.8377438843131064,1.9719439238294958
1684211642319997000,2.872996826171875,0.7969862442374229,3.3741000012457367,3.9648482181012628
1684211642330023000,2.88302294921875,0.9216203396439552,2.7761837924569845,5.378616115117072
1684211642340049700,2.893049560546875,0.7902841162502765,1.2625444853693246,5.930079784810543
1684211642350075600,2.90307568359375,0.34454876596331596,-0.0014765022933483122,5.525201345568895
1684211642360101600,2.9131015625,-0.6227192261338234,-0.2798112131148577,4.315727063868939
1684211642370127600,2.923127685546875,-1.809997750377655,0.48842239936888215,3.192631673461199
1684211642380155000,2.93315478515625,-2.7847756797134875,1.8429992717474697,2.2189161126598713
1684211642390180900,2.943180908203125,-3.0105086811602115,3.0099767662405967,1.4646420519456267
1684211642400206800,2.953206787109375,-2.205795057541132,3.349082464367151,0.7435057062014937
1684211642410232800,2.96323291015625,-0.8482154962152242,2.0150708256334067,0.11361059708893298
1684211642420259800,2.973259765625,0.5192284565210342,-0.26758184613883496,-0.888714679864049
1684211642430285600,2.98328564453125,1.5434160211920738,-2.287428215610981,-1.9426780818566678
1684211642440311600,2.9933115234375,1.7448738285601137,-3.502663837316632,-2.5169398588135836
1684211642450337800,3.003337890625,1.7087679114341734,-3.933849268725514,-2.6697362188652156
1684211642460363800,3.01336376953125,1.5730208858609198,-3.7195167822152375,-2.6086899217501283
1684211642470390800,3.023390869140625,1.093385604059696,-2.3619337137579914,-2.8271339352324603
1684211642480416800,3.033416748046875,0.13093524137735366,-0.6302239026755094,-3.100430651886761
1684211642490442800,3.04344287109375,-1.1974912907004356,1.0232967533111572,-3.3016005822241303
1684211642500468700,3.05346875,-2.458857964462042,2.469411507180333,-3.347812882822752
1684211642510495700,3.063495849609375,-3.2289912730872627,3.5534582050085066,-3.0275919179081914
1684211642520522000,3.07352197265625,-3.2389106095552442,3.6755706729829307,-2.0498460786774753
1684211642530548000,3.0835478515625,-2.6449112819492817,2.776448580873012,-0.7873565383657812
1684211642540574000,3.093573974609375,-2.0296201599895953,1.5718448278188704,-0.05434387686699629
1684211642550600700,3.1036005859375,-1.1464800653874874,0.6026806467115878,0.2724707872241735
1684211642560626700,3.113626708984375,-0.13721417551636694,0.02631166834235191,0.4879010058432817
1684211642570652700,3.123652587890625,0.5579448484063149,-0.42016076404750347,0.6189312320277095
1684211642580678700,3.1336787109375,0.538826306438446,-0.7393897953152656,0.31484219448566436
1684211642590706000,3.143705810546875,-0.10690088858352974,-0.8901648786723613,0.16875760703235865
1684211642600732000,3.15373193359375,-0.6496832209050655,-0.8869412404507399,0.5233852839395403
1684211642610758400,3.16375830078125,-1.1125006388962269,-0.6113239718943834,0.31331396200507877
1684211642620784400,3.173784423828125,-1.3709937541723252,-0.024589082333445547,-0.10946925950050353
1684211642630810400,3.183810302734375,-1.394392165416479,0.6017676235198974,-0.39873014574497934
1684211642640837400,3.19383740234375,-1.4921020135402678,1.1955033317536115,-1.248002165275812
1684211642650863400,3.20386328125,-1.4297592468738556,1.624082380056381,-1.9400261060431598
1684211642660889300,3.213889404296875,-1.4538064774155617,1.7190221789449451,-2.359644726037979
1684211642670915300,3.223915283203125,-1.6034709691822528,1.261693421497941,-2.7641075702160594
1684211642680942300,3.2339423828125,-1.2417068645238876,0.7802525515794754,-2.4174007494360206
1684211642690968300,3.24396826171875,-0.4282207363843918,0.5006587806075811,-1.6047750375181435
1684211642700994300,3.253994384765625,0.3602934475839138,0.29489480047822,-0.6618287089899182
1684211642711020500,3.2640205078125,1.1172037020206451,0.4229951106905937,0.287666018268466
1684211642721047300,3.27404736328125,1.6136299596250057,0.610890256652236,0.9287240341693163
1684211642731073300,3.2840732421875,1.9551111547112463,0.6046463938266039,1.1216080744594334
1684211642741099300,3.294099365234375,2.1466449494361877,0.15184183580577373,0.8276745202288031
1684211642751125200,3.304125244140625,2.302255197864771,-0.6370335826903581,0.281509541465342
1684211642761151200,3.314151123046875,2.0260393788933753,-1.134801902553439,-0.3931508843079209
1684211642771178200,3.32417822265625,1.2338882997274399,-1.0940127960473298,-0.7825754415690899
1684211642781204500,3.33420458984375,0.3817161748409271,-0.6373854648679494,-1.2321098918780684
1684211642791230500,3.34423046875,-0.33022560504581777,0.21807342660427093,-1.649274981240928
1684211642801256400,3.35425634765625,-0.6388637207269668,0.859870278173685,-1.9243387075677514
1684211642811283500,3.364283447265625,-0.4269348247596994,1.0440952111899853,-1.884066318412125
1684211642821309400,3.374309326171875,-0.0410440311152488,0.9431319142282009,-1.5326362685024737
1684211642831335400,3.38433544921875,0.01817157997395843,0.6697878513008356,-0.9384110231861471
1684211642841361400,3.394361328125,-0.03420622098445892,0.2862140658944845,0.008925064733624458
1684211642851388400,3.404388427734375,-0.02486676676366478,-0.15906068114340305,0.8499833826705813
1684211642861414400,3.414414306640625,0.12613280953168868,-0.7081126135200262,1.5056886403441427
1684211642871440400,3.4244404296875,0.5693220189997926,-1.1704904710501431,2.154178559811413
1684211642881466400,3.43446630859375,1.0514882440507411,-1.5285931305915117,2.6896806902632115
1684211642891493400,3.444493408203125,1.351761814957857,-1.629329048538208,3.0959482457756993
1684211642901519400,3.454519287109375,1.3261913203716278,-1.424933434152603,3.20503113630712
1684211642911545300,3.46454541015625,1.0161620791256427,-0.9769751471191644,2.910615936039388
1684211642921571300,3.4745712890625,0.4306079237818718,-0.44174423482418057,2.3747701067164537
1684211642931597600,3.48459765625,0.09175590815544128,-0.0838075794994831,1.9001736958652733
1684211642941624300,3.494624267578125,0.06995674880146979,0.06818857008516788,1.563706821809709
1684211642951650300,3.504650390625,0.03160860570669174,0.04443009335696697,1.198628185775876
1684211642961676300,3.51467626953125,-0.11740231752209365,-0.07012859823703765,0.6562120381519198
1684211642971702300,3.524702392578125,-0.17486323043107985,-0.2288882506072521,-0.04346329415142536
1684211642981729300,3.534729248046875,-0.15844634863734244,-0.3993272348552942,-0.6870014364302158
1684211642991755300,3.54475537109375,-0.05767477485537529,-0.4916255793243646,-1.1524603088408707
1684211643001781500,3.554781494140625,0.02977905219197273,-0.45216158394217487,-1.5168611917436121
1684211643011807500,3.564807373046875,0.03894201733469963,-0.2039262433081865,-1.552332025836408
1684211643021834500,3.57483447265625,-0.05336334139704704,0.14502981770336626,-1.3583613593533634
1684211643031860200,3.584860107421875,-0.010149638092517852,0.46748307171463965,-1.1558458596259356
1684211643041886200,3.59488623046875,-0.020284078615903853,0.6739081461012363,-1.117696161712706
1684211643051912200,3.604912109375,-0.43168804716877635,0.7404132931441069,-1.122866257826984
1684211643061939500,3.614939453125,-1.1575146696209906,0.6338607978731393,-1.200353402133286
1684211643071965400,3.62496533203125,-1.5253028568744658,0.4776338788509369,-1.3576353831663728
1684211643081991400,3.634991455078125,-1.4846704022347925,0.5014291804581881,-1.1028791163310407
1684211643092017400,3.645017333984375,-1.5951111371159552,0.5002560450255871,-0.5347209169462322
1684211643102043400,3.65504345703125,-1.6399860516309737,0.19590660298168658,-0.07292144382596015
1684211643112070400,3.6650703125,-1.323569301304966,-0.16394903770685196,0.1910278910294175
1684211643122096400,3.675096435546875,-1.0464649359960108,-0.5351473256647586,0.275271231597662
1684211643132122400,3.685122314453125,-0.9551591096956282,-0.8293266713500023,0.2772258727967739
1684211643142148400,3.6951484375,-0.7888555447518825,-1.0574667339384556,0.11574351746439933
1684211643152175400,3.70517529296875,-0.5974947685062885,-0.9246487475544214,0.10726356614977121
1684211643162201300,3.715201416015625,-0.5952793574791402,-0.4591653252243995,0.10060060112923383
1684211643172227300,3.725227294921875,-0.5929027645409107,0.02699848156273365,-0.11342793399840592
1684211643182253300,3.73525341796875,-0.3195498607199639,0.3620820845663547,-0.4694073177754879
1684211643192280300,3.7452802734375,-0.032502997263148425,0.5278782114446163,-0.8753031173661351
1684211643202306300,3.755306396484375,0.08864968576841056,0.46156829471290106,-1.1491031073674558
1684211643212332300,3.765332275390625,0.17909743393473326,0.21796879718601703,-1.519183789472282
1684211643222358500,3.775358642578125,0.014273001632839441,0.12942951298952102,-1.7758876832440496
1684211643232384500,3.785384521484375,-0.2966261543154716,0.21492519170641897,-2.0151994204491377
1684211643242411300,3.795411376953125,-0.6201006411332637,0.43328444951474665,-2.1724133046820757
1684211643252437200,3.805437255859375,-0.7944681239366531,0.7281377489387989,-2.0413263798743486
1684211643262463200,3.815463134765625,-0.80798818831034,0.6892126827389001,-1.7711241221040486
1684211643272489200,3.8254892578125,-0.5953459199093282,0.3379337317377329,-1.273550740291178
1684211643282516500,3.8355166015625,-0.2973394171513617,0.035786768174171445,-0.7454401813954115
1684211643292542500,3.84554248046875,-0.12606646629720925,-0.19605740962922572,-0.45235213807821273
1684211643302568400,3.855568359375,-0.2967887975312769,-0.2914431987196207,-0.2980275455459952
1684211643312594400,3.865594482421875,-0.5628842045046388,-0.3492342934310436,-0.31399288417994975
1684211643322621400,3.875621337890625,-1.0104081917740404,-0.15259996069669723,-0.352734118245542
1684211643332647400,3.8856474609375,-1.5406101699911057,-0.008052373552322387,-0.4689928917557001
1684211643342673400,3.89567333984375,-1.8236827229894697,-0.01581073259413242,-0.44478871708661316
1684211643352699400,3.905699462890625,-1.6882932786822318,0.021689269238710403,-0.133679863910377
1684211643362725400,3.915725341796875,-1.7257950340807438,0.020778584134578705,-0.10560732337534427
1684211643372751400,3.92575146484375,-1.2993700950719416,0.04404138630032539,0.38368046065121886
1684211643382777300,3.93577734375,-0.6803821644209325,0.16220774699747562,0.9585223755836486
1684211643392803300,3.94580322265625,0.011937106031179428,0.19326807117164133,1.502091638765484
1684211643402830300,3.955830322265625,0.4869746847786009,0.36207273221611974,1.9294424604475497
1684211643412856300,3.965856201171875,0.7607273285068571,0.4543190542370081,2.2105662174656984
1684211643422882300,3.97588232421875,0.8355657118700445,0.6323702670544386,2.347465189553052
1684211643432908300,3.985908203125,0.2355728429377079,0.9266945741683245,1.9554010775685309
1684211643442935600,3.995935546875,-0.3927347047224641,1.0079729274511338,1.1567406165085732
1684211643452961500,4.00596142578125,-0.6094210608825087,1.026814406043291,0.3960550813168287
1684211643462987500,4.015987548828125,-0.777616065596044,0.831052179968357,-0.1739013996616006
1684211643473013500,4.026013427734375,-0.936802857337147,1.0327496413111685,-0.5316150598853826
1684211643483040300,4.036040283203125,-0.9037949062265456,1.2135749950170516,-0.6935888519965112
1684211643493066200,4.046066162109375,-0.7881694621838629,1.2721429193198681,-0.5635111042313278
1684211643503092200,4.05609228515625,-0.6970074282683432,1.3481687589019535,-0.291839796821773
1684211643513118200,4.0661181640625,-0.43859599992632864,1.5594704994142055,0.5427775282822549
1684211643523144200,4.076144287109375,-0.03834551274627447,2.0068448490798474,1.4523897424854337
1684211643533171500,4.08617138671875,0.5828048566356301,2.0525369251966477,1.840652708621323
1684211643543197400,4.096197509765625,0.9219874193906783,1.4330863454699516,1.8703245010465381
1684211643553223400,4.106223388671875,1.1330733251951635,0.6321224297732114,1.765155276827514
1684211643563249400,4.11624951171875,1.57488068838343,-0.1416734930127859,1.558854121081531
1684211643573276200,4.126276123046875,1.2739289259538054,-0.5685644420981407,1.2704451754912733
1684211643583302100,4.13630224609375,0.3852032863043248,-0.8005284468889236,1.1100210970401763
1684211643593328400,4.146328369140625,-0.5213726289428771,-0.6823790373265742,1.0785276421457528
1684211643603354400,4.156354248046875,-0.8534547120429575,-0.26417525256574154,1.3426359669551253
1684211643613380400,4.16638037109375,-0.3076477529369294,0.18976210887730122,1.7977558161810039
1684211643623406300,4.17640625,0.6300115750990808,0.3498597318530082,2.3211852315232155
1684211643633432300,4.186432373046875,0.8459867142498493,0.18726912301778792,2.6626953604429957
1684211643643458600,4.19645849609375,0.7268705054819583,-0.047020694372057914,2.5340315711289643
1684211643653484500,4.206484619140625,1.299801326096058,-0.1518523571997881,2.233827558326721
1684211643663511600,4.216511474609375,1.9492552682898938,-0.27099896110594274,1.9158584639921783
1684211643673537500,4.22653759765625,2.055625392731279,-0.5233586881935596,1.497308934533596
1684211643683563500,4.2365634765625,2.001110689342022,-0.5834031147897243,0.8980348813951015
1684211643693589500,4.246589599609375,1.944999802802503,-0.3130933049917221,0.11496405752450227
1684211643703616300,4.2566162109375,1.5391246076084673,-0.03477905243635177,-0.653835664409399
1684211643713642500,4.266642578125,0.6810276227176189,-0.06525076306760311,-1.2776584678709506
1684211643723668500,4.27666845703125,-0.21158647573776543,0.027719781574606892,-1.6536197324469684
1684211643733694500,4.286694580078125,-0.6958394074022769,0.31279929048120975,-1.722946366651356
1684211643743721500,4.296721435546875,-0.96721070895195,0.27580373103916644,-1.7367691402986645
1684211643753747500,4.30674755859375,-1.1002256792128084,-0.038705870491266246,-1.5795415198013185
1684211643763773400,4.3167734375,-1.1694225495576858,-0.39220132849812506,-1.2112240479767322
1684211643773799400,4.32679931640625,-0.6691407125037163,-0.6778314570248126,-0.6256351135805249
1684211643783826700,4.33682666015625,0.07461538826227188,-0.8672942906945943,0.3119768681824207
1684211643793852700,4.346852783203125,0.6961083605367689,-1.1532926680117845,1.1449416037738323
1684211643803878700,4.356878662109375,1.2088403677105903,-1.195511515060067,1.7323329114168882
1684211643813904600,4.366904541015625,1.4226093751192093,-0.8919190288633108,1.8502543574422596
1684211643823931400,4.376931396484375,1.5785177297115325,-0.5123018721282482,2.1810043151557443
1684211643833957400,4.386957275390625,1.5500538517713547,-0.23791443762779235,1.7602911779224872
1684211643843984600,4.396984619140625,1.0290811819314956,-0.1282891107827425,1.2123799400135875
1684211643854010600,4.4070107421875,0.7345756730318069,0.025707272708415982,0.5855123620286583
1684211643864036600,4.41703662109375,0.7515642172336577,0.2785901468873024,0.19647563504129648
1684211643874062600,4.4270625,0.7178560088992119,0.3497679619163275,-0.16349603324234485
1684211643884089300,4.43708935546875,0.47319151248931884,0.2073036107867956,-0.471807364654541
1684211643894115300,4.447115234375,0.32535306710600853,0.08764496570527552,-0.6930433469429612
1684211643904141300,4.457141357421875,0.3093359982848167,0.04160743715167045,-0.7558987393066287
1684211643914167300,4.467167236328125,0.2415975100547075,-0.054531216132640836,-0.6608917204007506
1684211643924193300,4.477193359375,0.1467161724882666,-0.11246902583837509,-0.4604012967601418
1684211643934220500,4.487220458984375,0.3962795377224684,-0.10771627835333347,0.0014484452426433562
1684211643944246500,4.49724658203125,0.7046417225390672,-0.10773965922892093,0.49227849027514453
1684211643954272500,4.5072724609375,0.7194049919068813,0.0014227262794971466,0.8661965585857629
1684211643964298500,4.517298583984375,1.0655360586255789,0.12209493231773376,1.2597504707366227
1684211643974325500,4.527325439453125,1.250973290041089,0.12351999668478965,1.5478572185099124
1684211643984351500,4.5373515625,1.2865186506748199,0.007785247048735618,1.3644430173546076
1684211643994377500,4.54737744140625,1.1866314585119486,-0.2800824312716722,0.8671668649226426
1684211644004403700,4.55740380859375,1.0623720416367053,-0.5743178910583258,0.31372137376219034
1684211644014430500,4.567430419921875,0.8634014479745179,-0.8195417749166488,-0.12001958734840154
1684211644024456400,4.57745654296875,0.592443330335617,-1.0161363601624964,-0.28615912083685396
1684211644034482400,4.587482421875,0.40305122381448744,-1.1599755067765711,-0.16474632556438445
1684211644044508400,4.59750830078125,0.4008218573272228,-1.1604396171569824,-0.03425502856224775
1684211644054535400,4.607535400390625,0.5099340470183641,-1.165134496974945,0.2122378523185849
1684211644064561700,4.617561767578125,0.7785796499311923,-1.1152449691683053,0.4511638050764799
1684211644074587600,4.627587646484375,1.1066139189451931,-1.1065589738875627,0.6365232950806617
1684211644084613600,4.637613525390625,1.4257143553972242,-1.054116254466772,0.6565522298917174
1684211644094639600,4.6476396484375,1.643475062790513,-0.9728782331943512,0.5514554863870144
1684211644104666400,4.657666259765625,1.7114894453525542,-0.9000316081702708,0.44311873804777857
1684211644114692400,4.6676923828125,1.6589286525100468,-0.724004594656825,0.2899363012880087
1684211644124718300,4.67771826171875,1.6705220596700905,-0.6983376539587974,0.3445706855341792
1684211644134744300,4.687744384765625,1.5649305183857678,-0.8153548446208239,0.40699294717758894
1684211644144771600,4.697771484375,1.4284719835422932,-0.8582207574009895,0.3786126558676362
1684211644154797600,4.707797607421875,1.3546540292680262,-0.8530950849503278,0.26926351561546324
1684211644164823600,4.717823486328125,1.302729196241498,-0.7810995237976313,0.1589125048443675
1684211644174849500,4.727849609375,1.2819492969326673,-0.6807353617727756,0.12010872693657874
1684211644184876500,4.73787646484375,1.3603805902212858,-0.601322802361846,0.13312369133234023
1684211644194902500,4.747902587890625,1.5176953044801949,-0.3829027542769909,0.07665887678861617
1684211644204928500,4.757928466796875,1.5815151579618454,-0.2830553096026182,-0.053609425112605094
1684211644214954500,4.76795458984375,1.5682009183585643,-0.24244214418530463,-0.3307657398045063
1684211644224981500,4.7779814453125,1.4753805958420037,-0.20973639089167118,-0.6423048010915517
1684211644235007500,4.788007568359375,1.4262890865452587,-0.24386954663991928,-0.8643029999241232
1684211644245033500,4.798033447265625,1.288012104102969,-0.1724602609425783,-0.8517863404393196
1684211644255059500,4.8080595703125,1.1916953177727758,-0.22780980772078036,-0.5956921029984951
1684211644265086500,4.81808642578125,1.2410825951457023,-0.18045593587160108,-0.33476533083468674
1684211644275112400,4.828112548828125,1.3221509589396416,-0.15519699145257473,0.014786357982456684
1684211644285138700,4.838138671875,1.425030464786291,-0.14558920515179632,0.3077157036066055
1684211644295164700,4.84816455078125,1.4767894397266208,-0.24222294847667217,0.5832780271053314
1684211644305190700,4.858190673828125,1.5663596744060515,-0.35609424232840536,0.7967664640069008
1684211644315217400,4.868217529296875,1.653913454696536,-0.43286125566661354,0.9212813169479369
1684211644325243400,4.878243408203125,1.666453787317872,-0.46512394136786456,0.9151686792865396
1684211644335269400,4.888269287109375,1.57294606705904,-0.4964157362103462,0.7644473719432949
1684211644345295400,4.89829541015625,1.3634429004013537,-0.5757365256845951,0.3421685928285122
1684211644355322600,4.908322509765625,1.246914954560995,-0.560387565383315,-0.23438655576258896
1684211644365348600,4.9183486328125,1.1297101323723793,-0.6257569863945245,-0.5695148746907711
1684211644375374600,4.92837451171875,1.0278449181348084,-0.7344938399672508,-0.7611725880563258
1684211644385400600,4.938400634765625,0.8098721023607999,-0.7128174302101135,-0.8157748235985636
1684211644395427600,4.948427490234375,0.5568980427671224,-0.6632832917124033,-0.7822776276662945
1684211644405453600,4.95845361328125,0.4281178605318069,-0.6009387714803218,-0.6704746645212173
1684211644415479300,4.968479248046875,0.40436939374096686,-0.535997220492363,-0.5940872981503605
1684211644425505300,4.97850537109375,0.4098790240079164,-0.5270329927921295,-0.537468462088704
1684211644435532500,4.988532470703125,0.37486616281569,-0.5104027605086565,-0.43646161824613805
1684211644445558500,4.99855859375,0.3733791391283274,-0.38566111307442186,-0.2874763409152627
1684211644455584500,5.00858447265625,0.34431846433877944,-0.2998340104460716,-0.2749427302956581
1684211644465610500,5.018610595703125,0.40805648475587364,-0.22841244978904723,-0.28872897132486103
1684211644475636500,5.028636474609375,0.49414253058135504,-0.2144055517464876,-0.2789960973396897
1684211644485663500,5.03866357421875,0.4854559507787227,-0.28812019177675247,-0.33830899479091164
1684211644495689500,5.048689453125,0.3854021698772907,-0.45058863553702827,-0.4253302756398916
1684211644505715500,5.058715576171875,0.17131401351690292,-0.7539315308868885,-0.5150234060466289
1684211644515741700,5.06874169921875,0.07499532749056816,-1.1904308507949113,-0.6012576281711459
1684211644525768400,5.0787685546875,0.2444926652406342,-1.587258085528016,-0.4354506876379251
1684211644535794400,5.08879443359375,0.5863877200910821,-1.8833803819745778,0.047747255080938335
1684211644545820400,5.0988203125,0.9307634310424328,-2.147588367766142,0.6209887490794063
1684211644555846400,5.108846435546875,1.050854622322321,-2.386072129714489,1.060975911103189
1684211644565873400,5.118873291015625,0.9171008894581347,-2.514266547951102,1.3632307189553976
1684211644575899600,5.128899658203125,0.6858195331692695,-2.5738603081703184,1.519163038945198
1684211644585925600,5.138925537109375,0.47447388045005495,-2.7281518752157687,1.503910817016661
1684211644595951600,5.14895166015625,0.30688568252325055,-2.8813199911892413,1.523655674189329
1684211644605979400,5.1589794921875,0.14204108421616254,-2.8605566046237945,1.7101397843092678
1684211644616005400,5.16900537109375,-0.12803484376072882,-2.616412917217612,1.922442518557608
1684211644626031400,5.17903125,-0.5250993943810462,-2.20540751952827,1.9716598461911081
1684211644636057300,5.189057373046875,-1.2837059313416481,-1.0533020154744386,2.2038670120880006
1684211644646083600,5.19908349609375,-2.335927165842056,1.1729483855962752,2.646877905847132
1684211644656110600,5.209110595703125,-3.3379461533248422,4.126350447177887,3.6365702034592626
1684211644666136600,5.219136474609375,-3.186088535428047,7.495515330109,4.568172715674341
1684211644676162600,5.22916259765625,-2.3180372888863086,10.688469075131415,4.313212742960453
1684211644686188500,5.2391884765625,-1.316289519560337,12.29450843349695,3.344026350021362
1684211644696215300,5.24921533203125,0.08221420936081558,11.520973207473753,2.648909119413793
1684211644706241300,5.2592412109375,1.1528151136279106,8.395291502213478,1.2558490793839097
1684211644716267500,5.269267578125,0.9664438162326812,3.044885582536459,-1.748525336804986
1684211644726293500,5.27929345703125,-0.4133318313429132,-0.9465665648519992,-3.5912840777948496
1684211644736320500,5.289320556640625,-1.1039607740879058,-3.0007635322153567,-4.54182013079971
1684211644746346500,5.299346435546875,-0.5932604554047808,-4.01008086001277,-4.334691876579821
1684211644756372500,5.30937255859375,0.3341173883199692,-4.357673231455683,-3.2564971196502444
1684211644766398500,5.3193984375,0.9922878670632839,-4.376514710047841,-1.6804592240557072
1684211644776424400,5.329424560546875,1.249853930622339,-3.950955301827192,-0.1346668291211128
1684211644786451500,5.339451416015625,1.2160907041650264,-3.1774265055447817,1.1918728662967681
1684211644796477400,5.3494775390625,0.8255027291476726,-1.984640616056323,1.9165204350322484
1684211644806503400,5.35950341796875,0.11474515407681464,-0.970907225382328,1.8493769900858401
1684211644816529400,5.369529296875,-0.4504758228123188,-0.08485387368202209,1.2488628737583756
1684211644826556400,5.379556396484375,-0.848050076520443,0.6630927375763654,0.9432812595710158
1684211644836582400,5.38958251953125,-0.895693286705017,1.1680781492114067,0.36277415848374367
1684211644846608400,5.3996083984375,-0.5843348061492666,1.4359014028906822,-0.5136906961381436
1684211644856634400,5.40963427734375,-0.2849380911419168,1.5533049625217914,-1.4776730906933546
1684211644866661600,5.41966162109375,-0.14636892082002012,1.4363146598666905,-2.251106609907746
1684211644876687600,5.4296875,0.14697448549773542,1.1264923393696546,-2.5339889010310173
1684211644886713600,5.439713623046875,0.5989385375738143,0.8471791389048099,-2.4896345032587646
1684211644896739600,5.449739501953125,0.8420026130497456,0.7560749726563691,-2.639348387125134
1684211644906766300,5.459766357421875,0.9126245477616787,0.6602689123272896,-2.7176433406829834
1684211644916792300,5.469792236328125,1.1889736377239226,0.32946927025318146,-2.378181376464665
1684211644926818300,5.479818359375,1.4831190811395645,-0.08588204768598079,-1.9993474790617822
1684211644936844500,5.489844482421875,1.5381027172148227,-0.4201023118585348,-1.8736048378914594
1684211644946871600,5.49987158203125,1.3482628669261931,-0.5471195030093192,-1.6630699900984762
1684211644956897500,5.5098974609375,1.0687737253725529,-0.30536300300061703,-1.5762129599004984
1684211644966923500,5.519923583984375,0.6807330236852168,0.3866834418594837,-1.797384352520108
1684211644976949500,5.529949462890625,0.19013667781073598,1.3874766869395971,-2.1211115719899536
1684211644986975500,5.5399755859375,-0.3371031261324882,2.211397115331888,-2.5219199853137133
1684211644997002500,5.55000244140625,-0.5445044251400977,2.6176836678057906,-3.2174770686432717
1684211645007028500,5.560028564453125,-0.43712651189565654,2.372186812224984,-3.8332559741199015
1684211645017054500,5.570054443359375,0.0459492657482624,1.548648661148548,-3.8919419718444344
1684211645027080400,5.58008056640625,0.45851299879550933,0.5489864659249782,-3.400427743940055
1684211645037107500,5.590107421875,0.6460089893717318,-0.4200181407064199,-2.6257833876311776
1684211645047133400,5.600133544921875,0.9886696035008877,-1.2012211248785256,-1.8566849750116465
1684211645057159400,5.610159423828125,1.2084861474454403,-1.6936942609429357,-1.0205746348708868
1684211645067185400,5.620185302734375,1.0964822549007833,-1.8274059812963008,-0.14806202500611543
1684211645077211400,5.63021142578125,0.8320833496470004,-1.6334230398535727,0.7371952078804374
1684211645087238700,5.64023876953125,0.5226677102547138,-0.8337000641286373,1.341987147657573
1684211645097264600,5.6502646484375,0.1429763192396611,0.110372930341959,1.8716326610356568
1684211645107290600,5.66029052734375,-0.2865104184925556,0.694834029752016,2.2637872277826068
1684211645117316600,5.670316650390625,-0.6083773239832371,0.9723971716791391,2.2687059794843196
1684211645127343400,5.68034326171875,-0.8295663253247737,1.1432768854320048,2.03429224345386
1684211645137369300,5.690369384765625,-0.9722912270866334,1.0642629699498414,1.5286241102516651
1684211645147395300,5.700395263671875,-1.0731424419760704,0.8200508934825659,0.9431240231826901
1684211645157421600,5.710421630859375,-1.0058497978173195,0.50136955922544,0.31060528756827116
1684211645167448600,5.720448486328125,-0.7880896749459206,0.18497662816643715,-0.33155221400707957
1684211645177474600,5.730474609375,-0.6501577065490186,-0.02895779893696308,-0.9203262081801891
1684211645187500500,5.74050048828125,-0.6386556309342384,-0.13332009068727493,-1.4045873962163924
1684211645197526500,5.750526611328125,-0.5557787564136087,-0.059338908675312996,-1.7401067602887748
1684211645207553300,5.76055322265625,-0.5213713137686252,0.09544891745448111,-1.9249986327812074
1684211645217579500,5.77057958984375,-0.6048829790614545,0.2394850479453802,-1.9556217345818876
1684211645227605500,5.78060546875,-0.6077964553553611,0.4270727353930473,-1.802345482058823
1684211645237631500,5.790631591796875,-0.6403916609466076,0.5732862099230289,-1.560661170503497
1684211645247657500,5.800657470703125,-0.7473674961961806,0.6434229914665222,-1.3226947104275226
1684211645257684500,5.8106845703125,-0.8435982116781174,0.6081815822154283,-1.0795990707695484
1684211645267710500,5.82071044921875,-0.939861002798751,0.5173924732655286,-0.8655725814685225
1684211645277736400,5.830736328125,-0.969824544712156,0.3866425253272056,-0.6617313860952854
1684211645287762400,5.840762451171875,-0.8831050232887268,0.23288638033270834,-0.3488993623882532
1684211645297789700,5.850789794921875,-0.7067875754613429,0.08590659760534763,0.0885007057517767
1684211645307815400,5.8608154296875,-0.5049429607328028,-0.07253449033498764,0.5921045999005436
1684211645317841400,5.87084130859375,-0.38841486876197157,-0.21553134090602397,1.0396461228266358
1684211645327867400,5.880867431640625,-0.3730325907129794,-0.27449557105004785,1.258110594575107
1684211645337894400,5.890894287109375,-0.35331900546140965,-0.2250537870109081,1.2376464832171796
1684211645347920400,5.90092041015625,-0.3135118226647377,-0.044348844814300535,0.9345864964619278
1684211645357946400,5.9109462890625,-0.31048399927616116,0.14671090265810488,0.3793222654417157
1684211645367972400,5.920972412109375,-0.34809096861481664,0.3047545157134533,-0.21938684729039667
1684211645377998600,5.93099853515625,-0.44493806242942807,0.43615854364633555,-0.7637760485529899
1684211645388025600,5.941025634765625,-0.314981383760646,0.5227303271621465,-1.1570543586328625
1684211645398051600,5.951051513671875,-0.12927987538576124,0.5352256515979766,-1.291514851526916
1684211645408077600,5.96107763671875,-0.0504980150938034,0.38755321043133734,-1.134406473495066
1684211645418103600,5.971103515625,-0.08209500342793762,0.1348684891730547,-0.8777043332889676
1684211645428130300,5.98113037109375,-0.1483750364780426,-0.05425298371315002,-0.6111585521996021
1684211645438156500,5.991156494140625,-0.20794600034356117,-0.053626376247406,-0.2785848861902952
1684211645448182500,6.0011826171875,-0.14618205647841095,-0.12371639603972434,0.025527239966392515
1684211645458208500,6.01120849609375,-0.008200695981830358,-0.31869419373869895,0.4203615473166108
1684211645468235500,6.021235595703125,-0.016801497197151183,-0.5723223333269357,0.8504711661875247
1684211645478261500,6.031261474609375,-0.16171134178265928,-0.7872527857303618,1.221037878243625
1684211645488287500,6.04128759765625,-0.32572613820210095,-0.8546744630962609,1.520600962793827
1684211645498313500,6.0513134765625,-0.42331995873078704,-0.9020914633095264,1.7299615061104296
1684211645508340500,6.061340576171875,-0.5148926192738116,-0.8650409588098525,1.805666735436022
1684211645518366500,6.071366455078125,-0.5487877284824848,-0.8819786496073007,1.6975480137616394
1684211645528392400,6.081392333984375,-0.725255033109337,-0.8709487215489149,1.4919398087158797
1684211645538418400,6.09141845703125,-0.9323135830938816,-0.8504682435780763,1.2118854344949126
1684211645548444400,6.1014443359375,-1.0120318474531174,-0.8276409102201461,1.0514242389038204
1684211645558471400,6.111471435546875,-1.1160500019408761,-0.7290110246419906,1.0125739915058016
1684211645568497400,6.121497314453125,-1.2307236982166767,-0.5622586199522018,1.005561190134287
1684211645578523400,6.1315234375,-1.3000517937257885,-0.286179579102993,1.068928331412375
1684211645588549400,6.14154931640625,-1.4156301837563514,-0.043564416438341136,1.048217259556055
1684211645598576600,6.15157666015625,-1.5749781574085353,0.1187906300753355,0.9642138652235269
1684211645608602000,6.16160205078125,-1.7211004465237258,0.15162790079414842,0.7889812169581651
1684211645618628000,6.171628173828125,-1.9458431217588483,0.08060849119722843,0.5857286351278423
1684211645628654000,6.181654052734375,-2.2930898946344853,-0.016612112104892728,0.41805034776479005
1684211645638681000,6.19168115234375,-2.5917338185131547,-0.0254191034168005,0.30848376536965366
1684211645648707000,6.20170703125,-2.681507028418779,-0.05500350981950759,0.22314313108399508
1684211645658733000,6.211733154296875,-2.9843726616457102,0.09063479517102241,0.10694237137138843
1684211645668759000,6.221759033203125,-3.0369749555423855,0.20352584581375122,-0.05600158094614744
1684211645678786000,6.2317861328125,-3.0190485459685323,0.3143681472331285,-0.2754277373336255
1684211645688812000,6.24181201171875,-3.1594998037099837,0.3731026602745056,-0.529326802817732
1684211645698838000,6.251838134765625,-3.242368933315575,0.35643384954631324,-0.849456143926084
1684211645708864300,6.2618642578125,-2.9328426731556654,0.18204758897721765,-1.2460514695994556
1684211645718890200,6.27189013671875,-2.682116977010667,-0.18500643878281114,-1.5006654053546487
1684211645728917200,6.281917236328125,-2.447244391296804,-0.6133680449426174,-1.2884025647252797
1684211645738943000,6.29194287109375,-1.4728618910193443,-0.8888941280841827,-0.6263695653349161
1684211645748969000,6.301968994140625,0.36631519209146496,-1.0065537083029747,0.6000248715057969
1684211645758995000,6.311994873046875,2.7115184280619022,-0.05291384406387806,2.71403099540472
1684211645769022200,6.322022216796875,5.045428116601705,1.6985381938427686,5.059111189517378
1684211645779048200,6.332048095703125,5.495758977985382,4.357428901305794,6.651037851378321
1684211645789074200,6.34207421875,4.059857282833755,6.904770620384812,6.163591019043326
1684211645799100200,6.35210009765625,2.656428701263666,7.93621619336009,4.805958266225457
1684211645809127200,6.362127197265625,1.9599577179595826,6.47964609645009,2.099450798193365
1684211645819153200,6.372153076171875,0.3409899044379592,4.53865991320312,-0.9313120048359036
1684211645829179100,6.38217919921875,-1.4836714543253182,3.7716345074653623,-2.445099195961654
1684211645839205000,6.392205078125,-1.579076532638073,2.817708227500319,-2.965876343229413
1684211645849232100,6.402232177734375,-1.14011096874699,1.0645452940225602,-2.4525229162216187
1684211645859258000,6.412258056640625,-1.2755424986302852,-0.973139514479041,-0.7230149990975856
1684211645869284000,6.4222841796875,-1.50473806162104,-2.6403327219873667,1.0937316410183906
1684211645879310000,6.43231005859375,-1.9030242629908025,-3.2996196375399824,2.315621167655289
1684211645889336000,6.442336181640625,-1.2971148634910583,-3.628862697821855,2.812003293856978
1684211645899363000,6.452363037109375,-0.43296595815010364,-4.0758103465080255,3.212746825250983
1684211645909389000,6.46238916015625,-0.17040457052178679,-4.193740560361743,3.669925360572338
1684211645919415000,6.4724150390625,0.4844692047636956,-4.08053912859559,3.4330195154651997
1684211645929441300,6.482441162109375,1.857236471414566,-3.5596003610253333,3.426322063653171
1684211645939468000,6.492468017578125,3.023474545717239,-2.464099956768751,3.6401433857709167
1684211645949494000,6.502493896484375,3.259996067681908,-1.1959043137699366,3.893137903630733
1684211645959520000,6.51252001953125,3.6321570631921287,-0.2066810949742794,3.9193773835197088
1684211645969546000,6.5225458984375,4.196290829366445,0.6715478467106819,3.6199393866539
1684211645979573000,6.532572998046875,4.371529322850704,1.17303314127028,3.2618627383366223
1684211645989599200,6.54259912109375,4.393992499071359,0.9578636194139718,3.08574600071311
1684211645999625200,6.552625244140625,4.675376660591364,0.2591828511059284,3.1510034857824443
1684211646009651200,6.562651123046875,4.6340047857612365,-0.619096359461546,3.1882734782516953
1684211646019677200,6.57267724609375,4.218562282407284,-1.3170306933164595,3.339582230094075
1684211646029704200,6.5827041015625,3.828049637648463,-1.666524514466524,3.137446961855888
1684211646039730200,6.592730224609375,3.578750467175245,-1.8951871396243571,2.719021643298864
1684211646049756200,6.602756103515625,3.532174593961239,-2.006959415370226,2.1177786281749604
1684211646059782100,6.6127822265625,3.45609790097475,-2.020543704086542,1.672589805854857
1684211646069809200,6.62280908203125,3.378751041921973,-1.8371739265948532,1.412458567982912
1684211646079835100,6.632835205078125,2.874780360287428,-1.5262848536491394,1.0482248583406208
1684211646089861000,6.642861083984375,2.3468922119706868,-1.0356605603218079,0.9380927510172128
1684211646099887000,6.65288720703125,2.357902850806713,-0.6144090784281492,0.694423695385456
1684211646109914000,6.6629140625,2.326050499472022,-0.41829321660995483,0.052075639674067496
1684211646119940000,6.672940185546875,2.7023744598805903,-0.1785427957266569,-0.5438163698107004
1684211646129966000,6.682966064453125,3.107321288183331,0.03499474101364612,-1.237427872030437
1684211646139992000,6.692991943359375,3.281673646482825,0.08534604111313819,-1.5778028594404458
1684211646150019000,6.70301904296875,3.2934915100485083,0.11850889052450657,-1.6525477193012832
1684211646160045000,6.713045166015625,3.2080554525643583,0.22076982608139514,-1.6205959992453456
1684211646170071000,6.723071044921875,3.012853782981634,0.3261684751421213,-1.4565034614145755
1684211646180097000,6.733096923828125,2.783754519972205,0.433638085258007,-1.2997089716374874
1684211646190123000,6.743123046875,2.53032804043591,0.5806377417296171,-1.2685533703953027
1684211646200150000,6.75314990234375,2.330319262832403,0.6387386330425739,-1.3559534214287996
1684211646210176300,6.76317626953125,2.1462182484567163,0.6380822149604558,-1.5362161728158592
1684211646220202200,6.7732021484375,1.6897002228707074,0.6850269214868545,-1.7981299101904034
1684211646230228200,6.783228271484375,1.1384236732471733,0.5466103844434023,-2.1449270396023987
1684211646240255200,6.793255126953125,0.7130933976072817,0.4252110331743955,-2.2776988487571477
1684211646250281200,6.80328125,0.5625889478851109,0.3444809614241123,-2.1956223308339715
1684211646260307200,6.81330712890625,0.5090723156224936,0.32724867159426213,-1.9695976529642938
1684211646270333000,6.8233330078125,0.4944388831794262,0.33662381818294523,-1.5802943839952348
1684211646280360200,6.833360107421875,0.36429442685358226,0.5046680162489414,-1.261799804481864
1684211646290386200,6.84338623046875,-0.07896474257819354,0.717381961646676,-0.9639151745378971
1684211646300412200,6.853412109375,-0.38136955336034295,0.9803034147590398,-1.0346534291058778
1684211646310438100,6.863438232421875,-0.49685821928083895,1.0147247397989034,-1.0289327133715152
1684211646320465200,6.873465087890625,-0.5201040703117847,1.0363906281620263,-0.8781935781106353
1684211646330491100,6.8834912109375,-0.4775169014077633,0.9811007026165723,-0.590561754372716
1684211646340517000,6.89351708984375,-0.45734731601700185,0.871431536629796,-0.0744596131786704
1684211646350543000,6.903543212890625,-0.3561830165904015,0.8377502163022756,0.48927901619821784
1684211646360570000,6.913570068359375,-0.0784702370595187,0.7975824565649032,1.1268269781515001
1684211646370596000,6.92359619140625,0.4488977598406374,0.7512748788982629,1.7332848053142427
1684211646380622000,6.9336220703125,0.9211709884412587,0.5426245296776294,2.1501921205237506
1684211646390648000,6.94364794921875,1.372630269332975,0.08577858731150627,2.2975559341326353
1684211646400674000,6.953674072265625,1.8690800539433956,-0.5639285989910364,2.0407535484224555
1684211646410701000,6.963701171875,2.0804080979406834,-1.1773510044693947,1.4639642988145352
1684211646420727000,6.97372705078125,2.031012491130829,-1.7481366297483443,0.8197098249599337
1684211646430753300,6.983753173828125,1.9791222910262642,-2.2167115883529185,0.34832799224108457
1684211646440779300,6.993779296875,1.9851661012351511,-2.5621704548984763,0.23978373863101005
1684211646450806000,7.003805908203125,1.8999258585840462,-2.8264474142730234,0.1702121897548437
1684211646460832000,7.01383203125,1.8552375526823102,-2.9003952785372733,0.13744827653318642
1684211646470858000,7.02385791015625,1.8254145152181387,-2.7698820619642732,0.08878244530260562
1684211646480884000,7.033884033203125,1.7009341490685939,-2.597230077841878,-0.11812661320865153
1684211646490911000,7.043910888671875,1.464736452230811,-2.3700036229670047,-0.4625634432300925
1684211646500937200,7.053937255859375,1.409696117532253,-2.071999166035652,-0.9112669956728815
1684211646510963200,7.063963134765625,1.5329283833168446,-1.7944050444483757,-1.4851815666273236
1684211646520989200,7.0739892578125,1.675781149242073,-1.5614865154117346,-2.102831818933785
1684211646531016200,7.08401611328125,1.7685845206238329,-1.4849503882199524,-2.5649624237045643
1684211646541042200,7.094042236328125,1.7343489274144173,-1.4214333170771598,-2.795225762057304
1684211646551068200,7.104068115234375,1.3421324013471603,-0.934028570318222,-2.796829690122604
1684211646561094100,7.11409423828125,0.8831715857189149,0.5550222389578819,-2.5974226778045297
1684211646571120000,7.1241201171875,0.2886164508610964,3.0379987456321715,-1.929466425845027
1684211646581147100,7.134147216796875,-0.5083300458878278,5.856591354751586,-0.7031982457324862
1684211646591173000,7.144173095703125,-0.781651896983385,8.093307035735249,0.5129813788250088
1684211646601199000,7.15419921875,-0.9331009340792894,8.706441856443881,1.0098796378552912
1684211646611224600,7.164224609375,-1.1667933700978754,7.406648713654279,0.9011471681967377
1684211646621251800,7.174251953125,-0.9711498750317841,4.954961663734912,0.5917305058911443
1684211646631277800,7.18427783203125,-0.42204358211942017,2.037013192850351,0.12738631672412157
1684211646641303800,7.1943037109375,0.3381961090009659,-0.7975146520256996,-0.5084691620975732
1684211646651329800,7.204329833984375,1.0744207913488149,-2.284705512648821,-0.5689531491547822
1684211646661356800,7.214356689453125,1.6829215225160121,-2.5709213321089743,-0.08869973545521498
1684211646671382800,7.2243828125,2.1822335646897555,-2.35279880566597,0.5278071920350194
1684211646681408800,7.23440869140625,2.428882512915134,-2.1036124479174614,1.1403563218101858
1684211646691434500,7.2444345703125,2.719143223851919,-2.179037983518839,1.5929826006546615
1684211646701461800,7.254461669921875,2.963365821713209,-2.1850392697602508,1.8152879657402634
1684211646711487700,7.26448779296875,2.779272406122088,-1.6925404147326946,2.2720088204219935
1684211646721513700,7.274513671875,2.1153227594554425,-0.899744023400545,2.9685657284438607
1684211646731539700,7.284539794921875,1.2299246567934752,-0.19234101945459842,3.3953415267169476
1684211646741566700,7.294566650390625,0.5813607953071593,0.24206629661023615,3.196166277328133
1684211646751592700,7.3045927734375,0.37361937762498854,0.28650457327365875,2.497529932683706
1684211646761619000,7.314618896484375,0.5326631076335907,0.034115620091557504,1.555872182661295
1684211646771645000,7.32464501953125,0.7356091077327728,-0.36737551479935643,0.7812003538236022
1684211646781671000,7.3346708984375,0.9521487488985061,-0.6909107188284397,0.3326785876885056
1684211646791697700,7.34469775390625,1.173345860481262,-0.7704980502843857,-0.07342910108715295
1684211646801723600,7.3547236328125,0.9705290397197007,-0.6511427720636129,-0.31431437121927736
1684211646811749600,7.36474951171875,0.5495230570197105,-0.4930699329137802,-0.2207803474754095
1684211646821775600,7.374775634765625,0.21324293770790098,-0.29527357066273685,-0.056415714704990384
1684211646831803000,7.384802978515625,0.04384732046637218,-0.1623392644226551,0.19081074114739893
1684211646841828900,7.394828857421875,0.14019640619754792,-0.0642623365521431,0.31280367439538237
1684211646851854800,7.404854736328125,0.3858218565940857,0.004224924218654632,0.5154799176424741
1684211646861880800,7.414880859375,0.7768915507137775,0.012577742022275924,0.7322314479932188
1684211646871907600,7.424907470703125,1.017992801684141,-0.032983401191234586,0.972233213289082
1684211646881933600,7.43493359375,1.1125590910851955,-0.044102176576852795,1.3421101895153522
1684211646891959600,7.44495947265625,1.3355658824384211,-0.03691197281181812,1.722991667097807
1684211646901985500,7.454985595703125,1.7438930008292197,-0.18768062642812727,1.7753563528463243
1684211646912012800,7.4650126953125,2.0839082150161263,-0.3219254307448864,1.6760794015362859
1684211646922038800,7.475038818359375,2.129623672008514,-0.5242150127619505,1.624673623947799
1684211646932064800,7.485064697265625,2.379189968985319,-0.7327876205712557,1.3408826935470104
1684211646942090800,7.4950908203125,2.864233247309923,-0.7151613629877567,1.188376256352663
1684211646952116700,7.50511669921875,2.868683796977997,-0.593586655151844,1.100455980837345
1684211646962143700,7.515143798828125,2.617639828664064,-0.4504430895864963,0.8825368680119514
1684211646972169700,7.525169677734375,2.2795687342822553,-0.1964811879992485,0.5089411635234952
1684211646982196000,7.535196044921875,2.038410200166702,0.07694236990511417,0.023215602023154494
1684211646992222000,7.545221923828125,1.687037725663185,0.3782522981226444,-0.29051380891501905
1684211647002248700,7.555248779296875,1.2574760960638522,0.4139923045456409,-0.44861280541941523
1684211647012274700,7.565274658203125,0.9254945507287978,0.3417915762096643,-0.46625440670251844
1684211647022300700,7.57530078125,0.7337316234230995,0.2938917609155178,-0.3504619355298578
1684211647032326700,7.58532666015625,0.727320587337017,0.25097265664339063,-0.21010200933367013
1684211647042353700,7.595353759765625,0.5591793221047148,0.21698329328000543,-0.3132308137662709
1684211647052380000,7.6053798828125,0.22099139641020446,0.11764555169343947,-0.6414408777385949
1684211647062406000,7.615406005859375,-0.1411071278342977,0.04146306024491787,-1.0436867765195668
1684211647072431900,7.625431884765625,-0.5671791982848197,0.10911387019157409,-1.307296650287509
1684211647082458600,7.635458740234375,-1.018358712387085,0.35093583665192124,-1.4058989172063767
1684211647092484600,7.645484619140625,-1.3992717541515827,0.6826777280122042,-1.3314189918920396
1684211647102510600,7.655510498046875,-1.6941151167035102,0.904162424364686,-0.962843892044574
1684211647112536600,7.66553662109375,-1.8716086956381797,0.8834498912036418,-0.5096884747594594
1684211647122562600,7.6755625,-1.722819817662239,0.7190034253686666,-0.3116730629302561
1684211647132589800,7.68558984375,-1.2623568538427352,0.5598533123761416,-0.33733342775702474
1684211647142615800,7.69561572265625,-0.8647486978650093,0.49093818158209324,-0.3353397697217762
1684211647152641800,7.705641845703125,-0.7402361830115318,0.5948994913160801,-0.32400925128161906
1684211647162667800,7.715667724609375,-0.6528384700655937,0.5241045381247997,-0.2926012827135622
1684211647172694800,7.72569482421875,-0.8802396969854831,0.5708697964310646,-0.046100656917691225
1684211647182720800,7.735720703125,-1.179215629297495,0.7117202826231718,0.1072128588758409
1684211647192746800,7.745746826171875,-1.6064906092643736,0.9089765466481446,0.1186110357247293
1684211647202772700,7.755772705078125,-2.115549553948641,1.03446287496984,0.4937285429529845
1684211647212799700,7.7657998046875,-2.501633276349306,1.0642986257851124,0.8691993936635554
1684211647222825700,7.77582568359375,-2.6470202369272706,1.0904384446918964,1.144890604238957
1684211647232851700,7.785851806640625,-2.5218080493718382,0.9923065717637538,1.3854796679034829
1684211647242877700,7.795877685546875,-2.0030062938302753,0.7930161715626716,1.8801754484534263
1684211647252904700,7.80590478515625,-1.428681973031163,0.3276262727349996,2.0403972823306917
1684211647262930700,7.8159306640625,-1.081875199007988,-0.19424831438064574,2.1678224697604773
1684211647272957000,7.82595703125,-1.0380348151724785,-0.6453156733453274,2.3367025341287255
1684211647282983000,7.83598291015625,-0.3946246831875294,-0.7707797898352146,2.716174144913256
1684211647293009000,7.8460087890625,-0.029455227065086364,-1.3148580254524946,2.698898308202624
1684211647303035600,7.85603564453125,0.12471475942730903,-1.521540873992443,2.9418036859855055
1684211647313061600,7.8660615234375,0.6546575752515346,-1.0649906997025012,2.9965096741631627
1684211647323087600,7.876087646484375,1.0516969183653593,-0.47562195450663564,2.7206346314534544
1684211647333113600,7.886113525390625,1.398331989083439,0.1934358289539814,2.5657398378178478
1684211647343140900,7.896140869140625,1.6021511187553406,0.7843938891679048,2.0873349745944143
1684211647353166800,7.906166748046875,1.7087264103800057,1.1631336785465478,1.6114391715824603
1684211647363192800,7.91619287109375,1.7607162714667617,1.201744271969795,1.5261311243921518
1684211647373218800,7.92621875,1.854498570883274,1.573682564640045,1.147053189100325
1684211647383244800,7.936244873046875,2.0103800374686718,2.041580646896362,0.5630602917239069
1684211647393270800,7.946270751953125,2.2254443453848363,2.1866940512299538,0.22437223448753355
1684211647403297500,7.956297607421875,2.4117094059266146,2.1104846717745063,0.062225862288475035
1684211647413323500,7.966323486328125,2.4579238984823224,1.854856298279762,0.17124036375880242
1684211647423349800,7.976349853515625,2.2111307194806633,1.4480787474185228,0.5263341968730092
1684211647433375700,7.986375732421875,2.051774854782969,0.7370879481136798,1.1228557364329694
1684211647443401700,7.996401611328125,2.3332985709041356,0.018797054928541182,1.645315722221136
1684211647453428700,8.0064287109375,2.8978064310878513,-0.448261653894186,1.8822206905454395
1684211647463454700,8.016454833984374,3.3202781024262307,-0.9649293200165032,1.8352379900962112
1684211647473480700,8.026480712890624,3.3637668232798577,-1.4069301599502562,1.4709277080863714
1684211647483506700,8.036506591796876,3.019177725306153,-1.5732003340810536,0.7468129310533403
1684211647493534000,8.046533935546876,2.4974264723092316,-1.417192026245594,0.01995645409673452
1684211647503560000,8.056559814453125,1.8953449605345725,-1.089950368914008,-0.6544046964690089
1684211647513586000,8.0665859375,1.2887534239895642,-0.7954121267884969,-0.9558560789838433
1684211647523612000,8.07661181640625,0.7157932311505079,-0.4504606252431869,-1.536830213060975
1684211647533638700,8.086638671875,0.44844636281132694,0.13087094396948815,-2.0066861513867975
1684211647543664600,8.09666455078125,0.4859634619094431,0.442422280216217,-2.266509930744767
1684211647553690600,8.106690673828124,0.4390454972594976,0.1741390078097582,-2.265726671412587
1684211647563716600,8.116716552734376,0.38239144375398754,-0.127120651525259,-2.043805629469454
1684211647573743900,8.126743896484374,0.41741175760030746,-0.26480945881605145,-1.775562104551494
1684211647583769900,8.136769775390626,0.5217044912457466,-0.30073417415618897,-1.4155278924256562
1684211647593795800,8.1467958984375,0.5424899435125291,-0.28737551088929175,-1.063493739143014
1684211647603821800,8.15682177734375,0.616493629617244,-0.2513666243970394,-0.8048723213121295
1684211647613847800,8.166847900390625,0.9990198056668043,-0.2841220620512962,-0.4973427879273891
1684211647623874600,8.17687451171875,0.8926730621010065,-0.22061083612740037,-0.5654927795678377
1684211647633900500,8.186900634765625,0.7533684901766479,-0.05403437252640724,-0.5907049622356891
1684211647643926500,8.196926513671874,0.7062643553048372,0.026180735439062117,-0.6851698370888829
1684211647653952800,8.206952880859374,0.6951011562556028,-0.04537643429636955,-0.8007412128567695
1684211647663979800,8.216979736328126,0.6068593937009573,-0.125692080026865,-0.993994086459279
1684211647674005800,8.227005859375,0.39483942191675303,-0.07287117494344711,-1.0403569014444947
1684211647684031700,8.23703173828125,0.29567119167819617,-0.15090367817282677,-1.0414280378073453
1684211647694057700,8.2470576171875,0.3056336366355419,-0.2743599619716406,-1.0808040626451372
1684211647704084700,8.257084716796875,0.3730547294795513,-0.4211047668993473,-1.0166866875216365
1684211647714111000,8.267111083984375,0.4403576027713716,-0.5673194104731083,-1.0547118822723627
1684211647724136700,8.27713671875,0.30722309778407214,-0.5958586917370557,-1.1179948523983358
1684211647734162700,8.28716259765625,0.24544307956695555,-0.48360301638841624,-1.1548574331104755
1684211647744189700,8.297189697265624,0.2529841425962746,-0.32284488367736336,-1.1278428771957754
1684211647754215700,8.307215576171876,0.3542648349441588,-0.18849486542046068,-1.1377183745220303
1684211647764241700,8.31724169921875,0.3047814037203789,0.01941021839082241,-1.0468532777264714
1684211647774267600,8.327267578125,0.17157558706253767,0.1716933682233095,-0.7530752063184976
1684211647784295000,8.337294921875,0.19316884858086705,0.1957803462535143,-0.4192158844128251
1684211647794321000,8.34732080078125,0.3300286577016115,0.12118716982305049,-0.18645605306923388
1684211647804347000,8.357346923828125,0.4928524907708168,-0.06973287691771984,0.008902268379926682
1684211647814372900,8.367372802734375,0.6288590440630912,-0.2996422872662544,0.11917524547874926
1684211647824399600,8.377399658203124,0.6816952928461134,-0.39759354293048377,0.2221279626920819
1684211647834425600,8.387425537109374,0.7028676986038684,-0.4717155947178602,0.5837848075836897
1684211647844451600,8.39745166015625,0.7833069707140327,-0.5587690242707729,0.6860083337396383
1684211647854477600,8.4074775390625,0.9191416745707393,-0.6680202571064233,0.745552994120121
1684211647864504800,8.4175048828125,1.0836164897173644,-0.7696177603185176,0.7015081006884575
1684211647874530800,8.42753076171875,1.2099638187825679,-0.8358803307771683,0.6519923746302724
1684211647884556800,8.437556884765625,1.2049252400934696,-0.8333458438634872,0.6847399212390184
1684211647894582800,8.447582763671875,1.2707729461409152,-0.743880092471838,0.8045277456581592
1684211647904609800,8.45760986328125,1.3182589199371635,-0.6870435220062733,0.857028040485084
1684211647914635800,8.4676357421875,1.4027116654723881,-0.7667816601097583,0.6845823925897478
1684211647924661800,8.477661865234374,1.666545703385025,-0.9563608136355877,0.4202177549317479
1684211647934687700,8.487687744140626,1.9311760062418877,-1.142566106814146,0.14693682036846875
1684211647944714800,8.49771484375,1.906219844161719,-1.189211538133025,-0.008350771977007388
1684211647954740700,8.50774072265625,1.6890383979611099,-1.0626181253522633,-0.019865853203833102
1684211647964766700,8.5177666015625,1.5311773018658161,-0.8125567383348942,0.0277913855060935
1684211647974792700,8.527792724609375,1.3902864836633204,-0.6718138041704893,0.04106324727237224
1684211647984819700,8.53781982421875,1.3886580056786537,-0.5561024354100227,0.058631052666902536
1684211647994845700,8.547845703125,1.4513836341828108,-0.3768190504491329,0.18410978220403193
1684211648004872000,8.557871826171874,1.4699281756550073,-0.28541970064640043,0.09080342973619698
1684211648014898000,8.56789794921875,1.2341811451941729,-0.31699908025860785,-0.23507044637352226
1684211648024924700,8.577924560546874,0.8075725201815366,-0.30780688902139663,-0.6293453662753105
1684211648034950700,8.58795068359375,0.3933324514199048,-0.25953940945863724,-0.853247645163536
1684211648044976600,8.5979765625,0.13050517939701675,-0.13635901999175548,-0.8492325643032789
1684211648055002600,8.608002685546875,0.08471066581904887,0.06401975996792315,-0.793927441188693
1684211648065029600,8.618029541015625,0.32101123850941654,0.23415479283332824,-0.7152487490102648
1684211648075055900,8.628055908203125,0.5138883010694757,0.3006897504925728,-0.6589119447603822
1684211648085081900,8.638081787109375,0.4587479765951633,0.3560936578065157,-0.6254056887388229
1684211648095107800,8.64810791015625,0.33819563407693054,0.40929742472767827,-0.6537769199594855
1684211648105133800,8.6581337890625,0.30659521167669446,0.34998657310307024,-0.6343363064303994
1684211648115160600,8.66816064453125,0.4670750754356384,-0.08064999225139617,-0.45251668099015946
1684211648125186600,8.6781865234375,0.5999778174936771,-0.7898778735369444,-0.19624182628542183
1684211648135212500,8.688212646484375,0.6401268725305795,-1.478097453585267,0.0004328384593129158
1684211648145238500,8.698238525390625,0.4947755677878856,-1.9808254416823385,0.11399316666573285
1684211648155265800,8.708265869140625,0.12362985026743262,-2.286853046071529,0.0600268909394741
1684211648165291800,8.718291748046875,-0.1420867134561762,-2.6287398993492124,0.26424305710494517
1684211648175317800,8.72831787109375,-0.15669161392450331,-3.110287152251601,0.5920382566660642
1684211648185343700,8.73834375,0.2090459974747151,-3.550217615652084,1.0173796382218598
1684211648195370800,8.748370849609374,0.8165150475066155,-3.9214404535293577,1.5723413791641592
1684211648205396700,8.758396728515624,1.2061246059458701,-4.27069637427032,2.236287518699467
1684211648215422700,8.768422607421876,1.1339069264750927,-4.489541369768977,2.7229209888249635
1684211648225449000,8.778448974609375,0.7486637465517968,-4.536653249555826,3.003437135338783
1684211648235475700,8.788475830078125,0.05290617221407592,-4.266137688052654,3.0060864808037877
1684211648245501700,8.798501708984375,-1.0632430523175747,-3.342760860130191,2.509818628631532
1684211648255527700,8.808527587890625,-2.562709968602657,-1.0448691181719303,1.8559259733378886
1684211648265553700,8.8185537109375,-4.622625898134708,3.6052719788759946,1.990140674777329
1684211648275580700,8.82858056640625,-5.905450370466709,11.798354563093184,4.612046928714215
1684211648285606700,8.838606689453124,-3.396537458503246,20.037887348318097,6.837721867984533
1684211648295633000,8.8486328125,-3.4833833827853202,23.810480471682546,4.81795411670655
1684211648305659000,8.858658935546876,-1.5571873569130896,24.161074363029,5.22955075828731
1684211648315684900,8.868684814453125,2.4781319892525673,13.867708183056115,3.7206744278177615
1684211648325711600,8.878711669921875,2.03319275777936,0.9012561815291643,-1.7631623494446276
1684211648335737600,8.888737548828125,-0.6258090088427066,-5.515652595978975,-5.436211394995451
1684211648345763600,8.898763671875,-2.610353178787231,-8.639130653715133,-7.825514761716127
1684211648355789600,8.90878955078125,-2.720238617873192,-9.317554815936088,-8.55829127637148
1684211648365816800,8.91881689453125,-2.07166715760231,-9.137530841740965,-6.638550710248947
1684211648375842800,8.9288427734375,-1.6236206077635287,-7.753692803564667,-4.205832272432744
1684211648385868800,8.938868896484376,-1.1699895357906818,-6.015007892772555,-2.22638834823668
1684211648395894800,8.948894775390626,-0.6118319579491391,-4.979200032934546,-0.5959519229784608
1684211648405921800,8.958921875,-0.12744217509720474,-3.6845769862592217,0.03006926731020212
1684211648415947800,8.96894775390625,0.2620329798400402,-1.9142846388041972,0.36809944515973325
1684211648425973800,8.978973876953125,0.45359132448434825,0.21320143665373323,0.9413882854312657
1684211648435999700,8.988999755859375,0.4461959535360336,2.318136657607555,1.0756763443678616
1684211648446026800,8.99902685546875,0.4555097618589177,3.5353251669466492,0.6607382834047079
1684211648456052700,9.009052734375,0.915902546519041,4.191683043310046,-0.20763591148108243
1684211648466078700,9.01907861328125,0.8816752827465534,4.046163980785012,-1.0083104888424277
1684211648476104700,9.029104736328126,0.8417769876003265,3.132589584952593,-1.1017793383955954
1684211648486131700,9.039131591796876,0.9788018510896712,1.600263113051653,-1.4500854110658168
1684211648496157700,9.04915771484375,1.1487830816328526,0.017111293798685073,-1.8043416243121027
1684211648506183700,9.05918359375,1.1645733559608458,-0.7829553807973861,-2.2376628987058997
1684211648516210000,9.0692099609375,1.1629776112020016,-1.0559767876416444,-2.1679455116182567
1684211648526236000,9.07923583984375,1.0420107330661266,-0.7049439203560351,-1.8954443292558192
1684211648536262700,9.0892626953125,0.5124923531990498,-0.04658230295479297,-1.7623124546170235
1684211648546288600,9.09928857421875,-0.061541898612305516,0.6442781469911336,-1.6336299606025217
1684211648556314600,9.109314697265624,-0.3490682892143726,1.305353115004301,-1.2929647580742836
1684211648566340600,9.119340576171876,-0.4039993183195591,1.5503911209017038,-1.2045876787021756
1684211648576367900,9.129367919921876,-0.42285365639328953,1.4470295306265353,-1.4068532953217625
1684211648586393900,9.139393798828126,-0.2004278797984123,1.1940291675478218,-1.5453496196031569
1684211648596419800,9.149419921875,0.2065710587285459,0.8618126444131136,-1.6586293773025274
1684211648606445800,9.15944580078125,0.6641629971563816,0.3362678443521261,-1.7809379523709414
1684211648616472800,9.169472900390625,1.0209260055918246,-0.17871990585923195,-1.6164897329702972
1684211648626498800,9.179498779296875,1.168929140017554,-0.5899895074427127,-1.41192139236629
1684211648636524800,9.18952490234375,1.042932012629509,-0.7529471960246562,-1.2413807013094424
1684211648646550800,9.19955078125,0.6203787274222821,-0.6243325065493583,-1.0807724984630942
1684211648656577800,9.209577880859374,0.0590729512155056,-0.2359779166072607,-0.9914578459799289
1684211648666603800,9.219603759765626,-0.42732415287084874,0.2638900058835745,-0.9250950300171971
1684211648676629800,9.229629638671875,-0.7950515498477965,0.6242150176495314,-0.7678837761327624
1684211648686655700,9.23965576171875,-1.0784206746399403,0.9327256710261106,-0.4491054112419486
1684211648696682000,9.249681884765625,-1.2612637979090213,1.1024252350836992,-0.27634645961374044
1684211648706709000,9.259708984375,-1.301678810405731,1.039209192714095,-0.34195202746838327
1684211648716735000,9.26973486328125,-1.2271113529384134,0.7905103262215852,-0.5492644060835242
1684211648726761000,9.279760986328125,-1.0123978312212973,0.4285486531645059,-0.8612409820050001
1684211648736787000,9.289786865234374,-0.696449721320346,0.03685995036363601,-1.1046776901856064
1684211648746813700,9.299813720703124,-0.35043490139245986,-0.1872393124014139,-1.137297518761456
1684211648756839700,9.309839599609376,-0.12637955083437263,-0.2862573205143213,-1.125566456696391
1684211648766866000,9.319865966796876,0.0408475586950779,-0.38753567477464673,-0.9843456758871674
1684211648776892000,9.329891845703125,0.17324512770995495,-0.3721609955102205,-0.73922291431576
1684211648786919000,9.3399189453125,0.20590360779576003,-0.3063040832430124,-0.5871045996561646
1684211648796945000,9.34994482421875,0.09185279265865683,-0.2688064194977283,-0.6176973063185811
1684211648806971000,9.359970947265625,-0.05871873095035553,0.12239596109092235,-0.6108984399586915
1684211648816996900,9.369996826171874,-0.3476338724970817,0.5307102200001478,-0.5879360820442437
1684211648827024000,9.38002392578125,-0.5877579489983618,0.4326186790823936,-0.6672764530017972
1684211648837049900,9.3900498046875,-0.5570914464473724,0.2668471021234989,-0.6546820521056652
1684211648847075800,9.400075927734376,-0.5924480065107345,0.1967892310351133,-0.7972077780336141
1684211648857101800,9.410101806640625,-1.006592286747694,0.1238315468519926,-0.6098819563925266
1684211648867127800,9.4201279296875,-1.292720281793922,0.16798048518002032,-0.08624357447475195
1684211648877154800,9.43015478515625,-1.3220995210133493,0.2939338464915752,0.2787725177168846
1684211648887180800,9.440180908203125,-1.3465266907833515,0.3499380577862263,0.5166451620295643
1684211648897206800,9.450206787109375,-1.4513725282669065,0.23961364276111125,0.6667667499139904
1684211648907232800,9.460232666015624,-1.3521813555441795,0.16158640022873877,0.7252960957720875
1684211648917260000,9.470260009765624,-1.0270971685074268,0.04844400517344474,0.5523150258257985
1684211648927286000,9.4802861328125,-0.529277556848526,-0.1173310789167881,0.36031682845950125
1684211648937312000,9.49031201171875,-0.11670081818923353,-0.2597960145682096,0.3002002134099602
1684211648947338000,9.500337890625,0.18342881420254706,-0.423787137851119,0.22207652476578948
1684211648957364700,9.51036474609375,0.3143580642305314,-0.41528117531239983,-0.010601765774190424
1684211648967390700,9.520390625,-0.22251228583455085,-0.3095505178183317,-0.19063655362427234
1684211648977416700,9.530416748046875,-0.5712557270087302,-0.068074588316679,-0.6171019707739352
1684211648987443000,9.54044287109375,-0.463991137945652,0.19332067814171314,-0.9921393985033035
1684211648997470000,9.550469970703125,-0.419050903109461,0.4544400502681732,-1.3479445947572588
1684211649007496000,9.560495849609374,-0.28312472157701846,0.49748891839981074,-1.6358710175275801
1684211649017522000,9.57052197265625,-0.3375672365128994,0.37606793982088565,-1.8184546130776404
1684211649027548000,9.5805478515625,-0.5943804358780383,0.1618120256781578,-1.815894699461758
1684211649037574000,9.590573974609375,-0.9501149049833416,0.08500760293900966,-1.5557570318490266
1684211649047600600,9.6006005859375,-1.2692263012208045,0.12813012082874775,-1.205588380177319
1684211649057627000,9.610626953125,-1.4579521989181636,0.20364742636680602,-0.8458008362889289
1684211649067652900,9.62065283203125,-1.3937820706941186,0.22355448836386202,-0.430256918387115
1684211649077678800,9.630678955078125,-1.182402442640066,0.12651800945699215,0.005805179147422314
1684211649087705900,9.640705810546875,-1.1211609152138233,-0.1226549042880535,0.3902203838139772
1684211649097731800,9.65073193359375,-1.2675966541923582,-0.4147510139584541,0.6763160840258002
1684211649107757800,9.6607578125,-1.4143433588162064,-0.7043319259375334,0.7353048640891909
1684211649117783800,9.67078369140625,-1.5245383022427559,-0.9331395125240087,0.6529902996264397
1684211649127811000,9.68081103515625,-1.6714920737460255,-0.9991162517786025,0.5726403132349253
1684211649137837000,9.690837158203125,-1.954796681934595,-0.9736445413917303,0.37781755996719
1684211649147862800,9.70086279296875,-2.2164880087301135,-0.7442933494478464,0.295747033393383
1684211649157888800,9.710888671875,-2.395555120591819,-0.31939503548443315,0.24137553786709903
1684211649167915800,9.720915771484375,-2.4375413279280065,0.13882745593190193,0.06699205377697945
1684211649177941800,9.730941650390625,-2.4704770905852316,0.5009714998185635,-0.16979191851615905
1684211649187967700,9.7409677734375,-2.2396963042296467,0.6982020448803902,-0.2914290240637958
1684211649197993700,9.75099365234375,-1.4949039192184805,0.6282528948634862,-0.25903058315366506
1684211649208020000,9.76102001953125,-0.5389189531579613,0.4900625677913427,0.16578852809369563
1684211649218047000,9.771046875,0.6976400270834565,0.6318453663975,1.3313164083003997
1684211649228073000,9.781072998046875,2.071581817406416,1.1644833395898342,2.621935187770426
1684211649238099000,9.791098876953125,2.869544213199615,2.288449959874153,3.821395440456271
1684211649248125000,9.801125,2.5021432716980576,3.6687849583655594,4.166754353758693
1684211649258151700,9.811151611328125,1.8417711912572383,3.899861658927798,3.241167156310379
1684211649268177700,9.821177734375,0.9621557636499405,3.0568875704973935,1.2141343824654818
1684211649278204000,9.831203857421874,-0.1983404059998691,2.374130347508192,-1.0759947626672683
1684211649288230000,9.84122998046875,-1.1631646582067012,2.0898843668162823,-2.3522993317112326
1684211649298257000,9.8512568359375,-2.111420491319895,2.058446441501379,-2.582337629136443
1684211649308283000,9.861282958984376,-2.591070093907416,1.569865052178502,-2.3530999805696307
1684211649318308900,9.871308837890625,-2.707371829776466,1.1275836417376994,-1.6018623649418353
1684211649328334800,9.8813349609375,-2.3725639749743044,0.542739095968008,-0.39666035373359915
1684211649338361900,9.89136181640625,-1.5625143971547484,-0.038189153140783305,1.1431631959244608
1684211649348387800,9.901387939453125,-0.4574881857924163,-0.9734785371750593,2.231129843675345
1684211649358413800,9.911413818359375,0.6141985044173895,-1.9172510873943567,3.150929543763399
1684211649368439800,9.921439697265624,1.4393322541221976,-2.0734867742449046,3.229140326169133
1684211649378465800,9.9314658203125,1.602865258374065,-2.015314571261406,2.966061344407499
1684211649388492800,9.941492919921876,1.7455447135590016,-1.6297563340395689,2.1526859831660983
1684211649398518800,9.951518798828126,1.7161730731241405,-0.7801309710264206,1.0168360328644515
1684211649408544800,9.961544677734375,1.3190427637912332,-0.1769394521832466,0.022371406283974646
1684211649418570800,9.97157080078125,0.7559576298870145,0.28834990887939926,-0.7299214174851775
1684211649428598000,9.981597900390625,0.5537048727490007,0.6021393794417381,-1.2855717252135277
1684211649438624000,9.9916240234375,0.8107577260889113,0.8006383370041846,-1.6225094316512345
1684211649448650000,10.00164990234375,0.8240203816354275,0.8209878820717335,-1.8196458686888217
1684211649458676000,10.011676025390624,0.4999146842420101,0.8575959035009145,-1.8690780081167817
1684211649468702700,10.02170263671875,0.3792505153797567,1.100118711706996,-1.6365601688355207
1684211649478728700,10.031728759765626,0.5990672785200178,1.315810211610794,-1.2451987982928752
1684211649488754700,10.041754638671875,0.843191530573368,1.2771844206184149,-0.6625570232644676
1684211649498781000,10.051781005859375,0.8782065837226808,1.0043412929505109,-0.18548311638385057
1684211649508808000,10.061807861328125,0.8434113108038902,0.30097908882796764,0.08572451903671026
1684211649518834000,10.071833984375,1.6339643071234224,-0.17000643804967402,0.4778083586350083
1684211649528860000,10.08185986328125,2.2684861992537972,-0.6383470033764839,0.6110752578303218
1684211649538886000,10.091885986328125,1.6076934091828763,-1.1877993332475423,0.5801239469885826
1684211649548912600,10.10191259765625,1.2918528513096272,-1.402598268225789,0.5368757568925618
1684211649558939000,10.11193896484375,1.3022560257717966,-1.4316285478770732,0.3598617781683802
1684211649568964900,10.12196484375,1.203652078352496,-1.2475333787202834,0.11826456037461756
1684211649578990800,10.131990966796875,1.0086264959890394,-1.0009721087783574,-0.030147008721530436
1684211649589016800,10.142016845703125,0.8223568323373794,-0.7472814253479242,-0.1378781923830509
1684211649599043800,10.1520439453125,0.8069523424565792,-0.5394850626081228,-0.14316899226754903
1684211649609069800,10.16206982421875,0.6287257000070064,-0.5091489610552787,-0.23443156394809483
1684211649619096000,10.172095947265625,0.5119874724168331,-0.5575859519660472,-0.3871235868424177
1684211649629122000,10.1821220703125,0.32722477926202115,-0.551523290926218,-0.48355976176857945
1684211649639149000,10.192149169921874,0.22792839259915051,-0.4409095375657081,-0.50749622541219
1684211649649175000,10.202175048828124,0.3309130393207073,-0.2139256592750549,-0.5127238969326019
1684211649659201000,10.212200927734376,0.5080582066765055,-0.07686638205945491,-0.49758331868499517
1684211649669227000,10.22222705078125,0.6309340967714786,0.08639818051457404,-0.3358320832833648
1684211649679254000,10.23225390625,0.969036755335331,0.23761223981082438,-0.057902738392353055
1684211649689280000,10.242280029296875,0.9826315654456614,0.2453548167616129,0.1339370535418391
1684211649699306000,10.252305908203125,1.107923832499981,0.3044938189506531,0.3490796873912215
1684211649709332000,10.26233203125,1.1448141780018806,0.03823533037006855,0.48050329680740833
1684211649719359000,10.27235888671875,1.1827099011540412,-0.14651625686883926,0.5933972700595855
1684211649729385000,10.282385009765624,1.196446165561676,-0.06056055942475795,0.6877107537433504
1684211649739411000,10.292410888671874,1.0133657264053821,-0.13050970944166182,0.557584490661323
1684211649749437200,10.302437255859376,0.7990379160702228,-0.2654530174165964,0.35488077488541603
1684211649759464000,10.3124638671875,0.6783610338568687,-0.38095220473110675,0.39095425104647874
1684211649769490000,10.322489990234375,0.5399076719343662,-0.41966041330993176,0.20382570554316043
1684211649779516000,10.332515869140625,0.39101942523717875,-0.4239361909329891,0.23321605067849158
1684211649789542000,10.3425419921875,0.324594942215085,-0.636103023841977,0.16999562439471483
1684211649799568000,10.35256787109375,0.3448082936823368,-0.7824772418916225,0.13171411679536105
1684211649809595000,10.362594970703125,0.48408700051307674,-0.8836690869122743,0.2407151742622256
1684211649819621000,10.37262109375,0.5541992321372032,-1.0138847818434238,0.2763219096943736
1684211649829647000,10.382647216796874,0.479672106680274,-1.096727900224924,0.2692553323090076
1684211649839673000,10.392673095703126,0.38583880772888657,-1.092199609145522,0.2899269489377737
1684211649849700000,10.4027001953125,0.45665889536142346,-1.0111083028674126,0.4127756222322583
1684211649859726000,10.41272607421875,0.5780488942801952,-0.8448293609082699,0.561260548825562
1684211649869751800,10.422751708984375,0.7294605219751596,-0.7103092467814683,0.6583332680895925
1684211649879777800,10.43277783203125,0.8122077787667512,-0.6000748481273651,0.700697661088407
1684211649889805000,10.44280517578125,0.7330161686301231,-0.5393658201426267,0.7280509474381804
1684211649899831000,10.4528310546875,0.6862281139701605,-0.4099848224699497,0.8476718908578157
1684211649909857000,10.46285693359375,0.7287818920612334,-0.39967560990154744,1.02938074939996
1684211649919883000,10.472883056640624,0.6300614055901765,-0.604289835473895,0.9125053052961826
1684211649929910000,10.482909912109376,0.508247628301382,-1.0022639021545647,0.4282710052669048
1684211649939936000,10.49293603515625,0.33856559990048407,-1.322727443653345,0.14439035075604914
1684211649949962000,10.5029619140625,0.24192659587860105,-1.3439543560773133,0.07358049225658178
1684211649959988000,10.512988037109375,0.19790391427874565,-1.1089596052885056,0.08367840016186237
1684211649970014200,10.52301416015625,0.17033143222033975,-0.7954471981018781,0.14946984597742557
1684211649980041000,10.533041015625,0.25400457168519497,-0.4983779761940241,0.17127309698462484
1684211649990067000,10.54306689453125,0.4771791208207607,-0.2518605453938246,0.19972762257456778
1684211650000093000,10.553093017578124,0.8387292904675007,-0.08097557094395161,0.20967735418081282
1684211650010119000,10.563118896484376,1.1587059252321719,0.068475570333004,0.32281331949532033
1684211650020146000,10.57314599609375,1.44135148499012,0.2042009685963392,0.3021557313919067
1684211650030172000,10.583171875,1.5735937173128127,0.39132688375115393,0.12780746474564075
1684211650040198100,10.5931982421875,1.452833832991123,0.6583797375798225,-0.07361001061201095
1684211650050224000,10.60322412109375,1.0749965454101562,0.9523118305057287,-0.32421266489923
1684211650060251000,10.6132509765625,0.6515630433022975,1.240251405018568,-0.5246422982633113
1684211650070276900,10.62327685546875,0.31901451173424716,1.41022394079864,-0.6719745476901531
1684211650080302800,10.633302734375,0.11697919673919677,1.414668645247817,-0.951708896176517
1684211650090328800,10.643328857421874,0.15210895317620596,1.360591018101573,-1.1467971685126424
1684211650100356000,10.653356201171874,0.19403554841279982,1.1410130321532488,-1.3489911812007427
1684211650110382000,10.663382080078126,-0.06531683230744674,0.8260241226732731,-1.6884078449726103
1684211650120408000,10.673407958984376,-0.3162123137950897,0.44454292563199993,-1.8890499520435928
1684211650130434000,10.68343408203125,-0.3650958794295788,0.15389759929180144,-1.818999972000718
1684211650140461000,10.6934609375,-0.307093772315979,-0.1685433797597885,-1.5099240859568117
1684211650150487000,10.703487060546875,-0.07725742720365524,-0.5676701236069203,-1.1429583210021257
1684211650160513000,10.713512939453125,0.15294482861161232,-1.036825512447953,-0.6971145419046282
1684211650170539000,10.7235390625,0.2669675136327743,-1.4381103111118076,-0.177835816501081
1684211650180566000,10.73356591796875,0.2944645923674106,-1.8046365156054496,0.38263328968584537
1684211650190592000,10.743592041015624,0.34257542006373404,-2.2579653897613285,0.9169684221848845
1684211650200618000,10.753617919921876,0.4080255416283384,-2.6354133857637643,1.4353732873633502
1684211650210644000,10.76364404296875,0.4621358654677868,-2.8595705161958933,1.7869716795772312
1684211650220670000,10.773669921875,0.41145664858818054,-2.8928263045877216,2.004094673588872
1684211650230697000,10.783697021484375,0.2565817652294412,-2.6997745065152645,2.030797387075424
1684211650240723000,10.793722900390625,-0.023120178824663162,-2.5240087742865085,1.676077355709672
1684211650250749000,10.8037490234375,-0.21640874479506164,-2.5621850679457188,1.0815864451944828
1684211650260775200,10.813775146484375,0.010657003092765807,-2.7887030822902914,0.39902503703832626
1684211650270802000,10.823802001953124,0.3498960087427869,-3.244343155997991,-0.22886896138489246
1684211650280828000,10.833827880859374,0.5769441479086875,-3.6067806298732754,-0.7680097405999898
1684211650290854000,10.84385400390625,0.6795628108620643,-3.9325504610866306,-1.1049512464299798
1684211650300880000,10.8538798828125,0.6141524733185768,-4.25344479521811,-1.1847832002967595
1684211650310907000,10.863906982421875,0.6346773749530314,-4.266090926301479,-1.4036413475379348
1684211650320933000,10.87393310546875,0.3427472694993019,-4.05442912030518,-1.523431802305579
1684211650330959000,10.883958984375,-0.48228784213662146,-3.5655981401354073,-1.3908721745967865
1684211650340985000,10.893985107421875,-1.5261328779578207,-1.976031777665019,-0.9097188894480467
1684211650351012000,10.90401220703125,-1.9623463666617869,1.6062947944313286,0.14554770409762857
1684211650361038000,10.9140380859375,-0.8234288454830646,6.705307201704382,1.8560399551063775
1684211650371064000,10.92406396484375,1.8376900594234467,11.612567787587642,3.352390858262777
1684211650381090000,10.934090087890626,1.659193440926075,15.123157157206535,3.3327740113839504
1684211650391115800,10.94411572265625,-1.0840753394007683,18.245302505034207,3.0069501118957995
1684211650401143000,10.95414306640625,-2.99225289350152,16.015153927481173,3.075299717761576
1684211650411169000,10.9641689453125,-3.6113819861888885,6.202315009713173,1.3885057377263903
1684211650421195000,10.974195068359375,-2.5031857664883135,-0.7227583939880132,-2.4275036257773634
1684211650431221000,10.984220947265625,-1.0084335307002068,-4.352949710065126,-4.317187199549377
1684211650441248000,10.994248046875,-0.24467271624896675,-6.414309408664703,-4.398549139462411
1684211650451274000,11.00427392578125,0.37908231920599933,-7.264998601517081,-3.688383392804861
1684211650461300000,11.014300048828124,0.6896621800720691,-6.868556566709279,-2.4872327028140426
1684211650471326000,11.024325927734376,0.579824671781063,-5.469450816774368,-1.2889178207710386
1684211650481353000,11.03435302734375,0.10005147934649139,-3.2648090209215876,-0.6598541940465569
1684211650491379000,11.04437890625,-0.10551200977470725,-1.0575918216228484,-0.1710150305703282
1684211650501405000,11.054405029296875,-0.08936404458284378,1.112153432893753,0.07114800441265105
1684211650511431000,11.064430908203125,-0.03604048720691353,2.939741200497746,-0.1277633333429694
1684211650521458000,11.0744580078125,-0.15647654640171677,4.251548606207966,-0.7759238747254014
1684211650531484000,11.08448388671875,-0.6150210728466511,4.766709959420561,-2.027218067283928
1684211650541510100,11.09451025390625,-0.8255342933297157,4.331738579732179,-3.145229870817065
1684211650551536000,11.1045361328125,-0.4687152803907171,3.0956472170025107,-3.40123964484483
1684211650561563100,11.114563232421874,0.21844163886215537,1.7034078457057475,-3.0921438850566743
1684211650571589000,11.124589111328126,0.9700210901975631,0.5449070876568556,-2.5013152964413163
1684211650581614800,11.13461474609375,1.821053397399187,-0.25310733058452606,-1.7692650502339005
1684211650591640800,11.144640869140625,1.9741385112643242,-0.8162170144081116,-1.3715464196190237
1684211650601666800,11.154666748046875,2.0200036058604716,-1.1081225699424744,-1.0314680770680307
1684211650611693800,11.16469384765625,1.8293325654447077,-1.1124416021853685,-0.9460086387082934
1684211650621719800,11.1747197265625,1.332833827126026,-0.8223872274756431,-0.8980047785177826
1684211650631745800,11.184745849609374,0.8501743021328002,-0.39586628074645996,-0.9012757630124688
1684211650641771800,11.194771728515626,0.6591852087438106,0.118951958116889,-0.7684837878525257
1684211650651799000,11.204799072265626,0.6139326930880546,0.5368541295826434,-0.7442837048366665
1684211650661825000,11.214824951171876,0.7560814023971557,0.8196931660860777,-0.8827703845068812
1684211650671851000,11.22485107421875,0.8079214797496795,0.9912848275005817,-1.2845301072061062
1684211650681877000,11.234876953125,0.710798491603136,1.0368436326265333,-1.6490180838704107
1684211650691903700,11.24490380859375,0.41681094216294584,0.9705144266724586,-1.6915987499684095
1684211650701929700,11.2549296875,-0.03272270442843437,0.7740729861617088,-1.3249720077097416
1684211650711955700,11.264955810546875,-0.3763397424995899,0.3652805883467197,-0.8266469307467341
1684211650721981700,11.274981689453124,-0.2657716549117118,-0.09789338799715042,-0.4221688889995217
1684211650732009000,11.285009033203124,0.1496025324463844,-0.4856745619654655,-0.04365501733124256
1684211650742035000,11.295034912109376,0.5620762491226196,-0.7817500966608524,0.32073359061181544
1684211650752061000,11.30506103515625,0.8807389517445117,-0.891663008275628,0.5932426640197634
1684211650762087000,11.3150869140625,0.9827028771162033,-0.7590905210852622,0.6868059138581156
1684211650772113000,11.32511279296875,0.8468892160475253,-0.45251229707598684,0.6571233077779411
1684211650782140000,11.335139892578125,0.7919137632787228,-0.1590665263622999,0.5267424854129552
1684211650792165600,11.34516552734375,0.7379075208682566,0.04176759614944458,0.3879439633145928
1684211650802192000,11.35519189453125,0.47526422711014743,0.08429623979926108,0.24755320358872412
1684211650812217900,11.3652177734375,0.09793076086547226,0.014329554125666617,0.2184960359305143
1684211650822244900,11.375244873046874,-0.24688451054692268,-0.1272387249469757,0.20311112753301858
1684211650832270800,11.385270751953126,-0.47494157102704043,-0.30051790105700493,0.22164894700348375
1684211650842296800,11.395296875,-0.6253261937618255,-0.3936883521854877,0.33649551562815905
1684211650852322800,11.40532275390625,-0.7515268078327179,-0.23183950162827968,0.5903700311928988
1684211650862349800,11.415349853515625,-0.7851918346125633,0.11937924361824989,0.7421227274104952
1684211650872376000,11.4253759765625,-0.8131319809395819,0.3693856855779886,0.7900815794155002
1684211650882402000,11.435402099609375,-0.7966495596289634,0.4906652098596096,0.6919903307586908
1684211650892428000,11.445427978515625,-0.8521710289079696,0.42698388806581494,0.41576340587139127
1684211650902454800,11.455454833984374,-0.9442354915559291,0.046802667707204815,0.07470598915517329
1684211650912480800,11.465480712890624,-0.9952549001753329,-0.4653156645476818,-0.1395186530664563
1684211650922506800,11.4755068359375,-0.9112906688094139,-0.8495172264635562,-0.12779051361083985
1684211650932532700,11.48553271484375,-0.7080395482838153,-1.0398223561763762,0.10344897629767656
1684211650942560000,11.49556005859375,-0.47841830722689627,-1.1089444077193737,0.49630116991996764
1684211650952586000,11.5055859375,-0.29334114129543304,-1.0761708498865366,0.8394599428296089
1684211650962612000,11.515612060546875,-0.3026361353199929,-0.841418091160059,1.093790385468304
1684211650972638000,11.525637939453125,-0.4600397699713707,-0.457995112401247,1.1126657663300632
1684211650982664000,11.535663818359374,-0.7137854715246706,-0.05039046306610107,0.7899924398273229
1684211650992690700,11.545690673828124,-1.0071453175205736,0.2875169651865959,0.2962695959627628
1684211651002716700,11.555716552734374,-1.249831718790531,0.5375193154931068,-0.2288072943255305
1684211651012742700,11.56574267578125,-1.3988953220546245,0.7332984927028418,-0.5975923836618662
1684211651022769000,11.575768798828125,-1.4529787944197654,0.8651187002211809,-0.745401895211637
1684211651032796000,11.5857958984375,-1.4459458270430563,0.8784685956597328,-0.6472784978508949
1684211651042822000,11.59582177734375,-1.3194529520273208,0.72300681579113,-0.40869244457185266
1684211651052847900,11.605847900390625,-1.0422283213395624,0.4830214171081781,-0.1749216826200485
1684211651062873900,11.615873779296875,-0.8009189805764705,0.27033026806414123,-0.04124824845045805
1684211651072900900,11.62590087890625,-0.6878420519728213,0.08799743240475653,-0.05912994209975004
1684211651082926800,11.6359267578125,-0.6180945620078593,-0.08254968839287757,-0.060198448114097115
1684211651092953000,11.645953125,-0.6249778917808085,-0.3092559187859297,0.004295066845417022
1684211651102979000,11.65597900390625,-0.6710171008348464,-0.5016495452105999,0.12322978156656027
1684211651113005800,11.666005859375,-0.6447860965132713,-0.5728086555391549,0.35773791788220405
1684211651123031800,11.67603173828125,-0.6182956375379115,-0.5584989751577377,0.4922609546184539
1684211651133057800,11.686057861328125,-0.6833821499545126,-0.5132938057750464,0.5109250308170914
1684211651143083800,11.696083740234375,-0.8132511503398417,-0.32523440916240215,0.4261506521120667
1684211651153111000,11.706111083984375,-1.0459645121932029,-0.15606266837120056,0.26810236288160083
1684211651163137000,11.716136962890625,-1.2661398795127867,-0.10472644888758659,0.17221797661930321
1684211651173163000,11.7261630859375,-1.4475040162704884,-0.04465630332827568,0.17958996669203042
1684211651183189000,11.73618896484375,-1.666107165837288,0.08782266035974025,0.30513299363702534
1684211651193215000,11.746215087890626,-1.9214122987270355,0.1899842271953821,0.4712830485194921
1684211651203241700,11.75624169921875,-2.1659622288465497,0.27313188148140904,0.6917611981779337
1684211651213267700,11.766267822265625,-2.477570848238468,0.34664486145973206,0.9147571758762001
1684211651223293700,11.776293701171875,-2.8418507351100444,0.3713672147840261,0.9742617965072393
1684211651233319700,11.786319580078125,-3.090869919598102,0.3270522722393274,0.9012887686245142
1684211651243347000,11.796346923828125,-3.4820322604373097,0.20983225248157977,0.6726673522599041
1684211651253373000,11.806373046875,-3.8244168341040607,0.0681353785932064,0.3535707152001559
1684211651263399000,11.81639892578125,-3.9426574290812013,-0.04272913465797901,0.11748247008621691
1684211651273425000,11.8264248046875,-3.896256912434101,-0.1799117459923029,-0.028204642482101916
1684211651283452000,11.836451904296876,-3.8815094251573083,-0.35815526651144025,-0.040955841375142334
1684211651293478000,11.846477783203126,-3.6955122217714784,-0.5267594365477561,0.00022504092752933502
1684211651303504000,11.85650390625,-3.6798072876393793,-0.6760568485677242,0.18085165719091892
1684211651313529900,11.86652978515625,-3.635433892905712,-0.8454600600272416,-0.004366963037848472
1684211651323556900,11.876556884765625,-2.659147897094488,-1.3038900567144154,-0.10580664533972739
1684211651333582800,11.886582763671875,-1.4731062211692332,-1.953254128667712,0.34014673161208625
1684211651343608800,11.89660888671875,-0.3798283152677119,-2.7870938935279845,0.7353580555811524
1684211651353634800,11.906634765625,0.8687116101466119,-3.2529256909042594,1.4528501996040344
1684211651363660800,11.916660888671874,0.8908218812763691,-3.2483383631139993,1.424834649953246
1684211651373686800,11.926686767578126,2.407075170254707,-2.2961831844747067,2.6568483879804607
1684211651383714000,11.936714111328126,3.668330784857273,1.2651935385733841,3.8939506813183424
1684211651393740000,11.946739990234375,4.367942696535587,5.814388874316215,4.059961327730119
1684211651403766000,11.95676611328125,4.769159690660238,8.640263457137346,3.857748610341549
1684211651413792000,11.9667919921875,4.065129962539673,9.29112448965013,3.0491727583363653
1684211651423818800,11.97681884765625,3.2734558532357214,7.309241063347458,1.488421863722801
1684211651433844700,11.9868447265625,2.2286121617659926,4.099360148921608,-0.0490580454185605
1684211651443870700,11.99687060546875,1.460959856301546,1.5607015025138855,-0.9746484577372669
1684211651453896700,12.006896728515626,0.7353389124892652,-0.01239361762702465,-1.4356842530086635
1684211651463924000,12.016924072265626,0.7036661555051803,-0.8123229295790195,-0.9503636190474033
1684211651473950000,12.026949951171876,0.2582031924188137,-1.693404922607541,-0.9895663331449032
1684211651483976000,12.036975830078125,-0.0749287650603801,-2.205851171642542,-1.13017482727468
1684211651494002000,12.047001953125,-0.26425299397706986,-2.3591817847013474,-1.2405670468389987
1684211651504028700,12.057028564453125,-0.2405833645761013,-1.898738694626093,-1.871587652850151
1684211651514054700,12.0670546875,-0.0017138181805610656,-0.9241267695069313,-2.6199106962054968
1684211651524080600,12.07708056640625,0.35995910106301304,0.4097328935354948,-3.1402813084989782
1684211651534107000,12.08710693359375,0.5513303621700033,1.7303800237834452,-3.487891215598583
1684211651544134000,12.0971337890625,0.8358885140836239,2.4185049112856385,-3.460516594199836
1684211651554159900,12.107159912109376,1.3144798397898674,2.538312609449029,-3.2743492949441073
1684211651564185900,12.117185791015626,1.8931307916164397,2.0757278311699627,-2.9513658795788884
1684211651574211800,12.1272119140625,2.477671386003494,1.2416782229512928,-2.5830954617664217
1684211651584237800,12.13723779296875,2.9654315220713614,0.3912631708651781,-1.919624246266484
1684211651594264800,12.147264892578125,3.1788322806894778,-0.4408008164942264,-0.8908060991853475
1684211651604291000,12.157291015625,3.4618478428035973,-1.1878852579653263,0.1999161308839917
1684211651614316800,12.16731689453125,3.635788113170862,-1.6499644248098133,1.3349345987975596
1684211651624342800,12.1773427734375,3.4842888071924447,-1.8463328000843524,2.2565528926149008
1684211651634369800,12.187369873046874,3.110716191318631,-1.9755816958099603,2.6982842679575083
1684211651644395800,12.197395751953126,2.666078573140502,-1.7691396702885627,2.799657607024908
1684211651654421800,12.207421875,2.339441311442852,-1.5843565188676119,2.354554709422588
1684211651664447700,12.21744775390625,2.26103997490108,-1.645500431138277,1.469376971513033
1684211651674474800,12.227474853515625,2.279501514264941,-1.619891942629218,0.6415972373440861
1684211651684500700,12.237500732421875,2.0359996318936346,-1.5328648165613412,-0.13070493975281713
1684211651694526700,12.247526611328125,1.4892366872370242,-1.3672849627822636,-0.6900880042687058
1684211651704552700,12.257552734375,0.9979092140763998,-0.9920739320516586,-1.0222466597363353
1684211651714579700,12.267579833984374,0.35870471708774565,-0.45321313882172104,-1.2420762823581695
1684211651724605700,12.277605712890624,-0.21875965530276298,0.10061375287175178,-1.3843664459645748
1684211651734631700,12.287631591796876,-0.6517559355258942,0.6984189025014639,-1.470672564281523
1684211651744657700,12.29765771484375,-0.8932938243478536,1.124091123446822,-1.6244830698117614
1684211651754684700,12.3076845703125,-1.1083253990381956,1.4228022673428058,-1.7110913859456776
1684211651764710700,12.317710693359375,-1.2899568084299564,1.6241700583398342,-1.6268766869500277
1684211651774736600,12.327736572265625,-1.413844469383359,1.7008189982563255,-1.4594962134897709
1684211651784762600,12.3377626953125,-1.5616063423991202,1.6309879216611385,-1.2551713262528181
1684211651794788900,12.347788818359374,-1.6479256124585866,1.5681798755705356,-0.959317909875512
1684211651804816000,12.35781591796875,-1.5613129124104976,1.4711229383975266,-0.6292842837378382
1684211651814841900,12.367841796875,-1.1389210283100604,1.343358143749833,-0.3424737132549286
1684211651824867800,12.377867919921876,-0.5189087595799937,1.0734557457089424,-0.19268501058667897
1684211651834893800,12.387893798828125,-0.0027448782613500953,0.5857622451364993,-0.3058455258205533
1684211651844920600,12.397920654296875,0.33951610555835066,0.048202597633004184,-0.6526826949819922
1684211651854946800,12.40794677734375,0.6883598653018475,-0.3728934014379978,-0.8631444775387644
1684211651864972800,12.417972900390625,1.0364834940772503,-0.7237041504055262,-0.7910992320254444
1684211651874998800,12.427998779296875,1.0858370883762836,-1.148183362174034,-0.33748832605779167
1684211651885025800,12.43802587890625,1.0942979696642607,-1.4596633867502211,0.607971446596086
1684211651895051800,12.4480517578125,1.7360440408945084,-1.6580325804531573,1.892085958738625
1684211651905077800,12.458077880859374,1.9323323366701601,-1.989405638501048,2.8052947361290452
1684211651915103700,12.468103759765626,1.8926076445251703,-2.2562328668802976,3.948952437572181
1684211651925130800,12.478130859375,1.8677526047319173,-2.416290157845616,4.68337555039078
1684211651935156700,12.48815673828125,1.3685019373565912,-2.2951035725444555,4.638415295679867
1684211651945182700,12.4981826171875,0.9317636210609227,-1.814124474918842,4.001028661768138
1684211651955208700,12.508208740234375,0.7890134387273341,-1.5296259807705879,2.91813785597682
1684211651965235700,12.518235595703125,0.887155833049491,-1.3232453300476072,1.6366016698896884
1684211651975261700,12.52826171875,1.1085469328343867,-1.1237427484005689,0.6277542976915836
1684211651985287700,12.53828759765625,1.125096501097083,-1.0044225414931773,-0.12034984221607446
1684211651995313700,12.548313720703124,0.9270709332000464,-0.8941133240371942,-0.7063491109788418
1684211652005341000,12.5583408203125,0.5962450972387566,-0.7428460732489823,-1.2034700728490948
1684211652015367000,12.568366943359376,0.13335932671912012,-0.43570612370371814,-1.6316604140952229
1684211652025393000,12.578392822265625,-0.11606551596038042,-0.02219604971706867,-1.9120476735323666
