time,seconds_elapsed,z,y,x
1684200782026566100,0.030566162109375,0.046175484852725636,-0.3384305753439665,-0.07908990332782267
1684200782036591000,0.040591064453125,-0.06812836433053017,-0.09461422019600868,0.002264437800645828
1684200782046615000,0.050614990234375,-0.17793197035193442,0.08901450049281119,0.12004442952871322
1684200782056640300,0.06064013671875,-0.23088497738242147,0.3286269742101431,0.4224333851546049
1684200782066664200,0.070664306640625,-0.2540308751702309,-0.025063714107871053,-0.1228074645012617
1684200782076689000,0.08068896484375,-0.23953590134978292,-0.09626374096870421,0.0030243162572383877
1684200782086713000,0.090713134765625,-0.20893618042469023,0.06378887382149696,-0.0018207856863737106
1684200782096738000,0.100738037109375,-0.17781857310533522,0.05149345587193965,-0.08735270476043223
1684200782106763000,0.110762939453125,-0.14225917481309733,-0.0368780705422163,-0.14490882167220115
1684200782116787200,0.120787109375,-0.1206377192467451,-0.16284136872589589,-0.20105857891738413
1684200782126812200,0.130812255859375,-0.11397007805109023,-0.2544903093755245,-0.1897708767056465
1684200782136836000,0.140836181640625,-0.1237578970938921,-0.21863807474970817,-0.14678630598187445
1684200782146861000,0.150861083984375,-0.0834247176617384,-0.2450444356381893,-0.11706453693509102
1684200782156885200,0.16088525390625,-0.06275310103297234,-0.276005975612998,-0.0007569558471441269
1684200782166910200,0.17091015625,-0.0978898808658123,-0.3004442512989044,0.07246376318633556
1684200782176934000,0.180933837890625,-0.12089315531253814,-0.2991623947948217,0.08998772943913937
1684200782186959000,0.190958984375,-0.09861819514036178,-0.3797089266717434,0.04131868333816528
1684200782196984000,0.200984130859375,-0.05311199698448181,-1.2558733370423316,-0.8197434349685907
1684200782207008000,0.211008056640625,0.03421323524713516,-2.1867717926412817,-1.026404071676731
1684200782217033200,0.221033203125,0.00012040237612091004,-2.112676628860831,-1.1795014605015515
1684200782227057200,0.23105712890625,-0.0023497871296945957,-2.0858178480297327,-1.0523124199151992
1684200782237082000,0.24108203125,0.14886369677782058,-2.745327466422319,-0.457398315551877
1684200782247106000,0.25110595703125,0.1851613370835781,-2.2058687072992322,-0.6728817256629467
1684200782257131000,0.261131103515625,0.10473229410648345,-0.873484962028265,-0.6814046393364668
1684200782267156200,0.27115625,-0.29645783027755096,-0.15364391679167747,-0.7606658075779676
1684200782277180200,0.28118017578125,-0.375716642165184,-0.1535989086061716,-0.6499760663717985
1684200782287205000,0.291205078125,-0.19036241285800934,0.13072890515029428,0.10324293233156204
1684200782297229000,0.30122900390625,-0.029815292549133298,0.23055179990530011,0.44641047306954856
1684200782307254000,0.31125390625,-0.13541622271630913,-0.9487830718576907,-0.4612187506228685
1684200782317278200,0.3212783203125,-0.2667722467890009,-1.7512006934940814,-0.9215671481519937
1684200782327303200,0.33130322265625,-0.25006891273669896,-2.0064736776798964,-1.439292214372754
1684200782337327000,0.3413271484375,-0.09061959760189056,-2.7630583534240722,-1.9449089096486567
1684200782347352000,0.35135205078125,0.1410113027770072,-3.3028409376740453,-2.0198557218223807
1684200782357377000,0.361376953125,0.22888474347591398,-3.0926936278939245,-1.82992527064085
1684200782367401200,0.371401123046875,0.16288060475774108,-2.106732625764608,-1.5861568462878464
1684200782377426200,0.38142626953125,0.2409492022138089,-1.3635650654762983,-1.6998200503468512
1684200782387450000,0.3914501953125,0.5488157124679536,-0.7760966009438037,-1.1545792006909847
1684200782397475000,0.40147509765625,0.17286285039409993,-0.49955169614851475,-0.9195759743347763
1684200782407499000,0.4114990234375,-0.23621596314683554,-0.40046705254018305,-0.7808323972940444
1684200782417524200,0.421524169921875,-0.16161460340991615,-0.36309739908874034,-0.6971554584369063
1684200782427549200,0.431549072265625,0.17994615971855818,-0.3787280989408493,-0.7575733945205807
1684200782437573000,0.441572998046875,0.25197335811853405,-0.4838718964576721,-0.5806076388522983
1684200782447598300,0.451598388671875,0.26999869802221654,-0.13347849611937998,-0.40138650547266
1684200782457622000,0.4616220703125,0.23709376889467237,-0.41531098592877386,-0.39067163471281524
1684200782467647000,0.47164697265625,0.6545137098014354,-0.15883096404075622,-0.021984452793002127
1684200782477671200,0.481671142578125,0.45722471255064007,3.376889924225211,2.232469713976979
1684200782487696100,0.491696044921875,0.15925174673609435,13.799728287285566,9.355248294514418
1684200782497721000,0.50172119140625,0.39126492443084715,11.350642359775303,9.897669410574435
1684200782507745000,0.5117451171875,1.0162824175696819,3.174299897956848,7.2061617971450085
1684200782517770000,0.52177001953125,0.9150820239163935,3.2422914841651913,3.5776042197495697
1684200782527794200,0.531794189453125,0.585839402025938,0.13193828094005583,-1.3839338997662067
1684200782537819100,0.541819091796875,0.6369793682850897,-0.851104787915945,-3.303609583958983
1684200782547843300,0.55184326171875,0.4396536922857165,-0.3893248962789774,-3.2870869037032127
1684200782557868000,0.561867919921875,-0.08841960333958268,0.12294950332045554,-2.263039624285698
1684200782567892000,0.57189208984375,-0.32805575019344685,0.5132406142830849,-1.2257578925028443
1684200782577917200,0.581917236328125,-0.3454828319430351,0.8109154008686542,-1.121549037748575
1684200782587942100,0.591942138671875,-0.3544213406801224,1.0651187099963426,-1.7484499334812162
1684200782597966000,0.601966064453125,-0.11090601430535316,1.229158348596096,-2.0348922551736233
1684200782607991300,0.6119912109375,0.018238105871528385,1.7133347809582948,-1.8815284704975783
1684200782618015000,0.622014892578125,0.05329202972650528,1.564279361000657,-1.657609678865969
1684200782628040200,0.632040283203125,0.14652224821820856,1.1585656399786473,-1.4061924933254717
1684200782638064000,0.642064208984375,0.09537190669551492,0.5851648637652397,-1.027373793491721
1684200782648089000,0.652089111328125,0.012120645904541014,0.09613982232809067,-0.41276919249147176
1684200782658114300,0.6621142578125,-0.09531688857264817,-0.6330652635812759,0.20908187250569463
1684200782668138000,0.672137939453125,0.10340776750445366,-1.3839198712408542,0.8500131932869553
1684200782678163000,0.682162841796875,0.17966442016772924,-1.8246090440541505,1.735317918577045
1684200782688187100,0.692187255859375,-0.07334346863031387,-1.6086948413103819,2.5219831136777997
1684200782698212000,0.702212158203125,-0.23571210527792572,-1.1161375340938569,1.8909169149592517
1684200782708236000,0.712236083984375,-0.07012041493058205,-0.8710217867851257,0.920803762564063
1684200782718261000,0.722260986328125,0.05016483761668205,-0.3703542383491993,0.18276596637964249
1684200782728285200,0.73228515625,0.0052127662122249604,-0.03677987086474895,-0.053580783540010446
1684200782738310100,0.74231005859375,-0.1481765182312578,0.19282266549170016,-0.09089417675957083
1684200782748335000,0.752335205078125,-0.28294147396460173,0.30700141785740853,-0.22513854268491268
1684200782758359300,0.762359375,-0.29866262857913967,0.26335049217939377,-0.24014760350733994
1684200782768384000,0.772384033203125,-0.41113165441751476,0.29772330190241336,-0.17445523415207861
1684200782778408000,0.782407958984375,-0.5385619564138353,0.1245025779813528,-0.19471271702200174
1684200782788433200,0.79243310546875,-0.48981180790066714,0.0160644150942564,-0.43810558606088157
1684200782798457000,0.80245703125,-0.5861866080284118,0.0024456395864486695,-0.6134755969703197
1684200782808482000,0.81248193359375,-0.8551122699916363,0.009897709158062934,-0.8501236679241061
1684200782818507300,0.82250732421875,-1.0652442360721528,-0.041425650843977924,-0.8050389100506902
1684200782828531000,0.832531005859375,-0.9662873835619539,-0.030723055043816564,-0.5616282130941749
1684200782838556200,0.84255615234375,-0.8411829672299325,0.2405915478825569,-0.287054316110909
1684200782848580000,0.852580078125,-0.5497944213069975,-0.11794190429151058,-0.001276741937547922
1684200782858605000,0.86260498046875,-0.3450061543419957,-0.3288824102759361,0.28682167639881373
1684200782868629000,0.87262890625,-0.1807880904354155,-0.38162674299180505,0.6314313787691295
1684200782878654000,0.882654052734375,-0.05030877613201737,-0.42046997612714765,0.8913229626663028
1684200782888678100,0.89267822265625,-0.17507380444183945,-0.3138081752628088,1.0489299378700554
1684200782898703000,0.902703125,-0.37279184075966476,-0.2004331404954195,1.0840269702143968
1684200782908728000,0.91272802734375,-0.4908896662652492,-0.10692074406147002,1.025160209095478
1684200782918752300,0.922752197265625,-0.6327683264613151,-0.020093524479866027,0.9437576449111104
1684200782928777000,0.93277685546875,-0.8077155819140375,0.07402852828502654,0.8294808389984071
1684200782938801200,0.94280126953125,-1.0001520245671272,0.15940438001453874,0.662590048751235
1684200782948826000,0.952826171875,-1.0685746956691144,0.1892097356915474,0.46649011515453453
1684200782958850000,0.96285009765625,-1.0852291856110095,0.15487141276001928,0.2619029237195849
1684200782968875300,0.972875244140625,-1.0542273136258125,0.1026958198428154,0.08965367517918348
1684200782978900200,0.982900146484375,-0.9865488850198686,0.05967033258676529,0.013626228161901234
1684200782988924000,0.992923828125,-0.7849966773666441,0.00022387188374996183,-0.013852438133209943
1684200782998949000,1.00294921875,-0.5367173514604568,-0.08313654837012291,-0.012851006005704402
1684200783008973000,1.01297314453125,-0.31912469411045313,-0.21258184345066547,-0.004862637600302696
1684200783018998300,1.022998291015625,-0.24153248199447988,-0.2451847208917141,0.03862973651513457
1684200783029022000,1.03302197265625,-0.35009923969730733,-0.29708325043320655,-0.07819543870612979
1684200783039047000,1.043046875,-0.6504362312294543,-0.37566578876078127,-0.05377440641596913
1684200783049072000,1.053072021484375,-0.7961703978098928,-0.4552098655968904,0.19460063494965432
1684200783059096000,1.063095947265625,-0.8648023277483881,-0.23987141691446304,0.3325919323183596
1684200783069121000,1.07312109375,-0.7792937895499169,-0.27993045558035373,0.27809111132398245
1684200783079145200,1.083145263671875,-0.37079964402914045,-0.5707745193630457,0.33123394183814525
1684200783089170000,1.093169921875,0.019022680377960205,-0.5940203703939915,0.7206663901448249
1684200783099194000,1.103194091796875,0.15846841433867812,-0.49109717153608795,1.1834354389496147
1684200783109219000,1.113218994140625,0.056283612757921216,-0.368057067322731,1.365555362510681
1684200783119243300,1.1232431640625,-0.12217208920717239,-0.24380466471016404,1.409948046466708
1684200783129268200,1.133268310546875,-0.36474297433868047,-0.1944283471226692,1.4300700663886963
1684200783139293200,1.143293212890625,-0.6569933977879584,-0.21731004101634024,1.3576784916557372
1684200783149317000,1.153317138671875,-0.8313808274008333,-0.20055764365792272,1.2006615912996232
1684200783159342000,1.163342041015625,-1.0469045695222914,-0.14938742839097977,1.0074806138895451
1684200783169366000,1.173365966796875,-1.3193439386948942,-0.1432382581114769,0.8318048980318009
1684200783179391200,1.18339111328125,-1.479960324847698,-0.13556348569989204,0.7431754513338208
1684200783189415000,1.193414794921875,-1.448218155889213,-0.08353636134266852,0.7180388181202113
1684200783199440100,1.203440185546875,-1.3641209457933903,-0.07586801867187022,0.737835551610589
1684200783209465000,1.213465087890625,-1.3554755747839808,-0.06817512608170509,0.8071915580399334
1684200783219489000,1.223489013671875,-1.5174784468591211,0.031927754658460615,0.9344000339791179
1684200783229514200,1.23351416015625,-1.7568123958960173,0.22804069386720657,1.0468090001933277
1684200783239538200,1.2435380859375,-1.878442487180978,0.4163683860272169,1.205563830257952
1684200783249563000,1.25356298828125,-2.000853207449615,0.5468623133778572,1.298360333507508
1684200783259587000,1.263587158203125,-2.1718149003975094,0.7047960363179445,1.361696641255915
1684200783269612000,1.273612060546875,-2.25653111917451,0.8246411438822746,1.3450316299200058
1684200783279636200,1.28363623046875,-2.3293989331170915,0.8337988483279943,1.2551410772450267
1684200783289661200,1.2936611328125,-2.273315519106388,0.7570902871787548,1.3192583062380552
1684200783299686100,1.30368603515625,-2.0760968106128272,0.6846230168610811,1.5391973805837331
1684200783309710000,1.3137099609375,-1.747568474471569,0.832292535418272,1.9363436181381344
1684200783319735000,1.323735107421875,-1.1256129261866212,1.0380056621432303,2.405944266528636
1684200783329759200,1.33375927734375,-0.5442484776176512,1.3439648774713278,2.886576596543193
1684200783339784200,1.3437841796875,-0.26141908572539685,1.8019512220442293,3.1277970899790524
1684200783349807900,1.353807861328125,0.07252060794010758,2.470930095049739,3.1739927317038177
1684200783359833000,1.3638330078125,0.32969021952748295,2.8946465057522057,3.052153527712822
1684200783369857000,1.37385693359375,0.2662826001085341,2.8849358435988424,2.5913950880780816
1684200783379882000,1.383882080078125,0.038557548061758276,2.6476848383158442,2.1880255920946596
1684200783389907200,1.3939072265625,-0.36774843976497645,2.6174101115614175,1.3480270123437046
1684200783399931100,1.40393115234375,-0.4753212910596281,2.636836696565151,-0.48422056376487016
1684200783409956000,1.4139560546875,0.04744564178586006,2.0578560743927956,-1.8012161857679485
1684200783419980000,1.42397998046875,0.28032617689967154,1.269440674623847,-2.382781271475553
1684200783430005000,1.4340048828125,0.18470186634566635,0.4088531880915165,-2.251103687298298
1684200783440029200,1.444029296875,0.6286264043509959,0.3151835552692413,-1.5468445343360304
1684200783450054100,1.45405419921875,1.311755967783928,0.22239421241283416,-1.0031263642027974
1684200783460078000,1.464078125,1.7537889564216136,-0.3370943583041429,-0.5592720053568482
1684200783470103000,1.47410302734375,1.5270570070654153,-0.5661731630474328,-0.23150194023698567
1684200783480128000,1.4841279296875,1.2587258038640021,-0.38355391166210173,-0.1053098017334938
1684200783490152200,1.494152099609375,1.419286368176341,-0.1767120731681585,-0.21926059056222438
1684200783500177200,1.50417724609375,1.5965373705267905,-0.03814706756472588,-0.28834231009483335
1684200783510201000,1.514201171875,1.4129858067274093,0.11002572433948517,-0.7705220156818627
1684200783520226000,1.52422607421875,1.638344129642844,0.4042845650017261,-1.0836538991183042
1684200783530250000,1.53425,2.216759519147873,0.8725795376211404,-1.4157038335144518
1684200783540275200,1.544275146484375,2.530239193108678,1.2071692196279764,-1.4657894684150814
1684200783550300200,1.554300048828125,2.4724621269226073,1.0812667117208241,-1.2240212779685855
1684200783560324000,1.564323974609375,2.1967478277325627,0.8667255508959293,-0.626192455202341
1684200783570349000,1.57434912109375,1.9323931269466876,0.6255524037331343,0.0833437613800168
1684200783580373000,1.584373046875,1.8818705619335174,0.3538490937501192,0.3502811721354723
1684200783590398000,1.59439794921875,1.6099145923636853,-0.0819125595331192,0.2995920183837414
1684200783600422100,1.604422119140625,1.487384921890497,-0.3464028693974018,-0.16565964101701974
1684200783610447000,1.614447021484375,1.6068426375724374,-0.3384942882299423,-0.5690273834347724
1684200783620471000,1.624470947265625,1.6844763507425784,-0.47610184697806834,-0.640754356779158
1684200783630496000,1.63449609375,1.844782063511014,-0.49822950763404367,-0.5475193159818649
1684200783640521000,1.64452099609375,1.8657342506468295,-0.542964721417427,-0.7404986333400011
1684200783650545200,1.654545166015625,1.887256492755562,-0.34288404762148855,-1.0328852503895758
1684200783660570000,1.664570068359375,1.8463655333101747,-0.13303133687376975,-1.464952725329995
1684200783670594000,1.674593994140625,1.7783108187377452,-0.09283435104191302,-1.8495482549995184
1684200783680619000,1.684618896484375,1.8354142234459518,-0.1306453185200691,-2.1688170337557793
1684200783690643200,1.694643310546875,1.8918344681955872,-0.19676526563763616,-2.385284194207191
1684200783700667600,1.704667724609375,1.9959213040053843,-0.3676905720978975,-2.6098662720531225
1684200783710692600,1.714692626953125,1.9576262062720953,-0.6141816994130611,-2.7343630048155783
1684200783720716800,1.724716796875,1.802448065650463,-0.9638146367728709,-2.9153949870094653
1684200783730741800,1.73474169921875,1.5003582391016184,-1.3589005807965993,-3.085869042570889
1684200783740765700,1.744765625,1.0819523558974264,-1.5296674818247555,-3.0440865411132574
1684200783750790700,1.754790771484375,0.6150105514526367,-1.4191039973467587,-3.0008053255304694
1684200783760814600,1.764814697265625,0.3058746057845652,-1.2019745735943317,-2.943435086579621
1684200783770839800,1.77483984375,0.018500848460942507,-0.857197844094038,-2.6957909898370502
1684200783780863700,1.78486376953125,-0.35804259991720316,-0.31295185069441794,-2.3750638289660215
1684200783790888700,1.794888671875,-0.7267693831950426,0.2269452998459339,-1.8918781612068414
1684200783800914000,1.804913818359375,-0.9881628960877656,0.6609574791133404,-1.2595286446794867
1684200783810937600,1.8149375,-1.345408062016964,1.0730676231741905,-0.5364151536434889
1684200783820962600,1.824962646484375,-1.7359756518334148,1.4370903204143046,0.3278989521965384
1684200783830986800,1.83498681640625,-1.9350734520718453,1.5557324819296598,1.0394435859918594
1684200783841011700,1.84501171875,-2.0709078636676073,1.369388072541356,1.538273689867556
1684200783851035600,1.85503564453125,-2.103805340141058,0.7855255235463381,1.5909271294295786
1684200783861060600,1.865060546875,-1.775868101760745,-0.17641104439496993,1.4028691941216587
1684200783871084800,1.875084716796875,-1.169357083106041,-1.1481681646049022,1.2454571569681168
1684200783881109800,1.88510986328125,-0.35543782424628734,-1.7406366293817757,1.2137766550689935
1684200783891134700,1.895134765625,0.515346792782098,-2.058189251869917,1.3891788146823645
1684200783901159000,1.905158935546875,1.8878082814194261,-2.3307938946068285,1.5770608089014886
1684200783911183600,1.91518359375,3.6816251507163047,-2.436784664341807,1.6901137721076607
1684200783921207600,1.92520751953125,5.0370998487174505,-1.898898853623867,1.6494766412928699
1684200783931232800,1.935232666015625,5.361642768484353,-1.2187228792995213,1.2294614231958985
1684200783941256700,1.945256591796875,4.764536707034707,-0.783610045313835,0.7304696990177035
1684200783951281700,1.95528173828125,3.4011259553372857,-0.49507250490784643,0.6945873615145682
1684200783961305600,1.9653056640625,1.813677315673232,-0.4038379902780056,1.0181336714595555
1684200783971330600,1.97533056640625,0.05085281988084316,-0.2924304561913013,1.6826090955659747
1684200783981355800,1.985355712890625,-1.243712943649292,-0.23079963718652724,2.451022448530793
1684200783991379700,1.995379638671875,-1.5831160172872245,-0.3850894506663084,2.671081788255274
1684200784001404700,2.00540478515625,-1.3504296895712613,-0.6947212170273065,2.245050963130593
1684200784011428600,2.0154287109375,-0.969902870645374,-0.899216200134158,1.5360986839160322
1684200784021453600,2.02545361328125,-0.606999678954482,-0.984064813119173,0.7656199228540063
1684200784031477800,2.035477783203125,-0.28469076531734316,-1.0020429528802632,-0.01985679311454296
1684200784041502700,2.045502685546875,-0.1545189095279202,-1.0239169310361147,-0.6130398359015584
1684200784051527700,2.055527587890625,-0.03301149477455765,-1.0171113426744938,-1.1426599225774408
1684200784061551900,2.0655517578125,0.13230364365372807,-1.1048170986562966,-1.5525474221527575
1684200784071576600,2.07557666015625,0.3519096866527572,-1.2763853791952133,-1.7603429081097244
1684200784081600800,2.085600830078125,0.6667267101645469,-1.5393284596174954,-1.7301462150275706
1684200784091625700,2.095625732421875,1.241564241182804,-1.8750860163599252,-1.7142969039887188
1684200784101649700,2.105649658203125,1.7670476664453745,-1.8774965846329927,-2.030452519160509
1684200784111675000,2.1156748046875,1.7885972349524497,-1.1279501369625329,-2.403186930644512
1684200784121698600,2.125698486328125,1.312307756447792,0.10625789623856544,-2.735197117552161
1684200784131723500,2.1357236328125,0.679399144732952,1.5256956555843353,-2.493951489675045
1684200784141748700,2.145748779296875,-0.0010486322700977325,2.198427743643522,-0.8459387834548949
1684200784151772700,2.155772705078125,-1.2435983773589134,1.6296709938436746,0.5336787144169212
1684200784161798000,2.1657978515625,-3.4010523055791855,0.9977414562940597,0.9788070387214421
1684200784171821600,2.175821533203125,-5.942719486153125,2.0231571014553307,2.5217794077992437
1684200784181846500,2.185846435546875,-5.804877534127235,4.1379496995568275,5.174982717275619
1684200784191870700,2.19587060546875,-3.4367069718062875,4.537656873640418,7.855211980843544
1684200784201895700,2.205895751953125,-2.24580324280262,2.5969565215975043,7.719070987516641
1684200784211920000,2.215919921875,-2.131196620413661,-0.3314794410318136,5.820101991266012
1684200784221944800,2.22594482421875,-1.3182605273723602,-2.1339526411235332,3.737859663635492
1684200784231969500,2.235969482421875,-0.4630746076226234,-2.4380747041523456,2.141343628157675
1684200784241993700,2.24599365234375,0.3070107702076435,-2.004136759164929,1.1756564755111931
1684200784252018700,2.256018798828125,1.9089245730757711,-1.3195090661287308,0.3180670017510652
1684200784262043000,2.26604296875,3.389193525481224,-0.909943930375576,-0.1734565785035491
1684200784272067800,2.27606787109375,3.2004607596516608,-0.7941390381127595,-0.2506856563955545
1684200784282091500,2.286091552734375,2.0622166076898574,-0.664615417098999,-0.15723112762868405
1684200784292116700,2.29611669921875,1.0207610973536967,-0.1797451572537422,0.1384270584374666
1684200784302141700,2.3061416015625,0.12978957847356795,0.6867559372365474,0.9122647745385766
1684200784312165600,2.31616552734375,-0.4737970771670341,1.5668004039108752,1.549583019389212
1684200784322190800,2.32619091796875,-0.9875473945379256,2.07187290930748,1.636102488195896
1684200784332214500,2.336214599609375,-1.4120821358859539,2.021487122416496,1.0323635646030307
1684200784342239700,2.34623974609375,-1.8022493282079695,1.831905630803108,0.02526829676926136
1684200784352263700,2.356263671875,-2.0621943958580493,1.6136942570328712,-1.1040966754272579
1684200784362288600,2.36628857421875,-2.0436942780494687,1.2159236039698123,-2.2642864094763993
1684200784372312800,2.376312744140625,-1.792808130645752,0.6811065331727266,-3.249438725571334
1684200784382337800,2.386337890625,-1.5331436335027218,0.055120998719334596,-4.020939230896532
1684200784392362500,2.396362548828125,-1.4718845704197883,-0.5332751020520925,-4.612788979253173
1684200784402386700,2.40638671875,-1.523693083590269,-0.9987906730860471,-4.824346448092163
1684200784412411600,2.41641162109375,-1.4578560450673101,-1.1726678150892258,-4.516954569612444
1684200784422435800,2.426435791015625,-1.357485453301668,-0.9136404468059539,-3.7441625631719826
1684200784432460800,2.436460693359375,-1.0677601644158363,-0.449054265576601,-2.8673867429047823
1684200784442484700,2.446484619140625,-0.3811947813153267,-0.03438040850758552,-1.9582202266424893
1684200784452509700,2.456509765625,0.27960721497535707,0.23072189577519892,-1.0978262168556452
1684200784462533600,2.46653369140625,0.575852261018753,0.3983329631209373,-0.49850627874881026
1684200784472558800,2.476558837890625,0.6913947029531001,0.5896224276959896,0.000417056368291378
1684200784482583800,2.486583740234375,0.7187292846024036,0.9916004693210124,0.4362012137442827
1684200784492607500,2.496607421875,0.8341431317210197,1.1982032383620738,0.6931278103560209
1684200784502632700,2.5066328125,1.174752220147848,0.8717711438477039,0.6852499165877699
1684200784512656600,2.51665673828125,1.5685738433241843,0.2937199114799499,0.378005045363307
1684200784522681600,2.526681640625,2.0319979950368405,-0.2591793439745903,-0.1726169128090143
1684200784532705800,2.536705810546875,2.438357612746954,-0.3952268137991428,-0.5014595755964517
1684200784542730800,2.546730712890625,2.447455111438036,-0.47949032037258144,-0.34237785166502
1684200784552755700,2.556755615234375,2.0907249092936513,-0.5274357283741236,-0.45780499665662644
1684200784562779600,2.566779541015625,1.4033645764231681,-0.4321481389611959,-0.6286348799183964
1684200784572804600,2.5768046875,1.0935913557648658,-0.30922201651632786,-0.6168387897931039
1684200784582828800,2.586828857421875,0.8600093213181942,0.1239402679234743,-0.5405998919822276
1684200784592853800,2.596853759765625,0.5852829371869563,0.7128676990926265,-0.2955895047441125
1684200784602877700,2.606877685546875,0.13911270261406897,0.9364274481534958,-0.3712558633640408
1684200784612902700,2.616902587890625,0.5555693149140104,1.0416104086369276,-0.6603576135240495
1684200784622926600,2.626926513671875,0.7106617865461856,0.9168494719803333,-0.6224807412028313
1684200784632951800,2.636951904296875,0.4934697458863258,0.7361953831881284,-0.813679604884982
1684200784642976800,2.646976806640625,0.16955686765126882,0.489855062520504,-1.4329871228791773
1684200784653000700,2.657000732421875,-0.53111646271348,0.44834114887118337,-1.5122276867240667
1684200784663025700,2.667025634765625,-1.3908230747580528,0.6148696816772222,-1.4971227643117309
1684200784673049600,2.677049560546875,-1.8001313131406902,0.8947370088934898,-1.4459157241657374
1684200784683074800,2.68707470703125,-1.8345920934081077,0.9060019147515297,-1.3289262982934713
1684200784693098800,2.6970986328125,-1.5710124686479567,0.6569973433107137,-0.8967319821029901
1684200784703126800,2.707126708984375,-1.002648006101325,0.26157763728797434,-0.3496488655813038
1684200784713150500,2.717150390625,-0.4596691830933094,-0.1442658475935459,0.0690460636973381
1684200784723175400,2.727175537109375,-0.15929975059628484,-0.3538444175750017,0.3228118581905961
1684200784733200600,2.73720068359375,-0.0337679756976664,-0.39938101086914535,0.33711934661492704
1684200784743224600,2.747224609375,0.14544643568024038,-0.3521200780004263,0.18239435658827424
1684200784753249500,2.75724951171875,0.3937011386018246,-0.2267313648343086,0.05301175148040056
1684200784763273500,2.7672734375,0.6971849037270993,-0.12189794844090938,-0.1293536712743342
1684200784773298400,2.77729833984375,1.0582382297676056,-0.02129237887561321,-0.33470191020965573
1684200784783322600,2.787322509765625,1.496654270017147,0.09036766866743565,-0.38354908935651183
1684200784793347600,2.79734765625,1.972700587415695,0.23423604137599466,-0.2535831314027309
1684200784803371800,2.807371826171875,2.2714462181031703,0.2928904749184847,-0.15235431537255645
1684200784813396700,2.817396728515625,2.1915631185710427,0.1600689814031124,-0.17496552176177502
1684200784823421400,2.82742138671875,1.8650608814299106,-0.14251637357771396,-0.32758243359327316
1684200784833445600,2.837445556640625,1.5287234789729118,-0.42107203367352486,-0.4628536583483219
1684200784843470600,2.847470703125,1.297919165611267,-0.6801087543070315,-0.5416355186402797
1684200784853494500,2.85749462890625,1.1096423268556594,-0.9231412656009197,-0.46332244490385055
1684200784863519700,2.867519775390625,0.933102541514486,-1.0928905140191316,-0.3146149616010487
1684200784873543400,2.87754345703125,0.7487187646746635,-1.185892038321495,-0.1301248017773032
1684200784883568600,2.887568603515625,0.5991325257759541,-1.094122686162591,0.12190130944177507
1684200784893592600,2.897592529296875,0.47124870785847306,-0.8678986863285303,0.2526400053337216
1684200784903617500,2.907617431640625,0.32592253755703565,-0.5489654231369495,0.247070388507843
1684200784913642800,2.917642822265625,0.1809212152957916,-0.15934008260667323,0.19937369457036255
1684200784923666400,2.92766650390625,0.0792797268114984,0.12339724708795546,0.13674626574367285
1684200784933691400,2.93769140625,0.05075754281282425,0.09747837745547294,0.15707009184807538
1684200784943715600,2.947715576171875,0.03783142574429512,-0.28919220492243763,0.2455041621044278
1684200784953740500,2.957740478515625,-0.0638249680481851,-0.9657640172749757,0.36486674684882164
1684200784963764700,2.9677646484375,-0.10985745510049164,-1.3876970516920089,0.5150381652243435
1684200784973789700,2.977789794921875,-0.13572013756632803,-1.206418108999729,0.7027233216971158
1684200784983814400,2.987814453125,-0.39401919157505033,-0.46955578633546824,0.6459513409003615
1684200784993838600,2.997838623046875,-0.6148562376737594,0.4483107537329197,0.46821840025186534
1684200785003863600,3.007863525390625,-0.7843209700621664,1.1609785463392734,0.3372377122975886
1684200785013887700,3.0178876953125,-0.8272203467205166,1.5976549763798713,0.32709333490207787
1684200785023912700,3.02791259765625,-0.7602266855083406,1.5222282717347144,0.4108801638744771
1684200785033936400,3.037936279296875,-0.6516646039806306,0.938176337647438,0.6326021761141717
1684200785043961600,3.047961669921875,-0.6216694248199462,0.3827449333667755,0.6950722224220633
1684200785053985500,3.057985595703125,-0.6375650592185557,0.15848901873528956,0.5825960361905396
1684200785064010500,3.068010498046875,-0.6258896728634834,0.1536813261926174,0.35863808159232136
1684200785074035700,3.07803564453125,-0.6372212142169476,0.23012451440393925,0.10716624325513839
1684200785084059400,3.088059326171875,-0.8086381035864353,0.3368751625955105,-0.09871873290538788
1684200785094084600,3.098084716796875,-1.0698400394298135,0.41349955259263516,-0.1407945182211697
1684200785104108500,3.108108642578125,-1.185279605511576,0.4292103319436312,-0.0875340526767075
1684200785114133500,3.118133544921875,-1.2336920465029775,0.284594355738163,-0.026008155351132153
1684200785124157700,3.12815771484375,-1.3404115689039229,0.056519759601354594,0.13886661889851093
1684200785134182700,3.1381826171875,-1.472786926086992,-0.1367196699976921,0.37209976684227586
1684200785144206600,3.14820654296875,-1.577324282143265,-0.21571020460426807,0.45793885216936464
1684200785154231600,3.1582314453125,-1.5813960616268217,-0.08452771046757697,0.48245048535242674
1684200785164256500,3.168256591796875,-1.3758930705212056,-0.03525660682022572,0.3960642875365913
1684200785174280700,3.17828076171875,-1.163540944173187,-0.036599253600835796,0.23572058084532618
1684200785184305700,3.1883056640625,-1.0491652079306542,-0.04532733445763588,0.04545782896950841
1684200785194329600,3.19832958984375,-0.9854057063341141,-0.060195233243703836,-0.22050357636064288
1684200785204354600,3.2083544921875,-1.1183647086240351,0.12959259459674358,-0.49177770114615554
1684200785214378500,3.21837841796875,-1.3124598782695829,0.11594342395067214,-0.7246699266977608
1684200785224403700,3.22840380859375,-1.396783882858604,0.12905308089256287,-0.7378003341667354
1684200785234427600,3.238427734375,-1.5145372788406908,0.13029402086436748,-0.5344594895310699
1684200785244452400,3.248452392578125,-1.3797500382103025,0.30283202321827407,-0.24630656452849506
1684200785254477600,3.2584775390625,-1.0900374626755713,0.6393430286765098,0.0443655036881566
1684200785264501500,3.26850146484375,-0.5535564041890204,0.6419879902273417,0.11649623552784323
1684200785274526700,3.278526611328125,-0.25661913809776304,0.19594167429506779,0.12955460067391394
1684200785284550700,3.288550537109375,-0.44610944429636,-0.19632921230793,0.19016367541551588
1684200785294575600,3.29857568359375,-0.5050364111699164,-0.6917951004475354,0.38579482245668767
1684200785304599600,3.308599609375,-0.7237633332468569,-0.8521627725362777,0.8314164832361042
1684200785314624500,3.31862451171875,-1.1242800701476632,-0.8178893315345048,1.546967722324282
1684200785324649500,3.3286494140625,-1.7708454512931406,-0.20920038431882856,2.3572372265048323
1684200785334673700,3.338673583984375,-1.853511897933483,0.37018180439174175,3.050515405116975
1684200785344698600,3.34869873046875,-1.4254618419408798,0.973050082629919,3.8191619823157783
1684200785354722600,3.35872265625,-0.34859599552750586,1.954073043835163,4.7541550137519835
1684200785364747500,3.36874755859375,0.9899848508179188,2.6818571570307013,5.405536270746588
1684200785374771700,3.378771728515625,1.5782850899994372,3.169363026076555,5.4644765354931355
1684200785384796700,3.388796630859375,1.3012274133764206,3.245093682104349,4.556211936506629
1684200785394820600,3.398820556640625,0.4020866165660322,2.761041168382764,2.8498358886450528
1684200785404845600,3.408845458984375,-1.0201403351068496,2.268776122111082,1.102334049668908
1684200785414870500,3.41887060546875,-2.035460848841816,1.8793232155382633,-0.4074788309983909
1684200785424894500,3.42889453125,-2.2969066764436663,2.2997288942575453,-1.8360557362198828
1684200785434919700,3.438919677734375,-1.9643816718816756,2.6332068156301975,-2.859005283528566
1684200785444943600,3.448943603515625,-1.6346844380915164,1.8330401877909899,-3.574680441257357
1684200785454968600,3.458968505859375,-2.1263655469954013,0.6922644715249539,-4.4472246153041715
1684200785464992500,3.468992431640625,-2.3392262073874472,-0.3609901976764202,-5.147950917965173
1684200785475017500,3.479017578125,-2.0253893905520437,-1.0521481692641972,-5.110251594167948
1684200785485041700,3.489041748046875,-1.9006594335556029,-1.1811246777892113,-4.602585857407749
1684200785495066600,3.499066650390625,-0.29752281089425087,-0.9117968647658824,-3.2381834643244742
1684200785505091600,3.509091552734375,1.4127631038874386,-0.5387245996296406,-1.8919772376671433
1684200785515115500,3.519115478515625,2.529112819427252,-0.32327684535384177,-1.0026298128575086
1684200785525140500,3.529140380859375,3.4458214216321705,0.04630348601341247,0.29001638078689573
1684200785535164700,3.53916455078125,3.4030198062598704,0.5225321742415427,1.074875549378991
1684200785545189600,3.549189697265625,3.3524475568860765,0.6351888316065073,1.7439879856362939
1684200785555213600,3.559213623046875,3.865620951151848,0.806557205659151,2.728013343527913
1684200785565238500,3.569238525390625,4.450642607054114,0.7239099021106958,3.111219756926596
1684200785575263500,3.579263427734375,4.797065934717655,0.022955343651771543,3.78481518381685
1684200785585287700,3.58928759765625,4.652105675119161,-0.40541210772693154,4.201205197153985
1684200785595312600,3.599312744140625,4.395065096738934,-0.6428437302738428,3.9928652290567754
1684200785605336600,3.609336669921875,3.970284271675348,-0.3250187205851078,3.4882527423873544
1684200785615361800,3.61936181640625,3.0888404595971104,-0.0029880759000778198,2.8701424713537094
1684200785625385500,3.629385498046875,1.9945954622291027,-0.11463526396155356,1.8852289324507117
1684200785635410400,3.639410400390625,0.8907961623132228,-0.07772738280296325,1.1836150333002209
1684200785645434600,3.6494345703125,0.09570186930224299,0.2653466344326734,0.6414262646913528
1684200785655459600,3.65945947265625,-0.5374865822672844,0.4544838894098997,-0.380313906827569
1684200785665484500,3.669484619140625,-0.7679226468384266,0.2873427776634693,-1.1706637817904353
1684200785675508500,3.679508544921875,-0.4959750067055225,-0.009447042781114579,-1.7234008324205874
1684200785685533400,3.689533447265625,-0.2503705990970135,-0.25284663382172584,-2.3341242080733178
1684200785695557600,3.6995576171875,0.1932373837724328,-0.2938561050802469,-2.66175544924438
1684200785705580500,3.70958056640625,0.9981032753437757,-0.1208686053931713,-2.6362135962307454
1684200785715604500,3.7196044921875,1.8375851377442478,0.018765490746498106,-2.285719658127427
1684200785725629700,3.729629638671875,2.380972760748863,0.034597850650548934,-1.7336434094935655
1684200785735653600,3.739653564453125,2.692531111258268,0.14406243397593496,-1.1335305674433707
1684200785745678600,3.7496787109375,2.8470149860054255,0.3070703914403915,-0.5622007522851228
1684200785755703800,3.759703857421875,2.5931445620939133,0.4086111960291862,-0.11033172154873609
1684200785765727500,3.7697275390625,2.201880660576373,0.36485564093291756,0.2178781962931156
1684200785775752400,3.77975244140625,1.6892705992817878,0.34916648889184,0.22637772909104822
1684200785785776600,3.789776611328125,1.3172541268087923,0.3380331004589796,-0.28773937576562164
1684200785795801600,3.799801513671875,1.1670973214805125,0.2693950330406427,-1.0075327824681997
1684200785805825500,3.809825439453125,1.0234171648204327,0.21713702253699302,-1.6425439194202422
1684200785815850500,3.8198505859375,0.9289983210660516,0.21370704808831215,-2.173949720469117
1684200785825874700,3.829874755859375,0.9682160866022109,0.2146148105829954,-2.5678257041811943
1684200785835899600,3.839899658203125,0.9105158850446343,-0.11151683968007564,-2.805077293986082
1684200785845924600,3.849924560546875,0.831982008164376,-0.4482148921430111,-2.887230384276807
1684200785855948800,3.85994873046875,0.8690157076597214,-0.7340624628126621,-2.9698458313822744
1684200785865973500,3.869973388671875,0.8696884923547505,-1.042536291310191,-2.9756311367854473
1684200785875997400,3.87999755859375,0.8036804811790585,-1.19584176992774,-3.0013591600209475
1684200785886022700,3.890022705078125,0.6869098126240074,-1.290600951552391,-2.9786320721670982
1684200785896046600,3.900046630859375,0.5740438964225352,-1.3918261143207549,-2.8942791337445377
1684200785906071600,3.910071533203125,0.4829179567337036,-1.3935592217236756,-2.675003637874126
1684200785916095500,3.920095458984375,0.34608664305508136,-1.332867729395628,-2.3668726314648985
1684200785926120400,3.930120361328125,0.23955694413781164,-1.207315350100398,-2.1085420132741333
1684200785936145700,3.940145751953125,0.21249781842902302,-1.1200444784045218,-1.8910925637871026
1684200785946169600,3.950169677734375,0.24176380653232335,-1.0307394705325363,-1.6095874062359332
1684200785956194600,3.960194580078125,0.2252427337117493,-0.9927934784978627,-1.207339315497875
1684200785966218500,3.970218505859375,0.1600574370957911,-0.9921972661703824,-0.7952896694526076
1684200785976243500,3.980243408203125,0.09556187630966305,-1.0024620550751686,-0.30288842958062884
1684200785986267600,3.990267578125,0.10996259597539901,-1.04022567628026,0.18242080620378254
1684200785996292600,4.000292724609375,0.2223568030118942,-0.9397165528267621,0.6914291897445917
1684200786006317600,4.010317626953125,0.2931337821550667,-0.5932727668970823,1.1550447723761201
1684200786016341800,4.020341796875,0.2207588662959635,-0.2501438046038151,1.4332079260230064
1684200786026366500,4.030366455078125,-0.13223916358277202,0.021284780091047287,1.5257576149046421
1684200786036390700,4.040390625,-0.47156478807032104,0.23777999759316443,1.6204031070217488
1684200786046415600,4.05041552734375,-0.7598726113736629,0.5383031593471765,1.8227283448740839
1684200786056439600,4.060439453125,-0.8097592165708541,0.8120376828968524,2.1754314834594726
1684200786066464800,4.07046484375,-0.6264718566656112,0.8615291512966156,2.5630992601811884
1684200786076488400,4.080488525390625,-0.4278441581569612,0.561443211916089,2.8852836341232058
1684200786086513400,4.090513427734375,-0.28956629893183705,0.09173954154253006,3.067268971519172
1684200786096538600,4.10053857421875,-0.1574665438197553,-0.37151802143156526,2.9467420191705225
1684200786106562600,4.1105625,-0.042874534478038545,-0.8305939148068427,2.647266320642829
1684200786116587500,4.12058740234375,0.11293766626343131,-1.2269786664694546,2.2786577569171786
1684200786126611500,4.130611572265625,0.2989962444476783,-1.5038655165702104,1.8884069779649375
1684200786136636400,4.140636474609375,0.5559131233830005,-1.67037359111011,1.5199483441039918
1684200786146660600,4.15066064453125,0.8216514605470001,-1.6250369043022392,1.250436406685412
1684200786156685600,4.160685546875,1.0498650998283177,-1.4802221906542776,1.0249220164254307
1684200786166710500,4.17071044921875,1.1516636785704641,-1.2916349707752466,0.8467641283631324
1684200786176734700,4.180734619140625,1.1006266612291336,-1.1440449471950531,0.7464581262663006
1684200786186759400,4.190759521484375,0.9698340431928634,-1.0124772531330586,0.7581579164102673
1684200786196783600,4.20078369140625,0.8373404664576053,-0.7909984019994736,0.9279445742294192
1684200786206808600,4.21080859375,0.7404759831167758,-0.710182990053296,1.0396128050789237
1684200786216832500,4.22083251953125,0.7380629306256771,-0.7111036120295524,1.017190837651491
1684200786226857700,4.230857666015625,0.8434650868177413,-0.8369283785253763,0.7787272417083382
1684200786236881400,4.24088134765625,0.951557797268033,-1.1332213553637265,0.34680297463089227
1684200786246906600,4.25090673828125,1.4690402869045733,-1.2517904516428708,-0.3339747649788856
1684200786256931600,4.260931640625,2.0329706394612788,-0.8695756796300411,-1.5923068933501838
1684200786266955500,4.27095556640625,1.9152946926295755,0.03382686627805233,-2.8857115041464567
1684200786276980700,4.280980712890625,1.2677905693292617,0.7875532299816608,-3.5535309779837725
1684200786287004400,4.29100439453125,0.4717500815093517,0.6347077700912952,-3.0009020639032125
1684200786297029400,4.301029296875,-0.12261870046351105,-0.515552982878685,-2.100785407797992
1684200786307053600,4.311053466796875,-1.4961831453740595,-2.0244144080400464,-2.5627485470473763
1684200786317078500,4.32107861328125,-3.481184411436319,-2.5298493170082565,-3.222942932833731
1684200786327102700,4.331102783203125,-4.741798221004009,-1.1328449232667683,-2.94018193000257
1684200786337127700,4.341127685546875,-4.952482121878862,1.368947927558422,-0.9663701664745807
1684200786347152400,4.35115234375,-4.181863660085201,3.912784268864989,1.9186124388754366
1684200786357176600,4.361176513671875,-3.258536516523361,5.938853458374738,4.064242658311128
1684200786367201500,4.371201416015625,-3.4220167676746844,7.915540485078096,5.060044670975208
1684200786377225700,4.381225830078125,-5.039733704352378,8.46811357731819,5.548568192631006
1684200786387250700,4.391250732421875,-5.513471744808554,9.418260923266411,6.416661524748802
1684200786397275600,4.401275634765625,-2.0545102710962295,8.877232722869515,7.029482457202673
1684200786407299600,4.411299560546875,4.040663045281171,3.578924070176482,4.967062435895205
1684200786417324500,4.421324462890625,8.424654959341883,-2.0506015732198954,1.6949843007534742
1684200786427348700,4.4313486328125,8.457870415723324,-4.773693826958537,-1.2549854482918976
1684200786437373700,4.441373779296875,5.823361285322904,-6.19560586746335,-4.011884402303397
1684200786447397400,4.4513974609375,1.1794283952653408,-6.10761544932127,-5.210579515835643
1684200786457422600,4.461422607421875,-2.6359236733734606,-5.3769286004215475,-5.121923327261209
1684200786467446500,4.471446533203125,-4.171107288271188,-4.103597932621836,-3.441431954501569
1684200786477471500,4.481471435546875,-4.4900668549478056,-2.515263157773018,-1.3277379652917385
1684200786487496700,4.49149658203125,-4.239502194583416,-0.27392040151059627,0.6695465898908675
1684200786497520600,4.501520751953125,-3.4515748705923555,1.4925158550381659,2.5177742638111114
1684200786507545300,4.51154541015625,-2.0381050797402858,2.17526781733036,3.5987241646677255
1684200786517569500,4.521569580078125,-1.0518366190969943,2.0407336746782065,3.4756665247976777
1684200786527594500,4.531594482421875,-0.535997220492363,1.707752596911788,2.200037516927719
1684200786537618700,4.54161865234375,0.37833179309964177,1.42810972610116,0.14006284294575452
1684200786547643600,4.5516435546875,1.3112252219080924,1.275949325865507,-2.033145411506295
1684200786557668600,4.561668701171875,1.9385364520072936,0.9260001621633768,-3.7772459176063538
1684200786567692500,4.571692626953125,2.35132464146018,0.47536593391895293,-4.576255776625872
1684200786577717500,4.581717529296875,2.393024433070421,0.050987259915471074,-4.500038213863968
1684200786587741700,4.59174169921875,1.8737001149594783,-0.07075579022467136,-3.799406311488151
1684200786597766700,4.6017666015625,0.3405845750400796,0.3434574635952711,-2.401663082078099
1684200786607790600,4.61179052734375,-1.079140805608034,0.7393471252173185,-1.3174465806409716
1684200786617815600,4.621815673828125,-1.7964976328134536,0.81480247143507,-0.5676026113286614
1684200786627840500,4.631840576171875,-2.128309666800499,0.6011871932834386,-0.13641484183222055
1684200786637864700,4.64186474609375,-2.139842283684015,0.3914508023917675,-0.3131029496029019
1684200786647889700,4.6518896484375,-1.7509060944616794,0.2396025368452072,-0.5991963117271661
1684200786657913600,4.66191357421875,-0.8815443498432636,-0.03612579087018966,-0.7649126513674854
1684200786667938600,4.6719384765625,0.2523532973468304,-0.20805939759016034,-0.8753805665165185
1684200786677962500,4.68196240234375,1.5299381154596805,-0.34062662408351896,-0.8894786499738693
1684200786687987500,4.691987548828125,1.869448302733898,-0.3705962304115295,-0.8792769894331693
1684200786698011600,4.70201171875,1.9027754027962684,-0.22463585385978221,-0.6858493437856436
1684200786708036400,4.712036376953125,1.8984581241190432,-0.05969371346235275,-0.5198340211987496
1684200786718061600,4.7220615234375,1.713833231999725,-0.058520578029751774,-0.5856929792925715
1684200786728085200,4.732085205078125,1.2283772812210023,0.00113806411921978,-0.5628916571587324
1684200786738110200,4.742110107421875,0.7935632109861821,0.06724456723332405,-0.40264556562304493
1684200786748134400,4.752134521484375,0.3191022630829364,0.1416208860427141,-0.2496229956001043
1684200786758159400,4.762159423828125,0.04889050683192908,0.25495383523404597,-0.06885638634413481
1684200786768183300,4.772183349609375,-0.15207038386464117,0.3135848879009485,0.12500117515325546
1684200786778208300,4.782208251953125,-0.17155140246935188,0.3953390420019626,0.08121054874360562
1684200786788232400,4.792232421875,-0.14348726443648338,0.41977322603464123,-0.03784633105248213
1684200786798257400,4.80225732421875,-0.2847673742175102,0.34988428177237507,-0.44081864441186186
1684200786808282400,4.812282470703125,-0.16834931849241255,0.3998340153336525,-0.8253326332777738
1684200786818306600,4.822306640625,0.10580781438350677,0.3591208966732025,-1.2380083022668957
1684200786828331300,4.832331298828125,0.013596052219346165,0.2766056950718164,-1.4529820092901586
1684200786838355200,4.842355224609375,0.03203640266470611,0.18763444919884203,-1.5007710576862097
1684200786848380400,4.85238037109375,0.3537526476383209,0.009417816686630248,-1.4345695697650314
1684200786858404400,4.862404296875,0.8084159852683543,-0.2600958742976188,-1.1321765224859117
1684200786868429300,4.87242919921875,1.3129986613214015,-0.5853676928609609,-0.6600647680573165
1684200786878454500,4.88245458984375,1.5282242972791193,-0.7359136436372995,-0.3781823016263544
1684200786888478200,4.892478271484375,1.4419804305434225,-0.6687585082530975,-0.22734525894895194
1684200786898503400,4.90250341796875,1.1875099218469112,-0.308151172414422,-0.19540026089474558
1684200786908527400,4.91252734375,0.7879167295318097,0.132588853803277,-0.2431136137060821
1684200786918552300,4.92255224609375,0.40726891457475717,0.41967970253229137,-0.32883594078570605
1684200786928576300,4.932576171875,0.018608838880062102,0.5882534774303436,-0.4299865770131349
1684200786938601200,4.942601318359375,-0.40096922990866,0.5667237826675177,-0.5184079339183867
1684200786948625400,4.95262548828125,-0.5642717864055187,0.3390168507993221,-0.6159015089429914
1684200786958650400,4.962650390625,-0.545036486190185,0.0060094695478677745,-0.6424455247364937
1684200786968675300,4.97267529296875,-0.4678000287093222,-0.3413619526207447,-0.414357630726695
1684200786978699500,4.982699462890625,-0.417206078960374,-0.49672611733376976,-0.08858297720775007
1684200786988724200,4.99272412109375,-0.3851849469300359,-0.4866290862113237,0.17858108191043137
1684200786998748400,5.00274853515625,-0.3631437955137342,-0.3681874157041311,0.3400526235878467
1684200787008773400,5.0127734375,-0.23103344594240188,-0.25779519613981244,0.44388738433271646
1684200787018797300,5.02279736328125,-0.11374452566690742,-0.16526070482730865,0.5051144448421895
1684200787028822500,5.032822509765625,0.03671498893499374,-0.136344991466403,0.5178656437352299
1684200787038847500,5.042847412109375,0.14048516001105307,-0.15108955613374708,0.5286150012865662
1684200787048871200,5.05287109375,0.09836217455267905,-0.15437340011000633,0.5509335083395243
1684200787058896400,5.062896484375,0.009351181191205978,-0.12623100920915603,0.5715677155673503
1684200787068920300,5.07292041015625,-0.196711489623785,-0.020335516542196272,0.6076207334622741
1684200787078945300,5.0829453125,-0.5082525236722082,0.1399088214278221,0.5909449084714055
1684200787088969200,5.09296923828125,-0.7328571786761283,0.29294308188855644,0.5300996868863701
1684200787098994200,5.102994140625,-0.8520843004725873,0.37212300158739087,0.4813165128864348
1684200787109019400,5.113019287109375,-0.9320647228993475,0.28131518793702126,0.5000732358045876
1684200787119043300,5.123043212890625,-0.9913364115573465,0.10341185915768146,0.6587615765042603
1684200787129068300,5.133068359375,-1.0436123961091042,-0.09771510882079601,0.7914511142030358
1684200787139092500,5.143092529296875,-1.0217455783464013,-0.2867535795986652,0.9333305050514638
1684200787149117200,5.1531171875,-0.9162824857473373,-0.3803846339762211,1.0003224126979708
1684200787159141400,5.163141357421875,-0.8197055871762334,-0.43464346290826794,0.9503772091813385
1684200787169166300,5.173166259765625,-0.7395639828383922,-0.3934662338674068,0.8319722174227238
1684200787179190300,5.183190185546875,-0.6790671362996101,-0.29677813000679015,0.6753487002983689
1684200787189215500,5.193215576171875,-0.5711946444712579,-0.22745734102129936,0.46772871703878044
1684200787199240400,5.203240478515625,-0.44966348351612684,-0.19963176098465918,0.3809634567774832
1684200787209264400,5.213264404296875,-0.5290190520428121,-0.21279987011551857,0.3229724555797875
1684200787219289300,5.223289306640625,-0.6515525219082832,-0.20365970132648945,0.24416297662854194
1684200787229313300,5.233313232421875,-0.7680290298223496,-0.16637714163661002,0.219337747451663
1684200787239338500,5.24333837890625,-0.9002373598754405,-0.13721768264770506,0.3290215264856815
1684200787249362200,5.253362060546875,-0.8719804026842117,-0.12104220839440821,0.5263128618240356
1684200787259387100,5.26338720703125,-0.7428899123907089,-0.10570026235580443,0.7979010209947824
1684200787269411300,5.273411376953125,-0.6400958928704261,-0.10765957973003387,1.0736015839204192
1684200787279436300,5.283436279296875,-0.6850220991812646,0.044935704791545864,1.295993604376167
1684200787289461200,5.293461181640625,-0.6858871915780007,0.3255202403664589,1.3792429654709994
1684200787299485400,5.3034853515625,-0.6694714788280427,0.48067105458974835,1.4604397779501974
1684200787309510100,5.31351025390625,-0.5395009908296168,0.4754875144720077,1.242646629592031
1684200787319534300,5.323534423828125,-0.6341117038942873,0.177371413859725,1.0646816337533294
1684200787329559300,5.333559326171875,-0.725371791356802,-0.3555822011530399,1.1342714489385486
1684200787339583500,5.34358349609375,-0.6898891206957399,-0.7700865468740463,1.3027714279480278
1684200787349608400,5.3536083984375,-0.6028174248337745,-0.8839104944527149,1.3875415688693522
1684200787359633400,5.36363330078125,-0.3888930807329714,-0.5901636949658393,1.382894327585399
1684200787369657300,5.3736572265625,-0.14749737686067818,-0.06606032588481903,1.4832969219245016
1684200787379682300,5.383682373046875,-0.08808467229679226,0.44001112742125986,1.8431728747487066
1684200787389706500,5.39370654296875,0.2818614236429334,0.8477543084442615,2.418017858421057
1684200787399731500,5.4037314453125,0.844140794122219,1.0696072535872458,2.8901328277200458
1684200787409755100,5.413755126953125,1.0206874475955963,1.2351415146589277,2.769375281485915
1684200787419780400,5.4237802734375,1.0548612276151776,1.375949330753088,2.1745969323314727
1684200787429804300,5.43380419921875,0.9620262920513749,1.4882874236881731,1.3295346394501626
1684200787439829200,5.443829345703125,0.3665817340731621,1.4933926378726958,0.37121553135365243
1684200787449854500,5.4538544921875,-0.589977817004919,1.3821066843390464,-0.40575989825129505
1684200787459878400,5.46387841796875,-1.2898973333276806,1.095922429060936,-0.8504970312811434
1684200787469903000,5.473903076171875,-1.7845104040302335,0.7228302901804446,-0.9070068540103733
1684200787479927300,5.48392724609375,-2.305430320769548,0.3885252703338861,-0.6178419754862785
1684200787489952300,5.4939521484375,-2.780013287617266,0.2060784529060125,-0.19006635252088308
1684200787499976400,5.5039765625,-2.9829940667688843,0.06686053635179996,0.3460277524746954
1684200787510001400,5.51400146484375,-2.903576246660948,-0.06551555148363113,0.8878264988526702
1684200787520025300,5.524025390625,-2.495147421461344,-0.17557459357082844,1.3834022771075367
1684200787530050300,5.53405029296875,-1.8033355160094797,-0.2724205183416605,1.683873562543839
1684200787540075300,5.5440751953125,-0.8784009372510015,-0.48924949784278865,1.8878465676032006
1684200787550099500,5.554099365234375,-0.015498305644094943,-0.49311903275251384,2.219377300430834
1684200787560124400,5.56412451171875,0.4205310586646199,-0.5588233848065137,2.64834534805119
1684200787570148400,5.5741484375,0.6881190422832966,-0.619174685394764,2.6332065233692523
1684200787580173300,5.58417333984375,0.5224375547606498,-0.4215560177981853,1.9384280231967568
1684200787590197200,5.594197265625,0.010786693887040018,-0.3916863647133112,1.1620924989305437
1684200787600222500,5.604222412109375,-0.023633389043807983,-0.3537912260830402,0.7484636208698153
1684200787610247400,5.614247314453125,0.4071907713046297,-0.3284820127815008,0.3655582362443208
1684200787620271400,5.624271240234375,0.805529616177082,-0.16639409277141093,0.2532170745693147
1684200787630296300,5.63429638671875,0.7487573431193828,0.35602117709219455,-0.24782354496270417
1684200787640320300,5.6443203125,0.33865795435905455,0.8660264627158641,-0.6530928832180798
1684200787650345200,5.65434521484375,0.1775748274773359,1.0961001237154007,-1.193700666245818
1684200787660369400,5.664369384765625,0.36654315562844275,1.3124988951057195,-1.9260536947920917
1684200787670394400,5.674394287109375,1.339247785821557,1.6620751338422297,-2.5954741740852594
1684200787680419300,5.68441943359375,2.4595763418644667,1.722204316112399,-3.3141479291081426
1684200787690443300,5.694443359375,3.102597766792774,1.4183534712404011,-3.119466776268184
1684200787700468200,5.70446826171875,2.8918963302612304,1.019350646033883,-1.9989618407450616
1684200787710492400,5.714492431640625,2.4750462981969115,0.37699499153792854,-0.16726181551665067
1684200787720517400,5.724517333984375,2.002584999678284,-0.19393851777911186,2.1737235104978083
1684200787730541300,5.734541259765625,1.4998551118850707,-0.7494552622556686,3.5354514236748216
1684200787740566300,5.744566162109375,1.462664322131872,-1.2640981445521116,4.448872674772143
1684200787750590200,5.754590087890625,1.8096821085572241,-1.5642220778554676,4.770759819333255
1684200787760615400,5.764615478515625,2.0375328328102826,-1.7529525055974722,4.529887116421759
1684200787770640400,5.774640380859375,1.9780457478359341,-1.6178379327088594,3.8423271693259475
1684200787780664300,5.784664306640625,1.833631870073825,-1.1187538540720938,3.04992737609595
1684200787790689300,5.794689208984375,2.0584400117605925,-0.6963035177826881,2.0988985711380836
1684200787800713200,5.804713134765625,2.3478397219538687,-0.41657413773238655,1.4672738617539405
1684200787810738400,5.814738525390625,2.5638655683785676,-0.29207565140426156,1.0664335919871926
1684200787820762400,5.824762451171875,2.794591848067939,-0.30501112082302567,0.5894023552045226
1684200787830787300,5.834787353515625,2.9741502505779263,-0.4288759854227304,0.21196955677121876
1684200787840811300,5.844811279296875,2.8948768073767424,-0.5184048651784658,-0.26405337975174187
1684200787850836200,5.854836181640625,2.744973246157169,-0.44604865401983257,-0.6775830352216958
1684200787860861200,5.864861083984375,2.346149284648895,-0.3385685225099325,-0.8834802863419056
1684200787870885400,5.874885498046875,1.9371002817243337,-0.3728267659425735,-0.940406873178482
1684200787880910300,5.884910400390625,1.7371102088212966,-0.26252631631493567,-0.9658023034587502
1684200787890934300,5.894934326171875,1.5010048664420843,-0.18574585897326468,-1.030424997755885
1684200787900959200,5.904959228515625,1.3973779032289981,-0.20159809262156486,-1.0362237471625209
1684200787910983400,5.9149833984375,1.3531950626313685,-0.3297726371139288,-0.9851862183645367
1684200787921008400,5.92500830078125,1.397352914918214,-0.4545253904640674,-0.857298381859064
1684200787931033300,5.935033447265625,1.4237111988812685,-0.565482842695713,-0.7746981323227285
1684200787941057500,5.9450576171875,1.2633540481865406,-0.40231355718970296,-0.6577680354222655
1684200787951082200,5.955082275390625,1.2008042146407067,-0.1319493868559599,-0.5535211867451667
1684200787961106200,5.965106201171875,1.1212427482783793,0.2181014836549759,-0.4803101123228669
1684200787971131400,5.97513134765625,0.9591221681077032,0.49741585316359993,-0.4035501132473349
1684200787981155300,5.9851552734375,0.8691280819930136,0.7311492057144642,-0.3379009985119104
1684200787991180500,5.9951806640625,0.809409818611294,0.8255717027306556,-0.3129892600953579
1684200788001204200,6.005204345703125,0.9018705140352249,0.6485387270450592,-0.34665655189752576
1684200788011229200,6.015229248046875,1.1093256621219216,0.43634734421670435,-0.34491818379759787
1684200788021254400,6.02525439453125,1.4466085287354886,0.19855916331708431,-0.16685031210631132
1684200788031278300,6.0352783203125,1.7892751342140136,-0.1436690507441759,-0.11292904456555843
1684200788041303300,6.04530322265625,2.0139504433013498,-0.4173059591382742,-0.29361002136468883
1684200788051327200,6.0553271484375,1.9551912342101334,-0.4428934048593044,-0.44694443381577725
1684200788061352200,6.065352294921875,1.5882511882185935,-0.346359614777565,-0.4505085560381412
1684200788071376400,6.07537646484375,1.0445919086657465,-0.2675409296065569,-0.5241311338707805
1684200788081401300,6.0854013671875,0.6102192255228758,-0.05022562789320945,-0.5919318736821413
1684200788091426300,6.09542626953125,0.4058120668299496,0.22216040365695952,-0.7441399124518037
1684200788101450500,6.105450439453125,0.4042087232865393,0.2784749960750341,-0.9510828732326626
1684200788111475200,6.11547509765625,0.5453787968218327,-0.029613047975301742,-1.1815320895463228
1684200788121499400,6.12549951171875,0.6841653362214565,-0.4992787244260311,-1.438273684979975
1684200788131524400,6.1355244140625,0.8242688034385443,-0.8337479949235915,-1.7723083634525536
1684200788141548300,6.14554833984375,1.082291524723917,-0.9080968412041663,-1.819641484774649
1684200788151573500,6.155573486328125,1.3968015646457672,-0.9951122768342494,-1.562019307114184
1684200788161597200,6.16559716796875,1.8303239145696162,-0.9968266795367002,-1.2624436553433536
1684200788171622400,6.175622314453125,2.14734871379137,-0.815143832218647,-1.0539087491959334
1684200788181647400,6.1856474609375,2.1567665304780004,-0.28568156645298004,-1.0201493951961398
1684200788191671300,6.19567138671875,1.895705610540509,0.7819698768913745,-1.296429219314456
1684200788201696500,6.205696533203125,1.3741338057637213,1.8858745368778704,-1.3250763448670506
1684200788211720200,6.21572021484375,1.0739012244541197,2.6782062333077192,-1.861564125355333
1684200788221745200,6.2257451171875,0.31094694061279293,3.17765330003798,-1.3661971675455569
1684200788231769300,6.235769287109375,-0.3811572988491505,3.098924046716094,-1.1583500975318253
1684200788241794300,6.245794189453125,-1.3348551038205623,2.7363310900181532,-2.0021409091725944
1684200788251819300,6.2558193359375,-3.010445552796125,2.246871164295077,-2.628929284441471
1684200788261843500,6.265843505859375,-4.277195088639855,1.3566115930765867,-1.259343643501401
1684200788271868200,6.2758681640625,-4.259588704800605,0.4610492392748594,0.5333322390668094
1684200788281892400,6.285892333984375,-3.423096964126825,-0.011368950754404068,1.0505651378564536
1684200788291917300,6.295917236328125,-2.499718382638693,-0.28858430215716363,1.0956130708508194
1684200788301941500,6.30594140625,-1.6500643780529498,-0.7962228586494923,0.8897168426439166
1684200788311966500,6.315966552734375,-0.9241652748864143,-1.133921612587571,0.9760757140614091
1684200788321991400,6.325991455078125,-0.16202004240565002,-1.386633806374669,1.4967295272104442
1684200788332015400,6.336015380859375,0.6083240594260394,-1.5484581070125103,2.285133967193961
1684200788342040300,6.346040283203125,0.9858588569290936,-1.371510471522808,3.3238717430040237
1684200788352064300,6.356064208984375,1.2636819649666546,-1.0586281789332628,4.124528492447734
1684200788362089500,6.36608935546875,1.5697627608478069,-0.6786071175724268,4.7739288047581905
1684200788372113200,6.376113037109375,2.1805390357315537,-0.38347792381644247,5.41989446644485
1684200788382138400,6.386138427734375,2.635078454720974,-0.3347235375195741,5.891097435465455
1684200788392162300,6.396162353515625,2.701969970732927,-0.3904384104788303,5.822235496163368
1684200788402187300,6.406187255859375,2.6526772397756573,-0.945873321890831,5.602276401942968
1684200788412212500,6.41621240234375,2.3495927031010386,-1.843603082859516,5.854095446282625
1684200788422236400,6.426236328125,1.844356531575322,-2.424668110090494,5.656618232983351
1684200788432261000,6.43626123046875,1.8388953435599802,-2.681017199075222,4.371815446315706
1684200788442285300,6.446285400390625,2.181319956976175,-2.2202526219606398,2.8459844739139077
1684200788452310300,6.456310302734375,2.8902941557615995,-1.31033441054821,1.7996965749852358
1684200788462334500,6.46633447265625,3.3978853659808634,-0.26341245149970055,0.9637421560585498
1684200788472359400,6.476359375,3.4777819095164535,1.0144950226962566,0.11330357696637511
1684200788482384400,6.48638427734375,3.448295702791214,2.0197505078822373,-0.5809262032821774
1684200788492408300,6.496408203125,3.405806806629896,2.55800456739068,-1.2411758263871073
1684200788502433300,6.506433349609375,3.364472341200709,2.560461312893033,-1.763335806315392
1684200788512457500,6.51645751953125,3.065885700467229,2.328454638004303,-1.987927821033448
1684200788522482400,6.526482421875,2.6436066290915012,1.9141063596278427,-2.0044071005389092
1684200788532506000,6.536506103515625,2.1221289323389527,1.4416279638439415,-1.88934425881505
1684200788542531300,6.54653125,1.5722060623466967,1.0475035583287478,-1.5038329294748602
1684200788552555300,6.55655517578125,1.0828794076144694,0.778785401636362,-0.9001452976778149
1684200788562580200,6.566580322265625,0.6892705504059791,0.4834884500980377,-0.27546982290968297
1684200788572605400,6.57660546875,0.5989841302812099,0.2581593532770872,0.05521715257018804
1684200788582629400,6.58662939453125,0.7879927904427051,0.13259060736894607,0.1763083146728575
1684200788592654300,6.596654296875,1.1118833837807178,0.03289513838589191,0.21532310498282312
1684200788602678300,6.60667822265625,1.4206956504523753,-0.016043372306227682,0.16456322408244012
1684200788612703200,6.616703125,1.7611317203998564,-0.10129121374189853,0.14315963991731404
1684200788622727400,6.6267275390625,2.3213445137381554,-0.3235761205613613,0.27692747437208887
1684200788632752400,6.63675244140625,2.9755788220763204,-0.6856517753869295,0.38642464479282496
1684200788642777300,6.64677734375,3.5128397788941856,-1.057462057763338,0.45685368728116155
1684200788652801300,6.65680126953125,3.7986300664186476,-1.300940559259057,0.4087818764209747
1684200788662826200,6.666826171875,3.756677761352062,-1.3958143071740865,0.2385372457012534
1684200788672850400,6.676850341796875,3.4379379749059673,-1.2978081064522267,0.13904796681478618
1684200788682875400,6.68687548828125,2.868438297784328,-1.069742862665653,0.08016060129925608
1684200788692899300,6.6968994140625,2.234850471633673,-0.8047562937170266,-0.04206891718357801
1684200788702924300,6.70692431640625,1.6803414428949355,-0.6045557929337024,0.03805193662717938
1684200788712948500,6.716948486328125,1.0206909547269343,-0.504402058789134,0.22377631442099807
1684200788722973400,6.726973388671875,0.36380989473965014,-0.30446283929049966,0.46025209754779933
1684200788732998400,6.736998291015625,-0.19367435041759162,-0.0563233602464199,0.7016258818492292
1684200788743022300,6.747022216796875,-0.8299648961883038,0.1465793852329254,0.7980053581520915
1684200788753047600,6.757047607421875,-1.3986848941743373,0.2805319286048412,0.8284585102133453
1684200788763071500,6.767071533203125,-1.809991905158758,0.3102776630491018,0.8416026539467275
1684200788773096400,6.777096435546875,-2.07222596052885,0.28520167398154733,0.7522783568523824
1684200788783120400,6.787120361328125,-2.0672002413213253,0.01096270804107189,0.6640544222153723
1684200788793145300,6.797145263671875,-1.8250059344172476,-0.48085517898499963,0.4412130505569279
1684200788803170600,6.807170654296875,-1.3009224390804768,-1.0832850658059119,0.27712825764119625
1684200788813194500,6.817194580078125,-0.7527227396190166,-1.5127590171217917,0.2280240349933505
1684200788823219500,6.827219482421875,-0.2954126868724823,-1.3424883751779795,0.4400548204325139
1684200788833243400,6.837243408203125,-0.0670668634457048,-0.4054237981647253,0.9689097679547964
1684200788843268400,6.847268310546875,0.01051613331735134,1.0359072285592554,1.4029399212703109
1684200788853292500,6.85729248046875,-0.015063129097223281,2.636141700038314,1.3686024751216173
1684200788863317500,6.8673173828125,-0.09776124951746314,4.128535974523425,0.9924756447203457
1684200788873342500,6.877342529296875,-0.14725224299319087,5.3632507882028815,0.3766960085913539
1684200788883366400,6.887366455078125,0.0714284287892282,5.816845035296678,0.09994096817672252
1684200788893391400,6.897391357421875,-0.2740413975417614,5.4663803232878445,-0.32492344351708885
1684200788903415600,6.90741552734375,-0.27992168775200843,5.045117150956392,-0.5624816150531172
1684200788913440500,6.9174404296875,0.2693652224242687,4.598925289073586,-0.10471826558113098
1684200788923464400,6.92746435546875,1.4850433272004127,4.092705367207527,0.4172004529371857
1684200788933489700,6.93748974609375,2.2428771262228486,3.119365946242213,0.7064677689224481
1684200788943513300,6.947513427734375,2.574991358026862,2.331906824284792,0.16201543929576873
1684200788953538300,6.957538330078125,3.048842795729637,1.3638175789326428,-0.9747200616687536
1684200788963563500,6.9675634765625,4.056684205755591,0.6006359891414642,-2.0886381661474704
1684200788973587500,6.97758740234375,5.51207999818921,-0.03984042747914791,-2.6232830952480435
1684200788983612400,6.9876123046875,6.542133240023255,-0.6022638826042414,-2.480104750630259
1684200788993636400,6.99763623046875,5.853702647572756,-1.2126742467850447,-1.3712240557968616
1684200789003661300,7.007661376953125,3.921029534640908,-1.3320517368376255,0.32672786259055137
1684200789013685500,7.017685546875,1.9375877729803324,-1.2419494411081076,0.9374562066793442
1684200789023710500,7.02771044921875,0.6971992975786327,-0.985504490533471,0.32542408651560545
1684200789033735400,7.0377353515625,0.431083140078187,-0.8967436725407838,-0.9110998224124311
1684200789043759400,7.04775927734375,0.71319678491652,-0.9569055880367755,-1.9453940628170967
1684200789053784300,7.057784423828125,1.3314645845994353,-1.3732681288450956,-2.820090446461737
1684200789063808500,7.06780859375,1.959576901948452,-1.5282383258044718,-3.3952830745279785
1684200789073833500,7.07783349609375,2.445490533366799,-1.5854203487068415,-3.7656566020995377
1684200789083857700,7.087857666015625,2.619816588181257,-1.648484415385127,-4.101395161880553
1684200789093882600,7.097882568359375,2.4318308413267133,-1.6721248186916111,-4.345367876634001
1684200789103907300,7.1079072265625,1.9911136114627122,-1.700072563803196,-4.206359803438186
1684200789113931500,7.117931640625,1.4810527962595224,-1.6705729130744933,-3.9222032545953986
1684200789123956500,7.12795654296875,1.000034827928245,-1.4810539653033017,-3.6403044215515252
1684200789133980400,7.13798046875,0.48044630592316384,-1.0104244122564792,-3.296004954174161
1684200789144005600,7.148005615234375,0.20089082113504408,-0.6095078623831272,-2.9457161832541225
1684200789154029300,7.158029296875,0.024131986215710638,-0.3549368889868259,-2.6452228321164846
1684200789164054300,7.16805419921875,-0.0823264010310173,-0.31505437593162056,-2.532422966888547
1684200789174078500,7.178078369140625,-0.136022335383296,-0.48276831912994383,-2.566181444105506
1684200789184103400,7.188103515625,-0.09286971461623907,-0.8456079440653324,-2.6441134095698593
1684200789194128600,7.198128662109375,-0.09142740685343742,-1.1684651027023791,-2.6274925296366214
1684200789204152300,7.20815234375,-0.12580474662110208,-1.3363228382855652,-2.535397598785162
1684200789214177300,7.21817724609375,-0.1532964185282588,-1.2587182050794363,-2.3412223496407267
1684200789224201500,7.228201416015625,-0.15688202193006873,-1.0405196907907723,-2.059091753667593
1684200789234226400,7.238226318359375,-0.16833265961855648,-0.7120867778480052,-1.6901181560218332
1684200789244250600,7.248250732421875,-0.34926176595985886,-0.21479192071557043,-1.2055953944399953
1684200789254275600,7.258275634765625,-0.7096417227834463,0.5361842674970626,-0.525280888427794
1684200789264300300,7.26830029296875,-1.0914660341739655,1.3758856178671122,0.3071153996258974
1684200789274324500,7.278324462890625,-1.5016792585723102,2.184821243095398,1.4935460748687386
1684200789284349400,7.288349365234375,-1.7957113047413527,2.8767876084566115,2.9384599285155533
1684200789294373600,7.29837353515625,-1.8796883955888448,3.1180460958153007,4.416655289517343
1684200789304398600,7.308398681640625,-1.7738292894095182,2.7636042968690395,5.718660555398464
1684200789314422300,7.31842236328125,-1.6137990325815974,1.7421020257592201,6.55754766677618
1684200789324447500,7.328447509765625,-1.2236124049067496,0.2413146014600992,6.728598645442724
1684200789334472400,7.338472412109375,-0.5446456602416933,-1.2739233729958535,6.336931569951773
1684200789344496400,7.348496337890625,0.19089315873384474,-2.438426586329937,5.69699642060101
1684200789354521600,7.358521484375,0.914630626887083,-3.1372318578004834,4.974688108468055
1684200789364545300,7.368545166015625,1.4731167425632476,-3.3015538204729555,4.240831397360563
1684200789374570500,7.378570556640625,1.859741147711873,-3.0793472395867107,3.3928184379801154
1684200789384594400,7.388594482421875,1.9052906004875898,-2.562209033343196,2.332979129691422
1684200789394619400,7.398619384765625,1.7077958515316247,-2.1027637221336364,1.531363764348626
1684200789404644600,7.40864453125,1.301653091442585,-1.6918220373302697,0.9787126384362578
1684200789414668500,7.41866845703125,0.7694657115619629,-1.3677777147352694,0.7825880087897181
1684200789424693200,7.428693359375,0.5181477486122399,-1.2583277444571257,0.7825070525079965
1684200789434717400,7.438717529296875,0.6818360164910554,-1.4662924495011567,0.44838674157857894
1684200789444742400,7.448742431640625,0.9169576085299252,-1.6195868222028016,-0.3619482290536165
1684200789454766600,7.4587666015625,1.0015577997118235,-1.4852736288249493,-1.648590506108105
1684200789464791600,7.46879150390625,0.6468775158345699,-0.9463947154164314,-2.996747574572265
1684200789474815500,7.4788154296875,-0.2262789448916912,-0.05087503171265125,-3.3051606127932667
1684200789484840400,7.48884033203125,-1.7909943592220543,0.8089514073193073,-2.0087398690462113
1684200789494865400,7.498865478515625,-4.094858745849132,0.8381967910259962,-1.3203116146832703
1684200789504889600,7.5088896484375,-6.82174513117373,-0.2793938644856214,-2.554631583826244
1684200789514914600,7.51891455078125,-7.937593326932191,-0.6177344234585762,-2.1873136444330212
1684200789524938200,7.528938232421875,-6.135393683084845,0.3312701821953058,0.30810996362119913
1684200789534963500,7.53896337890625,-2.2445804230093955,1.0512257937222718,3.059600628848374
1684200789544987400,7.5489873046875,0.2942366288304329,0.7492612009882926,3.877451381938159
1684200789555012400,7.559012451171875,0.06846855607032776,-0.17034136909246445,3.7173359310448166
1684200789565037600,7.56903759765625,-0.8023971633702516,-0.9630775546699761,2.9096970676288008
1684200789575061500,7.5790615234375,-1.195987315878272,-1.0884393798291683,1.531013343475759
1684200789585086500,7.58908642578125,-1.7052409063518046,-1.0183189648985862,0.5046013807535171
1684200789595110400,7.5991103515625,-1.9543056835472583,-0.9680366383820772,0.22751199381798504
1684200789605135400,7.60913525390625,-0.9601426702618598,-1.1047715059489012,0.483664975708723
1684200789615159600,7.61915966796875,1.0689794770777226,-1.0539046575427056,1.2527528669342398
1684200789625184500,7.6291845703125,3.360149217304587,0.30749592337608334,2.962062630160153
1684200789635209500,7.63920947265625,5.090352715477347,2.7242233035951853,4.235125586934387
1684200789645233400,7.6492333984375,5.91079991480112,5.288880899134278,4.640658106170594
1684200789655258400,7.65925830078125,5.682249517846107,7.172858077958225,4.018882298366726
1684200789665282600,7.669282470703125,4.277141312626004,8.307108191847801,3.2315432956576347
1684200789675307500,7.6793076171875,2.2906161979973314,7.176101589924096,3.0980823351949454
1684200789685331500,7.68933154296875,0.2939817772865295,3.647983577877283,2.093461640781164
1684200789695356400,7.6993564453125,-0.9044295508682727,-0.14102116658389569,-0.5632812409982085
1684200789705380000,7.709380126953125,-0.9148784641683101,-2.8019840041458606,-3.390165293122828
1684200789715405300,7.7194052734375,-0.6837935802996158,-4.057808241349458,-5.714799203795194
1684200789725430300,7.72943017578125,-0.9252595729291438,-4.458105782541632,-6.5110156327039
1684200789735454200,7.7394541015625,-1.2923176923424005,-4.179959872290492,-6.661239511919021
1684200789745479400,7.7494794921875,-1.4111059843301772,-3.0057395670622586,-7.414985164844989
1684200789755503000,7.759503173828125,-1.5850170286029577,-1.3142320025086403,-7.288552495583891
1684200789765528300,7.7695283203125,-1.4984434915214777,-0.3497428274750709,-6.131569740882515
1684200789775552300,7.77955224609375,-1.4482880062550305,0.8256354156166315,-4.015809759053588
1684200789785577200,7.7895771484375,-1.3745330342143773,1.787000321149826,-2.0699954249978063
1684200789795602400,7.7996025390625,-1.3035007651358843,2.428904724746942,-1.0018626278772949
1684200789805626000,7.809626220703125,-0.9351239643394946,2.625318692728877,-0.13708207356929777
1684200789815651000,7.819651123046875,-0.36628245886564254,2.428753918099403,0.48419630610644815
1684200789825675300,7.82967529296875,0.22934710029065608,1.8905910440057514,0.6225970610588789
1684200789835700200,7.8397001953125,1.0004588985592127,1.0856482878059148,0.4945099025890231
1684200789845724400,7.849724365234375,1.5528373450100421,0.17576397866308688,-0.46155543523132797
1684200789855749000,7.8597490234375,1.6731389641702175,-0.19652152000963688,-1.3156433306112885
1684200789865774000,7.869774169921875,1.5091864193320272,-0.4106698821246624,-1.2995108187168836
1684200789875798300,7.87979833984375,1.1563234140098095,-0.5629243903845549,-1.1775327907770872
1684200789885823200,7.8898232421875,0.6842927619934082,-0.48960605619549746,-1.2213313082322477
1684200789895847400,7.899847412109375,0.24760813038004562,-0.30650866590440273,-1.305204061922431
1684200789905872400,7.909872314453125,-0.023954894349444655,-0.060409752777218814,-1.703966648632288
1684200789915896000,7.91989599609375,-0.09074125122018158,0.2071077959537506,-2.0509908647984263
1684200789925921300,7.92992138671875,-0.04676178770754486,0.36981940082013603,-2.330219455719739
1684200789935945200,7.9399453125,-0.1159364096879959,0.44236032089591026,-2.325971881277859
1684200789945970200,7.94997021484375,-0.2964168954789638,0.39456688858568667,-2.1581012862130997
1684200789955994000,7.959994140625,-0.5739151554763317,0.4600830245912075,-1.9305816936105489
1684200789966019000,7.97001904296875,-0.7418833656966686,0.5595025992423296,-1.4967656214371323
1684200789976044300,7.980044189453125,-0.7233820788443088,0.5424328064978122,-0.9136445384591817
1684200789986068200,7.990068115234375,-0.44862877017352726,0.30407997745275495,-0.15486279106214643
1684200789996093200,8.00009326171875,-0.05757544266674667,0.04573533073663711,0.5033714005671441
1684200790006117400,8.010117431640625,0.1690132622938603,0.042481297376751895,0.9245729058392346
1684200790016142000,8.02014208984375,0.2893511948764324,0.21079028385877607,1.0680606086671351
1684200790026166300,8.030166259765625,0.36733573077823967,0.28964520938694477,0.819654441510886
1684200790036191200,8.040191162109375,0.3589326440921053,0.25627602374851705,0.4174145340792835
1684200790046216200,8.05021630859375,0.32764446597881614,0.17289222261905668,0.07346621822714805
1684200790056240400,8.060240478515626,0.27804990253075956,0.0546896215647459,-0.11740896645858884
1684200790066265300,8.070265380859375,0.272706276480481,-0.10960194596946239,-0.1619442737556994
1684200790076289300,8.080289306640625,0.35900508827380834,-0.28470833750665187,-0.02575958741754293
1684200790086314200,8.090314208984376,0.481557116709277,-0.49037879413366314,0.11738456266969442
1684200790096338200,8.100338134765625,0.6179670631706714,-0.6995148810446262,0.17584873433709144
1684200790106363400,8.11036328125,0.7206300767224282,-0.8252168979436159,0.1294772976540029
1684200790116388400,8.120388427734374,0.7771346387546509,-0.8182207554459572,-0.0530012300863862
1684200790126412000,8.130412109375,0.7616285151302814,-0.6896154183208942,-0.40466479649096726
1684200790136437200,8.140437255859375,0.6723438924591988,-0.4076017267256975,-0.8324405655868351
1684200790146461200,8.150461181640624,0.5486964700024575,-0.07682838813662529,-1.2051206165350974
1684200790156486400,8.160486328125,0.34133382250480354,0.24279519540667532,-1.46115318691656
1684200790166510300,8.17051025390625,0.03353986603021621,0.4682616548717022,-1.5419249058514832
1684200790176535000,8.18053515625,-0.33224348420687017,0.6087742874115705,-1.497575476515293
1684200790186560300,8.190560302734376,-0.5983833148438483,0.5959878710746764,-1.3784344255670904
1684200790196584200,8.200584228515625,-0.7623125518716871,0.4417196849048137,-1.1664153305657208
1684200790206609200,8.210609130859375,-0.8381577011246234,0.1918225485384464,-0.9187345550745725
1684200790216633300,8.22063330078125,-0.7972423378903418,-0.015478724160790443,-0.6088644499130547
1684200790226658300,8.230658203125,-0.5659996331114322,-0.09098901543617248,-0.1446964940957725
1684200790236682200,8.24068212890625,-0.17057978095822035,-0.01731704550385475,0.3980991543650627
1684200790246707200,8.250707275390624,0.11885434296131134,0.10010521882772445,0.8660840381219983
1684200790256731400,8.2607314453125,0.40220936616286634,0.19712357755601406,1.0762890694387257
1684200790266756400,8.27075634765625,0.5704967253349721,0.18589257396757602,1.0319507460184394
1684200790276781300,8.28078125,0.6403916609466076,0.1565530822366476,0.8021548790469765
1684200790286805200,8.29080517578125,0.45381212762817735,0.12941899159550665,0.39777006854116914
1684200790296830200,8.300830322265625,0.06283369198851287,0.19369886380434034,0.05800663715824485
1684200790306854100,8.310854248046875,-0.3174445590037852,0.2751981663614511,-0.11463920948430895
1684200790316879400,8.32087939453125,-0.6288052680492401,0.274040228497982,-0.09861614931374788
1684200790326903300,8.3309033203125,-0.9099205494999885,0.2061106016099453,0.08795651587247848
1684200790336928300,8.34092822265625,-1.115941134738922,0.06885550956130028,0.3674111706346273
1684200790346953200,8.350953125,-1.2443535796403884,-0.0950882674485445,0.6747627171039581
1684200790356977200,8.36097705078125,-1.3787760786116123,-0.24584347706139087,0.9032327422991394
1684200790367002400,8.37100244140625,-1.4482232704557478,-0.39823125631213185,0.9617252632781863
1684200790377026300,8.3810263671875,-1.4802199986971913,-0.5471838004171848,0.9390835156202316
1684200790387051300,8.39105126953125,-1.4235574696242808,-0.6648404580265284,0.9527870468020438
1684200790397075200,8.4010751953125,-1.2430442506074906,-0.7596621834933758,0.9775707749247551
1684200790407100200,8.41110009765625,-0.9677227501273155,-0.8464736209839582,1.0092863481372594
1684200790417125000,8.421125,-0.7053987514514476,-0.9114210171908139,1.0279634299479425
1684200790427149300,8.4311494140625,-0.4440227011501789,-0.9133160371571779,1.037927920731902
1684200790437174300,8.44117431640625,-0.2222352224588394,-0.879199248021841,1.0604618241012096
1684200790447198200,8.4511982421875,-0.15277429435029624,-0.7117115147948264,1.1056469736091792
1684200790457223200,8.46122314453125,-0.24325711383000015,-0.4665612806946039,1.1833141506575047
1684200790467248000,8.471248046875,-0.42812940483912826,-0.23539923993647097,1.288326430749148
1684200790477272300,8.481272216796874,-0.6596621786057949,-0.08939736233055591,1.4267936750665307
1684200790487297300,8.49129736328125,-0.9724199680328368,-0.03475274895131588,1.6472294468879698
1684200790497321200,8.5013212890625,-1.2433880956090986,-0.13495616745650768,1.846403381102532
1684200790507346200,8.51134619140625,-1.4958024754934012,0.11707681189477442,2.112508140426129
1684200790517370000,8.5213701171875,-1.7388300183512269,0.3830827870190143,2.2662698383785784
1684200790527395300,8.531395263671875,-1.695297166094929,0.29098376451432706,2.2236201986975965
1684200790537419300,8.541419189453125,-1.4219080949820577,0.1998749220907688,2.180942794226855
1684200790547444200,8.5514443359375,-1.2254033799767494,0.20781156030893325,2.038447317306697
1684200790557469200,8.56146923828125,-1.1889118245340884,0.49440907256305217,1.2776469235636294
1684200790567493000,8.5714931640625,-1.6006433445408939,1.3513035497963428,0.3206254540622234
1684200790577518300,8.581518310546874,-1.14011096874699,1.4833856231212614,-0.407501042830199
1684200790587542300,8.591542236328126,-0.5019267547167837,0.8367559445679187,-0.6045670449800788
1684200790597567200,8.601567138671875,-0.3316227950252592,-0.0949444750636816,-0.4429710001401603
1684200790607591200,8.611591064453124,-0.6740786803625524,-0.9111936381757259,0.12999138465598226
1684200790617616100,8.6216162109375,-0.7801496757268905,-1.3521335708796978,1.1496131027162075
1684200790627641000,8.63164111328125,-0.26115502796173096,-1.0260849227249622,2.5388807647258043
1684200790637665300,8.641665283203125,0.22766060850843786,-0.002246317622065544,3.8720945310801267
1684200790647690200,8.651690185546874,0.6006709143243729,1.8425030126631259,4.872124975094199
1684200790657714200,8.661714111328125,1.1976197393856942,4.273663991904258,5.259330979523062
1684200790667739100,8.6717392578125,1.5362228948175907,6.152102241301536,5.001080440831184
1684200790677763300,8.681763427734374,1.1102804786287248,6.873862271901965,3.8106668334320184
1684200790687788300,8.691788330078126,0.03499415649175644,5.824971058607101,2.20700180298239
1684200790697813200,8.701813232421875,-0.8933810642398893,3.413441831552982,0.7721043164372444
1684200790707837000,8.7118369140625,-1.129989387705177,1.4537211372196674,-0.36056758835017677
1684200790717862000,8.72186181640625,-0.9331542717017233,0.6648381199389696,-0.9956355700559913
1684200790727885800,8.7318857421875,-0.875333220243454,0.6878466550827026,-1.8302482189849019
1684200790737910800,8.741910888671875,-0.14840784276910127,0.06646832216382026,-2.409365619279444
1684200790747934700,8.751934814453126,1.235706162804365,-1.2601035219579935,-2.085945858323574
1684200790757960000,8.7619599609375,2.0192166932664812,-2.208548740163445,-1.3110659396931528
1684200790767985000,8.77198486328125,2.2211806965909897,-2.748271118658781,-0.7914689421206712
1684200790778008800,8.7820087890625,1.5348679730772972,-3.2427684540271757,-0.5913274780482053
1684200790788033800,8.79203369140625,0.3344377063155174,-2.985157966804504,-0.6737266520544887
1684200790798057700,8.8020576171875,-0.503180408039689,-2.4702660781830548,-1.1865379350095986
1684200790808083000,8.8120830078125,-0.5592927558839321,-1.7421622315138576,-1.60986359282881
1684200790818107000,8.82210693359375,-0.2401519508888945,-0.41153263643383975,-2.1610247724443674
1684200790828131800,8.8321318359375,-0.04921199387125671,0.8339338728845119,-2.9507065388873217
1684200790838157000,8.842156982421875,0.1934527800887823,1.7740426398992537,-4.046660824391245
1684200790848180700,8.8521806640625,0.2734451121490449,2.570567111843824,-4.881813717676699
1684200790858205700,8.862205810546875,0.7345803492069244,3.2711411465525626,-5.1089744138389825
1684200790868230000,8.87222998046875,1.2050153295297175,3.3161125071793793,-4.920440385451912
1684200790878254800,8.8822548828125,1.6602157697111368,2.736843715715408,-4.252461629399657
1684200790888278800,8.89227880859375,2.6501357385993,2.080723739761114,-2.327300499533117
1684200790898303700,8.9023037109375,3.6393431753039356,1.6532219653010367,0.13130319790691136
1684200790908328700,8.91232861328125,3.7331443255513905,1.2864414937853812,2.404629238407314
1684200790918353000,8.922352783203126,3.5945430795907973,0.9204267459452151,4.1910833238512275
1684200790928377900,8.9323779296875,3.6684482737571,0.7216419571787118,5.085486570745706
1684200790938402000,8.942402099609374,3.1482828286468982,0.4457300895899534,4.802198329170048
1684200790948426800,8.9524267578125,2.4032395376145836,0.21239947262108325,3.3317247945919632
1684200790958450700,8.96245068359375,2.0227299620844423,-0.1613105058968067,1.1063687120124697
1684200790968476000,8.972475830078125,2.0144753439582885,-0.5350970567822456,-0.4511261034145951
1684200790978499800,8.982499755859376,2.16064658678174,-0.7988321643650531,-1.5434896709501742
1684200790988524800,8.99252490234375,2.30027951387763,-1.1593185041725635,-2.348747484448552
1684200790998550000,9.002550048828125,2.316881689110398,-1.4925135169506072,-2.8433289909690616
1684200791008573700,9.01257373046875,2.23758267307654,-1.7367390374213456,-3.1398584069117903
1684200791018599000,9.022598876953126,2.1806622237198052,-1.9512655851989984,-3.2764079810395836
1684200791028622800,9.032622802734375,1.9966912654645739,-1.956959997448325,-3.280425984509289
1684200791038647800,9.042647705078124,1.7088814548112452,-2.011322871276736,-3.2240050091072914
1684200791048671700,9.052671630859376,1.3175794132404028,-2.11536426050961,-3.2387215167239307
1684200791058696700,9.06269677734375,0.9597945874765514,-2.0936375818699595,-3.132534932155907
1684200791068721700,9.0727216796875,0.5760382851101458,-1.8740461519181728,-2.925088698028028
1684200791078745900,9.082745849609376,0.21653525725156067,-1.8520394872933625,-2.9329256752640007
1684200791088770800,9.092770751953125,-0.15885113004595042,-1.3949743492186069,-2.857069054768979
1684200791098795000,9.102794921875,-0.41662674470245836,-0.6597638854146003,-2.7931606462210414
1684200791108819700,9.11281982421875,-0.6783269854567945,0.1774099923044443,-2.9094495226085186
1684200791118844000,9.122843994140625,-0.8280277175806462,1.000032782101631,-2.9501603031814096
1684200791128868900,9.132868896484375,-0.9256991333901882,1.7301625816404818,-2.6084830010011792
1684200791138893800,9.142893798828124,-1.0017290646255015,2.1094436382889747,-2.182856665024161
1684200791148918000,9.15291796875,-1.021515715113282,2.17463419560194,-1.3261989191561936
1684200791158943000,9.16294287109375,-0.9076374069988727,2.037311883535981,-0.24668255823403595
1684200791168966700,9.172966552734374,-0.9677763800106942,1.7851736902445554,0.7928174341201781
1684200791178991900,9.182991943359376,-1.1531634886741637,1.4596622177064418,1.566974299173057
1684200791189015800,9.193015869140625,-1.0256023999050259,1.0173188479453326,2.295986785119772
1684200791199040800,9.203040771484375,-0.8193706561334431,0.6812409732073545,2.691125628374517
1684200791209066000,9.21306591796875,-0.4868333766117692,0.2368582065731287,2.821074489063024
1684200791219089700,9.223089599609375,0.10676584576070308,-0.016071429356932638,3.156189363987744
1684200791229115000,9.233114990234375,0.8885849160045385,-0.33309681310057637,3.3456013442531227
1684200791239138800,9.243138916015624,1.6847361707225441,-0.7423679343432188,3.459638057799637
1684200791249163800,9.253163818359376,2.374540389613807,-1.2071622053653002,3.3512717911049723
1684200791259188000,9.26318798828125,2.970473315630853,-1.7852496780902147,3.266516993883252
1684200791269212700,9.273212646484374,3.38032282128334,-2.3414678488343954,2.892916905480623
1684200791279236900,9.28323681640625,3.536784133583307,-2.820073787587881,2.1653049339815973
1684200791289261800,9.29326171875,3.38851080391407,-3.043724722063541,1.3909303345248103
1684200791299286800,9.303286865234375,3.100018271693587,-3.1042583934813734,0.7050693003013729
1684200791309311000,9.31331103515625,2.729664033344388,-2.8977035552352666,0.31540771941393614
1684200791319336000,9.3233359375,2.1810040228947996,-2.452430561763048,0.23732231695353984
1684200791329360000,9.33335986328125,1.5100661247760057,-1.9410498961329459,0.30939503499567506
1684200791339384800,9.343384765625,0.9430769691705703,-1.5669143856793641,0.3119681003540754
1684200791349408800,9.35340869140625,0.454298595970869,-1.2506547256112097,0.15961100850254295
1684200791359434000,9.36343408203125,0.06090659638345241,-0.9551672199368476,-0.15220453163832426
1684200791369459000,9.373458984375,-0.19630933856368063,-0.6441255867779254,-0.49808016229122876
1684200791379482600,9.383482666015626,-0.48164939810261126,-0.353178062620759,-0.7506865576162934
1684200791389507800,9.3935078125,-0.9691314478814601,-0.08449673080742359,-0.7690709400907159
1684200791399531800,9.40353173828125,-1.6258067196309565,0.2647778946340084,-0.7302996031478047
1684200791409557000,9.413556884765624,-1.9567431398272512,0.6088426764726639,-0.7981894825473427
1684200791419581000,9.423580810546875,-1.795253185710311,0.7477695011258125,-0.6581298544719815
1684200791429605600,9.433605712890625,-1.28884972397089,0.5356798251062631,-0.449861782567203
1684200791439630800,9.443630859375,-0.6760381438672542,-0.20284780042171477,-0.41535453280955553
1684200791449654800,9.45365478515625,0.023206030477210877,-1.051992101919651,-0.5625044114068151
1684200791459679700,9.4636796875,0.7196762831289321,-1.656281937393546,-0.5254226349860429
1684200791469704000,9.473703857421874,1.2867454451680183,-2.173380980670452,-0.14544570502787826
1684200791479729000,9.48372900390625,1.6763865677893162,-2.6117864264607427,0.47215252483040093
1684200791489752800,9.4937529296875,2.0313041675537824,-2.8569214629918336,1.166783140964806
1684200791499777800,9.50377783203125,2.5180671092778444,-2.6158172894120213,1.8162328453749417
1684200791509802800,9.513802734375,3.380097195833921,-2.183565690076351,2.2851927116438744
1684200791519827000,9.523826904296875,4.11867918189764,-1.3425403976261614,2.1910206822574136
1684200791529852000,9.533851806640625,4.62170936781168,-0.18557634762525557,1.6810720952570437
1684200791539875800,9.543875732421874,4.857788406705856,0.6507283460438251,1.12084994956851
1684200791549900800,9.55390087890625,4.412663297271728,1.3088403725981712,0.7861699589297175
1684200791559924700,9.5639248046875,2.2691665827333924,1.5987275740474463,0.37849165983647104
1684200791569950000,9.573949951171874,-1.8248165493249893,1.9859540367424486,-0.20637743585258722
1684200791579975000,9.583974853515626,-6.320421164655685,2.745626741629839,0.4695727374702692
1684200791589998800,9.593998779296875,-8.352309269577264,3.8729514401704073,3.296421718281507
1684200791600023800,9.60402392578125,-6.290455065459013,4.7933904610753055,6.826190420144796
1684200791610047700,9.6140478515625,-2.835609210371971,4.8602504129052155,7.2036010067462914
1684200791620073000,9.624072998046875,-1.7609657161831855,3.4033535682588814,5.602729990929364
1684200791630097000,9.634096923828125,-2.088054813301563,0.6024848318785428,4.074231552883982
1684200791640121900,9.644121826171874,-2.5923241856217385,-1.2527677722424269,1.7350746113404631
1684200791650146800,9.654146728515625,-3.3535505496919154,-2.491748426672816,-1.342513509619236
1684200791660170800,9.664170654296875,-3.101137631112337,-3.4485797804296014,-4.3771644061282275
1684200791670195700,9.67419580078125,-1.1940893733024596,-3.350470703855157,-7.272951021826267
1684200791680220000,9.684219970703126,0.8405892391204833,-1.9399170927107332,-9.54705798357129
1684200791690244900,9.694244873046875,1.8241385039329527,1.165372981905937,-10.707081421142815
1684200791700268800,9.704268798828124,1.0091665211498737,3.6269735230743883,-8.465808807507157
1684200791710293800,9.714293701171876,-0.19042201582444832,5.838827734524012,-5.824764722380042
1684200791720318000,9.72431787109375,1.2019652212440968,9.308779973328113,-3.3197976254329085
1684200791730343000,9.734343017578125,2.8126129501879213,11.27838025664091,0.9697804133094846
1684200791740367600,9.74436767578125,3.153503778165579,7.432770996904373,4.023772116234898
1684200791750391800,9.754391845703125,2.5745079584240913,0.8125251741528511,4.084683096532523
1684200791760416800,9.764416748046875,1.3590461267471312,-3.4545033252596853,3.3621827689588066
1684200791770440700,9.774440673828124,-0.4980184952318668,-5.17009552975595,2.742195013615489
1684200791780466000,9.7844658203125,-2.0815362251877785,-5.49880199894309,0.8958011309936642
1684200791790489600,9.794489501953125,-2.741175022917986,-4.973228557309508,-1.1926971882916986
1684200791800514800,9.804514892578124,-2.6095056220471857,-3.4019062920600174,-2.3214007739700375
1684200791810539800,9.814539794921876,-2.133801834475994,-1.9413082548081875,-2.336240469574928
1684200791820563700,9.824563720703125,-1.4355132803559303,-0.5388923574119806,-1.7112791636027396
1684200791830589000,9.8345888671875,-1.0710756456393749,0.4539975671976805,-0.725376321401447
1684200791840612600,9.844612548828126,-0.2105612060769461,1.1621306389838457,0.2517797352425754
1684200791850637600,9.854637451171875,0.8262146768093108,1.5396552073538303,0.8558353235691786
1684200791860661800,9.864661865234375,1.5037690704584121,1.8480723372280596,0.7893680243186653
1684200791870686700,9.874686767578124,1.57300218116045,2.1021856299847363,0.049191754800826305
1684200791880711700,9.884711669921876,1.7043629544734953,1.944457074227929,-1.0394900554820894
1684200791890735900,9.89473583984375,1.6166075141310692,1.1875310377001762,-2.3482322284027934
1684200791900760600,9.904760498046874,1.6816308981835841,0.1893792470395565,-3.6040953363120556
1684200791910784800,9.91478466796875,1.291183135354519,-0.16658406238555906,-4.288595311315357
1684200791920809700,9.924809814453125,0.6117921739280223,0.026555998492240905,-4.21826037685126
1684200791930834000,9.934833984375,0.4925427672345191,-0.07129530392885208,-3.3687931270092726
1684200791940859000,9.94485888671875,0.6818950532019138,-0.1485398716509342,-1.7478268331468105
1684200791950883800,9.9548837890625,0.8444914341907948,-0.291159121081233,-0.3823575414843857
1684200791960907800,9.96490771484375,0.8275661644835025,-0.5353419714540243,0.56270022623986
1684200791970932700,9.9749326171875,0.654415510123968,-0.69950786678195,0.9243784061804413
1684200791980956700,9.984956787109375,0.4639373619318008,-0.6906301483213901,0.7223574119716882
1684200791990982000,9.99498193359375,0.25287819800376893,-0.38421442139744755,0.2675777544856071
1684200792001005600,10.005005615234374,0.2888308973293751,0.10490706615149974,-0.23008462078496814
1684200792011030800,10.01503076171875,0.2947545152246952,0.38838849221169947,-0.7981567493215203
1684200792021055700,10.0250556640625,0.2097217047791928,0.43186289227902885,-1.1186069929473101
1684200792031079700,10.03507958984375,0.17170564318299292,0.34743162792325016,-1.4127981752008199
1684200792041105000,10.04510498046875,0.11017667711749672,0.3297930953800678,-1.5853364698156713
1684200792051128800,10.05512890625,0.23035554668083785,0.2681751358568668,-1.3859329646289347
1684200792061153500,10.065153564453125,0.4706840597130358,0.09546177693605422,-0.9875900646358727
1684200792071177700,10.075177734375,0.586081321023032,-0.0753290894895792,-0.4956524967528879
1684200792081202700,10.08520263671875,0.5999439152240753,-0.13559972605705262,-0.14593202724009752
1684200792091227600,10.0952275390625,0.6384264983534813,-0.10613865377306937,0.005423486353456974
1684200792101251800,10.105251953125,0.6233749866288155,-0.05946574992537498,0.07250570263192058
1684200792111276800,10.11527685546875,0.6896726284008473,-0.0037321722656488416,0.07595116691067814
1684200792121300700,10.12530078125,0.8645173733271658,-0.07864975834488869,-0.007037351290881634
1684200792131325700,10.13532568359375,1.069899441466853,-0.21852526202499864,-0.1422520235531032
1684200792141350000,10.145349853515626,1.119205104970932,-0.23804420148730276,-0.32855770836621523
1684200792151374800,10.155374755859375,0.8949686256922781,-0.12228081027865409,-0.546299418798089
1684200792161398500,10.1653984375,0.4891465489249676,0.14413140755891798,-0.7754271772496402
1684200792171423700,10.175423828125,0.014068126710504293,0.4087427134543657,-0.9083578302279114
1684200792181448700,10.18544873046875,-0.4169289425194263,0.5029951146006584,-0.7806444735065102
1684200792191473000,10.195472900390625,-0.6802877641357481,0.36025603818297386,-0.505153753939271
1684200792201497900,10.205497802734374,-0.7313516694840043,0.10443301889896392,-0.1687809879079461
1684200792211521800,10.215521728515625,-0.8216893083393574,-0.22771920682787894,0.0351005394756794
1684200792221546800,10.225546630859375,-1.0247324121374637,-0.4517074104338884,0.15325506360456345
1684200792231570700,10.23557080078125,-1.036039403571561,-0.36361996165812016,0.24097601715549824
1684200792241595600,10.245595703125,-0.7280956633627415,-0.14581366155743597,0.38774756395965815
1684200792251620900,10.255620849609375,-0.2277344043970108,-0.07044190196990967,0.5935276184409857
1684200792261644800,10.265644775390625,0.3740986125092953,-0.14858020366132257,0.7857054101578891
1684200792271669800,10.275669677734374,0.8812930054306983,-0.31458500485420227,1.0128285507887602
1684200792281693700,10.285693603515625,1.071334954162687,-0.46447570659220216,1.2873157924018799
1684200792291718700,10.29571875,0.9656513506807386,-0.5203975003004074,1.484221343293041
1684200792301742800,10.305742919921874,0.6653050067983567,-0.4631880048692226,1.4966807196326553
1684200792311767800,10.315767822265625,0.24536139263287185,-0.31743630263209344,1.2025428750015794
1684200792321792800,10.325792724609375,-0.18591186318993566,-0.12071604517996311,0.7156044305801391
1684200792331816700,10.335816650390624,-0.5513596247971058,0.018584288960695267,0.2673825241744518
1684200792341841700,10.345841552734376,-0.8483785778224467,0.10283902770578861,0.07360095052272081
1684200792351865900,10.355865966796875,-1.0103425791919232,0.09082476478517056,0.14609130945503712
1684200792361890800,10.365890869140625,-1.0935198979638516,-0.07282032153904437,0.3504698265753686
1684200792371914800,10.375914794921876,-1.190102934014797,-0.31127427287101744,0.5695262728676199
1684200792381939700,10.385939697265625,-1.3842495415866374,-0.4506570245981216,0.7106386248663067
1684200792391964700,10.395964599609375,-1.5506851354122162,-0.4638777406990528,0.655003246884048
1684200792401988900,10.40598876953125,-1.5461420851550995,-0.39200902079641814,0.3534508882127702
1684200792412013800,10.416013916015626,-1.3740204085171221,-0.29888708498477934,0.0374991250500083
1684200792422037800,10.426037841796875,-1.1217935140289366,-0.193473822876811,-0.36582200174704194
1684200792432063000,10.43606298828125,-0.8423838674522935,0.018486673805117607,-0.678704586597532
1684200792442086700,10.446086669921876,-0.5905578088499606,0.24637480745911597,-0.9922035497806966
1684200792452111600,10.456111572265625,-0.48173722251653667,0.4262660951852798,-1.2749036162048577
1684200792462136800,10.46613671875,-0.42255335827246304,0.6202069510519505,-1.6295451755069195
1684200792472160800,10.476160888671876,-0.4569513024367392,0.763747991502285,-1.8785319190301
1684200792482185700,10.486185791015625,-0.452611811927706,0.7430570856511592,-1.987009829405695
1684200792492209700,10.496209716796875,-0.4776645662501454,0.4957715930879116,-1.8199319921538233
1684200792502234600,10.506234619140624,-0.4718823295868933,0.27290216437876225,-1.3188446108706295
1684200792512258800,10.5162587890625,-0.5484194796919822,0.2749006447196007,-0.7130319497436285
1684200792522283800,10.52628369140625,-0.8172880046404898,0.4409773421049118,-0.17887582707330582
1684200792532308700,10.536308837890624,-1.1677451178647578,0.5566261670231819,0.22347776986584067
1684200792542332700,10.546332763671876,-1.275234017203003,0.4044569989591837,0.47118937888666984
1684200792552357600,10.556357666015625,-1.26336003953591,0.10624152962565421,0.8144630103476345
1684200792562381800,10.5663818359375,-1.2236569747008383,-0.06327800168991088,1.09798944459334
1684200792572406800,10.57640673828125,-1.5756911279834807,0.2059142022550106,1.2225577812872825
1684200792582430700,10.5864306640625,-2.155777665571123,0.6583873363643884,1.1241283867172895
1684200792592456000,10.5964560546875,-1.8422353016376494,0.7247498600661754,1.088161731931567
1684200792602480600,10.606480712890624,-1.33740025825873,0.39258477485775944,1.3909033003874123
1684200792612504800,10.6165048828125,-1.2409098689273,0.08529226509928703,1.9609581271737813
1684200792622529800,10.62652978515625,-1.4443489132404326,-0.06867664586305618,2.5797806381300092
1684200792632553700,10.6365537109375,-1.5841712254285811,-0.006046878948807716,3.210171714065969
1684200792642579000,10.646578857421876,-1.537407282296568,0.15054711982011795,3.721740303483605
1684200792652602600,10.6566025390625,-1.540450157123804,0.4055155681014061,4.007268432940543
1684200792662627600,10.666627685546874,-1.554054465714842,0.6300918007284403,3.91804204326272
1684200792672652800,10.67665283203125,-1.764891511324793,0.8073562470823525,3.71085825946331
1684200792682676700,10.6866767578125,-2.009277629184723,1.172775367116928,3.498912083567679
1684200792692701700,10.69670166015625,-2.0691969680964943,1.7240660183310508,3.216999221998453
1684200792702725600,10.7067255859375,-1.9344822081804274,2.6974317427814007,2.8777719433188436
1684200792712750800,10.716750732421875,-1.3123742458127439,3.732570909577608,2.6375056818678972
1684200792722774800,10.72677490234375,-0.2835749495625496,4.325276105719804,2.0552131586685776
1684200792732799700,10.7367998046875,0.4860990709878504,4.403067201408744,1.2327642641335725
1684200792742824700,10.74682470703125,1.0053635486703365,4.029887384244799,0.28941856102421876
1684200792752849000,10.756848876953125,0.9228278888028114,3.1346009247750044,-0.8585003049947321
1684200792762873900,10.766873779296875,0.5327917024493217,1.4862182161986828,-2.4050310972064732
1684200792772897800,10.776897705078126,0.27829317323472347,0.17897241931557653,-3.6841619757175446
1684200792782922800,10.7869228515625,0.09605213491148315,-0.7031734035521745,-4.0090725597530605
1684200792792946700,10.79694677734375,0.10701309852004051,-1.278153557911515,-3.8623794850125908
1684200792802972000,10.806971923828126,0.2809808596824296,-1.6109861671179533,-3.2699425844177603
1684200792812995800,10.816995849609375,1.0803314036320895,-1.7967215046972036,-1.9197335518598555
1684200792823021000,10.82702099609375,1.941585318183899,-1.729174155125022,-0.46728550331592555
1684200792833045800,10.837045654296874,2.6101456735163926,-1.5582453415334223,0.7518953488841652
1684200792843069700,10.847069580078125,2.837154978509247,-1.2701093676656483,1.3305442548841238
1684200792853095000,10.857094970703125,3.426362687924504,-1.0780115093171596,1.950788907597959
1684200792863118800,10.867118896484374,3.9248949778974054,-1.0053671288669108,1.963459588600695
1684200792873143800,10.877143798828126,4.148001137971878,-0.7723141597956419,1.6333412067890167
1684200792883167700,10.887167724609375,3.913150179567933,-0.6123533149421214,0.7370701201960445
1684200792893192700,10.897192626953125,3.7764088822603226,-0.44942192984521384,-0.1844093496724963
1684200792903218000,10.907218017578124,3.368939257481694,-0.10721358952820301,-1.2693228934630751
1684200792913241900,10.917241943359375,2.611043499138951,0.24096388832628726,-2.123454627984762
1684200792923266800,10.927266845703125,2.223154188621044,0.7869494188696146,-2.3153940809011457
1684200792933290800,10.937290771484374,1.9849848994493484,1.5000333910614252,-1.8871996480017899
1684200792943315700,10.947315673828125,1.2402864763319492,2.4451146857917307,-0.7900248807922006
1684200792953340000,10.95733984375,-0.14051146349608898,3.4147061524003743,0.4736924477487802
1684200792963364900,10.96736474609375,-1.6336644473940134,3.7875370099961754,1.6279273650467394
1684200792973389800,10.977389892578126,-2.5505647727787495,3.18718392944932,1.7113412690535186
1684200792983414000,10.9874140625,-2.4362293685466048,1.5237421834290026,-0.6593789777502417
1684200792993438700,10.997438720703125,-0.5181763171195983,-0.1537163975059986,-3.4418823286175724
1684200793003463000,11.007462890625,1.885957538986206,-1.0267442634165287,-4.853232935358584
1684200793013487900,11.01748779296875,3.438910619330406,-1.2480313913702965,-5.481067604809999
1684200793023511800,11.02751171875,4.010530357345939,-1.2884680311769245,-5.190239907640218
1684200793033537000,11.037537109375,3.853316765373945,-1.4814941102862358,-4.0243990159615874
1684200793043562000,11.04756201171875,3.18723887450695,-1.3181371932536363,-2.5912419433429834
1684200793053585700,11.057585693359375,2.3086115811541674,-0.97321608684659,-1.6431667274937032
1684200793063611000,11.06761083984375,1.5338845149978995,-0.7000514721393585,-1.216899755525589
1684200793073634800,11.077634765625,1.0753181785799562,-0.6167530112057924,-1.3204770343780516
1684200793083659800,11.08765966796875,0.8752486106999218,-0.7723235121458768,-1.7995520519480108
1684200793093683700,11.09768359375,0.7322587743915617,-0.9876111074239015,-2.329571367074549
1684200793103708700,11.107708740234376,0.6167905667372048,-1.1550748752534388,-2.7192916924118995
1684200793113734000,11.11773388671875,0.4484054462790489,-1.2812491858392954,-2.944067247003317
1684200793123757800,11.1277578125,0.2199796986170113,-1.4035311651617288,-3.027764351865649
1684200793133782800,11.13778271484375,-0.0437727984920144,-1.5714602124154566,-3.059254591889679
1684200793143807000,11.147806884765625,-0.26250439674407244,-1.7621692467540502,-2.9385552055835724
1684200793153831700,11.157831787109375,-0.31328882756382226,-1.8063924193620682,-2.708835764849186
1684200793163856000,11.16785595703125,-0.4488590352654457,-1.4222113157123326,-2.341325225493312
1684200793173880800,11.177880859375,-0.5376395808719098,-0.7139139932751655,-1.793760901325941
1684200793183905800,11.18790576171875,-0.4472356718473136,-0.03380231635868549,-1.0788833237156272
1684200793193930000,11.197929931640624,-0.32839068123623727,0.7277583942323923,-0.11097528014928101
1684200793203955000,11.207954833984376,-0.29564547271505,1.482099674963951,1.3418901170238853
1684200793213979000,11.217978759765625,-0.4093083845131099,1.9945143598169086,3.287345846900344
1684200793224003800,11.22800390625,-0.7535344943933189,2.095863441225886,4.674532610982657
1684200793234027800,11.23802783203125,-1.1294492894791066,1.6262351741760968,5.575245771676301
1684200793244053000,11.248052978515625,-1.228594138842076,0.7454846050590276,5.580086197444796
1684200793254078000,11.258077880859375,-1.201881488483399,0.1143634612828493,5.128164851999283
1684200793264101600,11.2681015625,-1.0180473083503543,-0.5742822352230549,3.9339775712803005
1684200793274126800,11.278126953125,-0.7745832737714051,-1.1954150689482688,3.222722275820374
1684200793284150800,11.28815087890625,-0.3333433352075517,-1.5871481954127549,2.7870436246454715
1684200793294175700,11.29817578125,0.38531054607108234,-1.7878017006605862,2.4310920056581495
1684200793304200000,11.308199951171876,1.2731886289805172,-1.6827999419629573,2.2397718536838886
1684200793314224600,11.318224609375,1.9745855243794619,-1.4156804526388644,2.424308044606447
1684200793324249900,11.328249755859375,2.56682617174983,-1.1715975555092095,2.0915338875889775
1684200793334273800,11.338273681640626,2.7607074063837524,-0.8565420105338096,1.5462021447792649
1684200793344298800,11.348298828125,2.239158397960663,-0.6145458565503359,1.3352204300016164
1684200793354323000,11.358322998046875,1.2667999508567154,-0.36117023041844365,1.1954907645329833
1684200793364348000,11.368347900390624,0.5004169346757232,-0.37284663968682286,1.2840738878712057
1684200793374371800,11.378371826171875,0.01359656367599964,-0.4813900165140629,1.3567784740760922
1684200793384396800,11.388396728515625,-0.25329313548021015,-0.6724556092053652,1.512849618014693
1684200793394421800,11.398421875,-0.19059965567998588,-1.040781556597352,1.5107944390505552
1684200793404446000,11.408446044921876,-0.06571421586088835,-1.4867080455422401,1.3468293269917369
1684200793414471000,11.418470947265625,0.058525838726758955,-1.7945231178700922,1.0794941490903496
1684200793424494800,11.428494873046875,0.25681911764927207,-2.2680963231533764,0.9437506306484341
1684200793434519800,11.438519775390626,0.7316555478014052,-2.579379948374629,0.6695058194890617
1684200793444543700,11.448543701171875,1.3567331736296415,-2.7686604112148285,0.2629100549355149
1684200793454569000,11.45856884765625,1.7690525765269993,-2.793316713565588,-0.1556464887857437
1684200793464594000,11.468593994140624,2.5690514465838667,-3.0086469789415595,-1.1710247240573166
1684200793474617600,11.47861767578125,3.5629122620522975,-2.8372072932183743,-2.4387384287580844
1684200793484642800,11.488642822265625,4.301202571693063,-1.9717583381295203,-4.228254824382066
1684200793494666800,11.498666748046874,3.4105975480377673,0.3511982869803905,-5.184145682418346
1684200793504691700,11.508691650390626,1.9442402166068553,3.2579671922028064,-4.995108965206146
1684200793514716000,11.5187158203125,0.5505027157068252,3.9409821893453594,-4.625037050929666
1684200793524740900,11.528740966796875,-0.9049357468247413,1.8689321699053048,-3.8548207401961085
1684200793534765800,11.538765869140626,-2.834488097387552,-0.4546691828489303,-3.5093215416401624
1684200793544789800,11.548789794921875,-5.222528896826505,-1.0016542458236217,-4.2903716733381145
1684200793554814700,11.558814697265625,-7.822678661507368,0.25208032562434673,-4.55054996522218
1684200793564839000,11.5688388671875,-8.45043412824273,1.7925526945799588,-2.5939818897008893
1684200793574864000,11.57886376953125,-5.155985755860805,2.2310943339705465,0.5697095204800368
1684200793584887800,11.5888876953125,-1.4642074599206447,2.0401006374716757,3.7450428531378503
1684200793594912800,11.598912841796874,-0.39452831014096734,2.176372563701868,5.769979239225387
1684200793604937700,11.608937744140626,0.1513467822978273,3.9462440553963183,5.859333931457996
1684200793614962000,11.6189619140625,0.08010989402532577,5.692560483980179,6.342599678716063
1684200793624987000,11.62898681640625,-2.2540824108481408,6.181321321523189,6.591581453803181
1684200793635010800,11.6390107421875,-3.3703777658522127,6.613456016480923,5.0113639344364405
1684200793645035800,11.649035888671875,-0.7795312515676021,5.814626774725317,0.771099815569818
1684200793655059700,11.659059814453125,2.8154771074473857,3.1330110252350565,-4.4900396746799345
1684200793665085000,11.6690849609375,5.148742360603809,0.741670015206933,-7.105321834301948
1684200793675110000,11.67910986328125,5.22686546472609,-1.5530466038465498,-7.421421335372329
1684200793685133800,11.6891337890625,4.370356187418103,-4.146172753500938,-6.079815588247776
1684200793695158800,11.69915869140625,3.5359687255471943,-4.119637797796726,-3.441808094337582
1684200793705182700,11.7091826171875,2.4145979669749735,-3.4199311935722827,-1.0156994300499558
1684200793715208000,11.7192080078125,0.8321510811209678,-2.091888107854128,0.2846794036731124
1684200793725232000,11.729232177734374,-0.39350890396535393,-0.7949152831822633,-0.3812251764535904
1684200793735257000,11.739257080078126,-0.9386024541050195,0.5523340227872133,-1.4848086416617035
1684200793745282000,11.749281982421875,-1.9315519999474287,1.3335253165215253,-1.7772037342786788
1684200793755306000,11.759305908203125,-1.70860658339262,1.217893442738056,-2.7743028010159727
1684200793765331000,11.7693310546875,-1.057883498045802,1.4821704021126032,-2.6047724560454486
1684200793775355100,11.779355224609375,-1.5246914469778536,2.447833297100663,-1.9146528875946998
1684200793785380000,11.789380126953125,-2.357835630789399,2.1326684465318917,-1.5980784624889492
1684200793795404300,11.799404296875,-2.6865841855525967,-0.03019698534309864,-0.44365269879400726
1684200793805429200,11.80942919921875,-1.925107646113634,-0.34467619173526765,0.6189148654147982
1684200793815454000,11.819453857421875,-0.2495107673972845,-0.7024713927626609,0.9293938962548971
1684200793825478100,11.82947802734375,1.298273385876417,-1.4205758234649897,1.011305286744237
1684200793835503000,11.839503173828126,2.435329789358377,-1.5772668528676033,0.7242328504547476
1684200793845527300,11.84952734375,2.9474808548390863,-1.0804548108160494,-0.019512509721517562
1684200793855552300,11.85955224609375,3.039966830834746,-0.24598785396814346,-1.0259075203314423
1684200793865576000,11.869575927734376,2.458327218586206,0.16475100173950194,-1.6621394312500952
1684200793875601200,11.87960107421875,1.7527005766630173,0.0625888503819704,-1.7686156464144587
1684200793885626000,11.889626220703125,1.0876701490223406,0.21027298198640346,-1.687846996219456
1684200793895650000,11.899650146484374,0.5885141741931438,0.5665671308010817,-1.494268836185336
1684200793905675300,11.90967529296875,0.19314707514047622,0.4248328475117683,-0.8103048677548765
1684200793915699000,11.919698974609375,0.22559388523697851,0.3969529069393873,-0.43180180974155663
1684200793925724000,11.929723876953124,0.2952186256051063,-0.042651393246650696,-0.13316636143028734
1684200793935748000,11.939748046875,0.14620880748801865,-0.20920447597205638,0.11378624591678381
1684200793945773000,11.94977294921875,0.020363582726055755,-0.2096750160932541,0.0666542001247406
1684200793955797200,11.95979736328125,-0.09945523048639297,0.08348843054771422,-0.14139087667912245
1684200793965822200,11.969822265625,-0.19396887638475746,0.49203591369092464,-0.31584348048269745
1684200793975847000,11.979846923828125,-0.3009644940470345,0.6640963616609573,-0.3059139148816466
1684200793985871000,11.98987109375,-0.3938414969205856,0.5654162072002887,-0.32413141635656356
1684200793995896000,11.99989599609375,-0.3300713277995586,-0.7453565947651862,-0.39287031380087134
1684200794005920300,12.009920166015625,-0.23563016261551528,-1.6956868960648774,0.20287614973336457
1684200794015945200,12.0199453125,-0.061882181683648375,-2.103459887704253,0.8257508586898445
1684200794025969200,12.02996923828125,0.14251809061076492,-1.6719938857883214,0.8045406051397324
1684200794035994000,12.039994140625,0.36039862499143926,-0.2823322560250759,-0.06355827993601561
1684200794046019000,12.05001904296875,0.3754150288701057,0.12860182999372483,-0.8356091126203536
1684200794056043300,12.060043212890625,0.31531682626008983,-0.09580898293852806,-1.7306158783659338
1684200794066068200,12.070068115234376,0.33183304024245586,0.21251345438957214,-2.813462260493636
1684200794076092000,12.080091796875,0.4416518803656101,0.6645803457856178,-3.1334979319691656
1684200794086117000,12.0901171875,0.42132571617364883,1.636813266813755,-2.9317832272306084
1684200794096141000,12.10014111328125,0.1394341531207785,1.4612018483638762,-2.170921312558651
1684200794106166000,12.110166015625,-0.015824176597595215,1.5644740067899225,-1.0977131118699908
1684200794116191200,12.120191162109375,0.15307342342734337,1.4241238713353872,-0.5085746682986617
1684200794126215200,12.130215087890624,0.38387656774520873,1.125329725331068,-0.170730076149106
1684200794136240000,12.140240234375,0.6303519129693508,1.0326420892834662,-0.15784019943773744
1684200794146264000,12.15026416015625,0.6234393571019172,0.3134755823075771,-0.3017152941480279
1684200794156289000,12.1602890625,0.5190600411515682,-0.6192272923648358,-0.2030722568273544
1684200794166313200,12.170313232421876,0.3671160601455718,-1.1221756452143192,0.04104483483284711
1684200794176338200,12.180338134765625,0.26797530243583023,-1.3811848933190107,0.43219957688748833
1684200794186363100,12.190363037109375,0.45132345261760054,-2.238599595034122,0.3079208707898855
1684200794196387000,12.200386962890626,0.7668645891528576,-3.9075779323935507,-0.11294365761280059
1684200794206412000,12.210412109375,0.6240601193487644,-2.0634394274830816,0.22684826921224593
1684200794216436200,12.220436279296875,0.5534908646721393,2.1174778916627166,0.8022253139346838
1684200794226461200,12.230461181640624,0.9644248776257037,3.965675901097059,1.273948215176165
1684200794236486100,12.240486083984376,0.5655342806220054,2.6081185516029595,1.0682616841971873
1684200794246510000,12.250510009765625,-0.2005647309858352,1.2545178307801483,1.2292547947078942
1684200794256535000,12.26053515625,-0.36136787188239394,0.9772925425052642,0.9591346622630953
1684200794266559200,12.270559326171876,-0.3437971438784152,1.177611701232195,0.3669982059195637
1684200794276584200,12.280584228515625,-0.18052366734556852,1.3453268134742975,0.036654198658466336
1684200794286608100,12.290608154296875,0.04239179246239364,1.0914736329585313,-0.32637656493484973
1684200794296633000,12.300633056640624,0.042110199042037125,1.10076402387321,-0.5692176453098654
1684200794306658000,12.310657958984375,-0.08786993356756866,1.2599369332194328,-0.8054708717271685
1684200794316682000,12.320681884765625,-0.09841821558885276,1.259617784267664,-0.7755351676687597
1684200794326707200,12.330707275390624,0.17722352982163428,1.1957552606880664,-0.46489743913561105
1684200794336731100,12.340731201171875,0.4793570493817329,1.3355331492125988,-0.44955081692188975
1684200794346756000,12.350756103515625,0.7449017636697739,1.3883563923835753,-0.6432879669100046
1684200794356780000,12.360780029296874,0.9202841226041316,1.5203426041185855,-0.5713046807169914
1684200794366805000,12.370804931640626,0.85825699775815,1.7820342231750488,-0.2827694783985615
1684200794376830200,12.380830322265625,0.8619570213198662,1.8819944805741309,0.2669800808534026
1684200794386854100,12.390854248046875,0.7381739897847175,1.939486884599924,0.506789246186614
1684200794396879000,12.400879150390624,0.5945149489779025,1.724110441994667,0.6762976715862751
1684200794406903000,12.410903076171875,0.43575873067378995,1.3836895696163176,0.6010352175921201
1684200794416928000,12.420927978515625,0.4711701627295464,0.9804144739180802,0.5058490427270531
1684200794426953000,12.430952880859374,0.49296245395131405,0.6364917308986187,0.42636049547046423
1684200794436977200,12.44097705078125,0.32890820230431855,0.590291120737791,0.3671808690100908
1684200794447002000,12.451002197265625,0.09522563009262085,0.9230079946100711,0.2661053438454866
1684200794457026000,12.461026123046874,0.04085457295775413,0.9748539171814918,0.27477146538197994
1684200794467051000,12.471051025390626,0.10668693530559539,0.3355576502561569,0.5893403958842158
1684200794477075200,12.4810751953125,0.12276479440331459,0.4277613021790981,0.6150377317205071
1684200794487100200,12.49110009765625,0.13272278238125146,0.7326186937451362,0.7469894566640257
1684200794497125000,12.501125,0.30313546314425766,0.5418365941703319,0.605541296839714
1684200794507149300,12.5111494140625,0.8423685237526893,0.759298026356101,0.014359364742040633
1684200794517174000,12.521174072265625,0.792183812391758,0.8486170627534388,-0.4382087541744113
1684200794527198000,12.531197998046874,0.3674806556742638,0.5396645108282566,-0.42138358384072777
1684200794537223200,12.54122314453125,-0.5382230798482894,0.14546645555496215,-0.05758885013759136
1684200794547247000,12.5512470703125,0.1984288149356842,-0.347534503775835,0.24958354037255048
1684200794557272300,12.561272216796874,0.8011666717272251,-0.23202421054542063,0.13475538418740032
1684200794567297300,12.57129736328125,0.45975214866902675,-0.2415098317712545,0.2507666126772761
1684200794577321000,12.581321044921875,0.013777107874676585,-0.3606891689032316,0.05382920534312725
