time,seconds_elapsed,z,y,x
1684201278490793000,0.02679296875,3.759768128582835,2.1026368808835745,-1.6432681420415638
1684201278500819000,0.03681884765625,4.252861442372202,0.781376002651453,-1.890919106916338
1684201278510846000,0.046845947265625,5.054872821295261,0.9933657254278659,-2.117900062597543
1684201278520872000,0.056871826171875,5.4258612658947705,0.9713327573180198,-1.3707998390354215
1684201278530898000,0.06689794921875,5.81822041530311,0.5667968479037284,-0.26940475071705877
1684201278540925000,0.076925048828125,5.055576585650444,0.32138650156259535,0.27459859303310513
1684201278550951000,0.086950927734375,3.304549495157599,0.0054985974162817,0.128597738340497
1684201278560978000,0.09697802734375,1.6850263858407735,-0.6590495996654033,-0.43071708324477076
1684201278571004000,0.10700390625,0.017030629777908323,-0.8521347154855727,-0.9019111383065581
1684201278581031000,0.117031005859375,-3.6326229271382093,-3.0609453214555975,-5.008917125806212
1684201278591057000,0.127056884765625,-3.5654444108784196,-3.1650615294903517,-6.435569054314493
1684201278601084000,0.137083984375,-1.3161696925729511,-0.13355126909464596,-1.8882307446151971
1684201278611110000,0.14710986328125,0.3604576982349157,1.1724822293892503,0.2597184375536628
1684201278621137000,0.157136962890625,0.25197043550908566,2.729589214542508,1.3407812789991498
1684201278631163000,0.167162841796875,-0.6069879885166883,3.1267595636248586,1.3731864419110118
1684201278641190000,0.17718994140625,-0.6786836899399757,2.375428278364241,0.11950663285758345
1684201278651216100,0.187216064453125,-0.378680168145895,1.5278344211786985,-0.8838719160079955
1684201278661242000,0.1972421875,-0.34635669216811654,1.3475000658601521,-0.9136658735081553
1684201278671268900,0.207268798828125,1.1695903073400258,1.9744284341216085,0.1282046473696828
1684201278681294800,0.217294921875,3.254358938577771,2.809832964080572,1.2795154939144848
1684201278691321900,0.22732177734375,4.792873743724822,2.735463659533858,1.8575258097499607
1684201278701347800,0.237347900390625,5.736775473281741,2.409990180918574,2.1215653071068226
1684201278711375000,0.247375,6.171582602319121,2.7257909913033247,2.5901357356667516
1684201278721401000,0.257401123046875,6.176543439596891,3.532255842503905,2.633059808374941
1684201278731427800,0.267427734375,7.351141345965861,3.5523464443743227,-1.0227519789099693
1684201278741453800,0.277453857421875,7.872340810298919,2.904967408758402,-9.759344643467664
1684201278751480800,0.287480712890625,8.67384307065606,7.210141806691885,-6.434404102188348
1684201278761507000,0.297507080078125,7.8988272506862875,9.596664602783322,-3.9200738413512703
1684201278771534000,0.3075341796875,6.558432632917166,9.063204207292198,-4.987615394580364
1684201278781560000,0.31756005859375,6.162345987418294,8.656409705296157,-5.301722845050692
1684201278791586800,0.3275869140625,6.390670174401998,8.87584214529395,-5.099007146576047
1684201278801612800,0.33761279296875,6.697433107328415,9.34123613577485,-4.965267953693867
1684201278811638800,0.347638671875,6.348665262365341,9.846547126102447,-5.250314729374647
1684201278821666000,0.357666015625,5.263590390533208,10.188362667709589,-5.530827953279018
1684201278831692000,0.367692138671875,3.1124668343782425,10.060932219582796,-5.185979327586293
1684201278841719000,0.377718994140625,1.1335903348065912,10.133032994675636,-4.223292233538627
1684201278851744800,0.387744873046875,1.0239584320902824,11.831090127003192,-3.4891935303688046
1684201278861771800,0.397771728515625,0.7152081247389316,12.700285867404936,-2.405854104027152
1684201278871798000,0.407798095703125,-0.27291337989252057,12.1680845320642,0.2685042216807604
1684201278881825000,0.417824951171875,-1.701805086684227,11.60748010905981,3.5372213559567927
1684201278891851000,0.42785107421875,-3.646335226148367,10.798078619885445,6.352776789337396
1684201278901877800,0.437877685546875,-4.467538212275505,9.458613391920924,7.925733377790451
1684201278911903700,0.44790380859375,-4.297112672030925,8.91838364842534,9.081865068620443
1684201278921931000,0.457930908203125,-3.8004748175024985,8.51779852246344,11.672446209967136
1684201278931957000,0.46795703125,-3.712828098231554,7.627019895806908,13.932076902592181
1684201278941983000,0.47798291015625,-4.620096087396145,6.141134272563457,15.329802011823654
1684201278952010000,0.488010009765625,-4.693681548088788,4.876443130554258,16.001013173925877
1684201278962036000,0.498035888671875,-2.8937574479579924,4.9221694012016055,15.577421850907802
1684201278972062700,0.508062744140625,-1.3687117807149887,5.078869198432565,15.005538493520021
1684201278982089000,0.5180888671875,0.08222820135354995,4.708772149714827,15.10354527876377
1684201278992116000,0.528115966796875,0.9474223048985004,4.402866710400581,15.438876134526728
1684201279002142000,0.538141845703125,1.4782365697950124,3.4078105476677414,15.618791972172259
1684201279012169000,0.5481689453125,1.798278086489439,1.8159277249485253,16.10552334971428
1684201279022195000,0.55819482421875,1.3190396950513124,-0.08538812668919563,16.287366940551994
1684201279032222000,0.568221923828125,1.3532802566967903,-1.9051584985405206,16.99848808823824
1684201279042248000,0.578248046875,2.065719647374749,-2.384441898164153,18.31713907623291
1684201279052275000,0.58827490234375,2.4574656333208083,-1.5963959162294863,18.330424089741705
1684201279062301000,0.598301025390625,2.611329330343008,-1.3217179743498564,17.277983075010777
1684201279072327000,0.608326904296875,2.101871887860447,-1.2384317883759737,15.751974115693569
1684201279082354000,0.61835400390625,1.3695664978481827,-1.3598480907797812,13.938326610636711
1684201279092380200,0.628380126953125,1.3897414170011877,-1.6006518201082944,12.173626968622207
1684201279102407000,0.638406982421875,1.7234300585150717,-0.8870283342123031,10.892164432293177
1684201279112433000,0.648432861328125,1.584853946995735,0.22091186490058898,10.041907201117276
1684201279122460000,0.6584599609375,0.3161643830001354,0.7007996601581573,9.455687859863042
1684201279132486000,0.66848583984375,0.8746177654504775,-1.2727625125229358,7.594768900543451
1684201279142513200,0.67851318359375,3.546638295860588,-3.842897078168392,6.9618883458793155
1684201279152539100,0.6885390625,3.6427009612992403,-2.971171527028084,7.606309700733423
1684201279162566100,0.698566162109375,3.707812608157098,-1.05801793808043,5.800344566872716
1684201279172592400,0.70859228515625,3.6636484722599385,-0.08181377533376216,1.5636743808448315
1684201279182619400,0.718619384765625,3.367195044162869,-0.570178891557455,-2.5875655929178
1684201279192645400,0.728645263671875,3.1743244478762147,-1.9923089587271212,-3.7836896869182586
1684201279202671400,0.73867138671875,3.464746194593608,-3.643578036394715,-3.429079545667767
1684201279212698000,0.748697998046875,2.8671812834605572,-3.74759896736145,-0.41214346180856226
1684201279222724000,0.75872412109375,4.597456677825749,-3.8759962146937843,-1.2646966949671505
1684201279232751400,0.76875146484375,5.6289878832578655,-4.454906694239377,-3.590688157728314
1684201279242777300,0.77877734375,4.7752319963112475,-4.2408577008455985,-3.9662230135858056
1684201279252804400,0.788804443359375,2.4691829591214653,-3.9017631086349485,-2.7191666047275063
1684201279262830300,0.798830322265625,0.4146434619307518,-3.5999341249793764,-2.2851164315372703
1684201279272857000,0.808857177734375,-0.7554813906773924,-2.2773469665795565,-1.7329688712328672
1684201279282883300,0.81888330078125,-0.26293168224543334,-1.930743606173992,-3.6552801646262405
1684201279292910300,0.828910400390625,0.8659919759243726,0.9406775068134069,-3.6146623230338095
1684201279302936300,0.838936279296875,0.47579146585464477,2.2656126896440982,-5.151526438364386
1684201279312963300,0.84896337890625,-0.366926894249022,1.4363392097860574,-4.150655451872945
1684201279322989300,0.8589892578125,0.4074360147699713,1.7671330066412687,-3.379772786185145
1684201279333016300,0.869016357421875,0.7011503732919693,2.7383126192241907,-3.2675621190220117
1684201279343042300,0.879042236328125,-1.3825599810644984,3.155316380545497,-1.837549189648032
1684201279353068300,0.889068359375,-4.540986894845962,3.5973195585668085,-1.2327712783962488
1684201279363095300,0.89909521484375,-4.8745688611149784,3.3603438630938527,-1.2100392221063374
1684201279373121300,0.909121337890625,-3.4934289759814736,1.9629034160226582,-0.6914291897445917
1684201279383148300,0.919148193359375,0.244957341876626,-0.575510900235176,-0.7447130361646414
1684201279393174500,0.929174560546875,1.8670161071509122,-2.359748770934343,-1.730624938455224
1684201279403201300,0.939201171875,1.7140771237581967,-1.384746385192871,-3.715386550542712
1684201279413227300,0.949227294921875,2.04013892365545,0.6512900715798139,-6.7157274734318255
1684201279423254300,0.959254150390625,0.8853542635202407,1.831347996920347,-8.174753731322289
1684201279433280300,0.9692802734375,-0.38538200387209653,2.1874328868985176,-6.906710064014792
1684201279443307500,0.9793076171875,-1.54628573140949,1.849752253139019,-4.022552219051122
1684201279453333500,0.98933349609375,-2.1965692562952635,0.5734083749979734,1.0794774902164936
1684201279463360300,0.9993603515625,1.7424729048982261,-2.38715174164474,8.122333808255195
1684201279473386200,1.00938623046875,3.851300457115471,-4.520986893868446,14.050370104539393
1684201279483412200,1.019412109375,1.9752844664290545,-3.787271052536368,11.18173774548769
1684201279493439200,1.029439208984375,1.9791130848065017,-0.7179799275398254,4.753592703694105
1684201279503465500,1.039465576171875,1.2603671413302422,1.3629437187075615,1.1869947388663886
1684201279513492200,1.0494921875,0.25159049628078933,1.5153823513627052,-0.14743161814808844
1684201279523518200,1.059518310546875,-0.47506519740670916,0.30436873126626013,0.5549354374572635
1684201279533545200,1.069545166015625,-0.05300590626150369,-1.9579998618900776,1.997467948925495
1684201279543571200,1.0795712890625,1.6535314696416257,-4.402158269870281,2.7805975172460076
1684201279553598500,1.089598388671875,2.5919457076981662,-5.885397177997231,2.5418027896523476
1684201279563624400,1.09962451171875,2.565582309168577,-6.452121545186638,2.7204712575852867
1684201279573651200,1.109651123046875,2.702697408224642,-6.553562981054187,3.1098592822283506
1684201279583677200,1.11967724609375,2.6122642731055614,-7.343843590173125,3.402621454592049
1684201279593704200,1.1297041015625,2.460013856498897,-8.221687331932783,2.599754627883434
1684201279603730200,1.139730224609375,3.026988691318035,-7.213701545000076,0.32118250342309473
1684201279613756400,1.14975634765625,2.828988623188436,-6.726806501328944,0.033955461093783376
1684201279623783400,1.159783447265625,2.2148360037393866,-7.451210908958315,0.8651105169147253
1684201279633809400,1.169809326171875,0.7303953186072408,-7.1192352088421575,-0.22561025184988975
1684201279643836200,1.179836181640625,-0.4059808475255966,-5.258617278295755,-1.3953782538443802
1684201279653862100,1.189862060546875,-0.6502098751276731,0.9300339477241039,-3.7029122688949108
1684201279663889400,1.199889404296875,-0.8017705559045076,6.10035977910459,-3.6766041076838967
1684201279673915400,1.209915283203125,-3.051912120172381,8.349356264990568,-3.586661386430263
1684201279683942400,1.2199423828125,-4.463508518368005,8.627997265282273,-1.910836544176936
1684201279693968400,1.229968505859375,-3.1876667445302007,7.652447182530164,0.5170797540545463
1684201279703995100,1.2399951171875,-0.1105465333431959,5.640060481414198,1.6998048527777194
1684201279714021000,1.250021240234375,1.0620839454103261,5.875801082134246,0.3668272332668304
1684201279724048400,1.26004833984375,1.4922469749689102,4.408512022811174,-0.09728373166620731
1684201279734074400,1.270074462890625,1.7303052049815655,3.040174336105585,0.12019640522003174
1684201279744101400,1.280101318359375,1.4392349312275647,1.6185235768854618,-0.5906897646665573
1684201279754127400,1.29012744140625,0.7654255693256855,0.5403600918769836,-2.3298311870545145
1684201279764153300,1.3001533203125,-0.5584054151227698,1.2834417274475096,-3.108457598736882
1684201279774180400,1.310180419921875,-1.0813315936505794,2.383268762731552,-3.1621307367354627
1684201279784206300,1.320206298828125,-0.7660165209561586,1.6071265690803527,-1.2295137379050254
1684201279794233300,1.3302333984375,-0.5930962412863969,2.265754728463292,2.2897657186478373
1684201279804259300,1.34025927734375,-0.8017769856452941,4.303662239804864,4.242528264406324
1684201279814286300,1.350286376953125,-2.0488333945035935,5.449477703803777,4.676291437348723
1684201279824312300,1.360312255859375,-3.308227891409397,4.914155021572113,3.632977147403359
1684201279834339300,1.37033935546875,-3.661767773079872,2.614037420257926,1.5693454122185706
1684201279844365300,1.380365234375,-2.3576456611752508,0.988320716997981,-0.03750409348607063
1684201279854392300,1.390392333984375,-0.42669630329608915,0.24941139867603776,-1.076224041378498
1684201279864418300,1.400418212890625,1.3857494247555733,0.2631687058717012,-1.5587696576684713
1684201279874445300,1.4104453125,1.599574546265602,0.20341829378604886,-1.3822440469831228
1684201279884471300,1.42047119140625,0.7811854485154152,-0.2184445980042219,-1.6465291896641254
1684201279894497300,1.430497314453125,-0.3312965222129598,-1.289200437104702,-2.262834457102418
1684201279904524300,1.440524169921875,0.004607201534509659,-1.356681735703349,-0.9138064510226249
1684201279914550300,1.45055029296875,0.5031354729194194,-4.696597143274546,3.2054011386632917
1684201279924577300,1.460577392578125,0.06795651489496231,-6.528306959244609,4.664803244128823
1684201279934603300,1.470603271484375,-0.6743313399493694,-6.913554815343022,3.8431794022411108
1684201279944630300,1.48063037109375,-1.58491941344738,-6.9756526673376555,3.892377440652251
1684201279954656300,1.49065625,-1.9265888245821,-7.4630574140965935,2.7405653665870426
1684201279964683300,1.500683349609375,-2.2420997121095656,-6.2933069477587935,0.08506722417175769
1684201279974709200,1.510709228515625,-2.4205647664248944,-5.96143470801711,-2.0177806691139937
1684201279984736300,1.520736328125,-1.9292156659543513,-5.370958293840289,-3.6113223649561403
1684201279994762500,1.530762451171875,-1.5484335570931433,-3.4429286228001117,-4.829211131519079
1684201280004789200,1.540789306640625,-1.5539590425163508,-0.8862696247994899,-4.982222595626116
1684201280014815200,1.550815185546875,-2.3466373604267834,1.1513590696007012,-4.62700572065413
1684201280024841200,1.56084130859375,-2.302271564477682,1.9144617489367721,-4.76063385437727
1684201280034868200,1.5708681640625,-1.2234137405294925,0.7139981644272804,-4.14402463555634
1684201280044894200,1.580894287109375,-0.02477203768491745,1.8401719393670557,-2.7897996453553437
1684201280054921500,1.59092138671875,-1.0104729275733233,5.445964727246761,0.36865444869399067
1684201280064947500,1.600947509765625,-2.5889216837018725,7.657650596392155,2.831816247829795
1684201280074974200,1.61097412109375,-2.9662124433159827,7.178436170351505,4.244924804154039
1684201280085000200,1.621000244140625,-2.731463776242733,4.785023030224442,6.25457652734816
1684201280095027200,1.631027099609375,-1.3883236591577528,1.362618140015006,6.873407513871789
1684201280105053200,1.64105322265625,-0.1648836882084608,-0.6783528505504131,5.921008589604496
1684201280115080400,1.65108056640625,-1.789036795413494,-5.760714567273855,1.4583856218993663
1684201280125106400,1.6611064453125,0.5388995178051292,-5.822485087010264,-3.1758155632168052
1684201280135133200,1.67113330078125,2.7258511970579624,1.1531862850278616,-5.89627103871107
1684201280145159200,1.6811591796875,3.741991064351797,4.774232756140828,-6.819270850014687
1684201280155184600,1.6911845703125,5.557208010682463,5.805500049939751,-3.844883868071437
1684201280165211600,1.701211669921875,6.3229141505151985,5.580499454420805,-0.1561398252606392
1684201280175237600,1.711237548828125,5.572996531444788,4.020607514724135,2.539565824380517
1684201280185265000,1.721264892578125,5.598102915650606,1.368500183790922,3.2919097938150164
1684201280195291000,1.731290771484375,4.929661218261718,-2.85019536960721,2.444590369656682
1684201280205317600,1.741317626953125,1.6127587297484278,-1.6572002212822436,4.536376186180115
1684201280215343600,1.751343505859375,-0.6057672145500779,-0.128968909740448,4.041361548939347
1684201280225370600,1.76137060546875,-0.5684603972017764,0.8054489521563053,0.8292717262923717
1684201280235396600,1.771396728515625,-0.6410128615848719,3.58994990658164,-2.6102637469381094
1684201280245423900,1.781423828125,-1.0930310915336012,5.673751738613843,-5.28628562194407
1684201280255449900,1.791449951171875,-1.8160989898622035,4.237693683856725,-6.966904712736606
1684201280265476600,1.8014765625,-1.9858067372262476,1.8865473215728996,-6.724976947814226
1684201280275502600,1.811502685546875,-1.2906798620074986,-1.6038631833702326,-5.617288677635789
1684201280285528600,1.821528564453125,-0.6590278262250125,-1.9561556953281163,-2.9425211866050955
1684201280295555800,1.831555908203125,-1.2895382907569408,0.9632482350617647,-0.39418753387928007
1684201280305581800,1.841581787109375,-2.023080529087782,2.762199106246233,0.7566922277718782
1684201280315608800,1.85160888671875,-2.115343071591109,2.1052572925150392,0.8571274092063307
1684201280325634800,1.861634765625,-1.9950358994729815,1.9494559054285288,1.4902791820272803
1684201280335661600,1.87166162109375,-1.5339951357655226,1.6612456972807645,2.1226056099399924
1684201280345687600,1.8816875,-0.2948527149021625,0.6163841778934002,2.2312325733974574
1684201280355714800,1.89171484375,-0.012713278035447001,0.39191900442540645,2.931826481850445
1684201280365740800,1.90174072265625,-0.14837737456560135,0.08117956908345222,2.513577981165051
1684201280375767800,1.911767822265625,-0.6219295370608567,-0.5811509519487619,1.066876659579575
1684201280385793800,1.921793701171875,-0.8512398124724626,-1.2168208450704812,-0.6047106912344694
1684201280395820500,1.931820556640625,-1.206367840117216,-1.1696569428354502,-2.092768690080941
1684201280405846800,1.9418466796875,-1.342466747868061,-1.9408692788690327,-2.3359996465563775
1684201280415873800,1.951873779296875,-1.1510077719449996,-2.791210681197047,-1.6636036585837601
1684201280425899800,1.961899658203125,-0.6821078191697597,-2.8559236841261386,-1.4382400749713182
1684201280435925800,1.97192578125,-0.28548984327316285,-1.8813877468526363,-1.094930203153193
1684201280445952800,1.981952880859375,-0.2517676064133644,-0.7586100440919399,-0.7765989975079893
1684201280455978800,1.991978759765625,-0.1922281336646527,0.33249826268553734,-0.6162158355891704
1684201280466005800,2.002005859375,0.15639825700111687,0.8548463125318289,-1.018202060520649
1684201280476031700,2.01203173828125,0.5443161360263824,1.2625088295340536,-1.0090896565213798
1684201280486058800,2.022058837890625,0.9373451475203036,1.2745745303809641,-0.39994039831757544
1684201280496084700,2.032084716796875,3.117254653176665,0.7439040578693151,1.3454606689870356
1684201280506111700,2.04211181640625,8.04869164893925,0.5450251610785722,3.648597325861454
1684201280516137700,2.0521376953125,6.3377826338231555,-0.324290990832448,4.207591683320701
1684201280526164700,2.062164794921875,0.8524721307463944,-1.1060217982709408,2.742944370678067
1684201280536190700,2.072190673828125,-1.4193399980597197,-1.121640807685256,0.6747969116345047
1684201280546217700,2.0822177734375,-1.7486287971794605,-1.45297002659142,-0.3580085515171289
1684201280556243700,2.09224365234375,-1.934718355023861,-1.908824035310745,-0.6327265331462025
1684201280566270700,2.102270751953125,-1.8571014468580482,-2.0170178680479527,-0.236794201426208
1684201280576296700,2.112296630859375,-1.7313976763933896,-0.9412772262722253,0.8872752947106957
1684201280586322700,2.12232275390625,-1.2033615709733216,0.1464087048411369,1.688802104987204
1684201280596349700,2.132349609375,-0.8818874641925096,1.087680670416355,2.3547367879912255
1684201280606375700,2.142375732421875,-0.5071988499008119,1.8509797491073607,2.86424815261811
1684201280616402700,2.152402587890625,-0.0904207140289247,2.285059732913971,3.233046393696964
1684201280626428700,2.1624287109375,0.544794274932146,2.168746891129017,3.1033909629970786
1684201280636455700,2.17245556640625,1.1764128468364476,1.721394753295183,2.324746138875186
1684201280646481700,2.182481689453125,1.406728061506897,1.0817267304480076,1.2325517904266714
1684201280656508700,2.1925087890625,1.1238728045210242,0.4620429264873266,0.3299555924654007
1684201280666534700,2.20253466796875,0.7644049941062927,-0.009452303478121756,-0.22033991023153066
1684201280676562000,2.21256201171875,0.50670814377442,-0.295816006976366,-0.45633185536414383
1684201280686588000,2.222587890625,0.29410028909966346,-0.4224497517675161,-0.44396307991743084
1684201280696614700,2.23261474609375,0.08895736347809434,-0.4717115030646324,-0.2579036249503493
1684201280706640600,2.242640625,-0.15012377984151243,-0.4269990856349468,0.008354863630235194
1684201280716666600,2.25266650390625,-0.3254050895541906,-0.3042921588987112,0.27352351114749907
1684201280726693600,2.262693603515625,-0.3712994102448225,-0.19398703309595583,0.38893881957083937
1684201280736719600,2.2727197265625,-0.28617592584118245,-0.1174397999882698,0.4331888801857829
1684201280746747000,2.282746826171875,-0.11091142113283275,-0.12864274652600288,0.39106180307418104
1684201280756772900,2.29277294921875,0.06335632762312889,-0.16350480107069015,0.4443739988058805
1684201280766799600,2.302799560546875,0.25459610783755776,-0.22580723572671413,0.4887380411893129
1684201280776825600,2.31282568359375,0.40216465023830533,-0.2330886249065399,0.6116498428478837
1684201280786852900,2.322852783203125,0.49516909715011714,-0.21574878304898737,0.8253782259851694
1684201280796878800,2.33287890625,0.5642987474776804,-0.3073603142976761,1.009240755429864
1684201280806905900,2.34290576171875,0.6144681151390076,-0.45551732411086554,1.1693459771901369
1684201280816931800,2.352931884765625,0.6720267162688076,-0.5273825368821621,1.273043667551875
1684201280826958600,2.36295849609375,0.7678158254630864,-0.5874240408688783,1.2285554142668842
1684201280836984600,2.372984619140625,0.8259704927898943,-0.6432903049975633,1.223137773132324
1684201280847010600,2.383010498046875,0.8446909753508866,-0.635834728294611,1.2793217249080537
1684201280857037800,2.393037841796875,0.8708296252138912,-0.6802905406147242,1.2851874020710587
1684201280867063800,2.403063720703125,0.9289268632650375,-0.7875134824931621,1.1554574448302388
1684201280877090800,2.4130908203125,0.980756419223547,-0.8169558500766754,1.0359031369060276
1684201280887116500,2.423116455078125,0.9741801095731556,-0.7570382647305727,0.9841802561923861
1684201280897143600,2.4331435546875,0.958721113026142,-0.669371087193489,0.9243219998180866
1684201280907169800,2.443169677734375,0.8533774090230465,-0.4627016826570034,0.9917872240647673
1684201280917196800,2.45319677734375,0.7168377717673778,-0.25453940921425816,1.0151064325928687
1684201280927222800,2.463222900390625,0.5023340203434229,-0.11565583918094634,1.171044597801566
1684201280937249500,2.47324951171875,0.3382056805469095,-0.020483400580286977,1.211548749886453
1684201280947275500,2.483275634765625,0.180856187235564,-0.050285249125957485,1.1864914655193686
1684201280957302800,2.493302734375,0.029454642543196675,-0.14118658627867697,1.026939493727684
1684201280967328800,2.503328857421875,-0.11151099446117878,-0.2678495571643114,0.8232780388355254
1684201280977355800,2.513355712890625,-0.2405085457742214,-0.3669593352138996,0.6706067664682864
1684201280987381800,2.5233818359375,-0.3758265322804451,-0.3162988230347633,0.6064575349017978
1684201280997407700,2.53340771484375,-0.5062444717854261,-0.1989899559497833,0.6910659093901514
1684201281007434500,2.5434345703125,-0.5911883618384599,-0.11839140162467957,0.8143190718322992
1684201281017460700,2.553460693359375,-0.6510572857372462,-0.09465630577206612,0.9905527138337492
1684201281027487700,2.56348779296875,-0.6477759259790181,-0.1824596769094467,1.192650864931941
1684201281037513700,2.573513671875,-0.5956918107375502,-0.38677170466482635,1.3348255854651332
1684201281047540700,2.583540771484375,-0.5027072375699877,-0.6330933206319809,1.45393068831712
1684201281057566700,2.593566650390625,-0.42875966556668277,-0.773141842791438,1.6053788486301899
1684201281067593700,2.60359375,-0.40552828145250674,-0.7118108835160731,1.8065464408800005
1684201281077619700,2.61361962890625,-0.4139019959136843,-0.6111141285359859,1.9914394824162125
1684201281087646700,2.623646728515625,-0.3300362564861774,-0.5460001435905695,2.1445918162986635
1684201281097672700,2.633672607421875,-0.22272212919294831,-0.4460603444576263,2.247615845182538
1684201281107699700,2.64369970703125,-0.010127718521654606,-0.24674071816205978,2.2355036748453974
1684201281117725700,2.6537255859375,0.1683300292700529,0.08386486264467238,2.2437375424444674
1684201281127752000,2.663751953125,0.3971615812540054,0.5475906276524066,2.1400150099024176
1684201281137778700,2.67377880859375,0.7009079428382218,1.0676777468293905,2.0756237862735984
1684201281147804700,2.6838046875,1.1551906105875969,1.480932384750247,1.9554349798381327
1684201281157832400,2.69383251953125,2.0080496948249635,1.6413649387687443,1.8150851366445422
1684201281167858400,2.7038583984375,3.782161162176728,1.6433213335335253,1.6981635153114796
1684201281177885200,2.71388525390625,6.009101299077272,1.570346113693714,1.8721981859639285
1684201281187911200,2.7239111328125,5.882414362794161,1.4318196865350008,1.9810007982492446
1684201281197938200,2.733938232421875,4.26648138692379,1.4635498727947474,1.7535703452348708
1684201281207964400,2.74396435546875,2.888658078992367,1.593175785139203,1.7361498393565415
1684201281217991400,2.753991455078125,1.8381763816356658,1.6992559867233037,1.8479826131179928
1684201281228017400,2.764017333984375,1.046197736427188,1.9399580092430113,1.7412284577950834
1684201281238044200,2.774044189453125,-0.01980184805691242,1.9991087018698452,1.204675941507518
1684201281248070100,2.784070068359375,-1.5325602806568144,1.8928274247556924,1.0833303662523626
1684201281258096000,2.79409619140625,-2.516944242727756,1.5115215842813252,1.0563584804356096
1684201281268123400,2.804123291015625,-2.8152666795670984,1.1383616408616304,0.5554448482841253
1684201281278149400,2.8141494140625,-3.415976318466663,0.7654074491471051,-0.016240648443996905
1684201281288176400,2.82417626953125,-3.8225849425017833,0.753654467511177,-0.3469841764166951
1684201281298202400,2.834202392578125,-4.687625901311636,0.9185492616355418,-0.5565878808394074
1684201281308229000,2.84422900390625,-4.632053067171573,1.3169061901539563,-0.09676467622816562
1684201281318255000,2.854255126953125,-3.581182078236341,1.6019699169695376,0.7212842297822236
1684201281328282400,2.864282470703125,-2.345759993070364,1.6324591632574796,1.3954092335045336
1684201281338308400,2.874308349609375,-1.7148469390869139,1.7184809116750954,1.7757009285002945
1684201281348335400,2.88433544921875,-1.3605847344912587,2.0079121860504148,2.2633201947927475
1684201281358361300,2.894361328125,-1.0828960664883256,2.1617741295069455,3.0602216833561657
1684201281368388400,2.904388427734375,-1.2599791649259626,1.7713550082504748,3.0937638874739406
1684201281378414300,2.914414306640625,-1.8515490734279154,1.1957950081765651,2.726049934500456
1684201281388441300,2.92444140625,-2.155906406517327,0.4003934027820825,2.1499726325541735
1684201281398467300,2.93446728515625,-2.1437863451346755,-0.05504617991745472,1.1655009921997785
1684201281408493300,2.944493408203125,-1.9911796624362468,0.07151859129071235,-0.09879004457592963
1684201281418520300,2.954520263671875,-1.7440367932140826,0.3123071230500936,-1.2824819425046443
1684201281428546300,2.96454638671875,-1.6985925543785094,0.270489258018136,-2.2993945477366444
1684201281438573300,2.9745732421875,-1.843769379337132,0.3953571621805429,-3.1706741086751222
1684201281448599300,2.984599365234375,-1.7739514544844626,0.6475508850514888,-3.8572751476109026
1684201281458626300,2.994626220703125,-1.4682663799226283,0.6292652867764235,-4.212421295434236
1684201281468652300,3.00465234375,-1.274848671147227,0.37093876023888583,-4.313902478790283
1684201281478679300,3.01467919921875,-1.169190786628425,-0.11267419302165507,-4.358054339727759
1684201281488705300,3.024705322265625,-1.1450944562479852,-0.6544926670134067,-4.110048716196418
1684201281498732300,3.034732177734375,-1.3703507800936698,-0.9771657012552022,-3.752528240457177
1684201281508758300,3.04475830078125,-1.6241118984118104,-1.1174357572108506,-3.483881395435333
1684201281518785300,3.054785400390625,-1.6868822428405283,-0.9211346019536256,-3.2973762425273656
1684201281528811300,3.064811279296875,-1.5716484284639358,-0.5658750568836927,-3.1206875502347944
1684201281538837200,3.074837158203125,-1.250952539514005,-0.27911387850046154,-2.926610500767827
1684201281548864300,3.0848642578125,-0.8514844348832964,-0.10774901157915591,-2.6075515653699637
1684201281558890200,3.09489013671875,-0.7036737542897462,-0.11591419785618781,-2.2519828082203865
1684201281568917200,3.104917236328125,-0.722947194558382,-0.2859820107042789,-1.8419944786190985
1684201281578943200,3.114943115234375,-0.8142378232896328,-0.4901595984250307,-1.566315835264325
1684201281588970200,3.12497021484375,-1.0637979827865958,-0.6659913816273212,-1.4804256042718886
1684201281598996500,3.13499658203125,-1.3431310569956898,-0.782884653648734,-1.6188555853188038
1684201281609023200,3.145023193359375,-1.5792191559791564,-0.9453905068099498,-1.8460007916510104
1684201281619049200,3.15504931640625,-1.7380395986258983,-1.2611445554435252,-2.0657856983482836
1684201281629076200,3.165076171875,-1.7763126306578516,-1.6133511426836251,-2.230871631130576
1684201281639102200,3.175102294921875,-1.647119264511764,-1.882197309669852,-2.3218793512672184
1684201281649129500,3.18512939453125,-1.33002929109931,-1.9673153872460125,-2.309061370748281
1684201281659155500,3.195155517578125,-0.9479872453048824,-1.8299077349841593,-2.1864444603830573
1684201281669182200,3.20518212890625,-0.5389008329793811,-1.4636071559399366,-1.9306366386681795
1684201281679208200,3.215208251953125,-0.14179215095639228,-1.0753086800992488,-1.5781944891065358
1684201281689234200,3.225234130859375,0.14887772530317306,-0.7833201224565506,-1.1548755532890558
1684201281699261200,3.23526123046875,0.18733546625226735,-0.5916524722188711,-0.7068155594468116
1684201281709287400,3.245287353515625,0.10147300004959106,-0.4917313777863979,-0.3252677269101143
1684201281719314400,3.255314453125,0.007065846733003854,-0.4633014021158218,-0.005880290210247039
1684201281729340400,3.26534033203125,-0.11695932299494742,-0.29018121595978735,0.3009060235917568
1684201281739367200,3.2753671875,-0.22153744945302603,-0.12239771465659141,0.6609650778979063
1684201281749393200,3.28539306640625,-0.30182036195769907,-0.009365209716558456,1.0608224741071461
1684201281759420400,3.29542041015625,-0.22366861626282333,-0.022996260184049606,1.397722771143913
1684201281769446400,3.3054462890625,0.06426584368348122,0.01230301673412323,1.585820161679387
1684201281779473400,3.315473388671875,0.27867775210551915,0.07534545610249042,1.588901176559925
1684201281789499400,3.32549951171875,0.416440172621794,0.11088029534220695,1.460674609619379
1684201281799526100,3.335526123046875,0.6242740543603896,0.0847229407787323,1.2641250325590372
1684201281809552100,3.34555224609375,0.8631693197190761,-0.05359656563103199,1.0170148965626955
1684201281819578400,3.355578369140625,1.0143956539750099,-0.18442600854635238,0.684238985979557
1684201281829605400,3.36560546875,1.2000187633514403,-0.2758183440864086,0.3199894942462444
1684201281839631400,3.37563134765625,1.4012521143138408,-0.2306786411553621,0.04279284754395485
1684201281849658400,3.385658447265625,1.460762287902832,0.09505553422272205,-0.032575989434123036
1684201281859684400,3.395684326171875,1.2531576483428477,0.39409634846448893,0.04275836075246334
1684201281869711400,3.40571142578125,0.9108674749612807,0.6824158622056246,0.2115525004029274
1684201281879737300,3.4157373046875,0.5283119266867637,1.0234820467501877,0.42722938725948334
1684201281889764400,3.425764404296875,0.20394081982281057,1.4641589446038006,0.7115899342417716
1684201281899790300,3.435790283203125,0.0052543403316289185,1.9967507405668496,1.129667754535377
1684201281909817300,3.4458173828125,0.1277660002240911,2.572541042265296,1.545517085124552
1684201281919843000,3.455843017578125,0.6550286735862493,2.9215491257250306,2.0014783536106346
1684201281929870300,3.465870361328125,1.7470780606061218,2.8254829531550407,2.5100644200861453
1684201281939896300,3.475896240234375,2.8178064271777865,2.5660282993704078,3.0187551159799098
1684201281949923300,3.48592333984375,2.891928478965163,2.44213187058866,3.377827497336268
1684201281959949300,3.49594921875,2.460463061571121,1.9900743315428495,3.4885257141098376
1684201281969975300,3.505975341796875,1.7546622321248053,0.9038976359486579,3.1048738950312136
1684201281980002300,3.516002197265625,0.9518097262024879,-0.3557476208478212,2.155077554477751
1684201281990028300,3.5260283203125,0.38691023635268207,-1.2423013232856988,1.241855333083868
1684201282000055300,3.53605517578125,-0.08704520971383899,-1.7074007147341965,0.5744540846586227
1684201282010081300,3.546081298828125,-0.6466244178563356,-1.8020155194520948,-0.030549744303524494
1684201282020108300,3.5561083984375,-1.161719720095396,-1.5552257014513016,-0.6789090231284499
1684201282030134300,3.56613427734375,-1.548169353199005,-1.1911240937560796,-1.105105560208857
1684201282040161300,3.576161376953125,-1.7620318841099738,-0.6752876177608966,-1.1914429504469037
1684201282050187300,3.586187255859375,-1.7646283303439616,-0.14233224918246268,-1.0499240634739397
1684201282060214300,3.59621435546875,-1.5991197882354258,0.2995294745415449,-0.6839961171343922
1684201282070240300,3.606240234375,-1.3559697880417108,0.5146107335925102,-0.3890560162097215
1684201282080267300,3.616267333984375,-1.0440484494388103,0.5290875872343779,-0.040346915696561333
1684201282090293500,3.62629345703125,-0.5944161282459274,0.3829834182977676,0.32621611367613074
1684201282100319500,3.636319580078125,-0.12930033365190027,0.1376256789267063,0.5484931294500828
1684201282110346200,3.64634619140625,0.28468678326196967,-0.2248971351444721,0.7228942953273654
1684201282120372200,3.656372314453125,0.6151146694142371,-0.5482476302564144,0.7597367100343108
1684201282130399200,3.666399169921875,0.8092571122676133,-0.6086784258216619,0.6779281953975558
1684201282140425200,3.67642529296875,0.7945721688330173,-0.5987374620437622,0.33566666358858344
1684201282150452500,3.686452392578125,0.6995949605435132,-0.7060679559499025,-0.0425008788600564
1684201282160478000,3.69647802734375,0.6084440690765157,-0.8112351343423128,-0.35489188080132006
1684201282170505000,3.7065048828125,0.3740917078444734,-0.847632143369317,-0.5101198519140482
1684201282180531000,3.716531005859375,0.04976856830809265,-0.7906167092055082,-0.5463076021045447
1684201282190558000,3.726557861328125,-0.3252753256946802,-0.547414686563611,-0.5358183567941188
1684201282200584000,3.736583984375,-0.7494213599860667,-0.29442542940080163,-0.44210517709106206
1684201282210611000,3.74661083984375,-1.019354153165221,-0.02192249347269535,-0.33463439793139693
1684201282220637000,3.756636962890625,-1.6820254504591226,0.2494675127774477,-0.07361176417768
1684201282230663000,3.766662841796875,-2.9398563513100147,0.4391068720579147,0.7150310146063565
1684201282240690000,3.77668994140625,-3.602936229404807,0.6476368097692727,1.1019114403426646
1684201282250716000,3.7867158203125,-3.0874247475802896,0.8602566471427678,1.0241095309987664
1684201282260743000,3.796742919921875,-1.552307768177986,1.0979489664524793,0.49552930876463647
1684201282270769000,3.806768798828125,-0.08887125609721988,1.0199725773245096,0.014359657002985476
1684201282280796000,3.8167958984375,0.48369478632509705,0.567849571827054,-0.218412741561234
1684201282290822100,3.826822265625,0.5249245492707938,0.2046756003707647,-0.2106891615718603
1684201282300849000,3.836848876953125,0.5591571468055248,0.03331014892756939,-0.10632482399493455
1684201282310875000,3.846875,0.8511556413203477,0.0019259996265172958,-0.32835078761726616
1684201282320902000,3.85690185546875,0.9924678998053074,-0.013902853146195411,-0.5844441482752561
1684201282330927900,3.866927978515625,0.9455880752086638,-0.13056816163063048,-0.6993062067300081
1684201282340955100,3.876955078125,1.0513784270007163,-0.20499708741009234,-0.7653060345992445
1684201282350981000,3.886981201171875,1.0252947221953421,-0.2668178760290146,-0.7195338789835571
1684201282361007900,3.8970078125,0.7155974163174629,-0.24723814629018306,-0.6910653248682618
1684201282371033900,3.907033935546875,0.26555530874729155,-0.3145616239786148,-0.689259444490075
1684201282381059800,3.917059814453125,-0.28485096084773537,-0.3641530456215143,-0.5697545286655425
1684201282391086800,3.9270869140625,-0.7421627671599388,-0.21697452545166016,-0.26975188365429636
1684201282401113000,3.937113037109375,-0.9744605339497328,-0.01053659158349037,0.1793199175789952
1684201282411139800,3.947139892578125,-0.7618779598467051,0.02664952199459076,0.5228685665890574
1684201282421165800,3.957165771484375,-0.20331658697724342,-0.12172083830833434,0.5817880808085203
1684201282431192800,3.96719287109375,0.2471400196779519,-0.31365678409337994,0.7020420614346862
1684201282441218800,3.97721875,0.5342874939650297,-0.3706505909472704,0.7326651632353663
1684201282451246000,3.98724609375,0.5432518677957355,-0.24588439359366893,0.6846355840817093
1684201282461272000,3.99727197265625,0.41805363570041953,0.039136078602075575,0.3782876616969704
1684201282471298800,4.007298828125,0.24955526412613688,0.16162614771723746,0.019088439090549945
1684201282481324800,4.01732470703125,0.07953304398544132,0.13038754436671732,-0.16602613624185322
1684201282491351800,4.027351806640625,-0.1407236449420452,0.04625555521845817,-0.26250118187367916
1684201282501377800,4.037377685546875,-0.26827384699098766,-0.05103460618853569,-0.4379746531575918
1684201282511404000,4.047404052734375,-0.32842706772387026,-0.11808569667637348,-0.6915206674203276
1684201282521431000,4.05743115234375,-0.27901392525732516,-0.18169103062450884,-0.8976888444364071
1684201282531457000,4.06745703125,-0.13592413570582865,-0.2663514275610447,-1.0500099881917238
1684201282541483800,4.07748388671875,-0.0815973561041057,-0.383357512307167,-0.9705112118020653
1684201282551509800,4.087509765625,-0.07374846923463046,-0.5398369447857141,-0.7250073419585824
1684201282561537000,4.097537109375,-0.11112214127406478,-0.6228700327813625,-0.2113122619062662
1684201282571563000,4.10756298828125,-0.12413009140715002,-0.6038958677202463,0.4334083681553602
1684201282581590000,4.117590087890625,-0.037091859423369164,-0.4406044171392917,0.9977195367231965
1684201282591616000,4.127615966796875,0.20499767193198204,-0.2754717226058245,1.4957693038761615
1684201282601642800,4.137642822265625,0.5720042072884738,-0.1923416039764881,1.9333762927651403
1684201282611668700,4.147668701171875,1.0205472354073077,-0.23333880027532578,2.2878104929268357
1684201282621696000,4.157696044921875,1.3975304634422063,-0.4494324512392282,2.5736630320325493
1684201282631722000,4.167721923828125,1.506651494026929,-0.6323837110579014,2.746832902549207
1684201282641749000,4.1777490234375,1.3863592272169887,-0.76709554836452,2.750900590379536
1684201282651775000,4.18777490234375,1.22716907447502,-0.8562561793297528,2.6268855036541816
1684201282661801000,4.197801025390625,1.147862459656596,-0.8634797008424997,2.4513611789658665
1684201282671828000,4.207827880859375,1.1208696771822868,-0.7087123329788446,2.0715194196946918
1684201282681854000,4.21785400390625,1.0533446855723858,-0.4915425772160291,1.4839189993456006
1684201282691881000,4.227880859375,0.9559906651489436,-0.4653542429924011,0.9058008392214775
1684201282701907000,4.237906982421875,0.8126151905238628,-0.5800830304563045,0.39836744991242884
1684201282711934000,4.247933837890625,0.5730681832581758,-0.6534691691845655,0.07047624263092875
1684201282721960000,4.2579599609375,0.3638479982603341,-0.6933873380750417,-0.18866715324744582
1684201282731987000,4.267987060546875,0.22435060717761515,-0.7694371430546045,-0.3790279586702585
1684201282742013000,4.278012939453125,0.10498539208471774,-0.6021428865730762,-0.3965349737882614
1684201282752040000,4.2880400390625,-0.0036170214533805846,-0.3609767536729574,-0.2977659720003605
1684201282762066000,4.29806591796875,-0.12275770707540214,-0.29950843175351616,-0.18444325194209812
1684201282772093000,4.308093017578125,-0.1937315970301628,-0.3021153993815183,-0.08121595557108521
1684201282782119000,4.318118896484375,-0.24252339272797105,-0.30652094086408616,-0.019803893883526325
1684201282792145000,4.328144775390625,-0.2685205882936716,-0.316778715506196,0.0433414213374257
1684201282802172000,4.338171875,-0.27815336290523407,-0.31203064419627186,0.07577449516952037
1684201282812198000,4.348197998046875,-0.30407230560295284,-0.27755905027389527,0.08898015983179211
1684201282822225000,4.358224853515625,-0.32879692394956944,-0.14707973597049712,0.15599106443971394
1684201282832251000,4.3682509765625,-0.35389812052361663,0.057880526560544966,0.31167920041009783
1684201282842278000,4.37827783203125,-0.36216333310902116,0.3407897056907415,0.6567604658149182
1684201282852304000,4.388303955078125,-0.3728804688911885,0.5984048690885305,1.2166009187094866
1684201282862331000,4.398330810546875,-0.4367412389051169,0.7318482938945293,1.9216141049094497
1684201282872356900,4.40835693359375,-0.5798088896900415,0.8904320051759481,2.5485499258249997
1684201282882384000,4.4183837890625,-0.7097593578137457,1.0876309860557316,2.9294126987069844
1684201282892410000,4.42841015625,-0.7194435703516006,1.1096084245860576,3.0820313641041515
1684201282902436900,4.438436767578125,-0.4764459842406213,1.2236550750046968,2.9403195849075914
1684201282912462800,4.448462890625,0.11108400122076273,1.0740572187334299,2.521560504351556
1684201282922488800,4.45848876953125,1.117943268341571,0.8870254116028546,2.248452149876207
1684201282932515800,4.468515869140625,2.7691607619524,0.9434165763884782,1.8115071320272982
1684201282942541800,4.478541748046875,5.090070391404629,1.1482342155784369,1.273168755236268
1684201282952569000,4.488569091796875,7.012564640149474,1.347453888630867,0.8528767660245299
1684201282962595000,4.498594970703125,7.809372605210542,1.4790928943634032,0.5881684294953942
1684201282972621800,4.508621826171875,7.751517213091254,1.4696382527977228,0.4944333302214741
1684201282982647800,4.518647705078125,7.0625944532096385,1.3160504501074552,0.6339497913308442
1684201282992674800,4.5286748046875,4.887010994058847,0.9756026897221803,0.6949347136475146
1684201283002701000,4.538701171875,1.8977526061981915,0.720101157477498,0.8205638114407658
1684201283012728000,4.54872802734375,-0.09394261367791332,0.7397498607993126,1.2499094602018594
1684201283022754000,4.558754150390625,-0.9319465033471583,0.9503682952225208,1.6091919771775602
1684201283032780800,4.56878076171875,-1.410830089998245,1.3631693441569805,1.7353906915523112
1684201283042806800,4.578806884765625,-2.188884839272499,1.6011445720613002,1.4778443556070326
1684201283052832800,4.588832763671875,-3.5726211706399917,1.888721158480644,1.282395141004026
1684201283062860000,4.598860107421875,-5.3093491021454335,2.1353730293154713,0.722374655367434
1684201283072886000,4.608885986328125,-6.673505119252204,2.5021938328415154,0.0031821371674537655
1684201283082913000,4.6189130859375,-6.621936260056495,3.0496582037657496,-0.2819748208895326
1684201283092939000,4.62893896484375,-5.247620083463191,3.503865614321828,0.7633928944543004
1684201283102965800,4.6389658203125,-3.2818297138273715,3.595951777344942,2.103575330777466
1684201283112991700,4.64899169921875,-1.7703987304389475,3.0500077478557825,2.7531302491277456
1684201283123019000,4.65901904296875,-0.6477554677128792,2.4736942990660666,2.9160566657885907
1684201283133045000,4.669044921875,-0.7015105849064887,2.0200404307395217,2.1905738152727485
1684201283143072000,4.679072021484375,-1.5197769330598414,1.705445489013195,1.0492156229436398
1684201283153098000,4.689097900390625,-1.9310536950364707,1.5247306099444626,0.4870318217933178
1684201283163124700,4.699124755859375,-1.610420496059209,1.126418689611554,0.28332389741092917
1684201283173150700,4.709150634765625,-1.6498486894756554,0.5706131913214921,-0.4251967123880982
1684201283183176700,4.7191767578125,-2.1810396787300705,0.17957038520872592,-1.5405015950500964
1684201283193203700,4.72920361328125,-2.5335259596943853,-0.16613281148672102,-2.8172137219816444
1684201283203230000,4.73922998046875,-2.3950188217580317,-0.34445348889529703,-3.726660224229097
1684201283213257000,4.749257080078125,-1.9244100192382931,-0.4013058414518833,-4.037480908113718
1684201283223282700,4.75928271484375,-1.3415385271072386,-0.07430676070451736,-3.9714252584040164
1684201283233309700,4.769309814453125,-1.1490575146600603,0.3369341993063688,-3.613926117713749
1684201283243335700,4.779335693359375,-1.110678099644184,0.40373394538164137,-3.1883181941762566
1684201283253363000,4.789363037109375,-1.0296689186915755,0.25480185954272744,-2.8367420137941837
1684201283263389000,4.799388916015625,-1.2232476632475853,-0.019900632256269455,-2.5389915316239
1684201283273415700,4.809415771484375,-1.5082932698845863,-0.43963703341186045,-2.645111772957444
1684201283283441700,4.819441650390625,-1.505061740617454,-0.7787678659796714,-2.8921836227700113
1684201283293468700,4.82946875,-1.28462509201318,-0.9895061273902654,-2.8388565217301247
1684201283303494700,4.83949462890625,-1.0902905606538056,-1.1151742420196533,-2.641598211878538
1684201283313522000,4.84952197265625,-1.0838409461230039,-1.1136299351871013,-2.277128939914703
1684201283323548000,4.8595478515625,-1.306338034388423,-1.0160036736935376,-1.7683309842541812
1684201283333574000,4.869573974609375,-1.688925146844983,-0.9346732979625463,-1.4104837607786058
1684201283343600600,4.8796005859375,-1.8436375696510074,-1.0405834036767483,-1.3065244968712328
1684201283353626600,4.889626708984375,-1.7115023048341274,-1.1448498338371516,-1.3089368187099695
1684201283363654000,4.89965380859375,-1.3916332220971583,-1.191917874482274,-1.4173153603643178
1684201283373679900,4.909679931640625,-1.2099465753868222,-1.2364824078738688,-1.426164437252283
1684201283383707000,4.919706787109375,-1.2708236534148454,-1.2632675389468668,-1.3877201403066515
1684201283393732900,4.92973291015625,-1.5216262141883372,-1.3531623294055461,-1.4906021303713322
1684201283403759600,4.939759521484375,-1.6849875151351092,-1.4971704028457402,-1.7212895393550396
1684201283413785600,4.94978564453125,-1.7191463898465036,-1.6510504664808512,-2.008172882813215
1684201283423812900,4.959812744140625,-1.6525868822678922,-1.750485238701105,-2.2159280367597938
1684201283433838800,4.9698388671875,-1.4482967740833759,-1.754300997596979,-2.3323656739681957
1684201283443865900,4.979865966796875,-1.175808158941567,-1.61313662315011,-2.3630717778772112
1684201283453891800,4.989891845703125,-0.8354246959641576,-1.3863245942950249,-2.3806208785712717
1684201283463917800,4.999917724609375,-0.4902022685229778,-1.1745610814899206,-2.340259642088413
1684201283473944800,5.00994482421875,-0.22822014208734034,-0.9797142166942358,-2.122088892589509
1684201283483970800,5.019970703125,-0.08686901289671659,-0.8508084353178739,-1.7429069124013183
1684201283493997800,5.029997802734375,-0.0027215339183807373,-0.8217249641746283,-1.219585341347754
1684201283504023800,5.04002392578125,0.051617812903970474,-0.8070610635280608,-0.637190526817739
1684201283514050800,5.05005078125,0.05832315576151013,-0.7866139033049344,-0.10332768800556659
1684201283524076800,5.060076904296875,0.15524462998658417,-0.679336016368866,0.2887143582776189
1684201283534103800,5.070103759765625,0.4058566366240382,-0.3153098119974136,0.5281885925680398
1684201283544129800,5.0801298828125,0.6326547830842435,0.004839841246604919,0.654659840273857
1684201283554156800,5.09015673828125,0.671428311984241,0.21393676519095897,0.6558285917922854
1684201283564182800,5.100182861328125,0.48807548562735315,0.2813169415026903,0.6136033150032162
1684201283574209800,5.110209716796875,0.3204525817133486,0.1981055743306875,0.6658195321917534
1684201283584236000,5.120236083984375,0.22251571990065275,-0.0487596469938755,0.9074725718259811
1684201283594261800,5.13026171875,0.06701528852209448,-0.3429705568611622,1.4304720713183283
1684201283604288800,5.140288818359375,-0.10398410608768463,-0.5825199022144079,2.138664179815352
1684201283614314800,5.150314697265625,-0.29000352130532264,-0.7328478263258934,2.7372195632904766
1684201283624341800,5.160341796875,-0.5432685997348279,-0.7610124290585517,3.00405848210752
1684201283634367700,5.17036767578125,-0.7234065556984395,-0.6643745940804481,2.889756395623088
1684201283644394800,5.180394775390625,-0.6075368545711041,-0.5339034630835056,2.6373504913061856
1684201283654420700,5.190420654296875,-0.4339841587493196,-0.1840495764493942,2.4564745764568445
1684201283664447700,5.20044775390625,-0.16042787784337997,0.6691209118247031,2.1753040576875207
1684201283674473700,5.2104736328125,0.10385610492699779,2.2300725897073743,1.8834239288553594
1684201283684500700,5.220500732421875,0.5997685586571693,4.6623219487071035,1.8515005581110715
1684201283694527000,5.23052685546875,2.07739254951179,6.637737055778503,2.4092177352413535
1684201283704553700,5.2405537109375,4.299582277014851,7.128392913287878,3.8069796693518754
1684201283714579700,5.250579833984375,5.418087124761938,5.772592636594176,4.755729131200909
1684201283724605700,5.260605712890625,4.790346271073818,3.4528824460595846,4.186454202745854
1684201283734632700,5.2706328125,3.6984511978328225,1.5529764612197876,2.664558523966372
1684201283744658700,5.28065869140625,3.1054315289139747,0.11864449960291384,1.05278675942868
1684201283754686000,5.29068603515625,2.85662920204699,-0.7920107939124107,-0.2968926962971687
1684201283764712000,5.3007119140625,2.6738714189738033,-1.2243325358748436,-1.379026546241343
1684201283774738700,5.31073876953125,2.0230583172559737,-1.8487246636569499,-2.319373798187077
1684201283784764700,5.3207646484375,0.7813543753415346,-2.485238021865487,-3.0882386943116784
1684201283794791700,5.330791748046875,-0.8663187236607074,-2.7497955517470833,-3.45218218883574
1684201283804818000,5.34081787109375,-2.5693869621485472,-2.5135832418620585,-3.5289798895731566
1684201283814845000,5.350844970703125,-3.445316979241371,-1.9583149191886184,-3.351277344062924
1684201283824871000,5.360870849609375,-3.3520267011255025,-1.2686392951130867,-2.9966368076741694
1684201283834897700,5.370897705078125,-2.8936154091387984,-0.590485182005167,-2.524811907362938
1684201283844923600,5.380923583984375,-2.464868603053689,0.22536592170000075,-1.8387782930515706
1684201283854951000,5.390950927734375,-2.1283587666392325,0.7810217823863029,-1.1222912344180047
1684201283864977000,5.400976806640625,-1.8405571392923592,0.8386983108073472,-0.4922524790510535
1684201283875003000,5.4110029296875,-1.6047925731748343,0.5464163231760263,0.07162541266605257
1684201283885030000,5.42102978515625,-1.4040648336470127,0.12454583260118961,0.4961868958905339
1684201283895056000,5.431055908203125,-1.1824854447484017,-0.26790216413438317,0.9061578359656035
1684201283905082600,5.44108251953125,-0.9239689485967159,-0.5435539194822311,1.2023910454407334
1684201283915108900,5.45110888671875,-0.6768716720819473,-0.5235901588618755,1.3713837764032184
1684201283925136000,5.461135986328125,-0.45522973934113975,-0.2181482454061508,1.435848649790138
1684201283935161900,5.471161865234375,-0.19521862071752547,0.2604471719533205,1.3956122087307274
1684201283945188900,5.48118896484375,-0.06553135184096172,0.8719967692971229,1.656337028581649
1684201283955214800,5.49121484375,0.16691782438457012,1.3004361168682574,1.8689497055619955
1684201283965241900,5.501241943359375,0.2736362873395905,1.0675111580908299,1.8483537845179439
1684201283975267800,5.511267822265625,-0.012640870386362075,0.5639373668193817,1.744629936801642
1684201283985294800,5.521294921875,-0.21583233314659445,0.27288755133152004,1.4506636493451892
1684201283995320800,5.53132080078125,-0.2690431873956695,-0.015308628290891647,0.7849230276085436
1684201284005346800,5.541346923828125,-0.322132899483107,-0.15465338609516618,0.3113213268831372
1684201284015373800,5.551373779296875,-0.48002691146731374,-0.2643687293112278,0.30756168208867307
1684201284025399800,5.56139990234375,-0.5794102092286572,-0.33243922597467895,0.32939372079893947
1684201284035426800,5.5714267578125,-0.5946960776984691,-0.21215631151497363,0.08611322609335184
1684201284045452800,5.581452880859375,-0.5116589711148292,-0.06481763234734535,-0.035841128709912295
1684201284055479800,5.591479736328125,-0.3889045885076746,0.011837737309932707,-0.10192118220850825
1684201284065505800,5.601505859375,-0.159789506874606,-0.031205870124697683,-0.08571925833970308
1684201284075532800,5.61153271484375,0.14180216089375317,-0.13784019846022127,-0.09172010618969798
1684201284085558800,5.621558837890625,0.29776779863126573,-0.2143453459918499,-0.14453151279240845
1684201284095585800,5.631585693359375,0.2826495783459395,-0.2952460981339216,-0.119108609983325
1684201284105611800,5.64161181640625,0.19159107787013052,-0.3114712567478418,-0.07202171850726008
1684201284115638800,5.651638671875,0.016563669853284953,-0.2710626739919185,0.022359715846180916
1684201284125664800,5.661664794921875,-0.18443477637469768,-0.2834352488309145,0.11516893244683742
1684201284135690800,5.671690673828125,-0.2633528302669525,-0.24543138912916182,0.1432072784513235
1684201284145717800,5.6817177734375,-0.3459871282033622,-0.15206570768952368,0.1446830500923097
1684201284155743700,5.69174365234375,-0.47390462919473647,-0.09464110820293425,0.13171762392669914
1684201284165771500,5.701771484375,-0.4674649515360593,-0.1476654269039631,0.14795125810801982
1684201284175797500,5.711797607421875,-0.31443536725044247,-0.1754050822228193,0.0033171617239713667
1684201284185824500,5.721824462890625,-0.01512158128619194,-0.17949381284117696,-0.022332389447838066
1684201284195850500,5.7318505859375,0.14757424148917198,-0.2343430088818073,0.09351356547772884
1684201284205877500,5.74187744140625,0.1599725352913141,-0.20491350077986717,0.17521964265331624
1684201284215903500,5.751903564453125,0.21686507372781633,-0.10235796619057655,0.09975538247674703
1684201284225930500,5.761930419921875,0.35876667640805243,-0.05415244594812393,-0.04514350232332945
1684201284235956500,5.77195654296875,0.395349563395977,-0.09675473935604095,-0.09848448575809597
1684201284245983500,5.7819833984375,0.4313163643121719,-0.12818565040826796,-0.21314006185531614
1684201284256009200,5.79200927734375,0.38821328177526593,-0.22511223919987677,-0.3444067271441221
1684201284266035200,5.80203515625,0.27002346713729203,-0.2857008556753397,-0.5032267313994467
1684201284276062500,5.8120625,0.1644645860135555,-0.2432832711845636,-0.49143297936171293
1684201284286088400,5.82208837890625,0.1408027015276253,-0.12706746003329752,-0.41446854375526304
1684201284296115500,5.832115478515625,0.1537549759507179,-0.019596096351742743,-0.3034175680212676
1684201284306141400,5.842141357421875,0.1764823560655117,-0.022614567390084266,-0.150145114890486
1684201284316168400,5.85216845703125,0.29551497820317746,-0.17192483889162538,0.04066460334360599
1684201284326194400,5.8621943359375,0.4976842948414385,-0.2989870382279157,0.24696561295911668
1684201284336221400,5.872221435546875,0.6886284531101584,-0.30149113000333305,0.4247153586119413
1684201284346247400,5.882247314453125,0.82933076300323,-0.22524843280017376,0.5096672858409583
1684201284356274400,5.8922744140625,0.8923322858393192,-0.1335468851804733,0.5675301306143403
1684201284366300400,5.902300537109375,0.8598480663418769,-0.1058370404779911,0.6338868090972304
1684201284376327400,5.912327392578125,0.7690522353902459,-0.1726087295025587,0.7391678961928934
1684201284386353400,5.922353515625,0.6213824245721101,-0.2623416073977947,0.832626297417283
1684201284396379400,5.93237939453125,0.451022789170593,-0.3035159138292074,0.9236725959986448
1684201284406406400,5.942406494140625,0.3009393413394689,-0.29583412715494634,1.0130105562921612
1684201284416432400,5.952432373046875,0.19952830061018464,-0.20373627369403838,1.077123766697198
1684201284426459400,5.96245947265625,0.1307166301906109,-0.08709083895385265,1.1111682943139225
1684201284436485600,5.972485595703125,0.11908888236954808,-0.050477556827664374,1.0959914757091551
1684201284446512400,5.982512451171875,0.17311609450280666,-0.0444376921415329,1.0193653321463614
1684201284456538400,5.992538330078125,0.24248262232616544,0.05101122531294822,0.9260730812691151
1684201284466565400,6.0025654296875,0.38335342065393924,0.253086872318387,0.8692414792396128
1684201284476591400,6.01259130859375,0.5406042758964001,0.27837621187567707,0.6943364554934203
1684201284486618600,6.02261865234375,0.774606070125103,0.13005436688959598,0.4589505134299397
1684201284496644600,6.03264453125,1.0646399865686893,-0.06078676939606666,0.20302578733712434
1684201284506671400,6.04267138671875,1.3307115742750466,-0.17159926019906996,-0.020104849591478704
1684201284516697300,6.052697265625,1.5261961524523793,-0.19468319866657255,-0.13169811550863086
1684201284526723300,6.062723388671875,1.6244893534220755,-0.15968670408725738,-0.18647819183580577
1684201284536750300,6.072750244140625,1.572327789030224,-0.08177695045471191,-0.19324812436215577
1684201284546776600,6.082776611328125,1.4343676174521445,0.019137831190228462,0.039528438920527695
1684201284556803600,6.092803466796875,1.2800684516221283,0.06456979506611824,0.46994189957622434
1684201284566829600,6.10282958984375,1.059524835512042,0.2794832963347435,0.8783440924972296
1684201284576856300,6.112856201171875,0.7529682388126849,0.7291577396363019,1.3013333579689264
1684201284586882300,6.12288232421875,0.41025501771345735,1.2902210123240947,1.780271597416699
1684201284596909600,6.13290966796875,0.06783215786293148,1.914935796189308,2.4278851724408566
1684201284606935600,6.142935546875,-0.2731668066643178,2.3414380382180213,3.073048431703448
1684201284616962600,6.152962646484375,-0.5987403115879744,2.5891069771409034,3.5018697643294927
1684201284626988300,6.16298828125,-0.8990092063199728,2.6149633029311894,3.5857922023802993
1684201284637015300,6.173015380859375,-1.0539660323411226,2.1662907301485537,2.965210280536115
1684201284647041300,6.183041259765625,-0.9231856892645358,1.3355910168796776,2.061916455699503
1684201284657067500,6.193067626953125,-0.4642654248423874,0.4466051188588142,1.0583569607764483
1684201284667094500,6.203094482421875,0.1492114873021841,-0.3502180437713861,0.16612068265751004
1684201284677120500,6.21312060546875,0.8672159647613763,-1.0921738901823759,-0.3956384633399546
1684201284687147300,6.223147216796875,2.345470654734969,-1.6635937217116354,-0.8675392784316093
1684201284697173200,6.23317333984375,5.568250798222422,-1.8212761002391575,-1.3173382979609072
1684201284707200500,6.243200439453125,9.038131140834093,-1.4862451042056082,-1.2050476243641226
1684201284717226500,6.2532265625,10.936680450367927,-1.0649112047255038,-0.8790078171029686
1684201284727253500,6.26325341796875,7.920901135328411,-0.7841945672035217,-0.5617554196704179
1684201284737279500,6.273279541015625,2.0982652416706085,-0.3420768228918314,-0.20337474690526722
1684201284747306200,6.28330615234375,-1.9318284788012503,0.22764614159166813,0.25838738987930115
1684201284757332200,6.293332275390625,-4.030941277211904,0.7719108396917581,0.7145845129478723
1684201284767359500,6.303359375,-5.201548068118095,1.243210839346051,0.9455601642884314
1684201284777385500,6.313385498046875,-6.044886898207664,1.7499492321282624,1.1070507029272616
1684201284787411500,6.323411376953125,-6.681938601076602,2.2134090396761894,1.4645081964328883
1684201284797438500,6.3334384765625,-7.439891642564534,2.444272974270582,1.6119506282359362
1684201284807464400,6.34346435546875,-8.271012796115874,2.28371767065525,1.925529086396098
1684201284817491500,6.353491455078125,-8.163255016708373,2.013786631041765,3.0054560739457608
1684201284827517400,6.363517333984375,-5.623485194188356,1.6621867775231598,3.721355103558302
1684201284837544400,6.37354443359375,-1.995036337864399,1.103171669536829,5.143617272675037
1684201284847570400,6.3835703125,1.352679514324665,0.6484247452765702,6.5558069605886935
1684201284857597400,6.393597412109375,1.8348503059528767,0.25141338614821435,6.391148313307761
1684201284867623400,6.40362353515625,-0.04174428833909333,-0.21537118190824983,4.894513332512974
1684201284877650400,6.413650390625,-2.0776585069715976,-0.39738311505019663,2.9352608402132985
1684201284887676400,6.423676513671875,-3.0547721857786176,-0.23735972635447977,1.3372659643545746
1684201284897703400,6.433703369140625,-2.962138325744867,0.07027531323134899,-0.04558510861098766
1684201284907729400,6.4437294921875,-2.7155869926750658,0.2686263867557049,-1.0298467594765126
1684201284917755400,6.45375537109375,-2.892249381482601,0.2346884613186121,-1.299136286316067
1684201284927782700,6.46378271484375,-3.2571441853821277,0.0557657263636589,-1.3302578391581772
1684201284937808600,6.47380859375,-3.358587959337234,-0.05348375290632248,-1.4571154558330774
1684201284947835400,6.48383544921875,-3.472904074347019,-0.19817805504500866,-1.570607102717459
1684201284957861400,6.493861328125,-3.3169512960910796,-0.4411334094494581,-1.572173913642764
1684201284967888400,6.503888427734375,-3.045840691304207,-0.5267658662885427,-1.4068904124617576
1684201284977914400,6.513914306640625,-2.6735481783688066,-0.3365601052969694,-1.2475427310705185
1684201284987941400,6.52394140625,-2.1537702712714673,-0.01846913814842701,-1.1082082023993134
1684201284997967400,6.53396728515625,-1.742415329492092,0.24577508800029754,-0.9843605811953544
1684201285007994400,6.543994384765625,-1.515641879081726,0.3455126425594091,-0.9719634564369917
1684201285018020400,6.554020263671875,-1.5082359867393968,0.3332400209635496,-0.9369070483639835
1684201285028047400,6.56404736328125,-1.6204511839471756,0.18747604376673696,-0.8939090336367488
1684201285038073600,6.574073486328125,-1.7183704370379447,-0.017843699726462364,-0.8292083056673407
1684201285048099600,6.584099609375,-1.7215993359565733,-0.20561609609127043,-0.7638517441377043
1684201285058126300,6.594126220703125,-1.5418495025277137,-0.31566169417500495,-0.7696139609262347
1684201285068152300,6.60415234375,-1.292130060815811,-0.35609482685029503,-0.7686229040622711
1684201285078179300,6.614179443359375,-1.143879965891689,-0.3354460065752268,-0.7461743408888578
1684201285088205300,6.624205322265625,-0.8571873227000236,-0.21817104175984858,-0.7771417260825634
1684201285098232600,6.634232666015625,-0.523431241973117,-0.0697650256216526,-0.7733627920657395
1684201285108258600,6.644258544921875,-0.2490976565517485,0.05768237363994121,-0.7333765263751149
1684201285118285300,6.654285400390625,-0.0949370954748243,0.09937456646561622,-0.6129582950979471
1684201285128311300,6.664311279296875,0.09178162711858749,0.0699742844581604,-0.4851648588776588
1684201285138338300,6.67433837890625,0.3093663203578442,0.06724515175521373,-0.3465744265720248
1684201285148364500,6.684364501953125,0.5451765522480011,0.08632043910324573,-0.23071137438118455
1684201285158391000,6.69439111328125,0.6911747765921056,0.19084931959211826,-0.16630962935835122
1684201285168417000,6.7044169921875,0.6696328068695963,0.3803466400533914,-0.17032646378427743
1684201285178443000,6.714443115234375,0.4909596627615392,0.5186497798502445,-0.11699059491604566
1684201285188470000,6.724469970703125,0.18748875711783766,0.4060778781592846,0.046452246834337706
1684201285198496000,6.73449609375,-0.337325536711514,0.09583061024844645,0.16112974250242112
1684201285208523000,6.74452294921875,-0.8305809091947972,-0.31503859384059907,0.22150515461862086
1684201285218549000,6.754549072265625,-1.4106687619566916,-0.660055561837554,0.23772885192781684
1684201285228576000,6.764575927734375,-2.1069187959864735,-0.8985533523112534,0.15606807519868016
1684201285238602200,6.774602294921875,-2.8352760328948494,-1.0010124407887457,0.009013327538967133
1684201285248629000,6.78462890625,-3.486765426439047,-0.98134737085402,-0.1861488868162036
1684201285258655000,6.794655029296875,-3.916450974678993,-0.9152093035578727,-0.4295382487237453
1684201285268682000,6.804681884765625,-3.9401428159117695,-0.7983914348602295,-0.6025389001533389
1684201285278708000,6.8147080078125,-3.5052257967591283,-0.7305249363362789,-0.5837129113912582
1684201285288735200,6.8247353515625,-2.6395442019581794,-0.7427303379148245,-0.33013708651214835
1684201285298761200,6.83476123046875,-1.5495231058955192,-0.7544903338134288,-0.006000993980467319
1684201285308787200,6.844787109375,-0.786158706883341,-0.6865297272652388,0.351944283042103
1684201285318814000,6.85481396484375,-0.673053721228987,-0.6577151361912489,0.4171550063602626
1684201285328840000,6.86483984375,-0.942913303041458,-0.6827291659384965,0.18175941968560216
1684201285338867000,6.874866943359375,-1.266067544928938,-0.7227467035502195,0.009392828375846147
1684201285348893200,6.88489306640625,-1.3085947272740304,-0.7140776594042778,-0.24282106050029395
1684201285358920200,6.894920166015625,-0.9237854087233542,-0.8806319111734628,-0.9332961643904447
1684201285368946200,6.9049462890625,-0.43269824712462723,-1.0781336743921042,-1.8777843155331908
1684201285378973000,6.914972900390625,-0.32785730501189825,-1.022275009047985,-2.662584885805845
1684201285388999000,6.9249990234375,-0.5217045643109828,-0.9416454750627279,-3.0757535990089178
1684201285399026200,6.935026123046875,-0.8852900391776114,-0.9920382762163877,-3.1932138572633266
1684201285409052200,6.94505224609375,-1.2821112094961107,-1.0909358728200196,-3.1730338235437867
1684201285419079200,6.9550791015625,-1.553649976567179,-1.075058504730463,-3.188364079144597
1684201285429105200,6.965105224609375,-1.6743990472339092,-0.9101169488549232,-3.262145062409341
1684201285439131100,6.975131103515625,-1.8493023174144327,-0.5490110158443451,-3.2270693651139735
1684201285449158000,6.985157958984375,-1.904308165321499,-0.14536650231182574,-3.2972941172018646
1684201285459184000,6.99518408203125,-1.9720728109061716,0.45938159832358355,-3.4906855224922295
1684201285469211100,7.005211181640625,-2.16208217254281,1.56988726401031,-3.7140780982926485
1684201285479237000,7.015237060546875,-2.3557190770268437,3.290326324015856,-3.6436665914610025
1684201285489264000,7.02526416015625,-2.244102284103632,4.985618667805195,-3.255231922020018
1684201285499290000,7.0352900390625,-1.7145991018056868,5.988294657891989,-2.4777675398543475
1684201285509317000,7.045317138671875,-0.16209844140410423,5.967375788503885,-1.1050319104507564
1684201285519343000,7.055343017578125,3.292561535722017,4.561279741290211,0.795749688179791
1684201285529370000,7.0653701171875,6.861949131268262,1.5256003785163164,2.3079475642874834
1684201285539396000,7.07539599609375,7.031760923528671,-1.8782266524732112,2.2738553250715134
1684201285549423000,7.085423095703125,4.672187509161233,-3.8266356791973113,1.7099769949629902
1684201285559448800,7.09544873046875,2.164589771449566,-4.221453327673673,1.3679349511235952
1684201285569474800,7.105474853515625,0.16626140630245206,-3.523771507275104,1.2185530756905674
1684201285579502000,7.115502197265625,-1.4465069680571556,-1.7910785303741692,1.509155147410929
1684201285589528000,7.125528076171875,-2.552756729865074,0.23798048860132692,2.1094196728914976
1684201285599555000,7.13555517578125,-2.849951039457321,1.6462883666455745,2.821481316298246
1684201285609581000,7.1455810546875,-2.469440148752928,2.31072375100255,3.322627295900881
1684201285619608000,7.155608154296875,-1.4223679675787686,1.97556357563138,3.3235885421484705
1684201285629634000,7.165634033203125,-0.08322539569735526,0.9750602534085512,3.054821870139241
1684201285639661000,7.1756611328125,0.9399556222796439,-0.03019523177742958,2.8749034021452067
1684201285649687000,7.18568701171875,1.4472253454595803,-0.6015443361580372,2.897305203567445
1684201285659714000,7.195714111328125,1.3668354654490946,-0.7066530623614787,3.093196316719055
1684201285669740000,7.205739990234375,0.7560679583936929,-0.48168578459024425,3.321232626672089
1684201285679767000,7.21576708984375,-0.0623404285788536,-0.10343231742382049,3.485044886256754
1684201285689793000,7.22579296875,-0.8145897054672241,0.22743045301437376,3.4093566080659627
1684201285699819000,7.235819091796875,-1.370710261055827,0.3319002967923879,3.0938536115840076
1684201285709846000,7.245845947265625,-1.7773557099699973,0.2716355054438114,2.6735627914160487
1684201285719872000,7.2558720703125,-1.8793606249392032,0.11950550034642218,2.0606378140658137
1684201285729899300,7.265899169921875,-1.8464017736673355,-0.10762217032909392,1.3974550601184368
1684201285739925200,7.27592529296875,-1.780871609136462,-0.33397301141321656,0.919499255836755
1684201285749952000,7.285951904296875,-1.7173779188692568,-0.4696908108919859,0.5866965668445453
1684201285759978000,7.29597802734375,-1.68484635309875,-0.48030806649625296,0.23292207270059734
1684201285770005000,7.3060048828125,-1.6404472394019365,-0.43077100538909435,-0.004571289970912039
1684201285780031000,7.316031005859375,-1.5627099197268486,-0.2730202378004789,-0.1783212253978476
1684201285790058200,7.326058349609375,-1.4198492627561092,-0.09151040896177291,-0.349383784904331
1684201285800084200,7.336084228515625,-1.138489724220708,0.05372632949054241,-0.4713579038539901
1684201285810111000,7.346111083984375,-0.8743121335674077,0.08282558272480964,-0.31578404191303994
1684201285820137000,7.356136962890625,-0.6840484318435192,0.14963994184732438,-0.0627300124183297
1684201285830163000,7.366162841796875,-0.4570020097106695,0.20488836633861063,0.24730383193753658
1684201285840190200,7.376190185546875,-0.019326047238707542,0.13487024273872375,0.6649572162739932
1684201285850216200,7.38621630859375,0.37852000914812084,0.10643617541491984,0.9994035442873835
1684201285860243200,7.3962431640625,0.6138589702647179,0.07635492540597916,1.4020444337353108
1684201285870269200,7.406269287109375,0.5796932274211197,-0.016606266885995865,1.7802767119832337
1684201285880296000,7.4162958984375,0.21967041347213087,-0.16596563822627067,1.9326693135395645
1684201285890322000,7.426322021484375,-0.31320429108552633,-0.3199462396264076,1.710341152100265
1684201285900349200,7.43634912109375,-0.8952723578792064,-0.2636363233834505,1.2975468251675366
1684201285910375200,7.446375244140625,-1.40255910525918,0.06413958695530891,1.0660665122404693
1684201285920402200,7.456402099609375,-1.7000971137225627,0.3437497245401144,0.7704584489263594
1684201285930428000,7.466427978515625,-1.7155881128430366,0.3582797696739435,0.44967294546421616
1684201285940455000,7.476454833984375,-1.6276302817963062,0.2187760219156742,0.14226860936172306
1684201285950481000,7.48648095703125,-1.5344798505425452,0.07407295194864273,-0.2136325215473771
1684201285960507100,7.496507080078125,-1.4123025006383656,-0.00497661936879158,-0.6221382113754749
1684201285970534100,7.5065341796875,-1.2267372589290142,-0.04142448180019855,-1.0172014321107417
1684201285980560100,7.51656005859375,-0.889078252479434,-0.04594634313881397,-1.4402914545431733
1684201285990587000,7.5265869140625,-0.4795236381202936,-0.026711481314897537,-1.7585022486791013
1684201286000612900,7.53661279296875,-0.04002915498428047,0.06116320149302482,-1.88671449483335
1684201286010640100,7.54664013671875,0.3126685037083924,0.22022797428965568,-1.7161758496031163
1684201286020666000,7.556666015625,0.5664036108024418,0.30906010395288463,-1.3279817109197378
1684201286030693000,7.566693115234375,0.6670371643532067,0.35065701971054075,-0.9318255073159932
1684201286040719000,7.576718994140625,0.6558418166000396,0.3468196335047483,-0.5675032426074147
1684201286050745900,7.586745849609375,0.5672960295975208,0.3255465438514948,-0.2737274362217635
1684201286060771800,7.596771728515625,0.5207664066780359,0.38140988537073134,-0.1506014803558588
1684201286070799000,7.606799072265625,0.5155822089731693,0.46915188170969485,-0.020437150285765527
1684201286080825000,7.6168251953125,0.6007903759855777,0.5739285994797945,0.22446875366456806
1684201286090851000,7.62685107421875,0.7289677700221538,0.569757451274991,0.6097966892618686
1684201286100878000,7.636878173828125,0.8514268594771623,0.4387707719713449,1.0018836706653236
1684201286110904000,7.646904052734375,0.993675595094636,0.20392975043952463,1.3932742673024534
1684201286120931000,7.65693115234375,1.2205354086142033,-0.08476151922345161,1.7374828415259718
1684201286130957000,7.66695703125,1.6415134073287247,-0.37110008828043933,2.0178344451278445
1684201286140984000,7.676984130859375,2.2615724743425845,-0.675115183803439,2.233999846153706
1684201286151010000,7.687010009765625,2.9696424177646636,-0.9336474620461463,2.3151339686602355
1684201286161037000,7.697037109375,3.546615207245946,-1.0608031848847865,2.224099945038557
1684201286171063000,7.70706298828125,3.897515388062596,-0.9609475569039583,2.0326780862554905
1684201286181090000,7.717090087890625,3.7931437439620495,-0.52270519272089,1.691587497922033
1684201286191116000,7.727115966796875,2.7898540058910846,0.34048166265487667,1.2684719757221639
1684201286201143000,7.73714306640625,1.0189876579403876,1.601587055131793,0.7414205704905092
1684201286211169000,7.7471689453125,-0.8180839773237705,3.1040906356990337,0.4115354494454339
1684201286221195000,7.757195068359375,-2.29860193605423,4.417928670454025,0.2763563234206289
1684201286231222300,7.76722216796875,-3.4511727195322512,5.074989142128825,0.34928386819381263
1684201286241248300,7.777248291015625,-3.6750492794573306,4.852132572901248,0.6353611194334924
1684201286251275000,7.78727490234375,-2.623041979968548,3.923090558823943,1.0958534554779529
1684201286261301000,7.797301025390625,-0.5276432336449622,3.0186990018785,1.9325757900372147
1684201286271328000,7.807327880859375,1.3750477057382464,2.5370763456523417,2.424330840960145
1684201286281354000,7.81735400390625,1.0670894255474208,2.5145997254282233,2.9696441713303328
1684201286291381200,7.82738134765625,-0.9582444354251026,3.1640491375774142,3.9525057461395856
1684201286301407000,7.837406982421875,-1.5582980946339666,3.971740900224447,4.2604619805037975
1684201286311434000,7.84743408203125,-2.2584780154585835,3.777286249616742,2.7490421030312775
1684201286321460000,7.8574599609375,-3.284105549804866,2.7974393464535474,0.9843236101858317
1684201286331487000,7.867487060546875,-3.5895147300347685,1.7349445552200078,-0.5300628620073199
1684201286341513200,7.87751318359375,-3.990445892955363,0.7939309483200311,-1.6842423958562314
1684201286351539200,7.887539306640625,-4.735876137478649,0.2134562881976366,-2.272655740023404
1684201286361566000,7.89756591796875,-5.3341410135746,-0.2965320462912321,-2.3340131489142775
1684201286371592000,7.907592041015625,-5.330845479160547,-0.6123363638073206,-2.289059177813679
1684201286381619000,7.917618896484375,-4.698735908868908,-0.8881319115400313,-2.6480916655510662
1684201286391645000,7.92764501953125,-3.798722713138163,-1.014016883790493,-3.2629496567904948
1684201286401672200,7.937672119140625,-2.791655794616043,-1.0916893215358257,-3.4047011834755536
1684201286411698200,7.9476982421875,-1.9837503892183304,-1.1440046151846646,-3.0098201143741607
1684201286421725000,7.957724853515625,-1.3502595937013626,-1.0594096846997738,-2.7768565771520137
1684201286431751000,7.9677509765625,-1.0890957979112863,-0.8882569992244244,-2.842463314050436
1684201286441778000,7.97777783203125,-1.141903843513131,-0.7920692461013793,-3.0080092655599118
1684201286451804200,7.98780419921875,-1.302331429095566,-0.7815934447944164,-3.06006444696784
1684201286461830100,7.997830078125,-1.5892600730001925,-0.8558546127915382,-3.1352497440725564
1684201286471857200,8.007857177734374,-1.9848761783778666,-1.134992456689477,-3.2907056787222624
1684201286481883100,8.017883056640626,-2.2083473723724483,-1.4410557169139384,-3.4511765189245343
1684201286491910000,8.027909912109376,-2.045268395498395,-1.7553829476147889,-3.571704640316963
1684201286501935900,8.037935791015625,-1.6318535985797642,-1.994564044177532,-3.6060078919351097
1684201286511963100,8.047963134765626,-1.1229898842066526,-2.239782082816958,-3.511110763144493
1684201286521989000,8.057989013671875,-0.6476707120388746,-2.5408441737532614,-3.1769732088193297
1684201286532016000,8.06801611328125,-0.2641068635046482,-2.7448884904831647,-2.616374046511948
1684201286542042000,8.0780419921875,-0.06630173342525959,-2.771236399182677,-2.177739760401845
1684201286552068900,8.08806884765625,-0.18119477154016495,-2.6489392222911117,-1.7635308904960751
1684201286562095000,8.09809521484375,-0.5922179971471428,-2.2770792555540798,-1.3520505687713622
1684201286572122000,8.1081220703125,-0.7842457128688692,-1.7560083860367535,-0.8681175897762179
1684201286582148000,8.118148193359374,-0.9173463155865669,-1.173351705700159,-0.34953970611840485
1684201286592174000,8.128174072265624,-1.3305258424445987,-0.6847627175927162,0.14114450070261955
1684201286602201000,8.138201171875,-1.8592144934892654,-0.48016661219894885,0.4620484794452786
1684201286612227000,8.14822705078125,-2.4112632695943117,-0.34129707069098947,0.36068536951094865
1684201286622254000,8.158254150390626,-2.7985528606534005,-0.1926934861540794,-0.058546296992897984
1684201286632280000,8.168280029296875,-2.5743022067189214,-0.1758984186977148,-0.5079106514319777
1684201286642307000,8.17830712890625,-1.7410161302186549,-0.21407705044448375,-0.8015431768894196
1684201286652333000,8.1883330078125,-0.6718611504435539,-0.12126783384382724,-1.0100912347793578
1684201286662360000,8.198360107421875,0.44040655647963284,0.11250059002041816,-1.057984328071773
1684201286672386000,8.208385986328125,1.6105891306243836,0.28634616784155364,-0.9399234735757112
1684201286682413000,8.2184130859375,2.7866648544609545,0.41805122454762456,-0.5941160858534276
1684201286692439000,8.22843896484375,3.7757004417300224,0.4898258364260196,-0.28734993805661796
1684201286702466000,8.238466064453124,4.157691341859102,0.5992986030578613,-0.22504531144350765
1684201286712492000,8.248491943359374,3.6421301756739615,0.703148269110918,-0.2622111128859222
1684201286722518000,8.25851806640625,2.70893980974555,0.7249737319499254,-0.28591040677279234
1684201286732545000,8.268544921875,1.8292085006736218,0.6682599110811949,-0.23598799960985778
1684201286742571000,8.278571044921875,1.1245534802615642,0.5666980637043714,-0.23143442795872687
1684201286752598000,8.288597900390625,0.5915583641946316,0.4565221172392368,-0.2077288504615426
1684201286762624000,8.2986240234375,0.1875052698612213,0.287626855301857,-0.01821107173413038
1684201286772651000,8.308651123046875,-0.11769457846693694,0.03302548676729202,0.2939768088504672
1684201286782677000,8.318677001953125,-0.18223872763514518,-0.12276362535953521,0.46720440090373155
1684201286792704000,8.3287041015625,-0.1889689126729965,-0.023580197551846503,0.6685919195145368
1684201286802730000,8.33872998046875,-0.14389416473694144,0.23088556190431117,0.9373397406928241
1684201286812757000,8.348757080078125,0.04857026190161705,0.49885611509978767,1.1253592436864972
1684201286822783000,8.358782958984374,0.3201028914928436,0.7547124521315097,1.0533297802641988
1684201286832810200,8.368810302734374,0.5531237118601798,1.1410744069516658,0.8769622827500104
1684201286842836200,8.378836181640626,0.8345850302696227,1.5962223132282494,0.9879245572872459
1684201286852862200,8.3888623046875,1.1706290027379989,1.4858172341823577,1.163466125371307
1684201286862889000,8.398888916015625,1.4621709856569767,1.0032745405018328,1.269919690312445
1684201286872915000,8.4089150390625,1.7332383358240127,0.5630833803385495,1.1861787463083862
1684201286882942000,8.41894189453125,1.7221347580075264,0.6472030945271253,0.9401409157186746
1684201286892968000,8.428968017578125,1.6061200223863124,1.494520765119791,0.541764551847428
1684201286902995200,8.4389951171875,1.6873966221034526,2.669650001886487,0.25472221843525766
1684201286913021200,8.449021240234375,1.7298218053787946,3.411840241575241,0.20172895245961844
1684201286923048000,8.4590478515625,1.6967635853856802,3.059475248903036,0.2814423945132643
1684201286933074000,8.469073974609374,1.3658639900684355,1.718701860949397,0.14609993115290998
1684201286943101200,8.47910107421875,0.8809609969973564,0.23709552246034143,-0.24085005268827078
1684201286953127200,8.489127197265624,0.43613399372696876,-0.8796206883043051,-0.6561334930229932
1684201286963154200,8.499154296875,0.01045358034200035,-1.6335019503086805,-1.0099570870056749
1684201286973180200,8.50918017578125,-0.5487561643004417,-2.039283475869894,-1.318975105382502
1684201286983206100,8.5192060546875,-1.0501216318726538,-2.0840128444343806,-1.5683087626472114
1684201286993233000,8.52923291015625,-1.230853462076187,-1.8436545207858084,-1.8130854872599242
1684201287003259000,8.5392587890625,-1.1770657577872277,-1.399192843696475,-1.907303255484253
1684201287013286100,8.5492861328125,-1.0033972900986672,-1.029925231540203,-1.9249881113871932
1684201287023312100,8.55931201171875,-0.8665537014603615,-0.5696300255030393,-1.8331389719903468
1684201287033339100,8.569339111328125,-0.8505436469018459,-0.05761223101317882,-1.6715153084911405
1684201287043365000,8.579365234375,-0.885586903232336,0.23011457753181455,-1.4679941388525068
1684201287053392100,8.58939208984375,-0.9811176537513733,0.4214057956725359,-1.1344729628600179
1684201287063418000,8.599418212890624,-1.3047148171007632,0.6225573135703801,-0.7419583306290208
1684201287073445000,8.609445068359374,-1.6804969257175921,0.846201818305254,-0.37338571499958634
1684201287083471000,8.61947119140625,-1.8096926299512386,0.9464490759521722,-0.08143352557821198
1684201287093498000,8.629498046875,-2.384105798077583,1.0009230089396237,0.5485662677515298
1684201287103524000,8.639524169921875,-2.6713912925958634,1.1172311745494603,1.0486631766926497
1684201287113549800,8.6495498046875,-2.4265374110937117,1.0428162772953509,1.4108378349132835
1684201287123577000,8.6595771484375,-1.8634452629268168,0.9206272369533777,1.6922670046187935
1684201287133603000,8.66960302734375,-1.1527367876946926,0.7787216887503862,1.4492530518949032
1684201287143630000,8.679630126953125,-0.23600012843906878,0.4702116198956966,1.1546630795821546
1684201287153656000,8.689656005859375,0.4973357736647129,0.1172346328049898,0.8764442502252757
1684201287163683600,8.69968359375,0.9660644615262747,0.025831775870919227,0.8104182650014757
1684201287173709600,8.70970947265625,1.3808920478522777,0.007862403938174247,0.6279797770105302
1684201287183736800,8.71973681640625,1.5346487773686646,0.02580371882021427,0.290071581572853
1684201287193762800,8.7297626953125,1.2519494415968655,-0.01256663610637188,0.018868951120972633
1684201287203789800,8.739789794921874,0.7513567850280553,-0.14148410792052746,-0.2817372492739931
1684201287213815800,8.74981591796875,0.148113864791207,-0.3610387129932642,-0.47607320540547365
1684201287223842600,8.759842529296876,-0.3246474761199206,-0.6718219874769449,-0.3965227353611961
1684201287233868800,8.769868896484375,-0.6628998453527689,-0.7712439002156257,-0.38682562680914995
1684201287243894800,8.779894775390625,-0.9260060073822736,-0.7575777784347534,-0.5303958202887327
1684201287253921800,8.789921875,-1.029033835658431,-0.666543754813075,-0.5211474418848753
1684201287263947800,8.79994775390625,-0.9943190075647085,-0.5525830291122198,-0.46666528905835
1684201287273974800,8.809974853515625,-0.8471013974934816,-0.452801050889492,-0.4105682483810931
1684201287284000500,8.82000048828125,-0.6822317378103733,-0.3567997602492571,-0.3669708795212209
1684201287294027800,8.83002783203125,-0.47843708499260246,-0.19931845725178718,-0.44311029901299626
1684201287304053800,8.8400537109375,-0.2751607569605112,-0.05913315697014331,-0.49848048672042783
1684201287314080800,8.850080810546874,-0.05066211961433291,0.08091068901419639,-0.5705084157727658
1684201287324106800,8.860106689453126,0.30731530611217023,0.13191197745501995,-0.7124396098736673
1684201287334133500,8.870133544921876,0.815900788065791,0.1322492465853691,-0.7651135077018291
1684201287344159500,8.880159423828125,1.3467816884577273,0.16705167989730835,-0.6792823864854872
1684201287354186800,8.890186767578125,1.6915835523992775,0.1501578282415867,-0.5224310884872451
1684201287364212700,8.900212646484375,1.648191569918394,0.039086394241452216,-0.17168781526535748
1684201287374238700,8.91023876953125,1.2871036109559237,-0.08968903875350952,0.30269257821496576
1684201287384265700,8.920265625,0.7878566699076444,-0.07629998034834862,0.5500738958355039
1684201287394291700,8.930291748046875,0.3687883042067289,-0.01063771387040615,0.5891396856803447
1684201287404318700,8.940318603515625,0.2300117016792297,0.04441840291917324,0.6101009329054504
1684201287414344700,8.9503447265625,0.26829510897472497,0.09488485383093356,0.6651780194178223
1684201287424371700,8.960371826171874,0.4002596203345805,0.12090133861899376,0.7608749202840029
1684201287434397700,8.970397705078126,0.5471458795595914,0.19581249495744704,0.9316645446006208
1684201287444424700,8.9804248046875,0.6582534808516503,0.30586627634763713,1.0173212590981273
1684201287454450700,8.99045068359375,0.8080419643241912,0.3387508933395147,0.9912829278044402
1684201287464477700,9.000477783203126,0.8826420819520949,0.18536825783252714,1.0045103659071029
1684201287474503700,9.010503662109375,0.8719149362325668,-0.08203940078318119,1.0082888615325092
1684201287484529700,9.02052978515625,0.7993313460588455,-0.3354103507399559,0.9928632557984441
1684201287494556700,9.030556640625,0.6398385571084916,-0.520621956706047,0.9872974383648484
1684201287504582700,9.040582763671875,0.481540823161602,-0.6213087748140096,0.8617364373717457
1684201287514610000,9.05060986328125,0.36965113158114254,-0.5580360338211059,0.6042561524000019
1684201287524636000,9.060635986328125,0.3130320032585412,-0.3604588672786951,0.3871141614269465
1684201287534662700,9.07066259765625,0.28467326619327066,-0.11902502335309982,0.2199878088582307
1684201287544688600,9.080688720703124,0.23960838206410406,0.0943868411809206,0.03487798276618123
1684201287554715600,9.090715576171876,0.1866992141753435,0.15063830523490904,-0.16206965370103715
1684201287564741600,9.10074169921875,0.17587562234401702,0.014635843595862388,-0.31886114780344066
1684201287574769000,9.110768798828126,0.1916524526685476,-0.23700258347988126,-0.3772490393642336
1684201287584795000,9.120794921875,0.19520634575784204,-0.4715893379896879,-0.3788139871260151
1684201287594821600,9.130821533203125,0.17122399714589118,-0.5845101992487907,-0.33920276529286053
1684201287604847600,9.14084765625,0.10905410282835364,-0.6506798307269811,-0.29777722404673695
1684201287614873600,9.15087353515625,0.047990416187047955,-0.7618301751822233,-0.2908823864990845
1684201287624900900,9.16090087890625,0.05843823350854218,-0.8845558066189289,-0.250177743406035
1684201287634926800,9.1709267578125,0.08457271865308284,-0.8444745561212301,-0.10569876451846212
1684201287644953600,9.18095361328125,0.09415756246969104,-0.5117676191210746,0.1568723773188889
1684201287654979600,9.1909794921875,0.07356602533981203,-0.07741349454820155,0.4609082964342087
1684201287665006600,9.201006591796874,0.07534969388619064,0.19562486343085764,0.7162604833360761
1684201287675032600,9.211032470703126,0.12457739678323268,0.2796902170836925,0.8944308655537664
1684201287685059800,9.221059814453126,0.23577450298964975,0.3660498191535473,0.953935632315278
1684201287695085800,9.2310859375,0.33747663561999797,0.6121580846309661,0.9774492674369364
1684201287705112600,9.241112548828125,0.46310734084844585,0.8220324226886033,1.0664200018532572
1684201287715138600,9.251138671875,0.5809336559362709,0.9179740920960903,1.1712826443411408
1684201287725165600,9.26116552734375,0.7246060676813125,0.9044237056493759,1.2592290772110224
1684201287735191800,9.27119189453125,0.8829752594292163,0.853365134063363,1.3439274680703877
1684201287745217800,9.2812177734375,1.0355104843266307,0.9255418970018625,1.44965052677989
1684201287755244800,9.291244873046875,1.1217296550124882,1.3081664188593625,1.6071645630031823
1684201287765270800,9.301270751953124,1.1618595669575036,1.9103560671836137,1.7633488119274376
1684201287775297500,9.311297607421874,1.2431015337526798,2.387733340924978,1.8726608350396154
1684201287785323500,9.321323486328126,1.5123698716737328,2.4858622912436723,1.8917279390811919
1684201287795350800,9.331350830078126,2.1600446753658353,2.160190075185895,1.7372823505178092
1684201287805376800,9.341376708984376,3.169315095281601,1.5737977154523133,1.4077040669322014
1684201287815403800,9.35140380859375,4.378541247439384,1.1225298654794693,1.0362751850888132
1684201287825429800,9.3614296875,5.624434457737207,0.8536153094321489,0.7456251825734973
1684201287835456500,9.37145654296875,6.85917499037981,0.6956915233641863,0.6243503344669937
1684201287845482800,9.381482666015625,7.808494653332233,0.5870785884320736,0.8474558369543402
1684201287855508700,9.3915087890625,6.924619230192899,0.4114753532886505,0.9298498963940888
1684201287865535700,9.40153564453125,4.0596021390289065,0.3488087614953518,0.2573218612733297
1684201287875561700,9.411561767578124,1.004825861597061,0.4016828580707311,-0.7002149190727621
1684201287885588700,9.421588623046874,-0.8966741144359112,0.514098107895255,-1.0151926495715975
1684201287895614700,9.43161474609375,-2.336522209125757,0.4634206445813179,-0.9125519209168851
1684201287905641700,9.441641845703124,-3.9621348674893375,0.8914420590013266,-0.9910869668409228
1684201287915667700,9.451667724609376,-5.79004119952321,1.4078782544553279,-1.186643733471632
1684201287925694700,9.46169482421875,-8.105048326933384,2.2834733405053615,-1.1552392720349132
1684201287935720700,9.471720703125,-8.841240787512064,3.3432927750498056,-1.0062251339357347
1684201287945747700,9.481747802734375,-8.810948525100946,3.9922628792494534,-0.07304419342279433
1684201287955774000,9.49177392578125,-5.624449655306339,4.691832120829821,1.8061749772191047
1684201287965800700,9.50180078125,0.17610007874965666,5.089930690672993,4.654517412436008
1684201287975826700,9.51182666015625,1.6769558921098708,4.692993565824628,6.505148786497116
1684201287985852700,9.521852783203125,-1.1607353852331637,3.8285032266348598,5.6894251085639
1684201287995879700,9.531879638671874,-2.642791805577278,2.721567236128449,2.999083031782508
1684201288005905700,9.54190576171875,-2.3444985948324204,1.7047072378665207,0.8658430689729749
1684201288015932700,9.5519326171875,-1.90119631691128,0.8286223224729299,0.1809467881284654
1684201288025958700,9.561958740234376,-2.3108289649426936,0.3182131322234869,-0.4090441806189716
1684201288035985700,9.571985595703126,-2.832578756634891,0.08159633319079876,-1.1371955196917056
1684201288046011600,9.58201171875,-2.7472441136986014,0.12569909428954124,-1.8545833265572784
1684201288056038700,9.59203857421875,-2.9190801052629944,0.1426408767402172,-2.530729022452235
1684201288066065000,9.60206494140625,-3.018355595268309,0.04284194738268852,-2.99648658554852
1684201288076091600,9.612091552734375,-2.830364879977703,0.08604629833698273,-3.2573382466495033
1684201288086117600,9.62211767578125,-2.537581664825976,0.1363099201530218,-3.637388241843879
1684201288096144600,9.63214453125,-2.135075215412676,0.0929360578507185,-3.968715707184374
1684201288106170600,9.642170654296875,-1.9242600893735884,-0.13358371005952357,-3.987769951744377
1684201288116196600,9.652196533203124,-1.7124477689906954,-0.35693536932766434,-3.692756201061606
1684201288126224000,9.662223876953124,-1.8121017369195818,-0.4925847797453403,-3.168447080275416
1684201288136249900,9.672249755859376,-1.9214304189056157,-0.6649485945761203,-2.7722409000501034
1684201288146276600,9.682276611328126,-1.7600518162086605,-0.7935305508255958,-2.7235329832434654
1684201288156302600,9.692302490234376,-1.6181225948691367,-0.9199515296488999,-2.667620541885495
1684201288166329000,9.7023291015625,-1.5305632616207003,-1.0147527968496084,-2.777410119381547
1684201288176355000,9.71235498046875,-1.4641761879995465,-1.1100748730540275,-2.9655086789608
1684201288186382300,9.72238232421875,-1.3681409950897097,-1.3197814533293246,-3.25392200846523
1684201288196408300,9.732408203125,-1.366155958752334,-1.3860112905621529,-3.1867601510792967
1684201288206435300,9.742435302734375,-1.32711048104316,-1.4227321247160434,-2.812212260432541
1684201288216461000,9.7524609375,-1.2850687441274522,-1.596523342001438,-2.2482883376166223
1684201288226487000,9.762487060546874,-1.3062217145323753,-1.7730729180842637,-1.70978147239089
1684201288236514000,9.77251416015625,-1.3593462787374853,-1.8684709821343422,-1.462608208030462
1684201288246540000,9.7825400390625,-1.4193398519292473,-1.940581694099307,-1.5921198463454842
1684201288256567300,9.7925673828125,-1.6567244204640388,-2.066247470641136,-1.9997741800412534
1684201288266593300,9.80259326171875,-1.8210452140927313,-2.26583305439651,-2.546231127488613
1684201288276620000,9.8126201171875,-1.7798001805126666,-2.4622511140316723,-3.0288357804894446
1684201288286646000,9.82264599609375,-1.602944899481535,-2.587804077848792,-3.2538968740239738
1684201288296673000,9.832673095703125,-1.3541387732222676,-2.613248315706849,-3.138290134681761
1684201288306699300,9.84269921875,-1.163571777702868,-2.517774848333001,-2.825769368880987
1684201288316726300,9.852726318359375,-1.1304279252529144,-2.3490917678415775,-2.487785368260741
1684201288326752300,9.862752197265625,-1.2736004246518016,-2.07189102948606,-2.2127613894224165
1684201288336779000,9.872779052734375,-1.3061018875449895,-1.7864619764894245,-1.9949825618505477
1684201288346805000,9.882804931640624,-1.3145081891015171,-1.5982424208790063,-1.6946946701571344
1684201288356831000,9.8928310546875,-1.3633107984542845,-1.5324515595853327,-1.440170458512008
1684201288366858200,9.902858154296876,-1.3821499389588832,-1.518331264296174,-1.2036334467172622
1684201288376884200,9.91288427734375,-1.1047605461634695,-1.329132049998641,-0.9894178645849228
1684201288386911200,9.9229111328125,-0.5072736687026917,-0.9935019190281629,-0.4927095751687884
1684201288396937200,9.932937255859375,-0.16669658284932373,-0.5097416662514209,0.25438962548002597
1684201288406964000,9.9429638671875,-0.1196891863502562,0.07210778935551643,1.0400285462729633
1684201288416990200,9.952990234375,-0.20611527778506278,0.6314391236841679,1.5879244404822588
1684201288427017200,9.963017333984375,-0.32681539474353194,1.154129118835926,1.8891981283426285
1684201288437043200,9.973043212890625,-0.23272505229115484,1.6088327884763478,1.995979025541991
1684201288447070200,9.9830703125,0.1256347238164395,2.0874866580247877,2.0324121287956833
1684201288457096200,9.99309619140625,0.5589186253419146,2.409733575809002,2.060452374496311
1684201288467123200,10.003123291015624,1.0332757110118866,2.4001351418584584,2.223546256678551
1684201288477149200,10.013149169921874,1.4891606993913649,2.3442332218945023,2.3173596818856894
1684201288487175200,10.023175048828126,1.9288024089783429,2.2975486276090145,2.3635374956928192
1684201288497202200,10.0332021484375,2.2806664663910863,2.235738944905996,2.316014112495631
1684201288507228200,10.043228271484375,2.527670803925395,2.572276253849268,2.1097436441488564
1684201288517255200,10.053255126953125,2.239865084925294,3.775691673901677,1.6324410430788994
1684201288527281400,10.063281494140625,1.6587112103670834,5.427474546310306,0.9673886228021233
1684201288537308200,10.07330810546875,1.75621998296082,6.141023797926306,0.9825624457322061
1684201288547334100,10.083334228515625,2.7178981922268868,4.798497428825497,1.8726082280695437
1684201288557361200,10.093361083984375,3.614308687290549,2.208442357179522,2.4605580463781953
1684201288567387100,10.10338720703125,3.749232121521234,0.7261392685979604,2.401330342992395
1684201288577414400,10.113414306640625,3.2601901289492843,0.5113765739768743,1.7949100713610648
1684201288587440000,10.123440185546874,2.6008669730395075,0.9637591071933508,0.8092200681928545
1684201288597467100,10.133467041015624,1.995716721343994,1.0019920994758604,0.25662589663211255
1684201288607493000,10.1434931640625,1.1642080297797917,0.39125148042738433,0.20846995115242897
1684201288617519000,10.15351904296875,-0.1643336531102657,-0.4429916045367717,0.24661968559827654
1684201288627546000,10.163546142578125,-1.830384120324254,-1.2690426152169703,0.03583670826312154
1684201288637572400,10.173572265625,-2.855652465969324,-1.9711206247478723,-0.44926608169637616
1684201288647599000,10.18359912109375,-2.9296716419041156,-2.383867313146591,-0.6993544297859072
1684201288657625000,10.193625,-2.5824972036123275,-2.387259293672442,-0.5337637623518705
1684201288667652000,10.203652099609375,-2.2110697830736634,-1.9102946923851967,-0.5438853068610653
1684201288677678000,10.213677978515625,-1.8238287073314188,-1.0592641387492419,-0.6014301351938396
1684201288687705300,10.223705322265625,-1.4780758262753486,-0.22354922766685484,-0.5452156421493739
1684201288697731300,10.2337314453125,-1.275171911752224,0.33370705395340916,-0.39775041399262845
1684201288707758000,10.243758056640624,-1.1435352441072464,0.6149737265735864,-0.18414163864701985
1684201288717784000,10.2537841796875,-1.0461983209490775,0.46494683123528957,-0.04506524488877039
1684201288727810000,10.26381005859375,-0.8255296171545982,0.05320610500872135,-0.060570126404124305
1684201288737837000,10.273837158203126,-0.5620692348599433,-0.47456572345197195,-0.2641677268464118
1684201288747863300,10.28386328125,-0.4566027812600136,-0.7749538606494665,-0.4981136992346495
1684201288757890300,10.293890380859375,-0.45786534854173655,-0.8084364435344934,-0.736520669619739
1684201288767916300,10.303916259765625,-0.6516589048922061,-0.6878185980319976,-0.9060896661002188
1684201288777943000,10.313943115234375,-0.8455038991689682,-0.32801264170408245,-1.024561001093313
1684201288787969000,10.323968994140625,-1.0484884777128696,0.18409633820056914,-0.9935223772943019
1684201288797996300,10.333996337890625,-1.296117669147253,0.6656009210050106,-1.0788072628047316
1684201288808022300,10.344022216796875,-1.3825626114130019,0.914651085153222,-1.0343940475173294
1684201288818049300,10.35404931640625,-1.3902899907946586,0.852240513947606,-0.5159028192296624
1684201288828075300,10.3640751953125,-1.3369663968861103,0.6281424202263355,-0.10791395634990185
1684201288838101200,10.374101318359376,-1.0403665460556746,0.3485726146519184,0.055384654624201356
1684201288848128000,10.3841279296875,-0.7744038255512714,0.24765140326619148,0.12442794184256345
1684201288858154200,10.394154296875,-0.2794382881492376,0.22161036855876445,0.2372168107524514
1684201288868181200,10.40418115234375,0.3353056847890839,0.09871639481782912,0.34666177606191484
1684201288878207200,10.414207275390625,0.975202292227745,-0.03003624182343483,0.20364147155005483
1684201288888234200,10.424234130859375,1.2107155139327048,-0.12408698291778564,0.05186327556502074
1684201288898260200,10.43426025390625,1.0920809512019156,-0.279614813759923,-0.019473054493963717
1684201288908287200,10.444287353515625,0.7700070518970489,-0.42516368690133094,-0.17350173281952738
1684201288918313200,10.454313232421875,0.30010289051532746,-0.47463995773196216,-0.4275885759606957
1684201288928340200,10.46434033203125,-0.010347206491231917,-0.3780424547642469,-0.5085825593441724
1684201288938366200,10.4743662109375,-0.28299974349047985,-0.1453419523924589,-0.4245085839934647
1684201288948393200,10.484393310546874,-0.4578483243416995,0.010153729745745658,-0.40517449957877394
1684201288958419200,10.494419189453126,-0.6316944866847246,-0.04409048613905906,-0.24131465625902637
1684201288968445200,10.504445068359376,-0.8512310446441173,-0.16648586270809174,-0.26210955220758914
1684201288978472200,10.51447216796875,-1.0753321340400726,-0.11970832944214344,-0.24842445173161104
1684201288988498200,10.524498291015625,-1.2711182524472475,-0.04766016131937503,-0.13973828716650605
1684201288998525200,10.534525146484375,-1.2341986808508634,-0.07189736147522927,-0.03684548344686627
1684201289008551200,10.54455126953125,-1.1548865861397235,-0.17491525287926196,0.23943945523798466
1684201289018578200,10.554578125,-1.0936053842902183,-0.23157529773414134,0.32211554648950697
1684201289028604200,10.564604248046875,-0.932380656980723,-0.29114392351210117,0.2556369951926172
1684201289038631200,10.574631103515625,-0.48168636911213397,-0.4598065457373857,0.0857255419500172
1684201289048657200,10.5846572265625,0.19001111520230768,-0.5385276157528162,-0.2411540040709078
1684201289058684200,10.59468408203125,0.985026205497235,-0.4702256484210491,-0.48495793812870974
1684201289068710100,10.604710205078124,1.7694868762910365,-0.24285949281454086,-0.7273062665507197
1684201289078737200,10.614737060546876,2.2091133883088827,-0.07852057900726794,-0.7931047266289591
1684201289088763100,10.62476318359375,2.115514628765732,-0.0328477921128273,-0.6512716591402888
1684201289098789000,10.6347890625,1.6205058367438614,-0.1036409917384386,-0.46657706278562544
1684201289108816100,10.644816162109375,1.0466776288986206,-0.20578502291738987,-0.34216084791347384
1684201289118842000,10.654842041015625,0.5892119471989572,-0.2346703411400318,-0.15474042505780233
1684201289128869400,10.664869384765625,0.23859306754171847,-0.2431932548135519,0.08790047483630478
1684201289138895400,10.674895263671875,0.07674816250726581,-0.20332535480558872,0.2769021755340509
1684201289148922000,10.684922119140625,0.06969897464811801,-0.10377776986062526,0.4387428610511124
1684201289158948000,10.694947998046874,0.08918620379790664,0.014798340681195258,0.5383662511786446
1684201289168974800,10.704974853515624,0.14357669628560543,0.0819295106679201,0.6077422409500927
1684201289179000800,10.715000732421874,0.24879692003950477,0.0166875154286623,0.6234037012666463
1684201289189027800,10.72502783203125,0.35650004665032026,-0.054549920833110804,0.5760856679158285
1684201289199053800,10.7350537109375,0.38404198743999,-0.04471007934212684,0.5352326658606529
1684201289209079800,10.745079833984375,0.39486294892281293,-0.028504794472455977,0.44993345956392583
1684201289219106800,10.75510693359375,0.4353859518386423,-0.04962357034683227,0.3012392741341144
1684201289229132800,10.7651328125,0.447339424482733,-0.10226561173200607,0.16965214471928775
1684201289239159800,10.775159912109375,0.4454997879654169,-0.15666297235190868,0.05210924968272447
1684201289249185800,10.785185791015625,0.46359731632247564,-0.1900070235490799,-0.04716828614920377
1684201289259212800,10.795212890625,0.4678076274938881,-0.17098843482434747,-0.06056932725310325
1684201289269239000,10.805239013671875,0.41807752803266046,-0.11592179664075374,0.0705899321384728
1684201289279265800,10.815265869140624,0.3467730178840458,-0.07729191399514675,0.3268045080233365
1684201289289291800,10.825291748046874,0.21716654089242218,-0.05105038827955723,0.5679242444984615
1684201289299318800,10.83531884765625,0.06779007228687405,-0.02451835518479347,0.7235186377707868
1684201289309344800,10.8453447265625,-0.0035502398274838923,-0.08550093941390514,0.8169507355101406
1684201289319370800,10.855370849609375,0.09560615384280681,-0.24561726709008216,0.7748567569505422
1684201289329398000,10.86539794921875,0.29438568191230297,-0.3804138600707054,0.6682469785343855
1684201289339424000,10.875424072265625,0.5051986159943044,-0.46675475744009015,0.4856150137979537
1684201289349450800,10.88545068359375,0.7342600312113762,-0.4864303487688303,0.30675131555385887
1684201289359476700,10.895476806640625,0.8901965889848769,-0.4170458468973636,0.39804362478554245
1684201289369503700,10.905503662109375,0.8865314906060695,-0.16659925995469094,0.8291333407349885
1684201289379530000,10.915530029296875,0.7873657445855439,0.012899229061603545,1.2066864776123314
1684201289389557000,10.925556884765625,0.608119769025594,0.1970820765018463,1.3280582832872867
1684201289399583000,10.9355830078125,0.3217876297093928,0.5961889466047287,1.3086980415180325
1684201289409609700,10.945609619140624,-0.03253215029239654,1.1526350808858872,1.3007253090731798
1684201289419635700,10.9556357421875,-0.37248759711608287,1.604112189695239,1.375719905911386
1684201289429663000,10.9656630859375,-0.6290384922832251,1.7627426627278326,1.3652875053547322
1684201289439689000,10.97568896484375,-0.6767220344781876,1.6708002920895815,1.2043371380072085
1684201289449715000,10.98571484375,-0.5442055152587593,1.510009426152706,0.9743091427803039
1684201289459742000,10.995741943359375,-0.3029308074176311,1.3591840739130974,0.7657646650869399
1684201289469768000,11.005767822265625,0.03457783077582717,1.2310779184818268,0.6610512218113989
1684201289479794700,11.015794677734375,0.3454045060098171,1.0957026488304138,0.6251653771769256
1684201289489821000,11.025821044921875,0.5270087351337075,0.9658207158982753,0.6270389159638434
1684201289499848000,11.035847900390625,0.5642601690329611,0.8720388548731803,0.6116816262256354
1684201289509874000,11.0458740234375,0.5690766294039785,0.7162444820493459,0.6065447747938335
1684201289519900700,11.055900634765624,0.744107471486926,0.47953883568942546,0.6190094848956912
1684201289529926700,11.0659267578125,1.2379098103284836,0.22089549828767774,0.6370121015109121
1684201289539954000,11.075953857421876,2.4340849038638175,-0.024131401693820952,0.7772212941247969
1684201289549980000,11.08597998046875,4.29074489056468,-0.15291618703901766,1.1010976397417485
1684201289560006000,11.096005859375,5.9056228044241665,-0.13137889349162576,1.3296660107448697
1684201289570033000,11.106032958984375,6.642101680728793,-0.0201338564902544,1.3218651277355848
1684201289580059000,11.116058837890625,6.547789658349752,0.10234627575278281,1.158971078974381
1684201289590085600,11.126085693359375,5.619187204733491,0.19429916778504847,0.8314649985529482
1684201289600111900,11.13611181640625,4.1300212446451185,0.3265852392494678,0.34493981110751626
1684201289610139000,11.146138916015625,2.701936068463325,0.4572796576082706,-0.12758152876896783
1684201289620164900,11.156164794921875,1.5108336020171642,0.6569020662426949,-0.50328335695751
1684201289630191900,11.16619189453125,0.4233470294008031,0.9009504765808581,-0.7788510142184794
1684201289640217900,11.1762177734375,-0.6942547685593367,1.1184247682482003,-0.9147309454564004
1684201289650244900,11.186244873046874,-0.5893348429262638,1.8004010699927806,-1.2201570768211036
1684201289660270800,11.196270751953126,-1.7452432463943957,2.166519278207421,-0.7134671262905001
1684201289670296800,11.206296875,-5.340011951434612,2.162425286892056,0.3167497086074203
1684201289680323800,11.21632373046875,-6.006964287048578,3.0986709487378596,0.26588717105016113
1684201289690349800,11.226349853515625,-4.672134902191162,4.191921528241038,-0.07716887213736773
1684201289700376800,11.236376953125,-3.6617069828033446,4.935863580033183,0.2949563214071095
1684201289710402800,11.24640283203125,-3.137188603180647,4.920253922969103,1.4889242602869868
1684201289720429800,11.256429931640625,-3.030772886031866,4.812987726470828,2.8595301841855045
1684201289730455800,11.266455810546875,-2.056842513436079,4.927611299994588,3.2140818732470273
1684201289740482800,11.27648291015625,-0.7317863345742225,4.94618156042993,2.843348864713311
1684201289750508800,11.2865087890625,0.07968903826475143,4.513450653144717,1.4285587850429118
1684201289760536000,11.2965361328125,-0.4533854266487062,3.6484172931194303,0.06615121903866529
1684201289770562000,11.30656201171875,-1.170620673301071,2.8646371519356966,-0.34877485922574997
1684201289780588800,11.3165888671875,-2.0113617419824004,2.13157188346684,-0.826405669336766
1684201289790614800,11.32661474609375,-3.14303849825263,1.61388305760324,-1.5800938929870725
1684201289800640800,11.336640869140625,-3.64545259809494,0.6323012934714556,-2.1426687392815946
1684201289810667800,11.346667724609375,-3.595304419352114,-0.606078472456336,-2.498419867260754
1684201289820693800,11.35669384765625,-3.2486969672933217,-1.2637836717754602,-2.5851141081124545
1684201289830721000,11.366720947265625,-2.773141063760221,-1.6080407613158225,-2.8171237056106326
1684201289840746800,11.376746826171875,-2.3131062622249123,-1.93205293520689,-3.2110026119321584
1684201289850773800,11.386773681640625,-2.173531495057046,-2.0071932241261004,-3.2499478441372514
1684201289860799700,11.3967998046875,-2.3148446303248402,-1.961872319409251,-2.8817469844296575
1684201289870827000,11.406826904296874,-2.745532341344654,-2.0208149222433565,-2.6397449852272867
1684201289880853000,11.41685302734375,-3.0240073374196887,-2.1989807013511657,-2.6599673967838284
1684201289890879700,11.426879638671876,-2.886839046871662,-2.435408699813485,-2.8122081687793132
1684201289900905700,11.43690576171875,-2.6576664263650773,-2.3693805226325986,-2.706666311855614
1684201289910931700,11.446931640625,-2.3155934028655287,-2.0372943478792904,-2.48354436969012
1684201289920958700,11.456958740234375,-2.0618919057801364,-1.5505875202566384,-2.1121131497591734
1684201289930984700,11.466984619140625,-1.8634540307551621,-1.0871721363723277,-1.7199156206533313
1684201289941012000,11.477011962890625,-1.7103920055046677,-0.9290928674817085,-1.4310270748525857
1684201289951038000,11.487037841796875,-1.657766330732405,-1.0501654710143804,-1.3779893121480942
1684201289961064700,11.497064697265625,-1.6590183766201136,-1.361239837399125,-1.519800752326846
1684201289971090700,11.507090576171874,-1.7355758388608693,-1.813218465989828,-1.9049539158791302
1684201289981118000,11.517117919921875,-1.895399905592203,-2.1567104163765904,-2.284180904252827
1684201289991144000,11.52714404296875,-2.023654821844399,-2.1667197692155837,-2.452519701351225
1684201290001171000,11.5371708984375,-2.0673264980494976,-1.8671534697949885,-2.492579909060895
1684201290011197000,11.547197021484376,-2.0036369929492475,-1.5459475854963063,-2.548676182553172
1684201290021223000,11.557222900390625,-1.857631900472939,-1.4134429028451443,-2.6209388702094554
1684201290031249700,11.567249755859375,-1.6188266514852643,-1.455107623142004,-2.534294898240268
1684201290041275600,11.577275634765625,-1.498875453197956,-1.5074316846191882,-2.3291025805190206
1684201290051303000,11.587302978515625,-1.3069813007280229,-1.4636965877890586,-2.1457626136437056
1684201290061329000,11.597328857421875,-1.16411801340878,-1.2981968135088682,-1.952732150620222
1684201290071356000,11.60735595703125,-1.0337564802661539,-1.0868833825588227,-1.7481302000075578
1684201290081382000,11.6173818359375,-0.8065385009586811,-0.8512672850012779,-1.5709049166202544
1684201290091408600,11.62740869140625,-0.6039399991229176,-0.7271691961675882,-1.4279516129299998
1684201290101435000,11.637434814453124,-0.46192309949994087,-0.7716396215349436,-1.3440262522697448
1684201290111462000,11.6474619140625,-0.4089689234256744,-1.0739362227022646,-1.3594992773421108
1684201290121488000,11.65748779296875,-0.364623585742712,-1.517452727895975,-1.4402540451422332
1684201290131515000,11.667514892578126,-0.3689845574311912,-1.8237953895837067,-1.6243882311351596
1684201290141540900,11.677540771484376,-0.4141644462421536,-1.9825094492465256,-1.736094894298911
1684201290151566800,11.68756689453125,-0.4554327145673334,-1.9447458280414343,-1.777613045731932
1684201290161593900,11.69759375,-0.5316751195095479,-1.6612135485768318,-1.7607506121277807
1684201290171619800,11.707619873046875,-0.5105576588094234,-1.2535481089651583,-1.6881971248313783
1684201290181646800,11.717646728515625,-0.23202713315486906,-0.6353197645097971,-1.6288985481664537
1684201290191672800,11.7276728515625,0.13861235187649726,0.05846621749401092,-1.3430479087568818
1684201290201699800,11.737699951171875,0.7042669709425419,0.6190203716158866,-0.6764037623092531
1684201290211725800,11.747725830078124,0.962311246472597,0.9369277988910675,0.03128638801500201
1684201290221752800,11.7577529296875,1.0930208624005318,1.3606342727214098,0.6462028314433992
1684201290231778800,11.76777880859375,1.086630869102478,1.7872317918181417,1.3530065543219447
1684201290241805800,11.777805908203124,0.7422071908235549,1.9544179117500782,2.0680694253712892
1684201290251831800,11.787831787109376,-0.05829202997088432,2.302168688625097,2.61074773106277
1684201290261857800,11.79785791015625,-0.778656806820631,3.7564194026768205,2.487318919792771
1684201290271884800,11.807884765625,-1.2810966256260872,6.405896385106444,1.8265685075588523
1684201290281910800,11.817910888671875,0.09954407781362533,9.166039727866648,2.1793498259469866
1684201290291937800,11.827937744140625,4.480774125945568,10.373304224562645,5.015391290256381
1684201290301963800,11.8379638671875,6.728079590004683,8.456648180451989,7.598692795988917
1684201290311990800,11.84799072265625,5.357122076189517,4.926377958807349,7.246522449105978
1684201290322016800,11.858016845703125,4.067906441515684,1.8928759400725363,5.348441926127672
1684201290332043800,11.868043701171874,2.8596330600380897,-0.4184031067252159,3.2120196800202128
1684201290342069800,11.87806982421875,1.2840578135192393,-1.9218091890901325,1.2586521541059017
1684201290352096800,11.8880966796875,-0.4642682013213634,-2.702812851297855,0.08921667200140654
1684201290362122800,11.898122802734376,-1.9562638318777084,-2.9276427664250133,-0.6879808028563856
1684201290372148700,11.908148681640625,-2.9650457376241683,-3.076124770408869,-0.8245683709070086
1684201290382175700,11.91817578125,-3.3310429498076437,-3.1594594716995954,-1.0953140879042447
1684201290392202000,11.928201904296875,-3.164439013677835,-3.0861358768135307,-1.2710805507853626
1684201290402228700,11.938228759765625,-2.8374849411159753,-2.5473300286412237,-1.438372761440277
1684201290412254700,11.948254638671875,-2.378475683236122,-1.4340969838172197,-1.8038601244054733
1684201290422281700,11.95828173828125,-1.9458879838138818,0.21087036335766315,-1.930794897969812
1684201290432307700,11.9683076171875,-1.7780922075510024,1.8206880712181328,-1.8730287915691732
1684201290442335000,11.9783349609375,-1.4235294125735758,2.399701426616311,-1.2040317983850837
1684201290452361000,11.98836083984375,-0.26377777768075467,1.9859382546514273,-0.21552695699185132
1684201290462387700,11.9983876953125,1.0997761818796397,0.7820452802151441,0.1750154983833432
1684201290472413700,12.00841357421875,1.8037351828515529,-0.4817191023379564,-0.1288926296338439
1684201290482440700,12.018440673828126,2.1121739400357007,-1.0325766228318214,-0.7251574179537594
1684201290492466700,12.028466796875,1.9305594817787408,-0.9527578207075595,-1.3792857816994188
1684201290502493000,12.038492919921875,1.1945768645584582,-0.6304314079463481,-1.7236603601396083
1684201290512520000,12.04852001953125,0.19725451045930384,-0.1995136875629425,-1.8294049000285564
1684201290522546000,12.0585458984375,-0.6715338181853294,-0.14620178409218787,-1.658135748566687
1684201290532572700,12.06857275390625,-1.2001193011164664,-0.6281161167412996,-0.9068649613216518
1684201290542598700,12.0785986328125,-1.6868109311699866,-1.3070891450166702,0.3417405401421711
1684201290552626000,12.0886259765625,-2.666053438699245,0.556209987437725,-1.0008820924073456
1684201290562652000,12.09865185546875,-2.38090378716588,1.2454057190418242,-0.878075650819391
1684201290572679000,12.108678955078124,-1.9998808552861214,1.7380846068114042,-0.2749706046832725
1684201290582705000,12.118704833984374,-2.073176393121481,1.9576772058069705,0.9241554110795259
1684201290592731000,12.12873095703125,-1.9590403108537195,1.3060200544804335,2.0352824235349893
1684201290602757600,12.138757568359376,-1.4512977094650268,0.82233695859313,2.4970927103102207
1684201290612783900,12.148783935546875,-0.7905085726559161,0.043108489364385605,1.896560619934648
1684201290622811000,12.158810791015625,-0.6106313134551048,-0.41015316477417946,1.503881298661232
1684201290632836900,12.1688369140625,-0.5533890847980976,-1.0091033927857875,1.5899410410016774
1684201290642863900,12.17886376953125,-0.28438977307677266,-0.6755997524499893,0.9900490020953118
1684201290652889900,12.188889892578125,-0.36897359764575954,1.8665122492820023,-1.0326782565753907
1684201290662916900,12.198916748046875,-0.2783621833503246,2.9799861171245574,-2.0254758997917173
1684201290672942800,12.20894287109375,-0.246186627943255,1.527223595803976,-1.3877449824869632
1684201290682969900,12.218969970703125,-0.5987853563060984,0.9101257166832685,-1.301296533089876
1684201290692995800,12.228995849609374,-0.9733177936553955,-0.07241115621626376,-0.6491271944575011
1684201290703022600,12.239022705078124,-1.3804209232091902,-0.5128793797552585,-0.43977074279412626
1684201290713048600,12.249048583984376,-1.353914024555683,-0.7511334246009588,-0.3551379645168781
1684201290723074800,12.25907470703125,-1.198059445977211,-1.9674024810075759,0.4977936004348099
1684201290733101800,12.269101806640625,-1.1018237620592117,-2.5127555588662625,0.6612484248839319
1684201290743127800,12.2791279296875,-0.7657213374018669,-3.058053691667318,0.7266267598539591
1684201290753154800,12.28915478515625,-0.34007596793081607,-3.316343977847695,1.0234057666435836
1684201290763180800,12.299180908203125,0.208860192579031,-3.4125872605502603,1.500860635665804
1684201290773207800,12.309207763671875,0.1293523195674643,-3.3208231690883636,1.5508502628460525
1684201290783233800,12.31923388671875,-0.2352431908582337,-2.8592735790759325,1.1773083343714474
1684201290793260800,12.3292607421875,-0.28276014431463553,-1.6148475187212228,0.521637417358905
1684201290803286800,12.339286865234374,-0.34209377402663227,-0.23873218375146388,0.2228941247589886
1684201290813313800,12.349313720703124,-0.30832360637187955,0.798662653017044,0.2608645205825567
1684201290823339800,12.35933984375,-0.3307809373736381,0.9556973812907934,-0.26562150585129857
1684201290833366000,12.369365966796876,-0.13629998328089712,1.3879028033971785,-1.4216837847068906
1684201290843392800,12.379392822265626,-0.08628010709285736,0.8070183934301137,-1.9559044970460235
1684201290853418800,12.389418701171875,0.07990648040771484,-0.30283436130583286,-1.8249657485373316
1684201290863445800,12.39944580078125,0.3711053489774465,-0.9048743720263243,-1.2872726839125155
1684201290873471700,12.4094716796875,0.632953035378456,-0.9849252293407916,-0.5851308884304016
1684201290883499000,12.4194990234375,0.9675848029613494,-0.34898411806225776,-0.11441548373103141
1684201290893525000,12.42952490234375,1.2131944712668656,0.30085224757790563,0.008091098127514124
1684201290903551700,12.4395517578125,1.4092939664721489,0.8732616746664047,-0.11872794010266662
1684201290913577700,12.44957763671875,1.4734972663134336,1.558766150537133,-0.7312728320941329
1684201290923604700,12.459604736328124,0.9018716830790042,2.166415233311057,-1.1533595957681535
1684201290933630700,12.469630615234376,0.049687264966499056,2.239823583871126,-1.0913597242552786
1684201290943657000,12.479656982421876,-0.46494332410395145,1.0072370143920182,-0.3255062849063426
1684201290953684000,12.48968408203125,-1.1330442452311515,-0.20780103891491888,0.3516667812749743
1684201290963710000,12.4997099609375,-1.4660615633547305,0.17404782239496708,0.2456500733811408
1684201290973736700,12.50973681640625,-1.7536036629825829,1.1483002665519713,-0.5366743891015648
1684201290983762700,12.5197626953125,-1.8107313253492117,0.8326274664610623,-0.9147183782357722
1684201290993790000,12.5297900390625,-1.7723738299041985,-0.35059681395590303,-0.9326791284706443
1684201291003816000,12.53981591796875,-1.9475386736303566,-1.4483809452354908,-0.5409286124799401
1684201291013843000,12.549843017578125,-2.0439222415864466,-1.778240091589093,-0.20647775442190466
1684201291023868700,12.55986865234375,-3.1263024675071236,-3.693060736966133,1.5054486941084264
1684201291033895700,12.569895751953124,-4.9840322753965856,-9.609672552916408,6.145954240065813
1684201291043921700,12.579921630859374,-5.591599525105953,-2.41827811679244,4.0079304039806125
