time,seconds_elapsed,z,y,x
1684201098649988600,0.033988525390625,0.7163263151139021,-0.16504940016418695,0.30170901053771376
1684201098660013600,0.044013671875,1.5236767169773577,-0.9892042218342423,-0.17301190347597
1684201098670039600,0.05403955078125,1.4267723400175572,-0.12848580239862203,-0.1450330508400686
1684201098680065500,0.0640654296875,0.1838069998651743,1.058299677631259,-0.008490198714006691
1684201098690090800,0.0740908203125,-1.036447326785326,2.2106769843637943,0.21581220367401838
1684201098700116700,0.08411669921875,-1.2739888394474983,2.566468152092397,0.2821141562949866
1684201098710141700,0.0941416015625,-0.5543547149598598,1.925607120068371,-0.34177287150919433
1684201098720167700,0.104167724609375,1.1479670890748501,0.44110126074552536,-1.2126849143095313
1684201098730193700,0.114193603515625,2.7808903627127406,-1.176236905747652,-1.8741512197278438
1684201098740218600,0.124218505859375,4.372912301641702,-2.1072861679941415,-1.2175019592024385
1684201098750244600,0.13424462890625,6.052345397520065,-1.999176506409049,-0.16351298437714576
1684201098760269600,0.14426953125,6.044597559872269,-0.9517880988925694,0.1043808503203094
1684201098770295600,0.154295654296875,4.749609187015891,0.1073141272932291,-0.3072375647008419
1684201098780321500,0.164321533203125,3.970779946237802,1.2521131077259777,-0.6635567018263041
1684201098790346500,0.174346435546875,4.17252241576612,2.4145322082623837,-0.6529596122272312
1684201098800372500,0.18437255859375,3.6861651322335,3.0020638011589647,-0.749048873411864
1684201098810397700,0.194397705078125,3.518561663672328,3.6881618590086696,-0.6671335373997688
1684201098820423700,0.204423583984375,4.224164924719929,4.195799830979109,0.14404139118790626
1684201098830449700,0.21444970703125,5.421581396618485,4.31528721114695,0.741752140532434
1684201098840474600,0.224474609375,5.186206706601381,1.957767514438927,0.4409554225340485
1684201098850500600,0.23450048828125,4.988924723613262,0.8597478208377957,1.3731374882027505
1684201098860526600,0.244526611328125,5.297206828930974,3.2005043065324426,2.2406892607897517
1684201098870551600,0.254551513671875,5.422041415345668,5.005874689370393,0.32205227199494835
1684201098880577500,0.26457763671875,5.203072501206398,4.853762804451584,-3.839631354370713
1684201098890602500,0.2746025390625,4.294458358129859,7.27734662643671,-4.4885693098664285
1684201098900628500,0.28462841796875,2.8466671954810616,8.72364141304791,-4.525438612580299
1684201098910654500,0.294654541015625,0.5946767884761095,8.830518317967654,-5.857108072102069
1684201098920679700,0.3046796875,-1.0524971288323401,10.206070173835753,-6.69166036914587
1684201098930705700,0.31470556640625,-1.2282085005253554,11.418127750027178,-7.7079639025688165
1684201098940730600,0.324730712890625,-0.19962474672198294,11.239006862151623,-8.377150865367055
1684201098950756600,0.334756591796875,0.8259457967400551,11.482834323215483,-9.480791321459412
1684201098960782600,0.344782470703125,2.319562306496501,13.269997141450643,-10.083144051390885
1684201098970807600,0.3548076171875,7.490730433920025,13.9658716201663,-9.085534112522005
1684201098980833800,0.364833740234375,8.06671070523262,13.26030343043208,-6.523172518965602
1684201098990858800,0.374858642578125,7.052289332294464,13.326554310452938,-0.5582891317993403
1684201099000884700,0.384884765625,3.089474081325531,11.331667610192298,5.831585508310795
1684201099010910700,0.39491064453125,-2.0862989095449445,9.258332227116822,9.289621683871745
1684201099020935700,0.404935791015625,-4.397033181941509,7.49693279569149,12.211454887235163
1684201099030961700,0.414961669921875,-5.494058019286394,6.824322288185358,13.241908526563643
1684201099040988000,0.42498779296875,-5.8640405017137525,7.3372788248300544,14.226909743750095
1684201099051012900,0.435012939453125,-5.641050076973438,6.638714376378059,16.65670177272558
1684201099061038800,0.445038818359375,-5.218213956236839,4.922101596662402,18.657324970811604
1684201099071063800,0.455063720703125,-3.9008804805815216,3.8677509489178656,20.20896521499157
1684201099081090000,0.465090087890625,-1.5971990493059158,2.9865736788213253,20.16476133160591
1684201099091116000,0.475115966796875,0.603965425825119,2.1515333059996364,18.985397233748436
1684201099101140700,0.485140625,1.8865993440210818,1.9526807126939296,18.250360957467556
1684201099111167000,0.4951669921875,2.277498357748985,1.3781453794926404,17.560760736715793
1684201099121191700,0.505191650390625,2.3238766625642775,0.670896689325571,17.78971562281847
1684201099131218000,0.515218017578125,2.881400655210018,-0.548294976529479,18.326297365200517
1684201099141244000,0.525243896484375,3.4959494343698023,-1.7986089258790015,18.186245920431613
1684201099151268900,0.535268798828125,4.573531904619932,-2.881436311045289,17.220819172286987
1684201099161294800,0.545294921875,7.651143114194274,-3.91319284966588,15.52787309936285
1684201099171320000,0.555320068359375,8.182530210542678,-3.9608331372410057,14.038873728013037
1684201099181346000,0.565345947265625,7.902884417122602,-4.261888798436522,12.353933266890047
1684201099191372000,0.5753720703125,7.201188100385665,-4.688651737228036,10.293040016758441
1684201099201397000,0.58539697265625,6.828854670917988,-4.517152430272102,7.975075208586454
1684201099211423000,0.595423095703125,5.812908280369639,-4.4092783310085535,7.056949725320935
1684201099221449000,0.605448974609375,5.563039785575866,-4.954305245652795,4.45592785398066
1684201099231474000,0.615473876953125,6.4531052955269805,-4.687387416380644,2.3608301364302635
1684201099241500000,0.6255,5.749592284756899,-4.475655467757583,1.2638742726683616
1684201099251524900,0.63552490234375,4.261507690164446,-4.29889487927258,-0.433695952925086
1684201099261550800,0.64555078125,2.6442846744835373,-3.6493800006717443,-1.9260820441037416
1684201099271576800,0.655576904296875,0.5449535571470856,-3.613092589499056,-3.1327503284722567
1684201099281601800,0.665601806640625,-1.085627245017886,-3.4848096161961553,-4.511526991605758
1684201099291627800,0.675627685546875,-2.2834147421859203,-3.1913425104334947,-5.219484122303128
1684201099301653000,0.685653076171875,-2.225179995360225,-3.731442197808623,-4.192583207020164
1684201099311679000,0.695678955078125,-0.9302173414669931,-5.017769709825515,-2.7484511514008045
1684201099321705000,0.705705078125,0.9091209235548973,-5.28016684680283,-2.9235896916419266
1684201099331730000,0.71572998046875,2.1075578245423734,-4.139615586942434,-4.641628704768419
1684201099341756000,0.725755859375,4.264667030978202,-1.672461211039126,-7.62908618068695
1684201099351780900,0.73578076171875,4.218062516191601,-0.003614391104876995,-8.132626654210686
1684201099361806800,0.745806884765625,-2.006039377915859,-0.10535480991899966,-6.980722810208797
1684201099371832800,0.755832763671875,-4.112183390137553,1.2286834245607257,-4.516118995571136
1684201099381857800,0.76585791015625,-3.2536428992629047,2.9263743539243934,-4.8037803376644845
1684201099391883800,0.7758837890625,-1.0629226612567901,1.472368262283504,-5.810386068415641
1684201099401909800,0.78590966796875,1.6270073275923729,0.5779492332980036,-4.19150651769936
1684201099411935000,0.79593505859375,2.0365911680459976,2.7591671912044284,-3.588485679247975
1684201099421960700,0.805960693359375,-0.14153613036870955,-0.8280997599035501,-2.1326842286229133
1684201099431986000,0.81598583984375,-0.24886603975296018,0.7908893886670469,0.8684452142953872
1684201099442012000,0.826011962890625,-0.01613631128668785,1.05820440056324,0.5319546671032905
1684201099452038000,0.836037841796875,1.5717688399732113,-0.9185849174708127,-1.8896774362921713
1684201099462062800,0.846062744140625,2.0918015986144542,2.4538787147447465,-1.19326812004745
1684201099472088800,0.8560888671875,0.21903211556859314,3.837147720861435,-1.108511276999116
1684201099482113800,0.86611376953125,-0.8170294998347759,4.4616728273734445,-2.0606465818941593
1684201099492139800,0.876139892578125,0.5230079750597477,4.587499055173993,-3.0728584620893
1684201099502165800,0.886165771484375,2.3413725717663763,3.9790281346231695,-3.1386995922654863
1684201099512190700,0.896190673828125,3.7651077360451217,3.438375197279453,-3.180314043679833
1684201099522216700,0.906216796875,4.8241667076110835,2.4497721562087533,-3.753621296390891
1684201099532242000,0.916241943359375,4.7136803800225255,1.77318251593858,-5.614230459108948
1684201099542268000,0.926267822265625,3.3443221180975433,1.998548145377636,-5.9722051083564756
1684201099552294000,0.9362939453125,0.7430877730503678,1.7910662554144858,-4.042945603260398
1684201099562318800,0.94631884765625,-1.6118119504176078,1.338846803805232,-1.6998329098284244
1684201099572344800,0.9563447265625,-2.7517443477272985,1.0663222405672073,0.44802842966020107
1684201099582370800,0.966370849609375,-3.2390204996705054,2.1065368109315634,3.5183138263911005
1684201099592395800,0.976395751953125,-4.296123660993576,3.539962179097533,6.041534080648422
1684201099602421800,0.986421875,-5.299686955308914,3.4577830775827167,6.369661873164772
1684201099612446700,0.99644677734375,-4.631064348395168,3.604775135269761,7.007472285446524
1684201099622472700,1.00647265625,-2.270682978645712,2.603743405258655,6.771346484801173
1684201099632498700,1.016498779296875,-0.22712664776220917,2.105090119254589,7.126056579294801
1684201099642523600,1.026523681640625,1.58961896944046,2.439627194291353,6.77644351567924
1684201099652549600,1.036549560546875,1.822012305559218,0.24052082073390482,6.095549748474359
1684201099662574800,1.046574951171875,0.7716366989254951,-2.444558220952749,5.23376749919951
1684201099672600800,1.056600830078125,0.9895084654778241,-1.8333441391736267,4.152148905301094
1684201099682627000,1.066626953125,2.2931951085746287,1.221491174969077,4.0900142284274095
1684201099692651800,1.07665185546875,2.8034979158401487,2.612887081179023,3.218879044395685
1684201099702678000,1.086677978515625,2.2734549275770783,2.5689275279432535,1.4528145437687634
1684201099712704000,1.0967041015625,1.4449167762562631,3.043924628549814,-0.8735229559510945
1684201099722729000,1.10672900390625,0.21128800424784422,2.26948865429461,-2.1426175936162473
1684201099732755000,1.1167548828125,-1.4374512626811862,0.07945406046509743,-2.395340893319249
1684201099742780000,1.12677978515625,-3.7306896258756517,-2.0705343541800976,-3.1024481291890145
1684201099752806000,1.136805908203125,-5.275162754905224,-4.026269778269529,-4.524341464993357
1684201099762832000,1.146831787109375,-5.2446974740147585,-3.776260413700342,-4.682735206660628
1684201099772856800,1.15685693359375,-4.446547154434025,-2.994896101486683,-3.7118998774707315
1684201099782882800,1.1668828125,-3.3449791207015513,-2.7680449096649884,-2.752607102036476
1684201099792908000,1.176907958984375,-2.01851906639114,-3.091711631119251,-2.5447213074475523
1684201099802934000,1.18693408203125,-0.9732536423780024,-3.7305303436607122,-3.006393062534928
1684201099812960000,1.1969599609375,-0.4509210823617875,-4.484247355014086,-3.353829074372351
1684201099822985000,1.20698486328125,0.11506912533417343,-4.5278597022473805,-3.4906215173453092
1684201099833011000,1.217010986328125,1.148981819075346,-4.223326720330119,-3.036250440660119
1684201099843036000,1.227035888671875,1.9532476989269256,-3.8204935231804846,-2.3149448758289215
1684201099853062000,1.237061767578125,2.3394810589313506,-3.1264135266661643,-1.4312348723843693
1684201099863087900,1.247087890625,2.4867922655701635,-2.4484593200445173,-0.0419669181138277
1684201099873112800,1.25711279296875,2.331923190897703,-1.6834505148261785,1.9007488654047249
1684201099883138800,1.267138916015625,2.0990870794475076,-0.5543354257375002,4.516501272886991
1684201099893164800,1.277164794921875,2.1455963171660897,1.636589394930005,7.820489042508601
1684201099903190000,1.28718994140625,2.199948523470014,3.4419407808065414,9.145799488392472
1684201099913216000,1.297216064453125,2.5594623649835584,4.388261846464872,8.45089940766692
1684201099923241000,1.307240966796875,2.6191128238260744,4.682057161268592,6.757574564558267
1684201099933267000,1.317266845703125,2.2010136684834958,3.8420080203741787,5.748681015130877
1684201099943293000,1.32729296875,1.982175541117042,1.4627309576272964,6.277474003332853
1684201099953318000,1.33731787109375,1.9220457743249832,0.6663631375491619,5.79418195258975
1684201099963344000,1.34734375,1.2596842736326157,1.979103440195322,3.0203628434374927
1684201099973368800,1.357368896484375,0.11191928300112486,1.5122428842931985,-0.12322247504293918
1684201099983394600,1.36739453125,-0.5961142739333212,-0.19225158760547637,-2.71504777123183
1684201099993420800,1.3774208984375,-0.5439012716151773,-0.9327759399086236,-4.418689425693452
1684201100003445500,1.387445556640625,-0.46817521869726475,-0.6398790352493524,-4.867616850019991
1684201100013471700,1.3974716796875,-0.4631061718046665,-0.1521177301377058,-5.257673859965801
1684201100023496700,1.40749658203125,-0.5333670181192457,0.31325580207705495,-5.949019463080168
1684201100033523000,1.41752294921875,-1.0663409452676773,0.5183388142049312,-6.571168780371546
1684201100043549000,1.427548828125,-1.6223125939048826,0.5314046320050955,-7.110263966879248
1684201100053574000,1.437573974609375,-2.3021581672310827,0.6372545319646596,-7.210853754353523
1684201100063599900,1.447599853515625,-2.9702853918433187,0.8457230948776007,-6.147723003304004
1684201100073625900,1.4576259765625,-3.3779730432868003,0.8495674953460692,-5.007427179509401
1684201100083650800,1.46765087890625,-3.6000890232801437,0.8619096750468015,-3.474339952369034
1684201100093676800,1.4776767578125,-3.2208734330832955,0.7637760485529899,-2.0789994001865386
1684201100103701800,1.48770166015625,-2.674450680166483,0.5240846643805503,-0.8759849621504545
1684201100113727700,1.497727783203125,-2.113157690376043,0.0014338321954011917,0.10987930160611867
1684201100123753700,1.507753662109375,-1.2743407216250895,-0.4493646467000246,1.2197563140004872
1684201100133778700,1.51777880859375,1.2457938415765761,0.3552420094132423,1.0946014095902443
1684201100143804700,1.5278046875,1.4108838660120964,-0.4067126689314842,2.374152851600945
1684201100153830000,1.537829833984375,0.5903893204152584,-0.8238315810650586,2.9245623360663653
1684201100163856000,1.54785595703125,0.3114917150139809,-0.7156260578900575,2.9496316031321883
1684201100173881900,1.5578818359375,0.052991585475206375,-0.9205378051042556,3.1459868266642093
1684201100183906800,1.56790673828125,-0.29715222401618957,-2.0117647698253394,3.5197608103290197
1684201100193932800,1.577932861328125,-0.4835778819471597,-2.6259669275045394,3.551597964094579
1684201100203958800,1.587958740234375,-0.4051795045474544,-2.088353503987193,3.431339015032351
1684201100213983700,1.597983642578125,-0.15675591133236885,-1.1302677662551401,3.928071854367852
1684201100224009700,1.608009765625,0.46765725923776624,-0.002838438296318054,4.734676406300068
1684201100234034700,1.61803466796875,1.7281734536498785,1.0933458565711975,5.213743532824516
1684201100244060700,1.628060791015625,3.6657822694182394,1.859625412377715,4.882438571576774
1684201100254086700,1.638086669921875,5.442508449313045,1.8996341821610927,3.4859263452664018
1684201100264111900,1.64811181640625,4.831751463651657,1.520063787177205,1.754603487674892
1684201100274137900,1.658137939453125,2.317728661328554,0.9519780685067176,0.3553828791886568
1684201100284162800,1.668162841796875,0.4008850587565452,0.4572112685471773,-0.30000439857691524
1684201100294188800,1.678188720703125,-0.29616562413163483,0.003226560831069946,-0.40398967370837924
1684201100304214800,1.68821484375,-0.20684600321240723,-0.24531974544823168,-0.35574645180404185
1684201100314239700,1.69823974609375,0.0013507570218294859,-0.28362580296695233,-0.09717179572433232
1684201100324265700,1.708265625,0.2267852869786322,-0.2832090388596058,0.085907766649127
1684201100334291700,1.718291748046875,0.41937180562689896,-0.2608697812795639,0.322472543233633
1684201100344316700,1.728316650390625,0.5762888988703488,-0.3785457281112671,0.6397320279940962
1684201100354342700,1.7383427734375,0.581914483667165,-0.6392711324840784,0.9973036493986844
1684201100364367600,1.74836767578125,0.550603837993741,-0.887964738279581,1.213889175532758
1684201100374393600,1.7583935546875,0.4283269732378423,-0.9911299291998147,1.3979559953778982
1684201100384419600,1.768419677734375,0.1904864776290953,-1.0765215630203484,1.5131494777441024
1684201100394444800,1.77844482421875,-0.07831073564887046,-1.1805021619766949,1.4845564204663038
1684201100404470800,1.788470703125,-0.16722111818008123,-1.189253039187193,1.3750392301708458
1684201100414495700,1.798495849609375,-0.09594050036370753,-1.0723954230010508,1.2589397388756274
1684201100424521700,1.808521728515625,-0.024933877183124422,-0.8738245692461728,1.1434054802477358
1684201100434547700,1.818547607421875,0.0947615927774459,-0.676364891603589,0.958773427735269
1684201100444572700,1.82857275390625,0.2556418174982071,-0.5455214201629162,0.7427420283526182
1684201100454598700,1.8385986328125,0.3941250631023198,-0.46641807283163067,0.5604334503516555
1684201100464623600,1.84862353515625,0.5139689285576343,-0.3839601543754339,0.3844213421463966
1684201100474649600,1.858649658203125,0.6649955024577677,-0.238373871833086,0.19234540336877107
1684201100484675600,1.868675537109375,0.7021854154281317,-0.08785480906367302,0.01617898138463497
1684201100494700500,1.878700439453125,0.7189243687830865,-0.02103928089737892,-0.20278525657951832
1684201100504726500,1.8887265625,0.6707211866281926,-0.03897065890729427,-0.3526139989972114
1684201100514752500,1.89875244140625,0.6515285565108061,-0.06751695443391799,-0.4629042194917798
1684201100524777700,1.90877783203125,0.5402390958458185,-0.09950842197835445,-0.4469330356389284
1684201100534803700,1.9188037109375,0.34976737739443775,-0.09242343215346335,-0.39707156488299367
1684201100544828700,1.92882861328125,0.15673311497867107,-0.12775368873178958,-0.2924018146187067
1684201100554854700,1.938854736328125,0.012316460737586021,-0.20726970851719378,-0.06083236210346222
1684201100564881000,1.948880859375,-0.08846168891564012,-0.39643385150134564,0.2815747156560421
1684201100574905600,1.958905517578125,-0.15086919138133525,-0.64980538598001,0.6507464662224054
1684201100584931600,1.968931640625,-0.18943726083710788,-0.8198422191679477,0.9811965642064809
1684201100594956500,1.97895654296875,-0.19203648355007172,-0.8756003467470407,1.2833102100223301
1684201100604982500,1.988982421875,-0.11757424002289771,-0.8703045784264802,1.5699673435091972
1684201100615008800,1.9990087890625,0.09007073154747486,-0.8475181616008282,1.8286948520630597
1684201100625033700,2.00903369140625,0.3685227851383388,-0.8203495841681957,2.0346298048451543
1684201100635059700,2.019059814453125,0.65375909204185,-0.8282102345407009,2.1929484354496003
1684201100645085700,2.029085693359375,0.80534454193376,-0.8059066327959299,2.3133114294081927
1684201100655111000,2.03911083984375,0.7308873399078846,-0.7061041963070631,2.48025263466835
1684201100665137000,2.049136962890625,0.542986202596873,-0.5238952792882919,2.661591783115268
1684201100675161900,2.059161865234375,0.31228534960970283,-0.2809603831499815,2.864216296175122
1684201100685187800,2.069187744140625,0.07985036630630493,-0.008232406294345854,3.0762516116589307
1684201100695213800,2.0792138671875,-0.1396346806615591,0.28485972867608067,3.205360222131014
1684201100705238800,2.08923876953125,-0.2488040073674172,0.6202601425439119,3.2244176815614103
1684201100715264800,2.0992646484375,-0.041704467785358426,0.965370049521327,3.0036247668653724
1684201100725289700,2.109289794921875,0.6320563787996769,1.2201380067944525,2.4956308210641143
1684201100735315700,2.119315673828125,1.7621984728485345,1.3574199868500232,1.9876801298826932
1684201100745341700,2.129341796875,3.0486914045602083,1.3133411911487578,1.6788994273930786
1684201100755367000,2.139366943359375,3.641180327603221,1.0761334404855967,1.5314941127300261
1684201100765393000,2.149392822265625,3.446281440359354,0.6786819363743066,1.3086083174079657
1684201100775419000,2.1594189453125,3.187567375808954,0.3148492087483406,1.0517679377749563
1684201100785443800,2.16944384765625,2.8413264189749956,-0.04187923983037471,0.7353072021767496
1684201100795469800,2.1794697265625,2.102017872202396,-0.2645136907398701,0.784328130455315
1684201100805494800,2.189494873046875,1.165228020477295,-0.49854398041069503,0.8086267054095864
1684201100815520800,2.199520751953125,0.048120161780249325,-0.7912602678060531,0.3369657634884119
1684201100825546800,2.209546630859375,-1.0930443163413555,-0.8625117325931787,-0.03307458660602569
1684201100835571700,2.21957177734375,-1.938026748919487,-0.5502139618933201,-0.3836754922151565
1684201100845597700,2.22959765625,-2.1673311791121956,0.008760229560732842,-0.6163613815397023
1684201100855622700,2.23962255859375,-1.9123570317424832,0.9221943401396274,-0.6059434478998184
1684201100865648600,2.249648681640625,-1.8944342754304409,1.8955559729367493,-0.7767775689452886
1684201100875674600,2.259674560546875,-2.2502516005136073,2.911914451417327,-0.6841828718781471
1684201100885699800,2.269699951171875,-2.1011656392872333,3.468019809436798,-0.4048123882681131
1684201100895725800,2.279725830078125,-1.8597863020278513,3.950099561780691,0.3149234430283308
1684201100905751800,2.289751708984375,-1.4259249294079839,3.62857452853024,1.4267822768896816
1684201100915776800,2.29977685546875,-1.0852104809105396,2.51059633500576,1.8617343673557043
1684201100925802800,2.309802734375,-1.0631063472606241,1.3721727348238228,1.690914859357476
1684201100935827700,2.31982763671875,-0.8967398731485009,0.6240963597059249,1.469216227993369
1684201100945853700,2.329853759765625,-1.0274211397647857,0.3175105369120836,0.754663352292776
1684201100955879700,2.339879638671875,-1.1671849997639656,0.25894436617493627,-0.11694529446959495
1684201100965904600,2.349904541015625,-1.0454266059242188,0.009632920742034912,-0.48010757548809047
1684201100975930600,2.3599306640625,-1.090984534267336,-0.0645884997665882,-0.7754846065253019
1684201100985955300,2.369955322265625,-1.3615433503903447,-0.03177811705470085,-1.16247667594254
1684201100995981600,2.379981689453125,-1.523521526415646,-0.12764789026975631,-1.3407856629133224
1684201101006007600,2.390007568359375,-1.2947548563614486,-0.14829144984781742,-1.4002601806670427
1684201101016032500,2.400032470703125,-1.0466565861105919,-0.04520283129513263,-1.422467920821905
1684201101026058500,2.41005859375,-0.943848684195429,0.07286942137777805,-1.42589029648602
1684201101036084500,2.42008447265625,-0.7785686901457607,0.19929682994186876,-1.364209208598733
1684201101046109400,2.430109375,-0.6783331229366362,0.3754951083689928,-1.6128297491580248
1684201101056135400,2.440135498046875,-0.7106886014878749,0.525590392768383,-2.059810715591907
1684201101066160400,2.450160400390625,-0.7633341500043869,0.3796557351797819,-2.4620816026836634
1684201101076186400,2.460186279296875,-0.6682524584271013,-0.04309855249226093,-3.061224722918868
1684201101086212400,2.47021240234375,-0.5046384978935122,-0.21710896548628805,-3.5490491563946005
1684201101096237300,2.4802373046875,-0.31869507052153345,-0.1977963622510433,-3.7956718011349437
1684201101106263300,2.49026318359375,-0.28486966554820536,-0.10817805064618587,-3.71203373298347
1684201101116288500,2.50028857421875,-0.2369594749905169,-0.1391284847050905,-3.3099832106441256
1684201101126314500,2.510314453125,-0.10812602819800377,-0.3026052287250757,-2.5343629950404165
1684201101136340500,2.520340576171875,0.010031856931746005,-0.6169248606413602,-1.5919471201270818
1684201101146365400,2.530365478515625,0.07171177577525377,-0.8804460332125424,-0.7428378899425268
1684201101156391400,2.540391357421875,0.04449702111333608,-0.9789800572007894,-0.12841361394524572
1684201101166417400,2.55041748046875,-0.1965446086242795,-0.944008112540841,0.12077683545649051
1684201101176442400,2.5604423828125,-0.6476888322174549,-0.9155337132066488,0.04095920237600803
1684201101186468400,2.57046826171875,-1.0862769410982727,-0.945170142057538,-0.31618367222249505
1684201101196493300,2.580493408203125,-1.199351531614363,-1.0383499455362557,-0.8478887484788894
1684201101206519300,2.590519287109375,-1.0310150726035237,-1.2094950322270392,-1.358524148699641
1684201101216545300,2.600545166015625,-0.7285036596417427,-1.389640002453327,-1.7659429200738668
1684201101226570200,2.6105703125,-0.4574002152480185,-1.5226567262798547,-2.0775445252031086
1684201101236596200,2.62059619140625,-0.2914998973429203,-1.5875240429878235,-2.2684546350717545
1684201101246621400,2.630621337890625,-0.07351327223926782,-1.643141300791502,-2.2945172970891
1684201101256647400,2.6406474609375,0.13671484769210218,-1.648158252170682,-2.117512962976098
1684201101266673400,2.65067333984375,0.2782417718410492,-1.6087375114083289,-1.7772434817671774
1684201101276698400,2.660698486328125,0.31288039289340375,-1.4800298829525709,-1.3798393239289521
1684201101286724400,2.670724365234375,0.3696596802137792,-1.3083973050057887,-1.0012924267739056
1684201101296750300,2.680750244140625,0.43672421470507977,-1.1076783333063125,-0.6677595603436232
1684201101306775300,2.690775390625,0.43079029461145396,-0.8771949224621057,-0.3773883747696876
1684201101316801300,2.70080126953125,0.42316710625663395,-0.6232406196594238,-0.0816594615548849
1684201101326826200,2.710826171875,0.3509096792973578,-0.39860944197475906,0.2835381246834993
1684201101336852200,2.720852294921875,0.037292423496767875,-0.31222061381042004,0.7841571578025818
1684201101346878200,2.730878173828125,-0.31898528563976286,-0.2408054828941822,1.3721364944666623
1684201101356903400,2.7409033203125,-0.5909224409112707,-0.16127485006153583,1.9028776941269634
1684201101366929400,2.750929443359375,-0.6839619226038456,-0.13399813607931135,2.248994147798419
1684201101376954400,2.760954345703125,-0.6994096671044826,-0.23466040426790713,2.51649006921947
1684201101386980400,2.77098046875,-0.5572492673575877,-0.3383750457644462,2.6887428248912095
1684201101397006300,2.78100634765625,-0.36464229044318197,-0.3679454236418009,2.831194316539168
1684201101407031300,2.79103125,-0.09929392071114852,-0.36293022582829,2.8544167866945265
1684201101417057300,2.801057373046875,0.026199440139532088,-0.1411906779319048,2.8843852239787577
1684201101427083300,2.811083251953125,0.11237550233602524,0.47635260686874387,2.8838486328840256
1684201101437108200,2.821108154296875,0.3418424296140671,1.5472604216605423,2.555028766450286
1684201101447134200,2.83113427734375,0.783531719380617,2.880600444743037,2.1537615034431217
1684201101457159200,2.8411591796875,1.9179910921066998,3.875642578950524,1.786280190181732
1684201101467185200,2.85118505859375,3.386798154777288,4.189236234679818,1.6301631612747907
1684201101477211100,2.861211181640625,3.913951559078693,3.9332518873542544,1.8439906208723782
1684201101487236400,2.871236328125,3.725176123151183,3.2475714703947305,1.9815379738658665
1684201101497262300,2.881262451171875,3.000447890394926,2.378294481450319,2.1495225506991145
1684201101507287300,2.891287353515625,1.4794552979350089,1.1609528273761271,1.9431714183315634
1684201101517313300,2.901313232421875,0.21809797652363777,-0.4160340395063162,0.9097574678927659
1684201101527339500,2.911339599609375,-0.4430594090759754,-1.6817518942147491,-0.4204433803811669
1684201101537364200,2.9213642578125,-0.5772814170390367,-2.291115379691124,-1.3446522752135992
1684201101547390500,2.931390380859375,-0.4618588020920753,-2.4909867946505546,-2.012377348765731
1684201101557416400,2.94141650390625,-0.6312088220596314,-2.2715572772622106,-2.385540214794874
1684201101567441400,2.95144140625,-1.062078027126193,-1.649431925368309,-2.2443191417247057
1684201101577467400,2.96146728515625,-1.423257025372982,-0.8542010003656149,-1.7510054631829262
1684201101587492400,2.971492431640625,-1.7372779666036366,0.002697568520903587,-1.213093056719005
1684201101597518300,2.981518310546875,-1.9260206693053243,0.6678332101017236,-0.44856560527682304
1684201101607544300,2.99154443359375,-1.974291655999422,0.9756751704365014,0.3524704988732934
1684201101617569500,3.001569580078125,-1.8382921169698236,0.9012070816904306,0.9501640048220753
1684201101627595500,3.011595458984375,-1.451400000795722,0.3787836285203695,1.1970868015527725
1684201101637621500,3.02162158203125,-0.8906763353258371,-0.4025999729156494,1.120880052445829
1684201101647646500,3.031646484375,-0.25396712575163694,-1.0664432365983725,0.8995251199528574
1684201101657672400,3.04167236328125,0.1662695896089077,-1.325140934535861,0.7330705291658639
1684201101667697400,3.051697509765625,0.44348903266489503,-1.1599170545876025,0.5193094128027558
1684201101677723400,3.061723388671875,0.12739070063829422,-0.8362959258407354,0.38856940173655746
1684201101687749400,3.071749267578125,-0.8073802124798297,-0.39817981838583943,0.20161095210313795
1684201101697774300,3.0817744140625,-0.9394301371008157,0.03701777127385139,-0.23192981026023626
1684201101707800300,3.09180029296875,-0.5956921029984951,0.48935646534860133,-0.4500175576508045
1684201101717825500,3.101825439453125,-0.502443910458684,0.9325994142979382,-0.44456601424664255
1684201101727851300,3.111851318359375,-0.5753384297451004,1.1842273199796676,-0.679809771360457
1684201101737877200,3.121877197265625,-0.9028209466278553,1.0968448046028614,-0.8763876977324485
1684201101747902500,3.13190234375,-1.390872759118676,0.7029284888803958,-1.0290689069718122
1684201101757928400,3.141928466796875,-1.7884242164731026,0.2899427310287952,-1.168745088687539
1684201101767954400,3.151954345703125,-1.682860147717595,-0.021376550027728078,-1.2976163832724095
1684201101777979400,3.1619794921875,-0.6495207238197326,-0.0563584315598011,-1.3597370316207409
1684201101788005400,3.17200537109375,0.39408695958163587,0.022349194452166557,-1.135570548838377
1684201101798030300,3.1820302734375,0.7626245404303074,0.026534371182322502,-0.5915653784573078
1684201101808056300,3.192056396484375,0.742186732557416,0.056228667700290676,-0.00675298139154911
1684201101818082300,3.202082275390625,0.5773264617571607,0.1813788959354162,0.4063634171023965
1684201101828107300,3.212107177734375,0.3794278081754222,0.17145196068286894,0.452262121707201
1684201101838133200,3.22213330078125,0.31425416546463963,0.010530161842703818,0.4018833490788936
1684201101848158500,3.232158447265625,0.06229425134956836,-0.29434651894569397,0.22375381032824515
1684201101858184400,3.242184326171875,-0.332237529390119,-0.44694764868617054,0.0383659710124135
1684201101868210400,3.25221044921875,-0.43906310598142445,-0.3169897279083729,0.07012333754003047
1684201101878235400,3.2622353515625,-0.4620400769431144,-0.18224515737593172,0.07232961541265248
1684201101888261400,3.272261474609375,-0.5751449895322323,-0.06225859551429748,-0.06159633221328258
1684201101898287400,3.282287353515625,-0.518354011774063,0.03315057445168495,-0.37090427344739435
1684201101908312300,3.292312255859375,-0.3640793958634138,-0.03245966957807541,-0.5386357523024082
1684201101918338300,3.30233837890625,-0.2673843508053571,-0.09505436517894267,-0.5697194573521613
1684201101928363300,3.31236328125,-0.376348437262699,-0.2006289553284645,-0.556696894171834
1684201101938389200,3.32238916015625,-0.332123511089012,-0.3082435268729925,-0.4908706693038344
1684201101948415200,3.332415283203125,-0.313727511242032,-0.43149464348852634,-0.17997370531260967
1684201101958440200,3.342440185546875,-0.37631855358108873,-0.5431523529440164,0.2989332622140646
1684201101968466200,3.352466064453125,-0.2630933025479317,-0.641522710803151,0.6092167704820632
1684201101978492200,3.3624921875,-0.08305361932702363,-0.7194751345336436,0.8984650895059109
1684201101988517600,3.372517578125,0.06015314766764641,-0.7047948672741651,1.1508329998999833
1684201101998543600,3.382543701171875,0.17222645218670368,-0.6105290221244096,1.2520447186648844
1684201102008568600,3.392568603515625,0.29121348161697386,-0.5605903944790362,1.2202683551758526
1684201102018594600,3.402594482421875,0.3408364674419164,-0.5690402429163456,1.2461889783740043
1684201102028620800,3.412620849609375,0.31979192584753036,-0.5436135407149791,1.337255735221505
1684201102038645500,3.4226455078125,0.37382863646149633,-0.5073948108643294,1.4279916526794432
1684201102048671700,3.432671630859375,0.4569933149475604,-0.4939537300109863,1.5386603510975836
1684201102058696400,3.442696533203125,0.5159844330985098,-0.5292693735420704,1.6430790492102503
1684201102068722400,3.452722412109375,0.6146984898287803,-0.6069634385973215,1.6209037500202654
1684201102078748700,3.462748779296875,0.5615805745601654,-0.7419090846598148,1.5621400108844041
1684201102088773400,3.4727734375,0.330473478859663,-0.9086018681168556,1.422002056875825
1684201102098799600,3.482799560546875,0.22997889538817107,-0.9987649541229009,1.2116823131382464
1684201102108825600,3.49282568359375,0.3807435304164886,-1.0355606070786714,0.9140589644789695
1684201102118850800,3.502850830078125,0.5701520035505294,-0.9971399832695722,0.6449231668964028
1684201102128876800,3.512876708984375,0.6176707105726004,-0.7811509617239236,0.6199927237793803
1684201102138901800,3.52290185546875,0.7219412323862314,-0.39647418351173397,0.6668377693235874
1684201102148927700,3.532927734375,1.0100422080058604,0.010699088668823242,0.6689212975993752
1684201102158953700,3.54295361328125,1.2824544699758291,0.2582984694868326,0.6343456587806343
1684201102168978700,3.552978759765625,1.415029733645171,0.28449557153880595,0.4522188670873642
1684201102179004700,3.563004638671875,1.4602723124288022,0.0274754514247179,0.11902443883121012
1684201102189029600,3.573029541015625,1.3708376868277787,-0.46588265078067775,-0.08314823880791664
1684201102199055600,3.5830556640625,1.0525748702436686,-0.8805968398600816,-0.09713993928134441
1684201102209081600,3.59308154296875,0.7168301729828119,-1.0609434701383114,-0.039970775860548015
1684201102219106600,3.6031064453125,0.4372591983646154,-1.008044823643565,0.12815437848716973
1684201102229132500,3.613132568359375,0.40911973007321356,-0.8621224410146474,0.33752778128534555
1684201102239158500,3.623158447265625,0.4881763156533241,-0.693109105655551,0.5016612356483936
1684201102249183700,3.633183837890625,0.5395353314906358,-0.52106385525465,0.5857154833853244
1684201102259209700,3.643209716796875,0.4602962289504707,-0.27459143263995645,0.5840814524427056
1684201102269234700,3.653234619140625,0.2596061910845339,-0.09116729461252689,0.5850736783504485
1684201102279260700,3.6632607421875,0.06075929686725139,0.09705459908545017,0.6752873254999519
1684201102289286700,3.67328662109375,-0.1346970781289041,0.30719957077801224,0.8742287661328911
1684201102299311600,3.6833115234375,-0.335459962035343,0.49039516074657435,1.1339259965017436
1684201102309337600,3.693337646484375,-0.524230794852972,0.5677899505943059,1.3398691325902938
1684201102319362600,3.703362548828125,-0.7440940274834632,0.6466320166409015,1.5969912517741323
1684201102329388500,3.713388427734375,-0.947232262219116,0.7198387071490288,1.840757338039577
1684201102339414500,3.72341455078125,-1.0980635327428578,0.884383957183361,2.0437264267534014
1684201102349439700,3.733439697265625,-1.080685112440586,1.1452525694191455,2.1504212531045077
1684201102359465500,3.743465576171875,-0.7307902362089603,1.459383985286951,2.0986074792370197
1684201102369491500,3.753491455078125,0.4641378529399633,1.6717051319748162,1.706323733152449
1684201102379516700,3.7635166015625,2.9791280389904973,1.7017361131012438,1.0312246237009763
1684201102389542700,3.773542724609375,5.249465419068932,1.6213023939490316,0.6282239610299468
1684201102399567600,3.783567626953125,4.752728780341148,1.3654805437088011,0.512798423473537
1684201102409593600,3.793593505859375,3.0406700106680393,0.9783382521659135,0.21465397354960442
1684201102419619600,3.80361962890625,2.6312983516603707,0.6349427478909492,0.043591596706211565
1684201102429644500,3.81364453125,2.5998043122440575,0.24230127440989016,0.13271218792200087
1684201102439670500,3.82367041015625,1.9094833760023115,-0.0768365714430809,0.011643968303501605
1684201102449696500,3.833696533203125,0.8855027320802211,-0.17303016978502272,-0.23851532613039014
1684201102459721500,3.843721435546875,0.1515337927699089,-0.2906055788516998,-0.48397944848537444
1684201102469747500,3.85374755859375,-0.6995395040292293,-0.3974918361216783,-0.5491682522326707
1684201102479772700,3.863772705078125,-1.4571370831429957,-0.19193185413181782,-0.6848150323018432
1684201102489798700,3.873798583984375,-1.920083095949888,0.18963994380235671,-0.8128682885020971
1684201102499824600,3.88382470703125,-1.9189980771921573,0.8035089240044355,-0.8315548687934875
1684201102509849600,3.893849609375,-1.8834511091232298,1.5095318717688322,-0.5134072030216456
1684201102519875600,3.90387548828125,-2.294113976985216,2.094146115913987,0.21334815164804458
1684201102529901600,3.913901611328125,-3.036246349006891,2.2718530453383923,0.7942354842245578
1684201102539926500,3.923926513671875,-3.41150589505434,2.282644488465786,1.0889408996105194
1684201102549952500,3.933952392578125,-3.590473638194799,2.111207725352049,1.7275164510458707
1684201102559977500,3.9439775390625,-2.5645199406340717,1.7652549378097055,2.6916636807739733
1684201102570003500,3.95400341796875,-1.4164113972619174,1.3336381292462347,3.120427437993884
1684201102580029400,3.964029541015625,-1.3121744854569435,1.0204074616104364,2.916294273936748
1684201102590054400,3.974054443359375,-1.4716108680449425,1.0227215837717056,2.1687533208698033
1684201102600080400,3.984080322265625,-1.4578936005987226,1.0406816033542157,1.3638421288520097
1684201102610105600,3.994105712890625,-1.3268274263180793,0.8322539569735526,0.8057447202324867
1684201102620131600,4.004131591796875,-1.4287094455599785,0.49874037976562974,0.37980011208653447
1684201102630157800,4.01415771484375,-1.3007564348638057,0.36652971162497994,-0.3215186035096645
1684201102640182500,4.0241826171875,-1.2584288667440413,0.2561024207472801,-1.2874234905600548
1684201102650208800,4.034208740234375,-1.0865447982542216,-0.003907528832554817,-2.325203527253866
1684201102660234800,4.04423486328125,-0.9013773236908018,-0.1176835456162691,-2.915621489241719
1684201102670259700,4.054259765625,-0.761018420407921,0.015031564915180205,-3.0609646106779573
1684201102680285700,4.06428564453125,-0.5410417905308306,0.2723492066711187,-3.137370389488339
1684201102690310700,4.074310546875,-0.4413230868026614,0.5571002142757177,-3.0711569188684225
1684201102700336600,4.084336669921875,-0.48361295326054093,0.6938748293310404,-2.8899820210725067
1684201102710362600,4.094362548828125,-0.5565840814471245,0.630683336880803,-2.7262422422021624
1684201102720387600,4.1043876953125,-0.5503814274147153,0.4113426668196916,-2.784405677357316
1684201102730413600,4.11441357421875,-0.5453437255084514,0.12455167782008647,-2.864216296175122
1684201102740439600,4.124439453125,-0.5354784573152661,-0.09398469012081623,-2.8663357725471257
1684201102750464800,4.13446484375,-0.5187938644960522,-0.2850409304618835,-2.8343787917941805
1684201102760490800,4.14449072265625,-0.4255862962275743,-0.4338572809666395,-2.8945944833040236
1684201102770515700,4.154515625,-0.30418665269762274,-0.5470289021164179,-2.7608237262398
1684201102780541700,4.164541748046875,-0.2241658982604742,-0.6562474017262458,-2.2486557096242903
1684201102790567700,4.174567626953125,-0.2824555901437998,-0.78406714143157,-1.3467103767871855
1684201102800592600,4.184592529296875,-0.37829263013303277,-0.9273065685868263,-0.3883960909962654
1684201102810618600,4.19461865234375,-0.5589727301493287,-0.9792898538023233,0.31424539763629433
1684201102820643600,4.2046435546875,-0.9639531684607267,-0.8593103062033652,0.6047106912344694
1684201102830669600,4.214669677734375,-1.3137271217264235,-0.663285629799962,0.3840817349284887
1684201102840695600,4.224695556640625,-1.3671513995304703,-0.6002998890548944,-0.15665362000167368
1684201102850720800,4.234720703125,-1.1549801827073096,-0.8002385240316391,-0.8187614381939172
1684201102860746500,4.24474658203125,-0.9182862267851829,-1.1362059241324662,-1.3812334086358546
1684201102870772500,4.2547724609375,-0.6786044872239232,-1.3593144222944975,-1.8084727327674626
1684201102880797700,4.264797607421875,-0.2570046302840113,-1.3388175777107476,-2.154955097141862
1684201102890823700,4.27482373046875,0.2722846170023083,-1.1680898396492003,-2.377972409889102
1684201102900848600,4.2848486328125,0.5910191427513957,-0.947510567703843,-2.3530776226073504
1684201102910874600,4.29487451171875,0.6954838719628751,-0.6989134080201387,-2.016163297045231
1684201102920900600,4.304900634765625,0.6682245475068688,-0.4889905546456575,-1.434486275395751
1684201102930925600,4.314925537109375,0.6293580796264112,-0.31352175953686234,-0.7882762835592031
1684201102940951600,4.32495166015625,0.472798567648977,-0.24934125604927537,-0.2786597049921751
1684201102950977500,4.3349775390625,0.26833149546235796,-0.3132803519964218,0.015547113221883773
1684201102961002500,4.34500244140625,0.10417217600569129,-0.47632630338370796,0.13227788815796374
1684201102971028500,4.355028564453125,-0.05595262723788619,-0.7596931631535291,0.17536767282187937
1684201102981053700,4.3650537109375,-0.243636906927824,-1.0531675754398107,0.1149000523775816
1684201102991079700,4.37507958984375,-0.5092869082212448,-1.3718687834411858,-0.07111527118682862
1684201103001105700,4.385105712890625,-0.7837620210051536,-1.6158295154958962,-0.39334348427057264
1684201103011130600,4.395130615234375,-0.8130348772406577,-1.7324907323271035,-0.6886357596337794
1684201103021156600,4.405156494140625,-0.9084216892443597,-1.7139228099793196,-0.7034487133622169
1684201103031182600,4.4151826171875,-0.9267558759015053,-1.5269260741621256,-0.5285492425739765
1684201103041207600,4.42520751953125,-0.8992471797943115,-1.1911276008874176,-0.30436756222248074
1684201103051233500,4.435233642578125,-0.6169231070756912,-0.7813859395235776,-0.01778407849371433
1684201103061258500,4.445258544921875,-0.20017416076567024,-0.41903263680040836,0.385862188604474
1684201103071284500,4.455284423828125,-0.08457565952884033,-0.20362930618822572,0.9282540785700082
1684201103081310500,4.465310546875,-0.2795440866112709,-0.17729074983894824,1.4945201805979011
1684201103091335400,4.47533544921875,-0.6792237881660461,-0.3265916689902544,1.841605771562457
1684201103101361400,4.485361328125,-1.1642331642210484,-0.38729835888743397,1.9990607710748909
1684201103111386600,4.49538671875,-1.492424669623375,-0.06668810239434242,2.1340520098447797
1684201103121412600,4.50541259765625,-1.2261655965209006,0.8385989420861005,2.386314706298709
1684201103131438600,4.5154384765625,-0.15607198418881743,2.622243523067236,3.2680431805372234
1684201103141463600,4.525463623046875,1.729638265505433,5.2363335502952335,4.172216126295924
1684201103151489500,4.535489501953125,3.741168057531118,7.3180831259727475,5.3701896475553506
1684201103161515800,4.545515869140625,4.623075395467877,6.9302271332025525,6.372321447762847
1684201103171540500,4.55554052734375,3.8321968204557892,3.950727338290214,5.801290323290228
1684201103181566700,4.565566650390625,2.932563856214285,1.064746954074502,4.162550180067122
1684201103191591400,4.57559130859375,2.269124497157335,-0.6165659642010927,2.568771752859652
1684201103201617700,4.58561767578125,1.3441365807764232,-1.8957763376891612,0.6234902105063199
1684201103211643600,4.5956435546875,0.295970905277133,-2.920703907072544,-1.1179650417819618
1684201103221668600,4.605668701171875,-0.13904076988901942,-3.4256863960981367,-2.0726266502842305
1684201103231694600,4.615694580078125,-0.3232943444779143,-3.4554040734916924,-2.572516200084984
1684201103241720600,4.625720458984375,-0.8649486043512821,-3.1510628147542477,-2.5556746631383893
1684201103251745800,4.635745849609375,-1.8658558311998843,-2.197588370209932,-2.0135230116695166
1684201103261771800,4.645771728515625,-2.634348971402645,-0.49899640035331244,-1.0690040269970893
1684201103271796700,4.655796630859375,-2.6258546993017196,1.192169803416729,-0.1814794337004423
1684201103281822700,4.66582275390625,-1.970156748151779,2.1689929748445747,0.5007034965321421
1684201103291848700,4.6758486328125,-0.5044639815768227,2.3929729951441288,1.1667881094008683
1684201103301873700,4.685873779296875,1.8145143510192632,1.7348083616197107,1.4515557758793234
1684201103311899600,4.695899658203125,2.9526819306135175,0.45277182479500766,1.2421774046450853
1684201103321924600,4.705924560546875,1.7368658786714075,-0.7631997099697589,0.6124503455758095
1684201103331950600,4.71595068359375,0.5352712808379904,-1.509142580190301,-0.330331732301414
1684201103341976600,4.7259765625,0.24933891796171664,-1.5392477955967188,-1.1810270626336334
1684201103352001800,4.736001708984375,0.4083166335294023,-0.9131582162469625,-1.6928487500295042
1684201103362027500,4.746027587890625,0.7185241174191236,0.08723638490438461,-1.8828741860181093
1684201103372053500,4.756053466796875,0.5022837879935279,1.015735962668061,-1.7929808568641543
1684201103382078700,4.76607861328125,-0.1857978814214468,1.536408772778511,-1.5808847511038184
1684201103392104700,4.776104736328125,-0.7882919925849884,1.6308809541553257,-1.3118205574527382
1684201103402129700,4.786129638671875,-1.1734673679690808,1.3459645268559455,-0.9404846145898104
1684201103412155600,4.79615576171875,-1.2974164767861365,0.6586421879082918,-0.6926771439790725
1684201103422181600,4.806181640625,-1.5171113671123981,-0.21944529947936534,-0.14541034145355225
1684201103432206600,4.81620654296875,-1.8828905526310205,-0.705317429843545,0.45820992419570683
1684201103442232600,4.826232666015625,-0.9795844528347253,-0.742796388888359,0.7581129082247614
1684201103452258600,4.836258544921875,-0.05655358880572021,-0.508305495968461,0.8948585894465446
1684201103462283500,4.846283447265625,-0.10229834495782851,-0.0408779538333416,0.6807379921212792
1684201103472309500,4.8563095703125,-0.046288872966170305,0.3459258995354175,0.30084903270751234
1684201103482334700,4.866334716796875,-0.015540025893971323,0.5141156435519456,0.0692377868771553
1684201103492360700,4.876360595703125,0.08521810388453305,0.6225204886913299,-0.1358104461982846
1684201103502386700,4.88638671875,0.3128665835637599,0.5047258839160204,-0.3584863981619477
1684201103512411600,4.89641162109375,0.6143693309396505,0.35547172651588915,-0.6096016781464219
1684201103522437600,4.906437744140625,0.7779081073451787,0.33471067803800103,-0.736246528853476
1684201103532462600,4.916462646484375,0.26528416365571317,0.2608902395457029,-0.7162073649093509
1684201103542488600,4.926488525390625,-0.7096902381002903,0.024447628036141394,-0.6386223131865263
1684201103552514600,4.9365146484375,-1.3756580927215516,-0.2915472436159849,-0.5064841257601976
1684201103562539500,4.94653955078125,-1.6883336106926201,-0.5518786802351474,-0.4471797038763761
1684201103572565500,4.9565654296875,-1.8714789317786693,-0.680609689566493,-0.2939452446684241
1684201103582591500,4.966591552734375,-1.8205401871800422,-0.7357529001176357,-0.18190993407219647
1684201103592616400,4.976616455078125,-1.481445010447502,-0.705947544440627,-0.14036299493610857
1684201103602642400,4.986642333984375,-0.8435340604007243,-0.7120569672316313,0.052725335754454136
1684201103612667600,4.996667724609375,-0.25360760825686157,-0.646157384866476,0.34655104569643735
1684201103622693600,5.006693603515625,-0.23996486735157668,-0.6043634852319956,0.2366030627682805
1684201103632719600,5.0167197265625,-0.5230734415113926,-0.44729193207919593,0.09452771095633507
1684201103642744600,5.02674462890625,-0.7154996550314128,-0.17021569688618182,0.12823942642211913
1684201103652770600,5.0367705078125,-0.8242495142161845,-0.08539221834242343,0.14946750788986682
1684201103662796500,5.046796630859375,-0.4794692775845527,-0.0866577082335949,0.016159692162275315
1684201103672821500,5.056821533203125,-0.1588147435583174,-0.08128887467682361,-0.14005524416118859
1684201103682847500,5.066847412109375,0.054557519617676735,-0.05042144272625446,0.12279811215102672
1684201103692872400,5.07687255859375,0.18814298324286938,-0.017389526218175886,0.485806079390645
1684201103702898400,5.0868984375,0.026010128112509846,0.20758885746896266,0.5335998039618134
1684201103712924700,5.096924560546875,0.0851665928930044,0.4294909024506807,0.5894850650519132
1684201103722949600,5.10694970703125,0.10417933639883994,0.5564490568906069,0.5803314522594213
1684201103732975600,5.1169755859375,0.07567629549205303,0.5180278485596179,0.42286593135297296
1684201103743001600,5.127001708984375,0.06274184898659586,0.28407705386579035,0.19268764093518256
1684201103753026800,5.13702685546875,0.11735314461812377,0.03724573481082916,-0.14721417600512504
1684201103763052800,5.147052734375,0.3783967480946332,-0.04890168581306934,-0.40630847204476594
1684201103773077500,5.157077392578125,0.6744136114053427,-0.1300093587040901,-0.5525169781386852
1684201103783103700,5.167103759765625,0.9449889402717352,-0.19587445427775382,-0.7002247828796505
1684201103793129700,5.177129638671875,1.1865502099692822,-0.25899112792611123,-0.8106880218535661
1684201103803154700,5.18715478515625,1.3252034783780573,-0.28355799842774865,-0.7745663226366043
1684201103813180700,5.1971806640625,1.3264070089489222,-0.31729134120345115,-0.5202966702744365
1684201103823206700,5.20720654296875,0.9260685512244701,-0.3728443015992641,-0.009854162277281284
1684201103833231600,5.217231689453125,0.4075287345547229,-0.4608417340040207,0.4567246540740132
1684201103843257600,5.227257568359375,0.04329502491243183,-0.6321995866626501,0.7928855309203267
1684201103853282800,5.23728271484375,-0.1860579936623573,-0.7904349228978157,1.1321253768205641
1684201103863308500,5.24730859375,-0.20222645365297792,-0.8259896358817815,1.2605769846886397
1684201103873334500,5.25733447265625,0.06364215882718563,-0.7543401116877794,1.1817185520291327
1684201103883359700,5.26735986328125,0.5286334867913276,-0.7216963177144528,0.9713611066296696
1684201103893385700,5.2773857421875,0.92569562625885,-0.7047106961220503,0.8104127120435237
1684201103903411700,5.28741162109375,0.8990087679285556,-0.6510135927259921,0.7810659137889743
1684201103913436700,5.297436767578125,0.4041244790691882,-0.7229524552553892,0.8730608913972974
1684201103923462700,5.307462646484375,-0.050287002691626545,-0.8279027760267257,1.0557207670539617
1684201103933487600,5.317487548828125,-0.22047814965844154,-0.817847830480337,1.2484022705093025
1684201103943513600,5.327513671875,-0.1454074188441038,-0.6791565681487322,1.24776368034482
1684201103953539600,5.33753955078125,0.26014029796123506,-0.4092489094108343,1.0866016430079937
1684201103963564500,5.347564453125,0.713368634352088,-0.06757949827611447,0.8919573150470852
1684201103973590500,5.357590576171875,0.9070920480757951,0.26486615743935105,0.7198813772469759
1684201103983615700,5.36761572265625,0.8719077758394181,0.5202689054846763,0.5493088297471403
1684201103993641700,5.377641845703125,0.8577906223554164,0.6646241849273443,0.413755280919373
1684201104003667700,5.387667724609375,0.9272259045660495,0.6885428206533193,0.33327216966748235
1684201104013692700,5.397692626953125,1.0882165308587253,0.4729162026792764,0.38158085802346464
1684201104023718700,5.40771875,1.1995347792267799,-0.10325696085691452,0.6231321908488869
1684201104033744600,5.41774462890625,1.0377478879898785,-0.7769143470674753,0.9854016146808862
1684201104043769600,5.42776953125,0.7560895857036113,-1.3272265086382626,1.3294894851341843
1684201104053795600,5.437795654296875,0.3033626229636371,-1.617318292748928,1.6922285723045467
1684201104063820500,5.447820556640625,-0.29368418257944284,-1.4122569079309701,2.156245429213345
1684201104073846500,5.457846435546875,-0.7954372612297534,-0.6636001025766134,2.903800703066587
1684201104083872500,5.46787255859375,-1.0841519117683172,0.23692425754666327,3.543303890740871
1684201104093897500,5.4778974609375,-1.170607229297608,1.0390642312854528,3.7779552349194883
1684201104103923500,5.48792333984375,-0.9724784202218055,1.7459715606689452,3.5881034019321203
1684201104113949400,5.497949462890625,-0.4551169266164303,1.9664029485762118,3.1342817758232355
1684201104123974700,5.507974609375,0.48231706823110576,1.4503092829495667,1.8043571141421795
1684201104134000600,5.518000732421875,2.390555997130275,0.9097919546842574,0.5695195508658886
1684201104144025600,5.528025634765625,5.120258024397492,0.6807862151771783,-0.048069618903100485
1684201104154051600,5.538051513671875,6.235431681895256,0.5692933408945798,-0.5417161826610565
1684201104164077600,5.54807763671875,5.072254748728871,0.4564519746124744,-1.1359539951980113
1684201104174102500,5.5581025390625,2.9948949324429033,0.3038771483570337,-1.6726368598669767
1684201104184128500,5.56812841796875,1.2808283300787209,0.01644143171310425,-1.8504019492194055
1684201104194154500,5.578154541015625,0.09701077821003272,-0.3089005294770002,-1.7183575775563715
1684201104204179500,5.588179443359375,-0.7796925796091556,-0.4528273543745279,-1.9455320099830626
1684201104214205400,5.598205322265625,-1.4675462489545343,-0.35519700122773645,-2.115238296042383
1684201104224230400,5.60823046875,-2.0364438685297963,-0.21400807686150072,-1.3282792325615882
1684201104234256400,5.61825634765625,-3.3774972424685954,0.07305296125113964,-0.2785904391482472
1684201104244282600,5.62828271484375,-4.269221625542641,0.631343846616149,0.1797802285671234
1684201104254307600,5.6383076171875,-3.726662562316656,1.4080898513793945,0.7074082646429538
1684201104264333600,5.64833349609375,-3.382665877278149,2.2317729638844725,1.3437436359360813
1684201104274359800,5.65835986328125,-3.5295009908378123,2.599691499519348,2.4004776716858145
1684201104284384500,5.668384521484375,-3.2462697401463982,2.1735814716786144,2.744523748824
1684201104294410800,5.67841064453125,-2.745650122505426,1.1380875000953674,2.646559633678198
1684201104304435500,5.688435546875,-2.5580185959160326,-0.1457733295470476,2.7374939963176845
1684201104314461700,5.698461669921875,-2.340989125406742,-1.2022843701958656,2.5843793640971184
1684201104324487700,5.70848779296875,-2.295875579830259,-2.0009177971184253,2.6277590716183186
1684201104334512600,5.7185126953125,-2.2640192829728125,-2.1874100905448195,2.657004747585952
1684201104344538600,5.72853857421875,-1.8279121772527693,-1.8406594306230544,2.2461244375810026
1684201104354563800,5.738563720703125,-1.591075597989559,-1.2916735492199658,1.5856582491159439
1684201104364589600,5.748589599609375,-1.5560804185844956,-0.6182113933205604,0.594280482634902
1684201104374615600,5.758615478515625,-1.4662721373654901,-0.0048643911659717555,-0.3698462888270616
1684201104384640800,5.768640869140625,-1.553158978179842,0.43408875163495536,-1.022202528333664
1684201104394666800,5.778666748046875,-1.7646774301826953,0.754230806094408,-1.392822139620781
1684201104404692700,5.788692626953125,-1.8967679790750145,0.9294669614911079,-1.5268284590065477
1684201104414717700,5.7987177734375,-1.8426210860848427,0.8414818040460348,-1.5160188957005738
1684201104424743700,5.80874365234375,-1.804294278039038,0.5310135868608952,-1.3680886803805827
1684201104434768600,5.8187685546875,-1.7078339915849268,0.15682254682779312,-1.1939584403991699
1684201104444794600,5.828794677734375,-1.4650817585371434,-0.10837971069812774,-1.1287953556150196
1684201104454820600,5.838820556640625,-1.1929368422664701,-0.31069559620022774,-1.1401643063694238
1684201104464845600,5.848845458984375,-1.0180957506019621,-0.347094358792901,-1.026060957327485
1684201104474871600,5.85887158203125,-1.006930140399933,-0.2642553320646286,-0.9355541724503039
1684201104484897500,5.8688974609375,-0.8558357619605957,-0.36649814744293685,-0.9493547342658042
1684201104494922800,5.8789228515625,-0.9195183989286422,-0.40546471469700335,-0.7615466820657253
1684201104504948700,5.88894873046875,-0.9422843574881553,-0.2814788540661335,-0.4076186778604984
1684201104514973700,5.8989736328125,-0.9046283613760023,-0.19423370133340356,-0.12740297559797764
1684201104524999700,5.908999755859375,-0.9313023602247238,-0.1376437991052866,0.08175707671046256
1684201104535025700,5.919025634765625,-0.8098702757298946,-0.017820903372764586,0.222125916865468
1684201104545050600,5.929050537109375,-0.6111739689644425,0.13172376140654085,0.34014673161208625
1684201104555076600,5.93907666015625,-0.41237551699876784,0.2760802098929882,0.4158966768622398
1684201104565102600,5.9491025390625,-0.19933847712650893,0.3106049953073263,0.4231564387321472
1684201104575127600,5.95912744140625,-0.08114683585762977,0.25742694734930993,0.3047930941581726
1684201104585153500,5.969153564453125,-0.01562668126411736,0.24200667537748813,0.11565233204960822
1684201104595178500,5.979178466796875,0.14915237752608954,0.2404045008778572,0.030993688678741454
1684201104605204500,5.98920458984375,0.23660035935454068,0.2857522936016321,0.023577859464287757
1684201104615230500,5.99923046875,0.2165488473854959,0.2953583263367414,0.046399932125210756
1684201104625255700,6.009255615234375,0.10978716634325683,0.2168365782856941,0.0869710119664669
1684201104635281700,6.01928173828125,0.10488419673256576,0.17443185327649116,0.05173778602182865
1684201104645307600,6.0293076171875,0.07822291123494506,0.08741057242751121,-0.0698345837265253
1684201104655332600,6.03933251953125,-0.07614924676604569,-0.010907762983441352,-0.28051380842626095
1684201104665358600,6.049358642578125,-0.22801497490406036,-0.05208966819941997,-0.5268476993530988
1684201104675383600,6.059383544921875,-0.38940731386542315,-0.17318448356389998,-0.6397732367873191
1684201104685409500,6.069409423828125,-0.7669464952826499,-0.3949386445075273,-0.63348670386374
1684201104695435500,6.079435546875,-1.412698075827211,-0.6059253277212381,-0.6337210971415043
1684201104705460500,6.08946044921875,-2.026934720297903,-0.7640969510704279,-0.7625368621468543
1684201104715486500,6.099486572265625,-2.444320758935064,-0.8811486285239457,-0.8474953652471303
1684201104725512400,6.109512451171875,-2.617091547131538,-1.0133376693546772,-0.8550947343349456
1684201104735537400,6.119537353515625,-2.2826655312538144,-1.1805413249433039,-0.8150684288948774
1684201104745563400,6.1295634765625,-1.7428103201590477,-1.3469436010211706,-0.7082756951272488
1684201104755588600,6.139588623046875,-1.188790097850561,-1.4380325697004794,-0.49121816756725306
1684201104765614600,6.149614501953125,-0.38442835640907286,-1.35046943705976,-0.256861714681983
1684201104775640600,6.159640625,0.31248532916121186,-1.0919207922041416,-0.13777064035534858
1684201104785665500,6.16966552734375,0.6922235549926757,-0.7577244934290647,-0.10882394733428954
1684201104795691500,6.17969140625,0.7260521017711609,-0.46447687563598156,-0.40766017891466616
1684201104805717800,6.1897177734375,0.5425462037444114,-0.28512276352643967,-1.1475877343684435
1684201104815742500,6.199742431640625,0.2444119829535484,-0.3188210349887609,-2.0949229455053806
1684201104825768700,6.209768798828125,0.03654299336895346,-0.4583078316122293,-2.854598865263164
1684201104835793400,6.21979345703125,-0.08384630407467485,-0.6006646307140588,-3.2882039250344035
1684201104845819600,6.229819580078125,-0.3206220930613577,-0.6186398478657007,-3.394331180630624
1684201104855845600,6.239845703125,-0.5714286724228411,-0.44448622700870033,-3.3705458158954977
1684201104865870600,6.24987060546875,-0.962664370759204,-0.05933072536885738,-3.376761037148535
1684201104875896600,6.259896484375,-1.2583610622048378,0.5445534519135952,-3.3115193341702223
1684201104885922600,6.269922607421875,-1.1395534079294651,1.3292927935183048,-3.2316572774261236
1684201104895947800,6.27994775390625,-0.6771463243048638,2.467324764034152,-3.1689088525682685
1684201104905973800,6.289973876953125,0.26929624884128567,4.2295840271592136,-3.0059502872034907
1684201104915998700,6.299998779296875,1.0597755954027175,6.761181649139523,-1.831206250362098
1684201104926024700,6.310024658203125,1.04858083217144,8.647729555234312,0.7357660518601536
1684201104936050700,6.32005078125,0.640694370220229,7.831956192940473,2.6742665557712315
1684201104946075600,6.33007568359375,-0.08022917302343995,4.407268744751811,2.401787877501547
1684201104956101600,6.3401015625,-0.7553074954152107,0.4378174167692661,1.121044010835886
1684201104966127600,6.350127685546875,-0.19106150103807448,-2.441358548128605,0.3649728375717997
1684201104976152600,6.360152587890625,1.9682044450402258,-4.461368583729863,-0.21000702452659606
1684201104986178000,6.370177978515625,2.79314486413002,-5.197292164239287,-0.9563388940647244
1684201104996203300,6.380203369140625,0.5260287476530299,-4.253697893196344,-0.9165344146817922
1684201105006229200,6.390229248046875,-1.8188742997944354,-2.1868249841332434,0.34145693742781874
1684201105016255200,6.400255126953125,-3.1624294274210927,-0.2798316713809967,1.5697265204906463
1684201105026280200,6.4102802734375,-3.422897057640552,0.994022143509984,2.016882258969545
1684201105036306200,6.42030615234375,-3.2105262265920635,1.6852368137210607,2.3213497744351623
1684201105046331100,6.4303310546875,-2.2001894926190375,1.7908032205641269,2.4699776166304943
1684201105056357000,6.440357177734375,-0.11639351493888533,0.9920558118730783,2.214559963276982
1684201105066383000,6.450383056640625,1.4456103114783763,-0.40469373032450673,1.8688631963223217
1684201105076408000,6.460407958984375,1.0960744047522544,-1.5803350082665681,1.5273106895655393
1684201105086434000,6.47043408203125,-0.05534603964686394,-2.05094644113481,1.3289350661218167
1684201105096460300,6.480460205078125,-0.806585262709856,-2.0750737511754034,1.374279643975198
1684201105106485200,6.4904853515625,-0.9532242691755294,-1.7731261095762252,1.5102344670802355
1684201105116511200,6.50051123046875,-0.9553273789346217,-1.3119541207045315,1.8012454118624328
1684201105126536200,6.5105361328125,-0.7874363256037235,-0.8486217389285564,2.0505524733811615
1684201105136562400,6.5205625,-0.5163327350795268,-0.5843132153719663,1.9942875653237104
1684201105146588400,6.53058837890625,-0.35288404811024665,-0.5796510687798261,1.7915280277073382
1684201105156613000,6.540613037109375,-0.40513212174177166,-0.7330383804619311,1.5003186377435922
1684201105166639400,6.550639404296875,-0.5867898346185684,-0.8632745336592197,1.2682482499688863
1684201105176665300,6.560665283203125,-0.9146709588974714,-0.9006517858952283,1.0997826116204261
1684201105186690300,6.570690185546875,-1.2528244708657263,-0.8705266967445612,1.0489780147954821
1684201105196716300,6.58071630859375,-1.4028075270622968,-0.719681470760703,1.0015949168518186
1684201105206741200,6.5907412109375,-1.3284212713807821,-0.5949129353195428,1.030035413916409
1684201105216767200,6.600767333984375,-1.2747627464294433,-0.5914537347763776,1.1080533040985465
1684201105226793200,6.610793212890625,-1.3069172955811024,-0.5746908160239458,1.2759054867237805
1684201105236818400,6.620818359375,-1.324419050002098,-0.5642974323034287,1.4391513445973396
1684201105246844400,6.630844482421875,-1.3311246851205825,-0.6219371358454228,1.4577160520747303
1684201105256870100,6.6408701171875,-1.2718418905466795,-0.8330413079589605,1.5037518270626664
1684201105266895400,6.650895263671875,-1.1832499993801116,-0.9318833749830723,1.3957204914107917
1684201105276921300,6.66092138671875,-1.3830617931067943,-0.9225397925764321,1.3957736829027532
1684201105286946300,6.6709462890625,-1.5995552570432423,-0.749603730815649,1.5197881851062178
1684201105296972300,6.68097216796875,-1.8191507786482572,-0.48796354968547817,1.480256969706714
1684201105306998300,6.690998291015625,-1.9344705177426338,-0.44278702187538144,1.29784814620167
1684201105317023200,6.701023193359375,-2.053403771159053,-0.45479485505521294,0.8839972959533333
1684201105327049200,6.71104931640625,-2.0665859088152647,-0.4365244543492794,0.5242296258091926
1684201105337075200,6.7210751953125,-2.0352368308275937,-0.3488958552569151,0.09273205971121787
1684201105347100200,6.73110009765625,-1.7692238414406776,-0.12328969506025314,-0.4133043222814798
1684201105357126100,6.741126220703125,-1.2761685215741396,0.2939192334443331,-0.9580676175534725
1684201105367151400,6.7511513671875,-0.8737690396666526,0.6434750139147043,-1.359324359166622
1684201105377177300,6.76117724609375,-0.7132715306531637,0.8014186737269162,-1.6332754480764269
1684201105387203300,6.771203369140625,-0.7813450229912996,0.8361877892911433,-1.5854875687241554
1684201105397228300,6.781228271484375,-0.6874123553186655,0.8524725691378117,-1.2411515687286854
1684201105407254300,6.791254150390625,-0.4473538183342665,0.7159919685930013,-0.6019231063425541
1684201105417280300,6.8012802734375,-0.30057218852750955,0.37467677772343155,0.07046732867211103
1684201105427305200,6.81130517578125,-0.5404875176489353,0.009310264658927916,0.5690539791807532
1684201105437331200,6.821331298828125,-0.8887035008829086,-0.3032803515076637,0.8132663479089737
1684201105447356200,6.831356201171875,-1.1442658234041183,-0.4964882169246673,0.9810705997392535
1684201105457382100,6.841382080078125,-1.2856132262676954,-0.5646159967333078,1.120297868643701
1684201105467408100,6.851408203125,-1.3908883950792252,-0.5215735583424568,1.2035954527944326
1684201105477433000,6.86143310546875,-1.4505916070222853,-0.45100481512248514,1.2587296032562851
1684201105487459000,6.871458984375,-1.4787754989773034,-0.3703893096625805,1.274261518909037
1684201105497485000,6.881485107421875,-1.4464292266458272,-0.2910299417436123,1.2321961088567972
1684201105507510300,6.89151025390625,-1.3667916263073683,-0.3063666270852089,1.0980451203033328
1684201105517536300,6.901536376953125,-1.2495868041187523,-0.32122166638970373,0.8689780059978366
1684201105527561200,6.911561279296875,-0.9190238934099674,-0.2042892314016819,0.6616074674546718
1684201105537587200,6.921587158203125,-0.2980084755193442,0.00566109450161457,0.4667728776186704
1684201105547613200,6.93161328125,0.43672669892311095,0.25536124699115753,0.2732894101306796
1684201105557638100,6.94163818359375,1.0287421592354773,0.5235375518918037,0.115102589212358
1684201105567664000,6.9516640625,1.3002239354223013,0.7065414186805486,-0.03348959714770317
1684201105577690000,6.961690185546875,1.2654296854168177,0.7552589800983667,-0.22365210351943968
1684201105587715000,6.971715087890625,1.0643956564188002,0.6385030707210302,-0.5266469160839915
1684201105597741000,6.981740966796875,0.8890537025600671,0.36065468211174007,-0.7844874126702547
1684201105607766300,6.991766357421875,0.8038613907039165,-0.007460837399959563,-0.8606026841014623
1684201105617792300,7.001792236328125,0.7519657837718725,-0.35214579696357245,-0.8127443698614836
1684201105627818200,7.011818359375,0.6080582480967045,-0.6533914277732372,-0.6709320528998971
1684201105637843200,7.02184326171875,0.24947978773713111,-0.8621779705941677,-0.47081396970301864
1684201105647869400,7.031869384765625,-0.20342063187360762,-0.9056564623147249,-0.16945318808108567
1684201105657895400,7.0418955078125,-0.5534826083004474,-0.6950193231910466,0.3623971418648958
1684201105667920100,7.051920166015625,-0.8467886052172631,-0.35690380514562126,1.0378744369789958
1684201105677946400,7.0619462890625,-1.1523790602982042,0.07161912905573845,1.5227365135177968
1684201105687971000,7.07197119140625,-1.2526223724223673,0.6528530831128359,1.9763634938374162
1684201105697997300,7.081997314453125,-1.1558183870971201,1.2650345486193895,2.3039506036058066
1684201105708023300,7.092023193359375,-1.275924629815668,1.6230524524867533,2.412631343077123
1684201105718048300,7.10204833984375,-1.7178830919124186,1.629901295468211,2.3526366008415818
1684201105728074200,7.11207421875,-2.080692175579071,1.4174527230083942,2.068233383761346
1684201105738100200,7.122100341796875,-1.8187926128603518,1.1410749914735554,1.5730474816069007
1684201105748125400,7.13212548828125,-1.0384288559913635,0.9487292958438396,0.7892913058206439
1684201105758151200,7.142151123046875,-0.919953283214569,1.0631833580195904,0.36056992643773556
1684201105768176400,7.15217626953125,-0.6568037204347551,1.3440847044587134,0.4137321923047304
1684201105778202400,7.162202392578125,-0.038333018590882416,1.7443150256335733,0.3282768455982208
1684201105788228400,7.172228271484375,-0.48398894696608186,2.005146812990308,0.10772212357223034
1684201105798253300,7.18225341796875,-1.1208056720353663,1.807875351396203,-0.0072141691625118255
1684201105808279300,7.192279296875,-1.623389137095213,1.338956693920493,0.18756372205018995
1684201105818305300,7.20230517578125,-1.8603648325681685,0.8328910858333111,0.5110311215400696
1684201105828330200,7.212330322265625,-1.6633609358690677,0.4845119479268789,0.7488350845307111
1684201105838356200,7.222356201171875,-1.2116006262041628,0.2733580914527178,0.7168091301947832
1684201105848381200,7.232381103515625,-0.7370178054869174,0.2597112588942051,0.19118015898168086
1684201105858407200,7.2424072265625,-0.5150725058853626,0.6159580614358187,-1.035143258449435
1684201105868433200,7.25243310546875,-0.6684628863073885,1.0022218165785073,-2.0857997278511524
1684201105878458400,7.262458251953125,-0.8270468898497522,1.1923106731921433,-2.7744939396739006
1684201105888484400,7.272484375,-0.768444040364027,1.0975742879211903,-3.3551673372387882
1684201105898510300,7.28251025390625,-0.5030873229287565,0.745974434402585,-3.7678333616167303
1684201105908535300,7.292535400390625,-0.3037641895018518,0.30599428664147854,-3.99622243053019
1684201105918561300,7.302561279296875,-0.4090646388851106,-0.08454758421182632,-4.026317124542594
1684201105928586200,7.312586181640625,-0.5837573350548744,-0.32616204540133475,-3.954046253579855
1684201105938612200,7.3226123046875,-0.6808302004493773,-0.4270411712110042,-3.7664755172669886
1684201105948638200,7.33263818359375,-0.6976129929460585,-0.4648346030324697,-3.4284991154313085
1684201105958663200,7.3426630859375,-0.48837856022715564,-0.45583939567208287,-3.000076718994975
1684201105968689200,7.352689208984375,-0.13005027523636817,-0.4632639927148819,-2.5039018058031797
1684201105978715100,7.362715087890625,0.21921908950805663,-0.5758645359784365,-1.9401988322615622
1684201105988740000,7.372739990234375,0.4409356949202716,-0.7964543293178081,-1.323827513849735
1684201105998766000,7.38276611328125,0.41346857293248174,-1.0648609358429908,-0.8250023784101009
1684201106008791300,7.392791259765625,-0.00682137045264244,-1.2498872483700514,-0.5732067149460315
1684201106018817300,7.4028173828125,-0.5667829655088484,-1.2448480851590633,-0.6336410176426172
1684201106028843300,7.41284326171875,-0.9139011435687542,-1.1276596295833587,-0.9629647419452667
1684201106038868200,7.4228681640625,-0.9518282847724855,-0.9801759889870881,-1.2988128995805979
1684201106048894200,7.432894287109375,-0.7951565445922315,-0.7612438997268677,-1.3836024758547543
1684201106058920200,7.442920166015625,-0.5566694216430187,-0.5499579413056374,-1.3203449324309826
1684201106068945200,7.452945068359375,-0.28885668935775755,-0.3661228843897581,-1.2761539085268974
1684201106078971100,7.46297119140625,0.004537058907747268,-0.1753881310880184,-1.2898738063216209
1684201106088996000,7.47299609375,0.3008123539589345,-0.047133507096767426,-1.317002051743865
1684201106099022000,7.48302197265625,0.5963759936094284,0.04503098185956478,-1.2560334960401058
1684201106109048000,7.493048095703125,0.9840541455946862,0.10454173997044562,-1.056363741132617
1684201106119073300,7.5030732421875,1.319243693190813,0.11431728405356406,-0.759876118505001
1684201106129099000,7.51309912109375,1.4566390704929828,0.0541886863052845,-0.4911562082469463
1684201106139125200,7.523125244140625,1.3907482559561728,-0.022180267626047134,-0.289350025832653
1684201106149150200,7.533150146484375,1.1363841302435844,-0.1918149497538805,-0.15101415280997751
1684201106159176200,7.54317626953125,0.7878104196131229,-0.4019739499717951,-0.13241641984581948
1684201106169202400,7.553202392578125,0.46411381447725,-0.5994535013586282,-0.24063187989294527
1684201106179227100,7.56322705078125,0.1537771147172898,-0.7079349188655615,-0.3487345272153616
1684201106189253400,7.57325341796875,-0.17921799157448112,-0.6727870331168174,-0.45910044329464433
1684201106199278000,7.583278076171875,-0.45338330775685604,-0.5352040242880582,-0.5094149185150861
1684201106209304300,7.59330419921875,-0.667403586512804,-0.2623947988897562,-0.4279068481296301
1684201106219330300,7.603330322265625,-0.7223685178875923,0.09437281265556811,-0.17020517549216746
1684201106229355300,7.613355224609375,-0.509118529384397,0.5025204828262329,0.15041092621982097
1684201106239381200,7.62338134765625,-0.1821767683148384,0.8927344368994236,0.44284839667379855
1684201106249407200,7.6334072265625,0.15209959169281645,1.2524503768563269,0.7882587479025125
1684201106259432200,7.64343212890625,0.1989163061916828,1.731408197787404,1.0742127015560865
1684201106269458200,7.653458251953125,0.18940613504648207,2.276169154971838,1.2958692473441362
1684201106279483400,7.6634833984375,0.2683902399122715,2.529477561086416,1.6198942807167767
1684201106289509400,7.67350927734375,0.5825760163158178,2.2155793694525956,1.8004606912255285
1684201106299535400,7.683535400390625,1.1508271546810864,1.514324951264262,2.0621365281909703
1684201106309560300,7.693560302734375,1.8601590808629989,0.8728098392456769,2.472581953909993
1684201106319586300,7.70358642578125,2.6072183878928423,0.5562789610207081,2.899000609308481
1684201106329612300,7.7136123046875,2.8931846165060997,0.5784498762965202,2.9678035118997097
1684201106339637200,7.72363720703125,2.5242794079214335,0.7100836213320493,2.575492585547268
1684201106349663200,7.733663330078125,1.8425936135560272,0.5338146157562732,1.9254288408920168
1684201106359688200,7.743688232421875,1.3246125267475843,-0.05546002141535282,1.138981234064698
1684201106369714200,7.753714111328125,0.771172588545084,-0.7468804433315992,0.4262734017089009
1684201106379740200,7.763740234375,-0.12516834841370583,-1.244738779565692,-0.2719163682118058
1684201106389765400,7.773765380859375,-0.9720739310741424,-1.4734896675288676,-1.0236705550596117
1684201106399791400,7.783791259765625,-1.3725292931765316,-1.4787901120245457,-1.5973898957028985
1684201106409817300,7.7938173828125,-1.5701017835438251,-1.3632400713056325,-1.782725420309603
1684201106419842300,7.80384228515625,-1.7869284249573945,-1.220474691402912,-1.4595879834264516
1684201106429868300,7.813868408203125,-1.8193623755723236,-1.052971176084876,-0.7520332960501313
1684201106439893200,7.823893310546875,-1.5263053119152783,-0.7273503979533911,0.0034881343767046926
1684201106449919200,7.833919189453125,-1.071509287816286,-0.3034668139904737,0.5499316378206014
1684201106459945200,7.8439453125,-0.7041396182358265,0.018887071299552916,1.0983277366369961
1684201106469970200,7.85397021484375,-0.3047492550164461,0.15582301439642907,1.4939245527923106
1684201106479996200,7.86399609375,0.23155425494611262,0.12057868253588676,1.44013918659091
1684201106490022100,7.874022216796875,0.8310276300489902,0.05364098929464817,0.682910952246189
1684201106500047000,7.884047119140625,1.250240299591422,0.06064005440175533,-0.04106909249126911
1684201106510073000,7.894072998046875,1.309208036866784,0.1397872408747673,-0.5964429213657975
1684201106520098300,7.904098388671875,0.773815212008357,0.34596915415525437,-1.0382453161180019
1684201106530124300,7.914124267578125,-0.17587620686590671,0.5244114121168851,-1.2955360698670149
1684201106540150300,7.924150390625,-0.9141133250147103,0.722320587092638,-1.3536059815198183
1684201106550175200,7.93417529296875,-1.3809586833477019,0.9956488679289818,-1.3179782032996414
1684201106560201200,7.944201171875,-1.6716320667386053,1.2221464240074158,-1.2310256037726997
1684201106570227200,7.954227294921875,-1.5371914475888013,1.4790964014947414,-1.254460547634959
1684201106580252200,7.964252197265625,-1.0180810644894838,1.5093950936466454,-1.5426368535131214
1684201106590278100,7.974278076171875,-0.5016115512877702,1.1357453208833932,-1.6895450323089956
1684201106600303000,7.98430322265625,-0.22219430592656134,0.645499213218689,-1.6169985592752694
1684201106610329000,7.9943291015625,-0.3587444645762443,0.2711392463594675,-1.5428551724389195
1684201106620355000,8.00435498046875,-0.6378770477771759,0.09933248088955879,-1.4525725517064332
1684201106630380000,8.014380126953125,-0.8202659975379705,-0.021950550523400305,-1.4150927158787845
1684201106640406000,8.024406005859374,-0.8929822741806507,-0.21840368147194383,-1.5085922528311608
1684201106650432300,8.034432373046876,-0.8434680094271898,-0.3453209193795919,-1.4741235815182328
1684201106660457200,8.044457275390625,-0.8506851011991501,-0.32855332445204255,-1.2051134561419485
1684201106670483200,8.054483154296875,-0.8817425027638673,-0.2455155602812767,-0.929619521704316
1684201106680508200,8.064508056640625,-0.8036550544768571,-0.18423662345409392,-0.6860191473945975
1684201106690534100,8.0745341796875,-0.6014525296887383,-0.18458909015357494,-0.587335193541646
1684201106700560400,8.084560302734374,-0.5814846408825367,-0.19400982944965361,-0.4672764432266354
1684201106710585000,8.094585205078126,-0.5480173286318779,-0.11467676501572131,-0.23820611405074596
1684201106720611300,8.104611328125,-0.5154215385187417,-0.04571311890482902,-0.014391221185028552
1684201106730637300,8.11463720703125,-0.4985890616614371,-0.006287701967358589,0.14666764803826807
1684201106740662300,8.124662353515625,-0.3359668155789375,0.10192074381709099,0.1938666215866804
1684201106750688300,8.134688232421874,-0.16854513332545756,0.12723580233752727,0.2050380039423704
1684201106760714200,8.14471435546875,-0.023517580644413828,0.05277823498547077,0.1518017960563302
1684201106770739200,8.1547392578125,0.08399630700461566,-0.11938450431525706,0.047505555279552934
1684201106780765200,8.16476513671875,0.15001396279148757,-0.24045535428225992,0.029327509032189843
1684201106790790400,8.174790283203125,0.1316921972244978,-0.2932587237089872,0.19557401002645491
1684201106800816400,8.18481640625,0.0652817427277565,-0.3189280024945736,0.28067864359915257
1684201106810842400,8.19484228515625,-0.01359298347942531,-0.28506138872802256,0.31447131534665823
1684201106820867300,8.204867431640626,-0.09291216551847756,-0.1969774470835924,0.43270664962679145
1684201106830893300,8.214893310546875,-0.1402706404775381,-0.06578501607477664,0.48467269144654274
1684201106840919300,8.224919189453125,-0.1296036274474114,0.014902970099449157,0.5371493131369351
1684201106850944300,8.2349443359375,-0.06875562938340007,0.02621288414299488,0.5354185438215733
1684201106860970200,8.24497021484375,0.11920337559469044,-0.10399287391602992,0.44709816307276484
1684201106870995200,8.2549951171875,0.34930684721060096,-0.29594109466075896,0.3704848789915442
1684201106881021200,8.265021240234375,0.45468905659317965,-0.3016542116105556,0.340990196698904
1684201106891047200,8.275047119140625,0.4125813417691737,-0.14319967966675756,0.3159928258255124
1684201106901072400,8.285072265625,0.42335583376176655,-0.03607727555334568,0.20827187129706143
1684201106911098400,8.295098388671875,0.49763855600357054,-0.07858020024001598,0.03998655795156956
1684201106921124000,8.3051240234375,0.5477652535669505,-0.2287146476060152,-0.14410861120522023
1684201106931149300,8.3151494140625,0.5244406382113694,-0.34832243928313256,-0.27479192364811894
1684201106941175300,8.32517529296875,0.4378542416483164,-0.3279115194171667,-0.2862950221762061
1684201106951200300,8.3352001953125,0.37398828400261697,-0.20263971062898634,-0.30160891116410493
1684201106961226200,8.345226318359375,0.351962987742573,0.03376666052341461,-0.20749708753228185
1684201106971252200,8.355252197265624,0.3256319571126252,0.16393968535661696,-0.16581863097101449
1684201106981277200,8.365277099609376,0.39328561660349365,0.16081366229057312,-0.2928980737030506
1684201106991303400,8.375303466796876,0.43138197689428925,0.0935065512150526,-0.35887072130441666
1684201107001329400,8.385329345703125,0.408145332083106,-0.011602174988389015,-0.2733089916139841
1684201107011354400,8.395354248046875,0.3220909965701401,-0.13334931678175926,-0.12466916671991347
1684201107021380400,8.40538037109375,0.270022078897804,-0.18479425733685492,0.025479893693327902
1684201107031406300,8.41540625,0.3302946151614189,-0.1684521943449974,-0.0315928236156702
1684201107041431600,8.425431640625,0.4894476507633924,-0.06236322493255138,-0.181588154771924
1684201107051457300,8.435457275390625,0.6799299636740237,0.0312619842261076,-0.449322853384912
1684201107061482500,8.445482421875,0.7891976361878216,-0.00421674091219902,-0.6342708399787544
1684201107071508500,8.455508544921875,0.6899287220537662,-0.17975217151641845,-0.692424630522728
1684201107081534500,8.465534423828124,0.43005438155233855,-0.4102122014850378,-0.6334235754996538
1684201107091559400,8.475559326171876,0.12069091073870658,-0.5382178191512823,-0.44272097090184687
1684201107101585400,8.48558544921875,-0.10409048907160759,-0.4905038818180561,-0.18154431563019752
1684201107111611400,8.495611328125,-0.20228490584194658,-0.23992636197209358,0.16936200266629456
1684201107121636400,8.50563623046875,-0.25733225480318067,0.08114800490140914,0.5114101839855313
1684201107131662300,8.515662353515625,-0.28213761023581024,0.17154022348821163,0.6539806258380413
1684201107141687300,8.525687255859374,-0.24568390258550643,0.08907119911611079,0.6154764153987169
1684201107151713300,8.53571337890625,-0.14217340535894035,0.03998948056101799,0.484289829608798
1684201107161739300,8.5457392578125,-0.03577990004196763,0.10485796631276607,0.3757780169636011
1684201107171764500,8.555764404296875,-0.00758300247490406,0.21989713490009308,0.3518272325336933
1684201107181790500,8.56579052734375,-0.0213321263641119,0.2754612012118101,0.3643833472460508
1684201107191816400,8.57581640625,-0.09274141206145287,0.3117857295244932,0.41707215038239953
1684201107201841400,8.58584130859375,-0.1938274586200714,0.4866308397769928,0.5360217704117298
1684201107211867400,8.595867431640626,-0.2213731988020241,0.8653799815058708,0.6767480457022785
1684201107221892400,8.605892333984375,-0.1167437805481255,1.2346838340193032,0.7516077641144394
1684201107231918300,8.61591845703125,0.23349881314262746,1.462021348053217,0.7849141136497259
1684201107241944300,8.6259443359375,0.7650508907943964,1.3856681762129068,0.8010147691011429
1684201107251969300,8.63596923828125,1.3691589399605988,1.0377063869357108,0.926309374243021
1684201107261995300,8.645995361328126,1.8425695020280777,0.7365642165005206,1.114781151048839
1684201107272021200,8.656021240234375,2.1616658468268812,0.7336994747191667,1.2705118109866975
1684201107282046200,8.666046142578125,2.354797286006808,0.8235685462146997,1.3097101411700247
1684201107292072200,8.676072265625,2.276995815054327,0.7639350385069846,1.1190788482427596
1684201107302097400,8.686097412109374,1.8891392377622425,0.5520873545497655,0.8304089136287569
1684201107312123400,8.696123291015626,1.296415775310993,0.3658832304149866,0.6479442682832479
1684201107322149400,8.7061494140625,0.7691548189818859,0.18968261390030383,0.3172761436343193
1684201107332174300,8.71617431640625,0.6162222653299569,0.10159808773398399,-0.0017757775008678436
1684201107342200300,8.726200439453125,1.2983815224260091,0.10461012903153896,-0.03671528119593859
1684201107352226300,8.736226318359375,3.5300802520304915,0.24652327601909635,0.193527891151607
1684201107362251300,8.746251220703124,6.746243023204803,0.4437666805624962,0.6844818548247218
1684201107372277200,8.75627734375,7.190448095184564,0.5737760392665863,0.8385287994593381
1684201107382302200,8.76630224609375,4.661850824064016,0.5877314993828535,0.589008095189929
1684201107392328200,8.776328125,1.6596598893940449,0.5707569837063551,0.06661036098301411
1684201107402354200,8.786354248046875,-0.6857062089879066,0.5080453837275505,0.036919279335439203
1684201107412379400,8.79637939453125,-3.679132749378681,0.30077859781980515,-0.5140528074488043
1684201107422405000,8.806405029296876,-5.463643007278442,0.16943009946644305,-0.968943231832981
1684201107432431400,8.816431396484376,-5.382845715510845,0.6587853957712649,-0.8247831827014684
1684201107442456300,8.826456298828125,-5.17376808078885,1.3564379900753498,-0.5742550549551845
1684201107452482600,8.836482666015625,-5.156493120861053,2.171378408676386,-0.22813655545711517
1684201107462508500,8.846508544921875,-5.239997918021679,2.791082086381316,1.4480734867215155
1684201107472533500,8.856533447265624,-3.8166868243739005,3.1154192544430495,3.8505291804820296
1684201107482559500,8.8665595703125,-2.02012299445644,3.0568150897830724,5.8229445212155575
1684201107492584400,8.87658447265625,-1.3198420974753797,1.9770751492381096,7.449502935996652
1684201107502610400,8.8866103515625,-1.6635704869665204,0.7010194403886795,7.155792961388826
1684201107512636400,8.896636474609375,-2.4752152250230313,-0.11206102955937385,4.647294475445151
1684201107522661400,8.906661376953124,-3.1713799188569185,-0.7098539042294025,1.9329010764688253
1684201107532687400,8.916687255859374,-3.258422242493927,-0.8194903369903564,0.03094108170866966
1684201107542713300,8.92671337890625,-2.3629031433120367,-0.4418693225085735,-1.2633826897591351
1684201107552738300,8.93673828125,-1.2082269119873643,0.24417174445688722,-2.482873046299815
1684201107562764300,8.946764404296875,-0.6311763810947537,0.9577163198977708,-3.330781668522954
1684201107572789500,8.95678955078125,-0.5830911262311042,1.490031637006998,-3.653405018404126
1684201107582815500,8.9668154296875,-0.8732781874097884,1.8889251566201448,-3.8662516502708195
1684201107592841500,8.976841552734374,-1.0340370507732033,2.163600760412216,-3.7979292246729135
1684201107602866400,8.986866455078125,-1.0729930966332555,2.1287077262073755,-3.5957676529496907
1684201107612892400,8.996892333984375,-1.0080193969413638,1.726135810342431,-3.364194693303108
1684201107622918400,9.00691845703125,-0.863822230669856,1.1227712730199098,-3.2153888641923665
1684201107632943400,9.016943359375,-0.7513760011851787,0.6686480336159467,-2.9390368516206737
1684201107642969300,9.02696923828125,-0.8479138829201459,0.41000937238931656,-2.3830437218040226
1684201107652994300,9.036994384765626,-1.049608421653509,0.3335755365282297,-1.8212310920536516
1684201107663020300,9.047020263671875,-1.0779054185941814,0.33131226777136324,-1.5964572910279036
1684201107673046300,9.05704638671875,-1.005768110883236,0.2976999210268259,-1.685019956099987
1684201107683071500,9.067071533203125,-0.9775608380526304,0.2510170803070068,-1.997037156292796
1684201107693097500,9.077097412109374,-1.0020014518260956,0.20075988823175428,-2.4954683239787814
1684201107703123500,9.08712353515625,-1.0734943241536616,0.13938216720521449,-3.0785867766082284
1684201107713148400,9.0971484375,-1.0560273487851024,0.016953472888469694,-3.6242747855097055
1684201107723174400,9.10717431640625,-0.9122922470673919,-0.1739589750677347,-3.9448780277401205
1684201107733199400,9.117199462890625,-0.6498702679097652,-0.3673848671495914,-3.935467809838056
1684201107743225300,9.127225341796875,-0.5139095995858312,-0.5827496193170547,-3.5347815615892406
1684201107753251300,9.137251220703124,-0.585222146910429,-0.805509157910943,-2.962774285560846
1684201107763276300,9.1472763671875,-0.7422142050862311,-1.0139362197697162,-2.4941332759827373
1684201107773302300,9.15730224609375,-0.9458043483078479,-1.159078850197792,-2.2133634469687937
1684201107783328300,9.167328369140625,-1.0979933901160954,-1.2138994046658276,-2.028110339948535
1684201107793353200,9.177353271484375,-1.1433198477908968,-1.109590888929367,-1.756943621060252
1684201107803379200,9.187379150390624,-1.1909333934895694,-0.9537854101896286,-1.3414508488237857
1684201107813405200,9.1974052734375,-1.328321464268118,-0.8549602943003177,-0.9507774605453014
1684201107823430400,9.207430419921875,-1.352485745318234,-0.8653080853134393,-0.8215671432644128
1684201107833456400,9.217456298828125,-1.2925440484441817,-0.9434218370854854,-0.9577169044196605
1684201107843481300,9.2274814453125,-1.260896718162298,-0.9367670553714036,-1.2019956163823604
1684201107853507300,9.23750732421875,-1.0481504779301583,-0.7907108172297477,-1.4562877728372812
1684201107863533300,9.247533203125,-0.7879238168597221,-0.4583762206733227,-1.4864964486181735
1684201107873558300,9.257558349609376,-0.48720600931644437,-0.03902385039925575,-1.286919632691145
1684201107883584300,9.267584228515625,-0.034034371548891065,0.44341421386301516,-0.7515361601829529
1684201107893610200,9.2776103515625,0.4183646013457328,0.8288865263670683,0.008750877210497856
1684201107903635200,9.28763525390625,0.9499661441624164,1.0765993044316768,0.7158493452519178
1684201107913661200,9.2976611328125,1.2198083364486694,1.4132909271538256,1.6176479630947111
1684201107923686100,9.30768603515625,1.3726140488505363,1.6336171011209486,2.4317951854914424
1684201107933712100,9.317712158203125,1.6149965718030928,1.5529402208626268,2.886672458133101
1684201107943738400,9.32773828125,1.6112918720662592,1.3192255730122326,2.935927195167541
1684201107953763300,9.337763427734375,1.5492682543516159,1.0462339767843485,2.7964339688032864
1684201107963789600,9.34778955078125,1.3664870904028414,0.8195312535226345,2.470548986777663
1684201107973815600,9.357815673828124,1.1760486896991729,0.6730933225870132,1.9167507366567849
1684201107983840500,9.367840576171876,0.8963140489518642,0.7647907785534859,1.0770160685390233
1684201107993866000,9.377865966796875,0.6995569666206837,1.1209773753404617,0.5168482833862305
1684201108003892000,9.38789208984375,0.4712415474653244,1.352582483690977,0.46357378931641574
1684201108013917000,9.3979169921875,0.20327625496685503,1.3437053497523068,0.3867132524758577
1684201108023943000,9.40794287109375,0.1944856302678585,1.151060963436961,0.46267713273763655
1684201108033967900,9.4179677734375,0.17723171312808988,0.84453067022264,0.7720213143289089
1684201108043993900,9.427993896484375,0.2042366244316101,0.6459253296762705,1.2416805610388517
1684201108054019800,9.438019775390625,0.6619412294536828,0.25650106467604633,1.9291431852400303
1684201108064045000,9.448045166015625,1.0378355662733316,-0.36201135741770263,2.457302551713586
1684201108074071000,9.458071044921875,1.3890163175970316,-1.080821306040883,2.529207511973381
1684201108084097000,9.468096923828124,2.0220476789087054,-1.64167122823894,1.5101584792345761
1684201108094122000,9.4781220703125,2.421869419282675,-1.6291858406752346,-0.172050511097908
1684201108104148000,9.48814794921875,1.8647569300472735,-1.3784025691241024,-1.2131804427415132
1684201108114173000,9.4981728515625,0.5220294854164124,-1.2654320235043763,-2.1589713470458984
1684201108124199000,9.508198974609375,-0.5831657989025115,-1.2194254746109245,-3.0257214478611942
1684201108134225000,9.518224853515624,-0.792321759557724,-0.9244131852328776,-3.092237700819969
1684201108144249900,9.528249755859376,-0.5411217238992452,-0.27767186299860475,-2.1955752768218515
1684201108154275800,9.53827587890625,-0.238922153365612,0.4369581695914268,-0.6432347754180431
1684201108164301800,9.5483017578125,0.2348667404949665,0.583450461062789,0.8518114748805761
1684201108174326800,9.558326904296875,0.9270201528608798,-0.06736848587393761,1.82595285987854
1684201108184352800,9.568352783203125,1.3287901046931743,-0.8531932846277952,2.248417809215188
1684201108194378000,9.5783779296875,1.0675620114952324,-1.5966268023759125,2.076680601850152
1684201108204404000,9.588404052734376,0.5515402420610189,-2.3688883552014826,1.1594827548235653
1684201108214430200,9.59843017578125,0.4831961891531944,-3.0083506263434887,-0.04358078305125236
1684201108224455000,9.608454833984375,0.3280500511050224,-3.6407793455868958,-0.951460766634345
1684201108234481200,9.618481201171875,-0.11923194410204886,-4.060581797716021,-1.3943389739245176
1684201108244507100,9.628507080078125,-0.5674520969420671,-4.04637323962152,-1.4602502467274665
1684201108254532000,9.638531982421876,-0.5157891297221183,-3.2345161739885806,-1.3238900576919317
1684201108264558000,9.64855810546875,0.30813597484529015,-0.300558817589283,-0.6982540673285722
1684201108274584000,9.658583984375,1.0240016867101192,5.227300933533907,1.1281202328324318
1684201108284609000,9.668609130859375,0.03369651789665222,11.173541579550504,4.113528375005722
1684201108294635000,9.678635009765625,-2.437061143195629,11.794160034012794,6.543713787212967
1684201108304660000,9.688659912109374,-3.318838132750988,5.569312874495983,5.9052791055530305
1684201108314686000,9.69868603515625,-1.1772019513875245,-0.81418696988523,2.9353841743320226
1684201108324712000,9.7087119140625,1.8568103549569843,-3.992986517348885,0.37150516194999217
1684201108334737200,9.718737060546875,3.6473160538792606,-4.664419797769189,-1.8316022639423608
1684201108344763100,9.72876318359375,2.8169413347810504,-3.6906016533762216,-2.6323583821073173
1684201108354789000,9.7387890625,0.47117319493684917,-2.1911329104602335,-2.7440257361739873
1684201108364814000,9.74881396484375,-2.0327795008033513,-0.6993710886597633,-2.442992286810279
1684201108374840000,9.758840087890626,-3.3114690652877092,0.7079653140038251,-1.8619912647262216
1684201108384865000,9.768864990234375,-3.1688901478677987,1.7611603619724512,-1.4188149512723087
1684201108394891000,9.77889111328125,-2.51096867544949,2.2995979613542556,-1.0491673998877407
1684201108404917000,9.7889169921875,-1.9584855995804071,2.12213419303596,-0.7630141242697834
1684201108414942000,9.79894189453125,-1.4971435148388146,1.268308455723524,-0.7100064644426107
1684201108424968000,9.808968017578126,-1.1001000070065259,0.14316694644093514,-0.8474234690546989
1684201108434994000,9.818993896484375,-0.8671697875320911,-0.7608855878084898,-0.9866469385668635
1684201108445019000,9.829018798828125,-0.6955360405415296,-1.245254912394285,-0.9933578343823551
1684201108455044900,9.839044921875,-0.4946131072351709,-1.2770984959006308,-0.7527963893771171
1684201108465070000,9.849070068359374,-0.3774251996487379,-0.8177005309641361,-0.3575871112346649
1684201108475096000,9.859095947265626,-0.5115490079343319,-0.18691490275263786,-0.19791443567276
1684201108485122000,9.8691220703125,-1.1004022048234938,0.4489747705996036,-0.05181698873788118
1684201108495147000,9.87914697265625,-1.6579109999001025,0.9340893605947493,0.04891746790409088
1684201108505173000,9.889173095703125,-1.379155433318019,1.1818383790165186,0.010871814887225627
1684201108515199000,9.899198974609375,-0.07135371958520263,1.3194856852531431,-0.06992898401170969
1684201108525224000,9.909223876953124,1.2580085955053568,1.1219511888086795,-0.12485329111516474
1684201108535250000,9.91925,1.5623814184248446,0.6256283915787935,-0.32486265324056146
1684201108545276000,9.92927587890625,0.8307990819901228,0.1409668060481548,-0.6466361082941293
1684201108555300900,9.93930078125,-0.15895546720325945,-0.0961947673857212,-0.7581547015398741
1684201108565326800,9.949326904296875,-0.8309370291560888,-0.1736848343014717,-0.698804686948657
1684201108575352000,9.95935205078125,-1.2202572492599486,-0.14463935708105563,-0.5963339080333709
1684201108585378000,9.9693779296875,-1.5232447553008794,-0.14876549710035322,-0.3864902573749423
1684201108595404000,9.979404052734376,-1.59961546279788,-0.20141046109497546,-0.37930648335069417
1684201108605429000,9.989428955078125,-1.5410522146701813,-0.2677525265306234,-0.27176000860631466
1684201108615455000,9.999455078125,-1.3265665834248066,-0.4472416631966829,-0.23969693713039159
1684201108625481000,10.00948095703125,-0.9134754655025898,-0.6404220560848712,-0.2540279525607824
1684201108635506000,10.019505859375,-0.4246977498900145,-0.6459872889965772,-0.1755097116410732
1684201108645532000,10.029531982421876,0.01555829220302403,-0.38997956079542634,-0.2941638558551669
1684201108655556900,10.039556884765625,0.6037192690443247,0.17640169204473494,-0.5998761106848717
1684201108665582800,10.049582763671875,1.2328928589493036,0.729101625534892,-0.9684761988431214
1684201108675608800,10.05960888671875,1.6415572464704513,1.0200754531770944,-1.3108692480772732
1684201108685633800,10.0696337890625,1.4237258119285106,1.0962830790668725,-1.5696213065505027
1684201108695659800,10.07965966796875,0.8770476229459047,0.9462216969370841,-1.7182424267441034
1684201108705686000,10.08968603515625,0.313126184348017,0.486070867806673,-1.780293809248507
1684201108715711000,10.0997109375,-0.1694411323171109,0.04457797739505768,-1.6720941312924027
1684201108725737200,10.1097373046875,-0.5568879597645252,-0.22861294079720973,-1.2468237691462039
1684201108735762000,10.119761962890625,-0.8420359307974576,-0.31489012528061866,-0.7188266074970364
1684201108745788200,10.1297880859375,-0.8326520163804292,-0.33343817388415337,0.16596739179193973
1684201108755814100,10.139814208984374,-0.39748365281522274,-0.2923234886854887,0.9427484678685665
1684201108765838800,10.1498388671875,0.13515534329041837,-0.2771475468635559,1.2595926498264074
1684201108775865000,10.159864990234375,0.5861393348205834,-0.18956337143480775,1.3753835135638712
1684201108785891000,10.16989111328125,0.858451059025526,-0.10066168366670608,1.3261264384418725
1684201108795916000,10.179916015625,0.8423790451467037,-0.21138824975192547,1.005193525865674
1684201108805942000,10.18994189453125,0.49496787548959253,-0.3767003925055265,0.7026911729931831
1684201108815968000,10.199968017578126,0.2322136687029153,-0.44302609132826326,0.44534547418653964
1684201108825993000,10.209992919921875,0.21824425312653184,-0.38015959304869174,0.21270985374450682
1684201108836019000,10.22001904296875,0.2843839278578758,-0.34937282511889933,0.053203182399272915
1684201108846045000,10.230044921875,0.33327260805889963,-0.23212474831044672,0.07751578587889671
1684201108856070100,10.240070068359374,0.38968130850121374,-0.18193243816494942,-0.05726327144503593
1684201108866096000,10.25009619140625,0.39106333744414146,-0.08940379207134247,-0.1894575729727745
1684201108876121000,10.26012109375,0.33631942840889095,0.015392214921116828,-0.21187691005170345
1684201108886147000,10.27014697265625,0.29011816066093743,0.11043138253092766,-0.17384703912585972
1684201108896173000,10.280173095703125,0.21323460827097296,0.13218202656805514,-0.13208499593436718
1684201108906198000,10.290197998046875,0.21512086040899156,0.02597323016822338,-0.10353080936223268
1684201108916224000,10.30022412109375,0.2905528257511556,-0.1765337939918041,-0.08931845187544822
1684201108926249000,10.3102490234375,0.30296777842715383,-0.3439017002314329,-0.05486264004409313
1684201108936275000,10.32027490234375,0.22366554752290246,-0.36581191874444485,-0.0033951953962445256
1684201108946301000,10.330301025390625,0.17204590798802674,-0.23300912992954254,0.076316054700315
1684201108956326000,10.340325927734375,0.2561293087542057,-0.10477204159498214,0.001572363883256912
1684201108966352000,10.350351806640624,0.39400793952867386,-0.006170213067531585,-0.10291647685617208
1684201108976377900,10.3603779296875,0.5437539720989764,0.029490298378467557,-0.1451394155576825
1684201108986403000,10.370403076171876,0.6969837551318109,0.021243279036879538,-0.284163563105464
1684201108996429800,10.380429931640625,0.8311281678140163,0.018515315377712248,-0.3142220167607069
1684201109006455800,10.390455810546875,0.9132375650934874,-0.017484218764305115,-0.192744631819427
1684201109016481000,10.40048095703125,0.9367029040940106,-0.22933424080908296,0.07127426114082336
1684201109026507000,10.410507080078125,0.8975281009167432,-0.5711918679922818,0.4979135735526681
1684201109036532000,10.420531982421876,0.7499750483460724,-0.8002771024763584,0.9709455115661024
1684201109046558000,10.430557861328126,0.4799240356147289,-0.8530909932971,1.3699895455658435
1684201109056584000,10.440583984375,0.13719313272833825,-0.7330880648225545,1.6930372583389282
1684201109066609000,10.45060888671875,-0.17996391457095742,-0.42813072001338004,2.0335233049079773
1684201109076635000,10.460634765625,-0.402985903493315,0.05627776753902435,2.4314745752349496
1684201109086660900,10.470660888671874,-0.5280407085299491,0.5288742367446422,2.830826067748666
1684201109096685800,10.480685791015626,-0.549314967226982,0.8683423384428024,3.0961499058276414
1684201109106711800,10.4907119140625,-0.5371459521360695,1.1620400380909441,3.2760628208637237
1684201109116737800,10.50073779296875,-0.43790553344413635,1.4179998354971408,3.2665605407640337
1684201109126762800,10.5107626953125,-0.1755250553406775,1.5962164680093527,2.950219047631323
1684201109136788700,10.520788818359375,0.3460449958704412,1.5364187096506357,2.315376545244455
1684201109146814000,10.53081396484375,1.3868313747733831,1.2047557287454604,1.4975877514749765
1684201109156840000,10.54083984375,4.051627506887913,0.7827420303076505,0.8452399875357747
1684201109166866000,10.550865966796875,6.879411722722649,0.43994683001339435,0.750015818747878
1684201109176891000,10.560890869140625,6.302531287699938,0.20032617298960684,0.734030898630619
1684201109186916900,10.570916748046875,4.174468289136886,-0.04804419220089912,0.5539730221658945
1684201109196942800,10.58094287109375,3.501519343456626,-0.3693190500825643,0.3762067637696862
1684201109206967800,10.5909677734375,3.720880471783876,-0.6021458091825247,0.5131611193060874
1684201109216993800,10.600993896484376,3.453291611382365,-0.6618079584628344,0.7027969714552164
1684201109227018800,10.611018798828125,1.9550667310476302,-0.5773971523731947,0.5809563061594962
1684201109237044700,10.621044677734375,0.08737900824546814,-0.15722119075655935,-0.36087796947360035
1684201109247070700,10.63107080078125,-1.7299194205343722,0.6656079352676868,-0.49955666458457704
1684201109257096000,10.641095947265624,-3.801193779426813,1.490371244224906,-0.24194325475245712
1684201109267121700,10.65112158203125,-4.801892916482687,2.4495722497224808,-0.13904694390147923
1684201109277148000,10.66114794921875,-4.254122256088257,3.340668856287002,-0.24605858111679552
1684201109287172900,10.6711728515625,-3.954683382439613,3.9888726522892712,-0.3491059908762574
1684201109297199000,10.68119921875,-4.3389749607265,4.188472264569998,0.07801672113835811
1684201109307225000,10.69122509765625,-4.200971680659055,3.822894739103317,0.9834019652962684
1684201109317250000,10.70125,-3.593127367573976,2.924174213531613,1.7970745559185741
1684201109327276000,10.711276123046876,-1.9906139913775025,2.0081424876749514,2.478521865352988
1684201109337301000,10.721301025390625,-0.5803108478628098,1.2170371181696653,3.3299317736953493
1684201109347327000,10.731326904296875,-1.1167850382171571,0.5695668971389531,3.4507308209836483
1684201109357353000,10.74135302734375,-2.2480103974580765,0.19643910242319107,2.6123855613976716
1684201109367378000,10.7513779296875,-2.1546305413626134,0.2742290290683508,1.3020266009300947
1684201109377404000,10.76140380859375,-1.8683494015812874,0.6428659421056508,0.012902736192941664
1684201109387430000,10.771429931640625,-1.6658337557233869,0.8682008841454982,-1.1603934399276972
1684201109397455000,10.781455078125,-1.3747042991280556,0.8152104677140712,-2.1611177114248274
1684201109407480800,10.791480712890625,-1.0082374236062168,0.6532464663445949,-2.7693670981794596
1684201109417506000,10.801506103515624,-0.7885457481503486,0.6838233909159899,-3.201288442647457
1684201109427532000,10.811531982421876,-0.8632781869210302,0.6745405987858772,-3.3850556950241324
1684201109437558000,10.82155810546875,-1.086952794533223,0.6196598385632037,-3.1200866617321967
1684201109447583000,10.8315830078125,-1.190341711206734,0.7112801376402378,-2.746139367327094
1684201109457609000,10.84160888671875,-1.2641478289127348,0.7655436427474022,-2.5552818644285202
1684201109467635000,10.851635009765625,-1.4083847426727414,0.6706301473438739,-2.786213019040227
1684201109477660000,10.861659912109374,-1.1794450541391968,0.519670939591527,-3.2393887484610078
1684201109487686000,10.871685791015626,-0.8440507777512073,0.37127018415033813,-3.4850387487769123
1684201109497711900,10.8817119140625,-0.6269768835783004,0.3209001793503761,-3.3436727142781018
1684201109507736800,10.89173681640625,-0.4211047668993473,0.25150924773812294,-2.8617537054538724
1684201109517762800,10.9017626953125,-0.17330635637789962,0.08581307410299778,-1.8838877469748256
1684201109527788000,10.9117880859375,-0.35778380285054445,-0.05206278019249439,-0.7070078671485185
1684201109537814000,10.92181396484375,-0.8526093472599983,-0.31918694569170475,0.08834697649478912
1684201109547840000,10.931840087890626,-0.8162874492958188,-0.45985389201045035,0.1994341925859451
1684201109557865000,10.941864990234375,-0.8829045322805642,-0.46457565983533855,-0.45673429868519305
1684201109567891000,10.951890869140625,-1.005987891113758,-0.41792496781945226,-1.3736977524340153
1684201109577917000,10.9619169921875,-1.2555261310398578,-0.38436172091364856,-1.9918588768720626
1684201109587942000,10.97194189453125,-1.494544730517268,-0.33533670098185536,-2.256094335192442
1684201109597968000,10.9819677734375,-1.509104878528416,-0.31440263402462004,-2.573825821378827
1684201109607993900,10.991993896484376,-1.3264067166879772,-0.3659095339000225,-3.056946022686362
1684201109618018800,11.002018798828125,-0.9521876196041703,-0.46089258740842337,-3.449501571449637
1684201109628044800,11.012044921875,-0.5051607682019472,-0.5377735825151205,-3.6156437352865933
1684201109638069800,11.02206982421875,-0.12744155404269694,-0.5606231277048588,-3.479516770485043
1684201109648095700,11.032095703125,0.15900895095616577,-0.5160445657879114,-3.139379391223192
1684201109658121700,11.042121826171876,0.36507132951021193,-0.3684545422077179,-2.5835417442291972
1684201109668147000,11.05214697265625,0.4247442924454808,-0.12935761679708957,-1.8861919322639702
1684201109678173000,11.0621728515625,0.18850743264108896,0.0908832169741392,-1.1633844384372234
1684201109688199000,11.072198974609375,-0.10967749542370438,0.164165310806036,-0.6397165381640195
1684201109698223900,11.082223876953124,-0.23620266527384517,0.130789110904932,-0.42750586611330504
1684201109708249900,11.092249755859376,-0.47093496573418375,0.030139702197909353,-0.32605273980796334
1684201109718274800,11.10227490234375,-0.7462064895927906,-0.14601473708748816,-0.36107027717530726
1684201109728300800,11.11230078125,-0.8308440901756287,-0.36568390845060345,-0.5573381146848202
1684201109738326800,11.122326904296875,-0.8539584237813949,-0.581976881378889,-0.7966442989319562
1684201109748351700,11.132351806640624,-0.8259140864275395,-0.7087491578578948,-0.9816437234520912
1684201109758377700,11.142377685546874,-0.5998553601577877,-0.7165484334319829,-1.18981768733263
1684201109768404000,11.152404052734376,-0.28723171850442886,-0.6882663417994975,-1.3677566719472407
1684201109778428700,11.1624287109375,0.1111480063676834,-0.6252841081857681,-1.4890332736194132
1684201109788455000,11.172454833984375,0.4161549624722451,-0.6676157679587602,-1.5409206972450018
1684201109798481000,11.18248095703125,0.6643756900589912,-0.9459662608712911,-1.5531851355344055
1684201109808506000,11.192506103515624,1.1309832210481165,-1.0818605859607457,-1.6507792483240364
1684201109818532000,11.202531982421876,1.5913140829205512,-0.7752005288869142,-1.93197811640501
1684201109828557000,11.21255712890625,1.5875333953380584,-0.5237772058665752,-2.0914444557398557
1684201109838583000,11.2225830078125,1.329383978933096,-0.0026981530427932737,-2.0544582486480474
1684201109848609000,11.232609130859375,0.9020084612011909,0.6686544633567333,-1.8200100258260965
1684201109858634000,11.242634033203124,0.40571196745634075,0.4849772273510694,-0.9771762226492166
1684201109868660000,11.252659912109374,0.34222587597370147,0.3275719121992588,-0.2525222241729498
1684201109878686000,11.26268603515625,0.2662941444158554,0.4050163864076137,0.425810752633214
1684201109888711000,11.2727109375,-0.1805038666665554,0.7759662525624036,1.0740537116020916
1684201109898737000,11.28273681640625,-0.8002923000454902,2.026032949152589,1.688184849871695
1684201109908763000,11.292762939453125,-1.1005670399963856,4.479731338894367,2.214106958812475
1684201109918787800,11.302787841796874,-0.4872568627208471,6.715716952037811,2.985309357973933
1684201109928813800,11.312813720703126,-0.16273617305206134,7.184758359110355,4.074115233027935
1684201109938839000,11.322839111328125,-0.745659377104044,5.409658903634548,4.494647752997279
1684201109948865000,11.332864990234375,-0.19381754001425577,3.027071108904481,4.297321930867433
1684201109958891000,11.34289111328125,1.6410750159114598,1.6701736846238373,4.338670717082917
1684201109968916000,11.352916015625,2.1355279276162387,0.6314800402164459,4.255088470771908
1684201109978942000,11.36294189453125,0.4021995754212141,-0.4102496108859777,3.395762090216577
1684201109988968000,11.372968017578126,-1.2305226226866244,-1.243393794697523,2.3009572670087217
1684201109998993000,11.382992919921875,-0.9454448673456907,-1.9617180056303738,1.2102855980828404
1684201110009019000,11.393018798828125,0.32924773645699024,-2.4871225204378367,0.3916141762599349
1684201110019044900,11.403044921875,0.7608411641448736,-2.972792990750074,-0.020011983676254747
1684201110029069800,11.41306982421875,0.021076681165164337,-2.8313205732673405,-0.028051790007948874
1684201110039095800,11.423095703125,-0.9668097269356251,-2.2378712807595726,0.21768208919912577
1684201110049121000,11.43312109375,-1.5758312671065329,-1.8371230731904507,0.42393852902054785
1684201110059147000,11.44314697265625,-1.723916380727291,-1.052223572587967,0.46269992909133434
1684201110069173000,11.453173095703125,-1.3353712366491555,-0.372352134168148,0.5303279426842927
1684201110079198000,11.463197998046875,-0.6194342131137848,-0.38339609075188635,0.7655053565636277
1684201110089224000,11.473223876953124,0.06692424010462127,-0.3363455857634544,0.27198563405573367
1684201110099250200,11.483250244140624,0.48512803399860854,-0.2808943321764469,-0.4259501611039042
1684201110109275000,11.49327490234375,0.4894768768578768,0.6130611709505319,-1.4403089901998638
1684201110119301000,11.503301025390625,0.2034744078874588,1.331422206762433,-2.082652369736135
1684201110129325800,11.513325927734375,-0.2598287477940321,1.0896972709357737,-1.1449211455076933
1684201110139352000,11.52335205078125,-1.175770457279682,1.011657168921828,0.09789104990959167
1684201110149378000,11.5333779296875,-2.4523569120049475,1.2528192101687192,0.7237284080639481
1684201110159403000,11.543403076171876,-2.47450795353651,1.4029419670969248,0.4837859717398882
1684201110169429000,11.553428955078125,-1.057894603961706,1.4520996734976768,-0.048129824657738206
1684201110179455000,11.563455078125,0.4183072451353073,2.530208797970414,-0.8294944291323423
1684201110189480200,11.573480224609375,0.823696556508541,3.4819600719839334,-0.4077215537130832
1684201110199506000,11.583505859375,0.9031097004413604,3.044307490387559,0.8872118740856647
1684201110209532000,11.593531982421876,0.8179962990403175,1.8104478322327135,2.4424583260640502
1684201110219557000,11.60355712890625,-0.4352782536804676,0.6937626011282205,3.517930380031466
1684201110229583000,11.6135830078125,-2.9866812308490274,-0.44145314292311666,4.06312096080482
1684201110239608000,11.623608154296875,-4.286612320804596,-1.2231950562775133,3.4587124673873184
1684201110249634000,11.633634033203125,-3.695648999893665,-2.156031201940775,2.7649486972153183
1684201110259660000,11.643659912109374,-2.7792051861047744,-3.2574522284179923,1.2750890557743608
1684201110269685000,11.65368505859375,-2.108366948968172,-4.034668773302435,-0.34142055094018575
1684201110279711000,11.6637109375,-0.9777345141191035,-3.999810810410976,-2.424261282855272
1684201110289737000,11.673737060546875,0.30481304096765816,-3.5479245362788436,-4.985296596243978
1684201110299762000,11.683761962890625,0.9590274755615741,-3.081035923326015,-6.549746637636423
1684201110309788000,11.693787841796874,0.8237959252297877,-2.543769121289253,-6.300676599743962
1684201110319814000,11.70381396484375,0.3685760862281546,-1.7623276521861553,-5.204184846362471
1684201110329839000,11.713839111328125,-0.14093060222361237,-0.9034908087134361,-4.22566451562792
1684201110339865000,11.723864990234375,-0.3193266464233398,-0.08002455382943154,-3.1208050391346216
1684201110349890000,11.73389013671875,0.044669162809848784,0.5416559769064188,-2.334401563709974
1684201110359916000,11.743916015625,0.46453006712794304,0.07795709990561007,-1.9909300715893505
1684201110369942000,11.75394189453125,1.1656675809383392,0.2389665770292282,-1.5166086782872676
1684201110379967000,11.763967041015626,2.112652663463354,0.9429185637384653,-1.8200883517593145
1684201110389993000,11.773992919921875,1.6079004760622977,-0.5323030421495437,-1.7022716812826693
1684201110400019000,11.78401904296875,0.7310545131683349,-1.7424182521015406,-1.1940203997194767
1684201110410044000,11.7940439453125,-0.06320084480047225,-1.863711804908514,-0.08328589371293783
1684201110420070000,11.80406982421875,-0.5102232392232865,-1.4571166248768568,0.9126932290837169
1684201110430094800,11.8140947265625,0.7009399454116821,2.0589187351882456,0.48320466472059487
1684201110440120800,11.824120849609375,0.2863140191376209,3.5157962906122204,1.0522992681726813
1684201110450146800,11.834146728515625,-0.18523849397301673,2.5693957299768924,1.793636105902493
1684201110460172000,11.844172119140625,0.08732990840673446,1.90924372202754,1.6243357702955603
1684201110470198000,11.854197998046875,0.4226690205413848,-0.11299743362665175,1.8921929262444377
1684201110480224000,11.86422412109375,1.0258639003854244,-0.6499380724489688,2.323765018883347
1684201110490249000,11.8742490234375,1.0159714519243688,0.27065993840992447,2.459685355196893
1684201110500275000,11.88427490234375,0.5337701920926571,1.2233774271070956,2.263826098488271
1684201110510301000,11.894301025390625,-0.11895962996669113,0.8445815236270428,1.4770488213151693
1684201110520326000,11.904325927734375,-0.5211795175235718,-0.5234948817938566,-0.16938216867148875
1684201110530351900,11.914351806640624,-1.1075275266587734,-1.083337088254094,-1.6534464217066764
1684201110540378000,11.924378173828124,-1.7990625148653983,-0.5740156932413578,-2.614816880197823
1684201110550402800,11.93440283203125,-2.9254771128237245,-0.9756301622509955,-3.059228872926533
1684201110560429000,11.944428955078125,-4.4956700817823405,-0.3818500303536653,-2.982262245362997
1684201110570453800,11.954453857421875,-5.30023523684144,2.0315514203131197,-1.836077948051691
1684201110580480000,11.96447998046875,-5.474785163539647,3.3394051199615,-0.9889666136860847
1684201110590506000,11.974506103515624,-4.832870238548517,4.0204023475408555,-1.3386404675781727
1684201110600531000,11.984531005859376,-3.9013095196485517,3.9931659655690193,-2.475657708093524
1684201110610557200,11.99455712890625,-3.355447907745838,3.7977725728064775,-3.516131221655011
1684201110620583200,12.004583251953125,-2.8070693445861337,3.7773914635568855,-3.6004730541616676
1684201110630608100,12.014608154296875,-2.286560785126686,4.52467230438292,-2.523462830841541
1684201110640634000,12.024634033203125,-0.9618366146981716,4.88504758503139,-0.8108554873749614
1684201110650659000,12.0346591796875,3.314001798635721,3.7482010249078273,1.6529761738464235
1684201110660685000,12.04468505859375,9.995226113963126,1.0701409220725298,5.843477606156468
1684201110670711000,12.0547109375,10.475258870649338,-1.0848843176960945,8.01672882296741
1684201110680736000,12.064736083984375,5.51627744987905,-0.9000970746219158,5.774871102920175
1684201110690762000,12.074761962890625,0.8990787644248456,0.0009252981513738632,2.754789122250676
1684201110700788000,12.0847880859375,-1.7780092054426668,1.268183368039131,1.2960581940449774
1684201110710813000,12.09481298828125,-2.8850130004882812,1.7921359304726123,1.3343302031636237
1684201110720839000,12.1048388671875,-2.3487188428759573,1.1432038201957941,2.2517444694198665
1684201110730865000,12.114864990234375,-0.5373252542257309,0.1163683713644743,4.093726526948809
1684201110740890000,12.12489013671875,0.3482148872554302,1.204814180934429,6.383343777036666
1684201110750916000,12.134916015625,0.6707334615878761,2.2579501921921965,7.252996029034256
1684201110760941000,12.144941162109374,1.360518975778669,1.4152800551444291,5.611062934988737
1684201110770967000,12.154967041015626,1.155743422164768,1.005502737945318,3.140383015307784
1684201110780993000,12.164992919921875,0.125378776293993,1.483496682280302,1.0198659020796417
1684201110791018000,12.17501806640625,-1.2769406749904155,1.8824305339038372,-0.07429185539633035
1684201110801044000,12.1850439453125,-1.7126713486135006,1.3100526709973812,-1.3546198347374796
1684201110811070000,12.195070068359374,-1.7556559193372725,0.6656313161432743,-2.467889704440534
1684201110821095000,12.205094970703126,-1.4654653510272502,1.0633598836302756,-3.0568019380405542
1684201110831121000,12.215120849609375,-1.0838602353453635,1.4114303939789532,-2.5370523802548646
1684201110841147000,12.22514697265625,-0.8894874908674508,1.2179501413613558,-1.594192268705368
1684201110851172000,12.235172119140625,-0.20693653104007242,0.6002139643371105,-0.8210290908649563
1684201110861197800,12.24519775390625,0.9788695825636387,0.2158516589015722,-0.7437325006946921
1684201110871223000,12.25522314453125,1.0451982039958239,0.30855566156208514,-1.2786477711692452
1684201110881249000,12.2652490234375,0.114261809272971,1.4353379237890243,-1.6502026174798607
1684201110891275000,12.27527490234375,-1.291080259501934,3.024202275469899,-2.949832094140351
1684201110901300000,12.285300048828125,-1.2869389219135046,3.419684525334835,-3.2937621436834332
1684201110911326000,12.295325927734375,-0.6715852561116218,3.223261789524555,-3.0691596075713634
1684201110921352000,12.30535205078125,0.041886254093050954,2.651667770472169,-3.3785154796004293
1684201110931377000,12.315376953125,0.08437339668869971,2.703652224731445,-3.964631360480189
1684201110941403000,12.32540283203125,-0.8594938460767269,2.2610832295209167,-4.035509315779805
1684201110951428900,12.335428955078125,-1.0973895790040493,1.4035814340442418,-4.5000545804768795
1684201110961453800,12.345453857421875,-0.7904068658471107,0.9401882619917392,-4.072980091518163
1684201110971479800,12.355479736328125,-1.351883395510912,1.8316314900368451,-3.2316075930655
1684201110981505000,12.365505126953124,-0.6222557002753019,4.169242078921199,-1.8007874389618634
1684201110991531000,12.375531005859376,-0.5642448253333568,5.39063154708147,-1.5859031637877226
1684201111001556000,12.385555908203125,-0.14016776462495326,6.057410864216089,-1.5899463016986846
1684201111011581000,12.395580810546875,0.655517918407917,6.975742099186777,-1.367276779475808
1684201111021607000,12.40560693359375,0.8724047655761241,5.6429941967785355,-0.757145816758275
1684201111031633000,12.4156328125,2.6127941421985623,4.818693244636059,-1.356280753687024
1684201111041657900,12.425657958984376,0.3858826468706131,3.312307854199409,-1.7273907788395881
1684201111051683800,12.435683837890625,-0.609075279652141,2.4130858088463545,-2.5919693808346986
1684201111061709800,12.445709716796875,1.9501088163793086,2.467045362570882,-2.3934452888309954
1684201111071734800,12.45573486328125,3.2775288017630575,2.616161572805047,-2.652110838064551
1684201111081760800,12.4657607421875,6.629858869749307,1.1916770514637232,-1.8173937058478593
1684201111091786000,12.475785888671876,8.888186078560352,0.5108902517646551,1.565655910050869
1684201111101812000,12.48581201171875,7.468992649364471,-0.5916922197073697,1.5715145729511975
1684201111111838000,12.495837890625,5.395942512971162,-0.9778858322232961,0.8169295465916395
1684201111121863000,12.50586279296875,5.023678057086467,-2.234814231276512,0.48621758280098437
1684201111131889000,12.515888916015625,4.702517180973291,-3.8367625209361313,-0.15460662434399128
1684201111141915100,12.5259150390625,2.6247277410984036,-4.26836471645236,-1.5139531953424215
1684201111151939800,12.53593994140625,6.299077347853779,-1.3775281243771313,0.2901414684712887
1684201111161966000,12.545966064453125,5.757567501419782,-2.5443431217849253,0.9286766878962516
1684201111171992000,12.555991943359375,3.0507986059725285,-4.478393952810764,0.8385977730423212
1684201111182017000,12.56601708984375,0.7314952426731586,-5.182842198604345,2.0098656582057477
1684201111192043000,12.57604296875,-0.38436573950164016,-4.412168791753054,3.7174838150829075
