time,seconds_elapsed,z,y,x
1684200566318879200,0.038879150390625,-3.557114389428496,1.1736124024629593,3.2447815474152564
1684200566328903400,0.0489033203125,-3.4012159717082975,-0.964609002020955,1.5982570339262485
1684200566338929400,0.058929443359375,-1.9546096349298954,-0.6285913330376148,0.6466755635216832
1684200566348955600,0.06895556640625,-0.22907120595872402,1.0412193634927271,0.5729556627944111
1684200566358981600,0.078981689453125,0.8801192854762077,1.9206290393948553,0.5023116623811423
1684200566369007600,0.089007568359375,1.4272697681456803,1.9845161128938198,0.09071268271282315
1684200566379033600,0.09903369140625,2.351033549559116,1.6570383087188005,-0.7861544690996408
1684200566389058600,0.10905859375,3.7759570468395944,1.3263982411205768,-1.942130530976504
1684200566399084500,0.11908447265625,5.012149531856179,0.9141419665873051,-2.636636790078878
1684200566409110500,0.129110595703125,4.757305586737394,0.2361690552651882,-3.0120336987704035
1684200566419136500,0.139136474609375,3.458295118758082,-0.3490343869447708,-2.9943869829207657
1684200566429162500,0.14916259765625,2.0148218193084,-0.2587777774363756,-2.447759793473035
1684200566439188500,0.1591884765625,1.222298984220624,0.3331564343333244,-1.300735392075777
1684200566449214500,0.16921435546875,1.7080910350859164,0.8316776183903217,-0.3155668554984033
1684200566459239400,0.179239501953125,2.1099369747638703,0.5139081382811069,-0.878678000626713
1684200566469265400,0.189265380859375,1.9052029222041367,-0.24202654912173746,-3.0241122590988874
1684200566479291400,0.19929150390625,-0.8476596158981323,-1.1535130327641963,-6.089789285251498
1684200566489317400,0.2093173828125,0.8997966303706169,1.7074743644922972,-3.6547023647382852
1684200566499343600,0.219343505859375,1.826982202926278,4.293846948233247,-1.031934963927418
1684200566509369600,0.22936962890625,0.7148053891569376,4.6693537470400335,-0.1040128937907517
1684200566519395600,0.2393955078125,0.5355950694322585,3.7331338041573763,-0.27996099684908987
1684200566529420500,0.249420654296875,1.188756780102849,3.4207162064701317,0.7172396305665374
1684200566539446500,0.259446533203125,1.4040858764350412,3.747818747591972,1.9367517605476081
1684200566549472500,0.269472412109375,1.7634680543929337,4.129856409472227,1.4554393393144012
1684200566559498500,0.27949853515625,2.881016624328494,4.050356756299734,2.8271111388787626
1684200566569524500,0.2895244140625,3.8345167878359554,4.4500101543694734,4.01945162268728
1684200566579550500,0.299550537109375,4.627549910533428,4.894318686723709,4.0671395487964155
1684200566589576400,0.309576416015625,5.404942981028556,5.101325360390543,3.7443916957527397
1684200566599601400,0.319601318359375,5.689468947705626,4.918652917513251,3.031149902650714
1684200566609627400,0.32962744140625,5.535513480746745,4.39979095621705,2.437403673022985
1684200566619653400,0.3396533203125,4.501102628225087,3.3960797778636214,2.146149859395623
1684200566629679400,0.349679443359375,2.92298646505177,1.7439684041529893,0.49654637685269115
1684200566639705300,0.359705322265625,1.4438888945132493,-0.043078678748011585,-4.632039915429055
1684200566649731600,0.369731689453125,0.5103641820639372,-1.8941168800443409,-12.158899355089664
1684200566659757600,0.379757568359375,3.4390210939675567,5.543181238895654,0.7731406737476587
1684200566669782500,0.389782470703125,2.6463901223301884,5.845444522315264,-0.30341946771740913
1684200566679808500,0.39980859375,3.288040843427181,3.980366689750552,-0.5670335792690515
1684200566689834500,0.40983447265625,3.450648987919092,3.621187048627436,1.4731208342164754
1684200566699860500,0.419860595703125,2.029221516060829,2.8216204325079914,1.9980168149799107
1684200566709886500,0.429886474609375,1.1223393113434315,1.9143971592679618,2.5720342617869374
1684200566719912400,0.439912353515625,0.5632639976024627,0.26374796706438064,4.662754494905472
1684200566729938400,0.4499384765625,0.4644640161544084,0.6148305187106132,4.896265729138255
1684200566739963600,0.459963623046875,1.5292372737139464,2.8677704815253615,3.0538702685028314
1684200566749989600,0.46998974609375,1.5878209801077843,3.3077082514494656,1.1123065776288508
1684200566760015400,0.480015380859375,0.4107166438758373,4.49858216983676,-0.0937245778799057
1684200566770041300,0.490041259765625,-0.6608329759508371,6.797110456132889,-1.3269956224918364
1684200566780067300,0.5000673828125,-1.3421493524819612,7.926175860860943,-2.1561358313590286
1684200566790093300,0.51009326171875,-2.085007700690627,6.367088807806372,-2.5617186194777486
1684200566800119600,0.52011962890625,-2.5351404091536995,4.463796687659621,-2.059591519883275
1684200566810144500,0.53014453125,-3.550292434453964,3.9890579457283017,0.30128830090761183
1684200566820170800,0.540170654296875,-5.5147056705176825,4.686474100928009,3.782551622799039
1684200566830196700,0.55019677734375,-5.2465743738025425,5.265203670948743,3.756696466052532
1684200566840222700,0.56022265625,-5.136716407245397,5.391134820428491,1.3356734344661234
1684200566850248400,0.57024853515625,-5.2975318231016395,5.174499902194738,1.9800404287844895
1684200566860274400,0.5802744140625,-4.59998210465014,4.838824763038754,4.0580753678530455
1684200566870299600,0.590299560546875,-5.4309319932878015,3.862433261026442,7.883130499860644
1684200566880325600,0.60032568359375,-6.2918807143479585,2.021164466333389,9.552105330088734
1684200566890351600,0.6103515625,-6.289579451668262,0.8068138107687235,10.554753847646712
1684200566900377600,0.620377685546875,-4.609954632610083,-0.04652735789716243,10.563456209540366
1684200566910403600,0.630403564453125,-2.7037445791900154,-0.4472875481650233,9.85071710526347
1684200566920429600,0.6404296875,-1.8083346394710242,-0.3186912711292505,8.401267654013633
1684200566930455600,0.65045556640625,-0.9174041832536458,0.35024259369075295,7.548280705612897
1684200566940480500,0.66048046875,-0.6331621480844914,0.47282852439582346,7.704586535090208
1684200566950506500,0.670506591796875,-0.48155192907750605,0.611438538184762,7.0788102594733235
1684200566960532500,0.680532470703125,0.4306086544342339,1.1353811637461184,6.719493547967076
1684200566970558700,0.690558837890625,0.3763597623743117,0.9313204804033041,7.32870914940536
1684200566980584700,0.700584716796875,0.6035983460783958,0.37765491675138474,8.063645472443103
1684200566990610700,0.710610595703125,2.1826292860090732,0.06447510251998902,9.07894187465012
1684200567000636700,0.72063671875,2.171909154552221,0.13674772704839705,10.028190810453891
1684200567010661600,0.73066162109375,1.4391386312462389,-0.6354565426319837,9.308923765712976
1684200567020687600,0.7406875,0.8726961497381329,-1.0851280633240938,9.154000915026664
1684200567030713600,0.750713623046875,1.0589210243999958,-1.3978466897845268,9.239794699907302
1684200567040739600,0.760739501953125,1.9913649558752775,-1.829289310824871,8.972409837645293
1684200567050765600,0.770765625,0.6865764890164137,-1.35263275257349,8.54864724971354
1684200567060791600,0.78079150390625,0.33274960709810253,-0.719993020927906,8.1721572850883
1684200567070817500,0.790817626953125,3.3154537510097026,0.13650222785472868,8.028741332322358
1684200567080842500,0.800842529296875,2.36812906126678,-0.12135142047405242,5.673669905549287
1684200567090868500,0.810868408203125,-1.4872987049117683,-2.533506085950136,2.9850322945982217
1684200567100894500,0.82089453125,-1.9079601119577883,-3.882452258965373,6.35493425963223
1684200567110920400,0.83092041015625,-0.07253215224742889,-2.6762521766304967,8.320590773755312
1684200567120946700,0.84094677734375,-0.050288756257295605,-3.5321786856144666,7.527037426576018
1684200567130972700,0.85097265625,3.111359749919176,-5.298862779444455,5.953447800916433
1684200567140998700,0.86099853515625,6.63624944756925,-5.527787270408869,4.376643889385462
1684200567151023600,0.871023681640625,10.352093094229698,-5.094180749332905,2.508400870788097
1684200567161049600,0.881049560546875,12.157704592347145,-3.3942888027936218,0.8086193988859653
1684200567171075600,0.89107568359375,9.401548273396491,-2.0687024625778196,-0.4679378297448158
1684200567181101600,0.9011015625,3.2359809858441353,-1.535401641562581,-0.5039981541633606
1684200567191127600,0.91112744140625,0.6604600509852171,-1.0362795690029858,-1.5528455283164977
1684200567201153500,0.921153564453125,0.8724714010715484,-0.815761087334156,-1.8734540312439203
1684200567211178500,0.931178466796875,1.2125041509151457,-1.710984418439865,-0.7007879697203636
1684200567221204500,0.94120458984375,-0.36856618588864803,-2.5555273636221885,2.3727847781181333
1684200567231230500,0.95123046875,-3.3143294231548905,-3.595185469147563,2.9678385832130907
1684200567241256400,0.96125634765625,1.506346519730985,-4.28108449729383,-1.2050421444714068
1684200567251282400,0.971282470703125,1.1551543702304363,-0.3900900354325771,-2.002464442038536
1684200567261308400,0.981308349609375,-2.7177231279209253,1.7862626545250415,-2.0867957531511783
1684200567271334700,0.991334716796875,-2.775126976880431,2.481873513868451,-5.905754321849346
1684200567281359400,1.001359375,-3.1651170590698716,2.973942160785198,-7.174231119877099
1684200567291385600,1.011385498046875,-2.114469649757445,2.0691297480791806,-5.268759317603707
1684200567301411600,1.02141162109375,0.05122252997606992,0.3046265054196119,-2.9853584578126666
1684200567311437600,1.0314375,0.6238195885911584,-1.2361299411743878,-0.6162503223806619
1684200567321463600,1.041463623046875,0.5030110428221524,-2.945622075229883,2.6240812598884102
1684200567331489500,1.051489501953125,1.1693635128468274,-5.860450368267298,8.962786269253492
1684200567341515500,1.061515625,0.9881646496534346,-7.667461796310543,8.810205597779154
1684200567351540500,1.07154052734375,1.8065259826138615,-5.558622553655505,1.6245464904367923
1684200567361566500,1.08156640625,2.129221228687465,-1.9471023280397057,0.8147767524719238
1684200567371592400,1.091592529296875,0.23754794240295884,1.417760766044259,-1.105907231980562
1684200567381618400,1.101618408203125,-2.2415787569753824,5.996831015568971,-10.318631554132699
1684200567391644400,1.11164453125,-3.4681229775503275,6.573443739566207,-10.518395417064427
1684200567401670400,1.12167041015625,-3.0691064160794017,4.58651530483365,-6.978468893802166
1684200567411696600,1.131696533203125,-0.020853841327875853,3.1666040827572344,-6.276879544571042
1684200567421721300,1.141721435546875,1.041163833913207,1.3602464424476026,-2.877171054816246
1684200567431747600,1.15174755859375,1.1421429129660128,-0.2982479102984071,-0.7981506118416786
1684200567441773600,1.161773681640625,2.453059507316351,-0.5035401812627911,-1.5827379777550696
1684200567451799600,1.171799560546875,2.3791923070728775,-0.40532969014048575,-3.1647447186261415
1684200567461825500,1.181825439453125,0.3300187208294868,1.7778651207968592,-4.1850370294243096
1684200567471851500,1.1918515625,-1.311781686747074,2.607513863708079,-4.808740590420365
1684200567481876700,1.201876708984375,-1.1152981606602668,1.4214505604729055,-6.684457890421152
1684200567491902500,1.21190234375,0.5274417197234929,1.4299877949327229,-7.894873544624447
1684200567501928400,1.221928466796875,5.57095830361545,3.1143706221729515,-7.927458301886916
1684200567511954400,1.231954345703125,8.306852755782007,6.478636042624712,-7.499978739258647
1684200567521980400,1.24198046875,1.4805302336901425,6.016608898228407,-4.642510163778066
1684200567532006400,1.25200634765625,-2.123857948088646,3.185338593843579,-5.467319649964571
1684200567542032400,1.262032470703125,-1.6037439409047365,3.904000658428669,-5.6808875818431375
1684200567552057600,1.2720576171875,-1.30178796986863,4.914956985604762,-5.296538135889172
1684200567562083600,1.28208349609375,-1.9849398912638425,4.353956256759166,-2.957113775581121
1684200567572109600,1.292109619140625,-1.5253431888848543,3.471604682186246,0.23287702798247337
1684200567582135600,1.302135498046875,-0.16181321298824622,2.591121239572763,3.98566713424623
1684200567592161500,1.31216162109375,0.7380804662823677,1.0885317342877388,4.3733805036753415
1684200567602187500,1.3221875,1.399485689163208,-0.2958224367171526,6.738208185309171
1684200567612213500,1.332213623046875,2.335997454599291,-0.8841016331106424,8.980324848553538
1684200567622238700,1.34223876953125,0.8420458676695823,0.2430143911153078,15.907580856990814
1684200567632264700,1.3522646484375,1.9561130252301693,3.700010117712617,28.72836474291086
1684200567642290700,1.362290771484375,6.9694052973806855,4.274690412342548,19.480456879174707
1684200567652316700,1.372316650390625,7.214922026705741,3.7612434618324038,10.089958407580852
1684200567662342700,1.3823427734375,5.031597159647942,3.1677450694859024,7.2935238542556755
1684200567672368600,1.39236865234375,2.5461633229494094,1.7807435988426208,6.466184557330608
1684200567682394600,1.40239453125,0.9940367565572261,-0.09094225368499756,5.0434173613011835
1684200567692419600,1.412419677734375,0.26821605238914487,-1.8953987365484237,3.251896640117466
1684200567702445600,1.422445556640625,0.14358553717918693,-2.819021648186445,2.093579129680991
1684200567712471600,1.432471435546875,-0.48744690540023144,-3.278969648221135,1.2068503629371523
1684200567722497500,1.44249755859375,-1.3633447007238864,-4.276201985949277,-0.8843030009016394
1684200567732523800,1.452523681640625,-2.0770728160381315,-5.115886969706416,-4.223322336415946
1684200567742549800,1.4625498046875,-2.36986333771348,-5.848122801613807,-7.571798359322547
1684200567752574700,1.47257470703125,-2.6192016711533066,-5.617362911915778,-10.320323160481452
1684200567762600700,1.4826005859375,-2.9122751014232633,-4.747858543956279,-12.647118925362825
1684200567772626700,1.492626708984375,-2.004860981786251,-4.277852675765753,-11.445265932321547
1684200567782652700,1.502652587890625,-0.97082889944911,-2.6919968582510947,-8.261294535177946
1684200567792678700,1.5126787109375,-0.5916425353467464,-1.797108458188176,-6.783618521875143
1684200567802704600,1.52270458984375,-0.6444780534774065,-2.3343968875348566,-8.516689099916816
1684200567812730600,1.532730712890625,-0.7441133167058229,0.3944330330729484,-8.992111732459067
1684200567822755600,1.542755615234375,-2.0932781009078023,0.09968787019848822,-4.537529740129411
1684200567832781600,1.552781494140625,-2.7705881644070147,1.5877981837540864,-1.9588900887280702
1684200567842807600,1.5628076171875,-2.319050849843025,1.4109411491572856,0.37204584469795227
1684200567852833500,1.57283349609375,-1.6992320213258265,0.0860907220005989,1.5711904555633662
1684200567862859500,1.582859619140625,-1.2193103237986564,-0.9036334320545196,3.200743960507214
1684200567872885500,1.592885498046875,-0.2637736860275268,-0.8786170642197132,5.703179493150115
1684200567882911700,1.602911865234375,1.3548796547174453,1.83248021582067,8.91575329992175
1684200567892936400,1.6129365234375,3.370190718847513,6.542266511014104,7.920688953882455
1684200567902962700,1.622962646484375,2.3487819712400433,4.399873958325386,7.440997557979822
1684200567912988700,1.63298876953125,1.29769003303051,1.089519576281309,5.730220644810795
1684200567923014700,1.6430146484375,2.0571254220306874,0.06605798779726028,3.7523666201546786
1684200567933040600,1.65304052734375,4.85837760477066,4.6280859171062705,2.265738654111326
1684200567943066600,1.663066650390625,3.2079449779272076,4.3554748446285725,-1.173982477884367
1684200567953091600,1.673091552734375,0.8982125760495662,0.4854167878121137,-2.9698434932947158
1684200567963117600,1.68311767578125,1.3046224626421927,0.1179758065611124,-4.669475912114978
1684200567973143600,1.6931435546875,0.19935995830595493,-0.9761790283054113,-3.0372730617061254
1684200567983169500,1.70316943359375,-0.9864958396583795,-1.623579106709361,-1.9112372339323163
1684200567993195500,1.713195556640625,-1.1683791779845953,-1.2896119405150412,-1.986084092862904
1684200568003221500,1.723221435546875,-0.9980395624577999,-0.1688748036712408,-1.7874335980005562
1684200568013247500,1.73324755859375,-0.8938865295439958,0.9919383229732512,-1.9112758123770355
1684200568023272400,1.7432724609375,-0.5139238838395104,2.5385148540228606,-2.266013379399478
1684200568033298400,1.75329833984375,-0.9880740487605333,4.066559703081846,-1.9127379938840865
1684200568043324400,1.763324462890625,-2.5334791979432105,3.573329026648402,-0.09473243974819778
1684200568053350700,1.7733505859375,-3.704159054085612,2.0269827972233294,2.3857485968485475
1684200568063376600,1.783376708984375,-3.9277819315105673,1.699997745001316,3.378915292572975
1684200568073402600,1.793402587890625,-3.541584227341413,2.2656810787051915,2.4523960749715563
1684200568083428600,1.8034287109375,-2.79586756709218,2.1176877350211143,0.8521994512848555
1684200568093453600,1.81345361328125,-1.9554975236803291,1.5521382568299769,-0.5426671997755765
1684200568103479600,1.8234794921875,-1.279232000797987,0.8147738298624754,-1.1605366477906702
1684200568113505500,1.833505615234375,-0.7262509122788906,0.35050095236599443,-1.5559022855386138
1684200568123531500,1.843531494140625,-0.21360475675761698,0.32364743223190306,-2.150448725633323
1684200568133557500,1.8535576171875,0.19592353585017844,0.18201485575139523,-2.6773957937076687
1684200568143583500,1.86358349609375,0.377417600864172,-0.5080605812966823,-2.4759780260890722
1684200568153608400,1.8736083984375,0.32934710517823695,-0.9810089326798915,-1.9659692333340644
1684200568163634400,1.883634521484375,0.45497722588479517,-1.1724053647607564,-1.5842722015850246
1684200568173660400,1.893660400390625,0.5510252782762051,-1.2927554992377757,-0.942901466473192
1684200568183686400,1.903686279296875,0.9289578429251909,-1.3297089731037617,0.26111951825693247
1684200568193712400,1.91371240234375,0.7374982824802399,-2.0597136849582194,1.6087823734633624
1684200568203738600,1.923738525390625,0.07101356437802314,-3.1631612488269805,2.143443523046374
1684200568213764600,1.9337646484375,0.027341668977215884,-3.36816359693408,1.6019154103033244
1684200568223789600,1.94378955078125,0.4115138586681336,-2.8211750268280507,1.269880527345836
1684200568233815600,1.953815673828125,1.490650645688176,-1.9174340427458285,0.6929957084089517
1684200568243841500,1.963841552734375,2.6257646829307077,-1.1730226198762654,-0.08122633083462714
1684200568253867500,1.973867431640625,2.8824668231368062,-0.5881476789683103,-0.19715806434750555
1684200568263893500,1.9838935546875,1.9618010077387094,0.14773556953072547,-0.09103811527490616
1684200568273919500,1.99391943359375,0.9704448685675859,1.8337100498765706,-1.1571551886588334
1684200568283945500,2.003945556640625,0.23185820632874965,2.598732883620262,0.5092880772650241
1684200568293970700,2.013970703125,-0.5763035119175911,3.193923466837406,3.9844022288769483
1684200568303996700,2.02399658203125,0.23824060084223747,3.1646348285108803,4.927599609556794
1684200568314022700,2.034022705078125,1.2815057909488676,2.4409300935834644,3.7816713328331706
1684200568324048600,2.044048583984375,1.5154910724341868,1.5435101292163134,1.836656040200591
1684200568334074400,2.054074462890625,0.9723188457459211,0.8297352521508932,0.23317045797109603
1684200568344100400,2.064100341796875,0.14340901156850158,0.4247381549656391,-0.6033756432384252
1684200568354125300,2.074125244140625,-0.6954126333575695,0.20503625037670134,-0.781362850908935
1684200568364151300,2.0841513671875,-1.3024784363508224,0.07484685893058776,-0.6004857670158148
1684200568374177300,2.09417724609375,-1.5099205788254737,0.05002922853827476,-0.4940004917621612
1684200568384203300,2.104203369140625,-1.373967363155633,0.12937924410700796,-0.6239557821914553
1684200568394229200,2.114229248046875,-1.0409301712878047,0.3176724494755268,-0.6414321099102497
1684200568404255500,2.12425537109375,-0.41505021610073745,0.49267421159446234,-0.6374374873161316
1684200568414281500,2.134281494140625,0.3853263281621039,0.6219073252290487,-0.7002054936572909
1684200568424306400,2.144306396484375,0.7316893039405346,0.7318056237965822,-0.549469865527749
1684200568434332400,2.15433251953125,0.5951484976410866,0.7969383134424686,-0.41746933300644157
1684200568444358400,2.1643583984375,0.4851245268672704,0.688472678026557,-0.5858744733393192
1684200568454384400,2.17438427734375,0.4294470633089542,0.5208633642464876,-0.5917372278928756
1684200568464410400,2.184410400390625,0.3151274411678314,0.32342706747949124,-0.4027092785090208
1684200568474436400,2.194436279296875,0.17795301313996315,0.22301497465968131,-0.33231413829028605
1684200568484462300,2.20446240234375,0.025084172374010085,0.12681085492372512,-0.32153175525218247
1684200568494487300,2.2144873046875,-0.16486783305220304,-0.02282908692359924,-0.28766309565901754
1684200568504513300,2.22451318359375,-0.27796295489966866,-0.162121237757802,0.04322217887192964
1684200568514539300,2.234539306640625,-0.3433195164293051,-0.306713248565793,0.6318728389263153
1684200568524565200,2.244565185546875,-0.3451999233484268,-0.465585713660717,1.0843956573963165
1684200568534591200,2.25459130859375,-0.19450543094687162,-0.5826233625888824,1.3369865628913045
1684200568544617200,2.2646171875,0.02002279733121395,-0.6248913094758987,1.4115899684548376
1684200568554642200,2.27464208984375,0.12792743786349892,-0.5903168397009373,1.2778075209528208
1684200568564668200,2.284668212890625,0.18255035086758434,-0.5163385802984237,1.0186182401061057
1684200568574694400,2.2946943359375,0.1965028883744031,-0.3537216679781675,0.7145914541453122
1684200568584720400,2.304720458984375,0.21800079975947736,-0.20754618737101554,0.39409488715976476
1684200568594746400,2.314746337890625,0.2830430346429348,-0.2542980016738176,0.06366174031049013
1684200568604772400,2.3247724609375,0.3610582944765687,-0.4163730622023344,-0.15895283685475586
1684200568614798300,2.33479833984375,0.30968320428729057,-0.375578694999218,-0.0668000383362174
1684200568624823300,2.3448232421875,0.16170564269423485,-0.13073065871596334,0.13882073393017053
1684200568634849300,2.354849365234375,-0.01805894991233945,0.11453238810896872,0.37821751907020806
1684200568644875300,2.364875244140625,-0.1687175672829151,0.1795364829391241,0.6383800288632512
1684200568654901200,2.3749013671875,-0.21946626920215784,0.05464636694490909,0.8184683004662394
1684200568664927200,2.38492724609375,-0.21165581464692948,-0.1609492713689804,0.8513748370289802
1684200568674953200,2.394953125,-0.0910363617092371,-0.321072028785944,0.7204653146147727
1684200568684979200,2.404979248046875,0.2126927564792335,-0.3820961140692234,0.5156672569081187
1684200568695004200,2.415004150390625,0.6123095488656312,-0.42704292477667327,0.35612668329328295
1684200568705030100,2.425030029296875,0.8738714771278202,-0.5265653752803802,0.3139709646090865
1684200568715056000,2.43505615234375,0.9657032269984483,-0.6323001244276761,0.48775399858802554
1684200568725082400,2.445082275390625,0.8502971247948705,-0.7692986113667488,0.8019467892542481
1684200568735108400,2.4551083984375,0.49305078982189293,-0.8966320288598537,1.1478656745269893
1684200568745134300,2.46513427734375,0.12486337411776184,-0.8532838855206966,1.392019883327186
1684200568755159300,2.4751591796875,-0.1694965888313949,-0.7159773555457591,1.3765388210788367
1684200568765185300,2.485185302734375,-0.30189722658619284,-0.5537906513363122,1.184801028214395
1684200568775211300,2.495211181640625,-0.2772818407677114,-0.44510932734310626,0.9476423773899674
1684200568785237200,2.5052373046875,-0.09668459672927855,-0.39596097329258917,0.6677981387883425
1684200568795263200,2.51526318359375,0.23102248615697024,-0.3953320277392864,0.28561171608716246
1684200568805289200,2.525289306640625,0.6372790818840265,-0.3970668887078762,-0.046215807729959486
1684200568815315200,2.535315185546875,1.0513475204057992,-0.2662579040586948,-0.2106386004284024
1684200568825340200,2.545340087890625,1.2778316324807704,-0.09389233566224575,-0.16457710647732018
1684200568835366100,2.5553662109375,1.115079549473524,-0.022652561312913894,0.01409808345735073
1684200568845392100,2.56539208984375,0.6756270788483322,-0.07557517320513725,0.33041941058486696
1684200568855418000,2.575418212890625,0.2976595890164375,-0.22843758423030375,0.6112383394375444
1684200568865444000,2.585444091796875,0.06586407266035675,-0.3822381528884172,0.7714081508666276
1684200568875470300,2.59547021484375,-0.09141454737186432,-0.42303602722287176,0.9145932174861431
1684200568885496300,2.605496337890625,-0.11635653479620814,-0.39446518177688117,1.0471402779743075
1684200568895521300,2.615521240234375,0.03988470501229167,-0.29054654214084147,1.2221759423628449
1684200568905547300,2.62554736328125,0.30157340145930644,-0.20514029527306554,1.4599541863903402
1684200568915573200,2.6355732421875,0.6070682141460478,-0.22649463346898555,1.6513257762908935
1684200568925599200,2.64559912109375,0.8883956770427525,-0.36027298931777474,1.7296332970693706
1684200568935625200,2.655625244140625,1.0570431016989053,-0.5577104551285504,1.7564304108411073
1684200568945651200,2.665651123046875,1.1064952610015868,-0.7691296845406294,1.7140695249736309
1684200568955676400,2.675676513671875,0.9865466930627822,-0.9102432055830955,1.7016972423955796
1684200568965702400,2.685702392578125,0.7075695926845074,-0.8813070339560508,1.7898352523148058
1684200568975728400,2.695728271484375,0.29304829582870007,-0.645562341582775,1.9683914920449255
1684200568985754400,2.70575439453125,-0.19852175391614435,-0.264295664075017,2.1929081034392115
1684200568995780400,2.7157802734375,-0.6615571985721588,0.1138537581950426,2.3737007239192724
1684200569005806000,2.72580615234375,-0.9582961656123399,0.4171913928478956,2.5010358949780462
1684200569015832000,2.73583203125,-1.0574112043589352,0.6740922704964876,2.561209208650887
1684200569025857300,2.745857177734375,-0.8124138227328658,0.9873235226541757,2.453167643865943
1684200569035883300,2.75588330078125,0.003847907599806785,1.4143746307373046,2.1716350137859584
1684200569045909200,2.7659091796875,1.596616865503788,1.8135756088644266,1.85432876727432
1684200569055935500,2.775935546875,3.510371927475929,2.0198188969433306,1.7953911328762768
1684200569065961500,2.78596142578125,4.577357015866041,1.6232295626193285,1.9056494969278572
1684200569075987500,2.795987548828125,4.5639346397131675,0.8750754460901021,1.839759559173882
1684200569086012400,2.806012451171875,3.903189342045784,0.21567688685655592,1.4865227521032094
1684200569096038400,2.816038330078125,3.2111341293573377,-0.3195797444015741,1.1120692617416381
1684200569106064400,2.826064453125,3.1852970927894115,-0.9557815524429082,1.048983860014379
1684200569116090400,2.83609033203125,3.4122850627332926,-1.491540288004279,1.5316829133003949
1684200569126116400,2.846116455078125,3.240791016474366,-1.7975293139487505,2.1196809546649455
1684200569136142300,2.856142333984375,2.3353280309051274,-1.5499866317540407,2.2383602333202957
1684200569146168300,2.866168212890625,1.338577923735976,-0.4819862288415432,1.6044041583791375
1684200569156193300,2.876193359375,-0.08923720333278179,0.8290928625941276,0.7306950322061777
1684200569166219300,2.88621923828125,-1.145197624361515,2.0815601905852557,0.2668573312565684
1684200569176245200,2.896245361328125,-2.3463643887042998,3.265278391999006,0.42049715639501806
1684200569186271200,2.906271240234375,-3.95351433866024,4.263244304698706,0.4927548756152391
1684200569196297200,2.916297119140625,-5.300490088385343,5.046886498716473,0.28282266989052296
1684200569206323500,2.926323486328125,-5.492152477926015,5.277464602106809,-0.16633096440732478
1684200569216348200,2.93634814453125,-4.761867195564508,4.5526340780198575,-0.3377417162969708
1684200569226374400,2.94637451171875,-3.3106676857769486,3.302846782892942,0.23872341592311858
1684200569236400400,2.956400390625,-1.8428188006140291,2.196328725537658,1.4973305618435144
1684200569246426400,2.96642626953125,-2.1426129174411295,1.0037059176564216,2.304781501471996
1684200569256452400,2.976452392578125,-2.8815561380326744,0.0718693044245243,2.1997043394505975
1684200569266478300,2.986478271484375,-3.0213422098636626,-0.38355215809643267,1.2663041301637887
1684200569276504300,2.99650439453125,-2.581392749501765,-0.5686684869945049,0.2683341258108616
1684200569286529300,3.006529296875,-2.03005855140686,-0.37424072439372535,-0.6137082366824149
1684200569296555300,3.01655517578125,-1.4690953780926763,-0.09700725281238555,-1.0093974072963
1684200569306581200,3.026581298828125,-1.1120517260849476,0.060251347345113754,-1.289811847001314
1684200569316607200,3.036607177734375,-1.2412674501933156,0.17400924395024775,-1.5355723219543695
1684200569326633200,3.04663330078125,-1.5135143655337393,0.4020914388716221,-1.8408435550183058
1684200569336659700,3.05665966796875,-1.8142744047835468,0.5803735378354787,-2.2074317188322543
1684200569346684400,3.066684326171875,-2.0366455285817384,0.7671715362101793,-2.516429863464832
1684200569356710700,3.076710693359375,-2.081831701003015,0.7909007868438959,-2.8856781863987444
1684200569366736600,3.086736572265625,-2.3164313149943947,0.7309270873963832,-3.062649787285924
1684200569376762600,3.0967626953125,-2.3613947845757006,0.4492033186584711,-3.2453076171159743
1684200569386788600,3.10678857421875,-2.1154396638333797,0.12499649897813796,-3.3332384140253066
1684200569396814600,3.116814697265625,-1.6238181761622428,-0.24720716663002967,-3.2079543302774427
1684200569406840600,3.126840576171875,-1.2561962853863835,-0.4773392798185348,-2.8377123201310632
1684200569416865500,3.136865478515625,-1.3480550693944096,-0.5227876103073358,-2.282177455475926
1684200569426891500,3.1468916015625,-1.6114447245404124,-0.462251016280055,-1.7933733633130788
1684200569436917500,3.15691748046875,-1.6713056112632154,-0.3279600347340107,-1.710478807005286
1684200569446943500,3.166943603515625,-1.6014882709324358,-0.20360183365941045,-1.7295254527807236
1684200569456969500,3.176969482421875,-1.5530454348027705,-0.23717794004678724,-1.5519769287884235
1684200569466995500,3.186995361328125,-1.3912544519126415,-0.5024380652397871,-1.1900573413074016
1684200569477021400,3.197021484375,-1.0329507168412209,-0.7231102761656045,-0.7189245149135589
1684200569487046400,3.20704638671875,-0.7504781755626201,-0.8143442062735557,-0.5993810206443071
1684200569497072400,3.217072265625,-0.755482267460227,-0.9435901793897151,-0.8134411199539899
1684200569507098600,3.2270986328125,-0.9353811539709568,-1.0357786337435244,-1.2515823618501425
1684200569517124600,3.23712451171875,-0.9576865092813968,-1.1121353127151727,-1.7726450480610132
1684200569527150600,3.247150634765625,-0.8269000287249684,-1.2448287959367037,-2.210112920740247
1684200569537176600,3.257176513671875,-0.643675212661922,-1.3981407042950391,-2.442863107472658
1684200569547201500,3.267201416015625,-0.48906449666470286,-1.6145453209042548,-2.849954546588659
1684200569557227500,3.2772275390625,-0.30573271309584377,-1.7791630516529082,-3.052223670339584
1684200569567253500,3.28725341796875,0.09076543581336736,-1.7775807508975265,-2.8821096802622077
1684200569577279500,3.297279541015625,0.507456039532274,-1.4609014041125774,-2.343924009814858
1684200569587305500,3.307305419921875,0.6236798878595232,-0.9098176736474036,-1.3923060067921875
1684200569597331500,3.31733154296875,0.5483180651441216,-0.3619382921814918,-0.4373030375063419
1684200569607357400,3.327357421875,0.3736718384645879,0.03548047870397567,0.1963894180625677
1684200569617382400,3.33738232421875,0.2318517765879631,0.2097042421877384,0.40403906580805776
1684200569627408400,3.347408447265625,0.21392098309993743,0.23085282867848872,0.25447043563127514
1684200569637434400,3.357434326171875,0.43224312376827,0.30403730735480783,-0.058470309147238726
1684200569647460400,3.36746044921875,0.5464190996550023,0.6146943251103162,-0.09120704210102558
1684200569657486600,3.377486572265625,0.366592109336704,0.9700462246388196,0.31479952438771724
1684200569667512600,3.3875126953125,-0.2714018428184092,1.1334317832440137,0.8021978414058685
1684200569677537800,3.397537841796875,-1.1621711901899427,0.8148451415330171,1.0125240148842334
1684200569687563800,3.407563720703125,-1.7271791819155216,0.19349018948972224,0.4864531451225281
1684200569697589800,3.41758984375,-1.5246914469778536,-0.41403555916547774,-0.5977589724004269
1684200569707615500,3.427615478515625,-0.6874270414311439,-0.9844114345997571,-1.5865309402972458
1684200569717641500,3.437641357421875,0.04289681937508285,-1.3598083432912826,-2.013314921876788
1684200569727667500,3.44766748046875,0.2852863931229338,-1.3932459179908037,-1.8641887747704982
1684200569737693400,3.457693359375,0.6476631132543087,-1.1887269694864748,-1.6326871267944574
1684200569747718700,3.46771875,1.1487900958955288,-0.8761655794143677,-1.2944786697685717
1684200569757744600,3.47774462890625,1.3812322395920753,-0.4677700719624758,-0.774253603425622
1684200569767770600,3.4877705078125,1.3139859187930822,-0.10608487775921821,-0.2647112591385841
1684200569777796600,3.497796630859375,1.1715198140978813,0.2369967382609844,0.1906640261530876
1684200569787822600,3.507822509765625,0.9295394422054291,0.4404483497947454,0.6049088441550732
1684200569797848600,3.5178486328125,0.7096329549551009,0.6072358257979155,0.9772735455438494
1684200569807873500,3.52787353515625,0.6720072809159755,0.903593684566021,1.357517309744656
1684200569817899500,3.5378994140625,0.763632256168127,1.3955144474446772,1.6494412777185439
1684200569827925800,3.54792578125,0.9446423918563872,2.1989356931656596,1.9658204725131392
1684200569837951700,3.55795166015625,1.1375146686434745,3.3067280082404613,2.55576760211885
1684200569847977700,3.567977783203125,1.4787486109703778,4.506981749391556,3.8632080447912216
1684200569858003700,3.578003662109375,1.5367431192994117,4.6415842811048025,5.213646502190828
1684200569868029700,3.58802978515625,1.033118547688797,3.1444629780977964,5.504379506814479
1684200569878054700,3.5980546875,1.0063679034072905,0.7392553552806377,4.670809791067242
1684200569888080600,3.60808056640625,1.8653437900245189,-1.1717325800657272,3.700634679351747
1684200569898106600,3.618106689453125,2.682977685493231,-1.9096026184678077,2.6430986795693636
1684200569908132600,3.628132568359375,2.71004046446383,-1.691622130843997,1.422052325758338
1684200569918158600,3.63815869140625,1.892548607814312,-1.5393401500552892,0.18311726403534412
1684200569928184600,3.6481845703125,0.8758562942694872,-1.7759160325556993,-1.0003153984352946
1684200569938209500,3.65820947265625,-0.32492695064842697,-1.905679892066121,-1.627754638828337
1684200569948235500,3.668235595703125,-1.518137203028798,-1.4491332249075173,-1.5520125846236943
1684200569958261500,3.678261474609375,-2.213689610183239,-0.5415881723672151,-1.1278332325845957
1684200569968287500,3.68828759765625,-2.49052911401093,0.36814649917185305,-0.6746668555140495
1684200569978313700,3.698313720703125,-2.471233461910486,0.9597732524275779,-0.364297130267322
1684200569988339700,3.708339599609375,-2.2565502622663973,1.3154524842143058,-0.1381008952230215
1684200569998365700,3.71836572265625,-1.8567033874511718,1.422616973903775,0.0413701212644577
1684200570008390700,3.728390625,-1.0825754562318324,1.2014888359040021,0.1444710147768259
1684200570018416600,3.738416748046875,0.15073771048877388,0.6458733072280883,0.11112667131870985
1684200570028442600,3.748442626953125,1.7229963432729243,-0.06931728185415267,-0.21413316454589365
1684200570038468600,3.758468505859375,2.9039105931818483,-0.5709264950543642,-0.6400736810386181
1684200570048494600,3.76849462890625,2.627314250460267,-0.6727829414635896,-0.8159305986821651
1684200570058520600,3.7785205078125,1.6159627864867447,-0.5952811841100454,-0.761797149695456
1684200570068545500,3.788545654296875,0.5035961127011105,-0.17911621170043945,-0.5015563139691949
1684200570078571500,3.798571533203125,-0.5135715267378836,0.2700935366988182,-0.06878975084871053
1684200570088597500,3.808597412109375,-1.4867583144247531,0.569295094460249,0.44919367404729127
1684200570098623500,3.81862353515625,-2.331137593477964,0.6766694275081158,0.8054907454714179
1684200570108649500,3.8286494140625,-3.0009833124458787,0.37787469698190684,1.1318576657950878
1684200570118675500,3.838675537109375,-2.9946500177711246,0.031072014611959457,1.450152046561241
1684200570128701700,3.84870166015625,-2.3421581691861153,-0.37719139089286324,1.8027236677214502
1684200570138726400,3.858726318359375,-1.3832277973234652,-0.7097393379390239,1.704869150429964
1684200570148752600,3.868752685546875,-1.2370295203626156,-0.7994955967098474,1.1862272616252303
1684200570158778600,3.878778564453125,-0.8577817814618348,-0.6735632781863212,0.7446613059774041
1684200570168804600,3.8888046875,-0.15013729691021144,-0.35059506039023397,0.5389347352489828
1684200570178830600,3.89883056640625,0.5159340180855244,-0.2632669055491686,0.20940292115360498
1684200570188856600,3.908856689453125,0.7520452787488698,-0.23769758000671862,-0.0407733244150877
1684200570198882600,3.918882568359375,0.6097036041509359,-0.3474345505326986,-0.35358693568259475
1684200570208907500,3.928907470703125,0.2084849660584703,-0.4586082758635282,-0.5613935275554657
1684200570218933500,3.93893359375,-0.22383915052413939,-0.5179559523671865,-0.6139034669935703
1684200570228959500,3.94895947265625,-0.6616400545500218,-0.4925689976543188,-0.5327262359976768
1684200570238985500,3.9589853515625,-1.0308411042761056,-0.4906313075900077,-0.4384066148340702
1684200570249011500,3.969011474609375,-1.1922387039344757,-0.43474809232652184,-0.2557029000356793
1684200570259037400,3.979037353515625,-1.1019709885101765,-0.30938276003599163,0.2285223399043083
1684200570269062400,3.9890625,-0.7362795543402433,-0.21925357629954814,0.6451692506119608
1684200570279088400,3.99908837890625,-0.3069453768212348,-0.06849719764292239,0.6443219861328602
1684200570289114400,4.0091142578125,0.1554980202257633,0.09181202225685119,0.5757438322082161
1684200570299140600,4.019140625,0.7218962242007255,0.3174532537668943,0.12356295904368161
1684200570309166600,4.02916650390625,1.0964035636413842,0.5278337877810001,-0.30614363198429345
1684200570319192600,4.039192626953125,1.3520026379764079,0.6276274564415216,-0.7192106383785605
1684200570329218600,4.049218505859375,1.2975246133357285,0.5358236174911261,-0.9897858211144804
1684200570339243000,4.059242919921875,0.7717793953318148,0.3339975613325834,-0.9187345550745725
1684200570349269000,4.06926904296875,0.002649783856421709,0.21844576704800128,-0.8443073828607797
1684200570359295200,4.079295166015625,-0.5878612632423639,0.2244002915382385,-0.8170695395842195
1684200570369321200,4.0893212890625,-0.8330822975564748,0.28347207370996474,-0.7460515912920236
1684200570379347200,4.09934716796875,-0.8440677288860082,0.23894319615364074,-0.7180342880755662
1684200570389373200,4.109373291015625,-0.7870604049634188,0.03749766374528408,-0.7528454892158508
1684200570399398100,4.119398193359375,-0.7500362770140171,-0.06903788039088249,-0.7046773783743381
1684200570409424100,4.129424072265625,-0.5739489846806973,0.02003507229089737,-0.7220408933684229
1684200570419450000,4.1394501953125,-0.2667822201937437,0.16194003597199916,-0.7067337263822555
1684200570429476000,4.14947607421875,0.11822481288611889,0.3472556868344545,-0.6828399328365922
1684200570439502000,4.159502197265625,0.49577276213169097,0.5075847804784774,-0.6785603558212518
1684200570449528000,4.169528076171875,0.7826268794953822,0.42880759636163707,-0.5933452476114034
1684200570459554000,4.179553955078125,0.7929045278817415,0.00910451295375824,-0.2817942036256194
1684200570469579000,4.1895791015625,0.5058090029776096,-0.523594835036993,0.23088263929486275
1684200570479605000,4.19960498046875,0.16624452823288738,-0.8599182089686394,0.7086132565185427
1684200570489631000,4.209630859375,-0.12258461553081869,-0.9750976628094911,0.9921665787711739
1684200570499657000,4.219656982421875,-0.26184023374691606,-0.8940396742790937,1.0423211872547864
1684200570509683200,4.22968310546875,-0.15803791396692393,-0.6646878978133202,1.0709262272313236
1684200570519709200,4.239709228515625,0.13611746632084248,-0.35684067678153514,1.169873800456524
1684200570529734100,4.249734130859375,0.631228111281991,-0.10043138204216956,1.146499354609847
1684200570539760000,4.259760009765625,1.0736813711583613,0.15054595077633856,1.0590198085993527
1684200570549786000,4.2697861328125,1.004217958831787,0.28166765463650223,0.9358461411342024
1684200570559812000,4.27981201171875,0.5476391429692506,0.2417249358266592,0.6452776794224977
1684200570569838000,4.289838134765625,0.2891157056201249,0.13266074999570845,0.21153058083206414
1684200570579864000,4.299864013671875,0.28530170028991997,0.032549685949087144,-0.09166384595781564
1684200570589889000,4.309888916015625,0.4919530577130615,-0.05628945797681808,-0.36046821962893005
1684200570599915000,4.3199150390625,0.7525370808538049,-0.013561492362618445,-0.48892596497684715
1684200570609941000,4.32994091796875,0.8882347873926162,0.04810264438986778,-0.5162953256785869
1684200570619967000,4.339967041015625,0.8646108968295156,0.17492460522949693,-0.5299363130182028
1684200570629993000,4.349992919921875,0.713860801783204,0.36555356006920336,-0.38844343726933
1684200570640019000,4.36001904296875,0.502121985027939,0.5109586408257484,-0.07624737337827682
1684200570650045000,4.370044921875,0.3726287591524422,0.38869361263811586,0.12960545407831667
1684200570660070000,4.38006982421875,0.43837870391383765,0.06199322257637977,0.21173165636211633
1684200570670096000,4.390095947265625,0.611184855684638,-0.27617665600478647,0.29679508114159103
1684200570680122000,4.4001220703125,0.7565418595157564,-0.4781961889088154,0.4225663638845086
1684200570690148000,4.410148193359375,0.7767021656215191,-0.607467880988121,0.5093944602489471
1684200570700174000,4.420174072265625,0.6159247436881065,-0.6185884099394082,0.6053805533200503
1684200570710200000,4.430199951171875,0.3510118244975805,-0.5292424855351447,0.7560112597703933
1684200570720225000,4.44022509765625,0.1572936714708805,-0.4616986430943012,0.8341352406755089
1684200570730251000,4.4502509765625,0.033076194041222334,-0.4289204090863466,0.9033858870342373
1684200570740277000,4.460277099609375,-0.009098083212971687,-0.38147009112536906,0.9988950102433561
1684200570750303000,4.470302978515625,-0.011499226070567964,-0.15238602568507192,1.1773179789826274
1684200570760329000,4.480328857421875,0.019445143573731182,0.2425479426473379,1.387225050266087
1684200570770355000,4.49035498046875,0.0946568902939558,0.5623965671181679,1.5636980539813636
1684200570780381000,4.500380859375,0.27213819426894187,0.7703741316437721,1.7763924178957937
1684200570790406000,4.510406005859375,0.4064596440184861,0.7975812875211239,1.990651546908915
1684200570800431900,4.520431884765625,0.43697468233481046,0.8382564122587441,2.169535118897259
1684200570810457900,4.530457763671875,0.554748828843981,0.8681400938689708,2.2927067405357957
1684200570820483800,4.54048388671875,0.9810371358610689,0.7814625118911266,2.2409292070254683
1684200570830510000,4.550510009765625,1.7410756053209304,0.5484288320422173,2.1126208070203663
1684200570840536000,4.5605361328125,2.717188874913752,0.24269115051031112,2.0544883515253662
1684200570850562000,4.57056201171875,3.6257512878030536,-0.1163198560476303,1.8910168682023882
1684200570860587000,4.5805869140625,4.633899571821093,-0.46327860576212404,1.7422823507621883
1684200570870613000,4.590613037109375,5.621597188484668,-0.5917763908594846,1.9262503864079712
1684200570880639000,4.600638916015625,6.128449563035368,-0.4234562984615564,2.3271172519206997
1684200570890665000,4.6106650390625,7.40578946647644,0.020354221242666243,2.79241771889925
1684200570900691000,4.62069091796875,9.453857137304544,0.8809364470779896,2.7062644530564546
1684200570910717000,4.630717041015625,5.6267631929457185,1.629312097403407,1.4285674067407845
1684200570920742100,4.6407421875,-1.4884370612919329,1.4095318668812513,0.6099743108510971
1684200570930768100,4.65076806640625,-5.403856939357519,0.8911287552684545,-0.2585427996367216
1684200570940794000,4.660794189453125,-6.325663156962395,1.084637064936757,-0.5982189911276101
1684200570950820000,4.670820068359375,-5.268997218012809,1.9315385559439657,-0.19871113900840282
1684200570960845800,4.680845703125,-4.749264903622866,2.946190815028548,0.4114458349332213
1684200570970871800,4.690871826171875,-5.484412239062785,3.720399410268664,0.9981535442262888
1684200570980897000,4.70089697265625,-5.912415533304214,4.470003725606203,1.4811965886443852
1684200570990923000,4.710923095703125,-5.445868865656853,4.560698142009973,2.7381583054453134
1684200571000949200,4.72094921875,-3.9744998435437675,3.3642028766095637,4.993346047186852
1684200571010975200,4.730975341796875,-2.231339833164215,1.68046360796988,6.53113838327825
1684200571021001200,4.741001220703125,-1.9867454793810844,0.7168810263872146,5.9228843203485
1684200571031027200,4.751027099609375,-2.3988743281424045,0.7151648701190948,3.3171003491729496
1684200571041053200,4.76105322265625,-2.164030237870663,1.0666875667482614,0.504625930672884
1684200571051078100,4.771078125,-2.0753075599312782,0.9347674059867859,-1.5392261682868003
1684200571061104000,4.781104248046875,-2.2525486254096028,0.4668284071981907,-3.0387948644459244
1684200571071130000,4.791130126953125,-2.272192944817245,0.2465998483866453,-4.214555969375372
1684200571081156000,4.801156005859375,-1.9730954319521783,0.15092121382951734,-5.003982592013478
1684200571091182000,4.81118212890625,-1.6960332252845167,0.027868250134587286,-4.90623416544497
1684200571101208000,4.8212080078125,-1.8213664088711141,-0.068358081433177,-4.447314923936128
1684200571111233000,4.83123291015625,-2.042235019151866,-0.08522562960386276,-4.049383527353406
1684200571121259000,4.841259033203125,-2.5488708283424377,0.1350777480095625,-3.6770109349191187
1684200571131285000,4.851284912109375,-3.0299159769415853,0.5379506926476955,-3.240283651474118
1684200571141311000,4.86131103515625,-3.0465342265263198,0.789153066393733,-3.077556264516711
1684200571151337200,4.871337158203125,-2.526736153423786,0.7889952454835176,-3.16663155528605
1684200571161363200,4.88136328125,-1.771977816323936,0.5305430467396974,-3.330795112526417
1684200571171389200,4.89138916015625,-1.4722773691296576,0.12143033092916011,-3.2808377801805735
1684200571181414100,4.9014140625,-1.2345169530197977,-0.2248591412216425,-3.231875888612866
1684200571191440100,4.911440185546875,-1.2684852735951542,-0.43018180732429023,-3.1339386614739895
1684200571201466000,4.921466064453125,-1.4069503259554506,-0.6425181515812873,-3.1008862866997715
1684200571211492000,4.9314921875,-1.5996914506435393,-0.827656107789278,-3.047360448217392
1684200571221518000,4.94151806640625,-1.5371920321106909,-0.8933405860990286,-3.0817654066443443
1684200571231544000,4.9515439453125,-1.2497595303371547,-0.9668465518146753,-3.0660265702426432
1684200571241569000,4.961569091796875,-0.9606231472551822,-1.0199614714086056,-2.8851316584318876
1684200571251595000,4.971594970703125,-0.7333566526308656,-1.0052379495292902,-2.4767694687277078
1684200571261621000,4.98162109375,-0.6444704546928406,-0.9596031565576791,-2.0557535491555927
1684200571271647000,4.99164697265625,-0.6921987128123641,-0.8382435527771711,-1.8778940595179796
1684200571281673000,5.0016728515625,-0.7535852016672492,-0.7071341238766908,-1.8726427148610352
1684200571291699000,5.011698974609375,-0.779660138644278,-0.7149620410233736,-1.8714070355862378
1684200571301725200,5.02172509765625,-0.780581345142424,-0.8210790674865245,-1.7648650617092847
1684200571311750000,5.03175,-0.6831728180527686,-0.8913006047040224,-1.5142214908897875
1684200571321775900,5.04177587890625,-0.7002732981964945,-0.8640782512575388,-1.2578273937195539
1684200571331802000,5.051802001953125,-0.7690066426828503,-0.7552537194013595,-1.0776678104460238
1684200571341828000,5.061828125,-0.7412183259166777,-0.602195493543148,-1.016280737069249
1684200571351854000,5.07185400390625,-0.6010827099956572,-0.43442017554640766,-1.0501187092632054
1684200571361880000,5.081880126953125,-0.39497795360460874,-0.27261867126226424,-1.0589414826661347
1684200571371905000,5.091905029296875,-0.12694763304591178,-0.09059680124819278,-0.8936988980174064
1684200571381931000,5.101930908203125,0.12541165565028786,0.14736147552132606,-0.38433775551617144
1684200571391957000,5.11195703125,0.23028978796824812,0.27460020046830175,0.38929917731583114
1684200571401983000,5.12198291015625,0.18717662242874503,0.32899288491308687,1.1961223404347896
1684200571412009000,5.132009033203125,0.10480243673324584,0.33335634081959725,1.8078958096623419
1684200571422035000,5.142034912109375,-0.11912088494300842,0.18514263238310813,2.1081062522053715
1684200571432061000,5.15206103515625,-0.3104302963275462,-0.03356967664659023,2.0113035820543765
1684200571442086000,5.1620859375,-0.2951286092340946,-0.18508827184736729,1.7837258295238017
1684200571452112000,5.17211181640625,-0.23918635725975035,-0.28737083471417424,1.5714964527726172
1684200571462137900,5.182137939453125,-0.23558226835317908,-0.40012686080038545,1.343397306716442
1684200571472163800,5.192163818359375,-0.13799396424982696,-0.4299854079693556,1.220690964502096
1684200571482190000,5.202190185546875,0.19431728796362877,-0.36065468211174007,1.0991045662283896
1684200571492216000,5.212216064453125,0.43414194312691684,-0.16509937678575515,1.0530728828936815
1684200571502241000,5.222240966796875,0.6608066724658012,-0.04602817620337009,0.9708160399675368
1684200571512267000,5.23226708984375,1.0437684634536504,0.022825579792261123,0.9958674791157245
1684200571522293000,5.24229296875,1.4460802670776842,0.09713292501866817,1.056468078289926
1684200571532319000,5.252319091796875,1.716618624934554,0.10910393331944941,1.0792103637129067
1684200571542345000,5.262344970703125,1.7721598948925732,0.05086918649375438,1.0902332775086163
1684200571552371000,5.272370849609375,1.759773291528225,0.0039233109235763544,1.16046241351068
1684200571562396200,5.282396240234375,1.6801853755503893,0.006023498073220252,1.1423568479776383
1684200571572422100,5.292422119140625,1.4443991821229456,0.005716624081134796,0.975465327078104
1684200571582448000,5.3024482421875,1.2102683546870947,-0.0029828152030706404,0.8234744381904602
1684200571592473900,5.312473876953125,0.9534873040258884,0.10065291583836078,0.7696323733657598
1684200571602499800,5.322499755859375,0.6747213621802628,0.5595961227446794,1.0475134952008724
1684200571612525800,5.33252587890625,0.5703039061766118,1.0933259828269482,1.4317232404232025
1684200571622551800,5.3425517578125,0.7491460501760244,1.4143880747407673,1.737577534072101
1684200571632577000,5.352576904296875,1.1966063976246863,1.7319307603567837,2.215790966376662
1684200571642603000,5.36260302734375,1.8537474602550268,2.3546797971069813,2.959557953862846
1684200571652629200,5.372629150390625,2.6371833180457354,3.428498530909419,3.9703842249184844
1684200571662655200,5.3826552734375,3.3368881687045095,4.364361915439367,5.222677949908375
1684200571672681200,5.39268115234375,2.3923522328972817,3.9462621755748986,5.9194204436302185
1684200571682707000,5.40270703125,-0.06968786873221397,1.8196762638270854,5.0158057162761684
1684200571692732200,5.412732177734375,-1.7545728002756833,-0.9012550124853849,2.9727567503929135
1684200571702758100,5.422758056640625,-2.1786510300278663,-2.848464015769958,0.8798784624576568
1684200571712784100,5.4327841796875,-1.897735070541501,-3.6165988440543413,-0.4354653006851673
1684200571722810000,5.44281005859375,-1.6152221972525118,-3.6894542369067667,-1.2286001301914453
1684200571732836000,5.452836181640625,-1.2941431542038917,-3.3202953458219766,-1.7840987544894218
1684200571742862000,5.462862060546875,-1.0024550408124924,-2.5307097332298754,-2.0041028568953276
1684200571752888000,5.47288818359375,-0.8610551040440797,-1.5511340482234954,-1.8378209923267363
1684200571762913000,5.4829130859375,-0.7794529256343841,-0.5485977588683366,-1.5494567626610398
1684200571772939000,5.49293896484375,-0.6474748972058296,0.28861294372975826,-1.2920412134885788
1684200571782965000,5.502965087890625,-0.4348129742562771,0.884559313750267,-1.1578048847392202
1684200571792991000,5.512990966796875,-0.06597728724386542,1.317527536922693,-1.1876008880659936
1684200571803017200,5.523017333984375,0.40554015455339104,1.4546341604113577,-1.3629700221925973
1684200571813043200,5.533043212890625,0.9709376205205916,1.3168261106550694,-1.6881664374321699
1684200571823068200,5.543068115234375,1.4587901110470294,1.1644336552292107,-2.0503531514167785
1684200571833094100,5.55309423828125,1.428014449033141,1.028371572357416,-2.293988597039878
1684200571843120000,5.5631201171875,0.8818500547915696,0.928834508806467,-2.399843465435505
1684200571853146000,5.57314599609375,0.19433073196709155,0.832068663534522,-2.164677157472074
1684200571863172000,5.583172119140625,-0.576724915667437,0.7994605253964662,-1.832933512546122
1684200571873198000,5.593197998046875,-1.3549445366472006,0.7276590255111456,-1.5079232675284147
1684200571883224000,5.60322412109375,-2.1639970662534234,0.3854927707701921,-1.277221245497465
1684200571893249000,5.6132490234375,-2.6027099705576897,0.26012042421698567,-0.9059469696938991
1684200571903275000,5.62327490234375,-2.4325100557625294,0.374815893933177,-0.4676774252429604
1684200571913301000,5.633301025390625,-1.6580249816685915,0.4937748663127422,-0.0844394476622343
1684200571923327000,5.643326904296875,-0.38242574788238853,0.35767245143055915,0.054770577846467494
1684200571933353000,5.65335302734375,0.36401100680232046,0.16029636041820047,0.03150514533221722
1684200571943379000,5.66337890625,0.27497199292276053,0.05167699574530124,-0.04730564879328012
1684200571953404000,5.67340380859375,0.0007552022814750671,0.045401568737626075,-0.0712353904351592
1684200571963430000,5.683429931640625,-0.21806469530854372,0.10094634582698345,-0.08669453311264515
1684200571973456100,5.6934560546875,-0.2331722846020013,0.008993453794717788,-0.31636779661774633
1684200571983482000,5.703482177734375,-0.23059629663415251,-0.20546879657506942,-0.6125532214283943
1684200571993508000,5.713508056640625,-0.46994105932600794,-0.32672318641543385,-0.8197738301068543
1684200572003534000,5.7235341796875,-0.8317677808918058,-0.4318003484368324,-0.8116708954110741
1684200572013559000,5.73355908203125,-1.1155541812479495,-0.46333530438542364,-0.7504723303437233
1684200572023585000,5.7435849609375,-1.2060685649096965,-0.4575023604482412,-0.6237471078768372
1684200572033611000,5.753611083984375,-1.0358680655926464,-0.2561152802288532,-0.269817934627831
1684200572043637000,5.763636962890625,-0.6683950087029487,-0.05988660568594932,0.1206093699350953
1684200572053663000,5.7736630859375,-0.4051537490516901,0.04185468991100788,0.3567603050217032
1684200572063689000,5.78368896484375,-0.1704308009415865,0.09971417368352413,0.3508569261968136
1684200572073715000,5.79371484375,0.11577734666876494,0.24001930095255372,0.393721377672255
1684200572083740000,5.803739990234375,0.6599122809093445,0.43991818844079966,0.46460926984399553
1684200572093766000,5.813765869140625,1.2640315090566874,0.5181400767624378,0.35807694057822226
1684200572103791900,5.8237919921875,1.6329618520826101,0.39847207933068274,0.27755320505499836
1684200572113817900,5.83381787109375,1.544867973566055,0.12619184624254703,0.28679975682795045
1684200572123844000,5.843843994140625,1.0869027448464184,-0.2491612233072519,0.3780065066680312
1684200572133870000,5.8538701171875,0.465576361310482,-0.545469397714734,0.43970133081972596
1684200572143896000,5.86389599609375,-0.23114392057955263,-0.653729281425476,0.533745934434235
1684200572153921000,5.873921142578125,-0.8018838800858705,-0.6500637446552515,0.5140387789234518
1684200572163947000,5.883947021484375,-1.0702618450384587,-0.5798159039527178,0.4595829661145806
1684200572173973000,5.893972900390625,-1.0993891553234307,-0.5098761062860488,0.34350217951983214
1684200572183999000,5.9039990234375,-1.0520200859051196,-0.43837797326147554,0.2119455913737416
1684200572194025000,5.91402490234375,-0.881443665947765,-0.4563309785813093,0.1308943248450756
1684200572204051000,5.924051025390625,-0.5609457837879658,-0.49990766997933384,0.22833616968244314
1684200572214076200,5.934076171875,-0.08442235039696097,-0.42841655121743677,0.31216011579483743
1684200572224102100,5.94410205078125,0.4644739530265331,-0.25931144592165944,0.30476357580274344
1684200572234128000,5.9541279296875,1.0440035873837767,-0.08095745076537132,0.27513211538791654
1684200572244153900,5.96415380859375,1.433691325625777,0.0447077412545681,0.2621539758712053
1684200572254179800,5.974179931640625,1.4430156188100576,0.11958090367019175,0.31895021432638165
1684200572264205800,5.984205810546875,1.0655589280445128,0.08886135575771331,0.48728638107627625
1684200572274231000,5.99423095703125,0.5449433280140161,-0.11613222452104091,0.6889484788447618
1684200572284257000,6.004257080078125,0.12803294406458735,-0.41670507063567636,0.8836220329001545
1684200572294283000,6.014282958984375,-0.09247311651408671,-0.6653057374507189,1.077167751969397
1684200572304309200,6.024309326171875,-0.17779402318596838,-0.7997638922572136,1.2191782218515872
1684200572314335200,6.034335205078125,-0.11282675323486327,-0.800258982297778,1.2256751826554535
1684200572324361000,6.04436083984375,0.10333353322446345,-0.6224520996302366,1.0396057908162475
1684200572334387000,6.054386962890625,0.3410365931238979,-0.5108908362865447,0.7777063742280006
1684200572344413000,6.064412841796875,0.5969991670090705,-0.46845220900774,0.5283408605203033
1684200572354439000,6.07443896484375,0.7428549141425639,-0.45923371428549287,0.2750938292041421
1684200572364465000,6.08446484375,0.8899270513284951,-0.3905623291194439,0.0956783422961831
1684200572374491000,6.094490966796875,0.9378308852106332,-0.2216810957074165,-0.025844050830602646
1684200572384516900,6.104516845703125,0.865056010248512,0.019116788402199745,-0.1099523668423295
1684200572394542800,6.11454296875,0.7518563320480287,0.2027805804044008,-0.10161065495461225
1684200572404568000,6.124568115234375,0.6172958859108388,0.28145664223432537,-0.02036795750707388
1684200572414594000,6.134593994140625,0.4866296707332134,0.28543314464986325,0.030017829383909702
1684200572424620000,6.1446201171875,0.4110435377426445,0.29815058740377426,0.01956277860403061
1684200572434646000,6.15464599609375,0.3599742986321449,0.32949615826010703,0.02765723773241043
1684200572444671700,6.164671630859375,0.3142586955092847,0.2850584661185741,0.09863456175327301
1684200572454697700,6.17469775390625,0.24734876705780623,0.22334873665869234,0.34079671995341776
1684200572464723000,6.184722900390625,0.11744111516252159,0.1349637662410736,0.6654407620072365
1684200572474749000,6.1947490234375,-0.09021920010745525,0.27381226496100425,1.107211008055508
1684200572484775200,6.204775146484375,-0.32845738979689776,0.6486673218607902,1.5992472140073775
1684200572494801200,6.21480126953125,-0.5496814624518156,1.1061527311742305,2.0506980193316937
1684200572504827100,6.2248271484375,-0.6646949120759964,1.359195764350891,2.375769639147818
1684200572514853000,6.23485302734375,-0.6535830048225819,1.300192371240258,2.4478528785839675
1684200572524879000,6.244879150390625,-0.47571664705276484,1.0747340950816868,2.191710125826299
1684200572534904000,6.254904052734375,0.06808569423258304,0.780719584569335,1.8540590104222296
1684200572544930000,6.264929931640625,1.2854115662157535,0.4700298335880041,1.7876923950672148
1684200572554956000,6.2749560546875,2.8335055160909888,0.13733575606942175,1.8254457871392369
1684200572564982000,6.28498193359375,3.8567829801797866,-0.2253898870974779,1.6247645171016454
1684200572575008000,6.295008056640625,4.49751775547564,-0.5604331580907106,1.5021537442162631
1684200572585034000,6.305033935546875,4.792472177186608,-0.7795850275814533,1.5460335102140903
1684200572595059000,6.315058837890625,4.968951026120782,-0.9287094211220741,1.5530699847221374
1684200572605085000,6.3250849609375,5.014285959362984,-0.9950456413388251,1.535164910197258
1684200572615111000,6.33511083984375,4.162113249954581,-1.0029793569475411,1.3718681989192962
1684200572625137000,6.345136962890625,2.3471207600295543,-0.7544213602304458,0.9997183093249797
1684200572635163000,6.355162841796875,0.2493324882209301,-0.3270563638925552,0.5524325147256255
1684200572645189000,6.365189208984375,-1.8167478091597555,0.15828385155200958,0.1053252915635705
1684200572655213800,6.3752138671875,-3.6840310428142544,0.851231629166007,-0.2782370956659317
1684200572665240000,6.385239990234375,-5.384545505166053,1.5561363865554332,-0.5064449627935886
1684200572675266000,6.39526611328125,-6.5988920690774915,2.11707983225584,-0.8195441130042076
1684200572685292000,6.4052919921875,-6.658682813173532,2.648455822688341,-0.9102572341084479
1684200572695318000,6.415318115234375,-6.602917086809873,2.9210499440312385,-0.35814532963931556
1684200572705344000,6.425343994140625,-6.982235552859306,2.3361352556347845,0.49421676486134525
1684200572715370000,6.435369873046875,-6.540685379302501,1.4144132091820238,1.592461791650951
1684200572725395000,6.44539501953125,-4.992894796288013,0.6124982763707637,3.032443741853535
1684200572735421000,6.4554208984375,-2.9730092638492582,-0.1270335577636957,4.4185228369548915
1684200572745447000,6.465447021484375,-1.5221137054443359,-0.8372001812040806,5.038008195734024
1684200572755473000,6.475472900390625,-1.0159959287784992,-1.3418313725739717,4.858291095530986
1684200572765499000,6.485498779296875,-1.3077227667450904,-1.5718454123407601,3.5862557282388208
1684200572775524900,6.49552490234375,-2.326088347264379,-1.6826573186218738,2.2582623268812894
1684200572785549800,6.5055498046875,-2.715556597536802,-1.486471314176917,1.0023580101788043
1684200572795575800,6.515575927734375,-2.5421184314727783,-0.9628817398369311,-0.23516426213681696
1684200572805601800,6.525601806640625,-2.1535506371714175,-0.428824547496438,-1.0803034196466206
1684200572815628000,6.5356279296875,-1.5471591532431541,-0.2185492274224758,-1.7121920406639575
1684200572825654000,6.545654052734375,-1.338209090423584,-0.22602292430400847,-2.402017886865139
1684200572835680000,6.555679931640625,-1.5270704510688782,-0.14530980368852614,-2.9978906071275473
1684200572845706000,6.5657060546875,-1.6099987635158002,-0.07855681936442852,-3.3814468568772074
1684200572855731000,6.57573095703125,-1.4957213730812071,-0.07194529227018356,-3.505536177882552
1684200572865757000,6.5857568359375,-1.4897978282511233,-0.17814882797300816,-3.418302131065726
1684200572875783000,6.595782958984375,-1.7058347805917262,-0.26318448796272276,-2.976534515365958
1684200572885809000,6.605808837890625,-1.6914378603182731,-0.10669044243693351,-2.3886720830798147
1684200572895835000,6.6158349609375,-1.0458592251878231,-0.024736966371536252,-2.1043115360975264
1684200572905860900,6.62586083984375,-0.6155541568100452,0.0023860183537006375,-1.6283464672416448
1684200572915885800,6.6358857421875,-0.2924760488986969,0.18942191713750361,-1.17987730807662
1684200572925911800,6.645911865234375,-0.26141221759319305,0.4831126025229692,-0.8503554308533668
1684200572935937800,6.655937744140625,-0.4236532092731446,0.7046189261853695,-0.5456359864532947
1684200572945963800,6.6659638671875,-0.48870231228880584,0.7631272292554379,-0.45011108115315435
1684200572955989800,6.67598974609375,-0.3533949933070689,0.7268079616397619,-0.5552618929326534
1684200572966016000,6.68601611328125,-0.06177921449951827,0.6827046160191297,-0.8402589842528104
1684200572976042000,6.6960419921875,0.19059497950486837,0.6268138019710778,-1.1311790358811615
1684200572986067000,6.70606689453125,0.3634171325623989,0.5574778154164552,-1.3719015166670083
1684200572996093000,6.716093017578125,0.460113346664235,0.534812979143858,-1.4904150833666323
1684200573006119000,6.726118896484375,0.5154652315299958,0.5648761089742184,-1.3318945004492997
1684200573016145000,6.736144775390625,0.5294680379193276,0.5706482626348733,-1.0579925113782287
1684200573026171000,6.7461708984375,0.6895651494383812,0.5340706363439559,-0.8577943486824631
1684200573036196900,6.75619677734375,0.8192786670010537,0.4773316810339689,-0.69749360435009
1684200573046222000,6.76622216796875,0.85950188325271,0.43460780707299707,-0.5451248220607638
1684200573056248000,6.776248046875,0.869368758881092,0.40641514728963374,-0.4082119675785303
1684200573066274000,6.786274169921875,0.7346948424320667,0.3723948042660951,-0.18817747003436086
1684200573076300000,6.796300048828125,0.2888260750237852,0.19587737688720225,-0.00710720165669918
1684200573086325800,6.80632568359375,-0.231073339561373,-0.16513795523047448,0.027008126173913478
1684200573096351700,6.816351806640625,-0.7123897063173353,-0.7252326751470566,0.019128186579048634
1684200573106377000,6.826376953125,-1.195713175112009,-1.3677449815094471,-0.01823737521916628
1684200573116403000,6.83640283203125,-1.7268189703010022,-1.9431892462491989,-0.08238368417620659
1684200573126429000,6.846428955078125,-2.17704491000548,-2.2806313950777053,-0.14878566310554742
1684200573136455200,6.856455078125,-2.4528327128231524,-2.2086451862752434,-0.12428075192421674
1684200573146481200,6.866481201171875,-2.4489878739632664,-1.826506402108073,-0.14249357722401618
1684200573156507100,6.876507080078125,-2.220210682515055,-1.2924497942894697,-0.2604398654296994
1684200573166533000,6.886533203125,-1.9842296971678732,-0.8237392266064881,-0.3937093949735164
1684200573176558000,6.89655810546875,-1.8476327767670153,-0.5204904392808676,-0.6395286143764853
1684200573186584000,6.906583984375,-1.8683727824568748,-0.4207867869913578,-0.9069389033406973
1684200573196610000,6.916610107421875,-1.9594063676871358,-0.4764443768054247,-1.2752794637799263
1684200573206636000,6.926635986328125,-1.872637454164028,-0.6654781714081763,-1.8202432500600814
1684200573216662000,6.936662109375,-1.6072880432523786,-0.8689028949350118,-2.4736980984583496
1684200573226688000,6.94668798828125,-1.0558476083040236,-0.9780524209618567,-3.2415847972005603
1684200573236713000,6.956712890625,0.06254267315268516,-0.9178378984957933,-4.043464950959384
1684200573246739000,6.966739013671875,2.426930209803581,-0.46924657425582406,-5.03961972258389
1684200573256765000,6.976764892578125,4.543268868303299,0.6397457642585038,-5.686939721488952
1684200573266791000,6.986791015625,5.624213508462906,3.161246355116367,-5.26688826303482
1684200573276817000,6.99681689453125,5.6986593853771685,6.852407395941019,-3.8908278731226917
1684200573286843100,7.006843017578125,4.562153601515293,10.244134239292144,-1.2441931283816694
1684200573296867800,7.016867919921875,1.5194143833577631,11.306187131977081,1.7725369115114211
1684200573306894000,7.02689404296875,-1.2043524086415767,8.215795351284742,3.2555607155829667
1684200573316920000,7.036920166015625,-1.78285255382061,2.9187498503953218,2.3173788249775766
1684200573326946000,7.046946044921875,-0.6750269209980965,-1.5576000293672083,0.23487580058425664
1684200573336971800,7.0569716796875,1.1154314316511154,-4.360093152078986,-1.2418389664709568
1684200573346997800,7.066997802734375,1.8682780899107456,-5.423939357921481,-1.513603651252389
1684200573357023700,7.077023681640625,0.5441559404959901,-4.70335830797255,-0.8745786024838685
1684200573367048700,7.087048583984375,-1.692438707923889,-2.927090977761149,-0.12067132925540208
1684200573377074700,7.09707470703125,-3.330758872169256,-1.1870330250501633,0.47902445642650127
1684200573387100700,7.1071005859375,-3.879270706319809,0.17116496043503285,1.036684058150649
1684200573397126700,7.117126708984375,-3.803964413183927,0.9973732075035572,1.5395748355939984
1684200573407153000,7.12715283203125,-3.5094577352404595,1.3194926995158194,2.0307392271474
1684200573417179000,7.137178955078125,-2.730831323558092,1.1594155348062514,2.853428067918122
1684200573427203800,7.147203857421875,-1.0780898352503776,0.4683078321009874,4.049062624835968
1684200573437229800,7.157229736328125,0.6430512355446815,-0.677733841869235,4.958692082434893
1684200573447255800,7.167255859375,0.7480150003194809,-1.7742764486551283,5.430684156006574
1684200573457281800,7.17728173828125,-0.01888648677766323,-2.5244319681346417,5.568308081367611
1684200573467307800,7.187307861328125,-0.3684042733252048,-2.887652116820216,5.517782593744993
1684200573477333800,7.197333740234375,0.103220738766063,-2.83204830302,5.130191973912716
1684200573487358700,7.207358642578125,0.9051204557418823,-2.008852097249031,4.55850267779231
1684200573497384700,7.217384765625,1.396708625665307,-0.6392354766488075,4.158093492919206
1684200573507410700,7.22741064453125,1.663598397886753,-0.028659108251333235,3.319051775501668
1684200573517436700,7.237436767578125,1.322742641222477,0.1453904677093029,2.346255959893763
1684200573527462700,7.247462646484375,0.5315653755247592,0.011143909826874732,1.422438110205531
1684200573537488600,7.257488525390625,-0.10152209988832474,-0.433645684042573,0.5595443925574421
1684200573547514600,7.2675146484375,-0.8169535119891166,-0.8471335461974143,0.05322217936068773
1684200573557539600,7.27753955078125,-1.4032535172641276,-1.040087729114294,-0.26862024927586314
1684200573567565600,7.287565673828125,-1.6608090594291687,-0.8514479022651911,-0.3724310446232557
1684200573577591800,7.297591796875,-1.887197894436121,-0.4978349553585052,-0.28685031797140836
1684200573587617800,7.30761767578125,-2.206945396620035,-0.16542261739075184,-0.2475529113277793
1684200573597643800,7.317643798828125,-2.6708500253260135,0.08264496546089649,-0.19172551790475845
1684200573607669800,7.327669677734375,-2.9292238981366157,0.2079828252226114,-0.16595248648375271
1684200573617695000,7.337695068359375,-3.0313176604330536,0.2162573170930147,-0.08782207583785057
1684200573627721000,7.347720947265625,-3.0957389869391916,-0.02823942153453827,0.09653583590835332
1684200573637746700,7.35774658203125,-3.1555706475675103,-0.2759101140230894,0.3890305895075202
1684200573647772700,7.367772705078125,-3.1578993827760216,-0.32841596180796623,0.6490808710977435
1684200573657798700,7.377798583984375,-3.0274539707422257,-0.341605698248744,0.8700254692241549
1684200573667824600,7.38782470703125,-2.74321851144433,-0.3551905714869499,0.9778606977820395
1684200573677849900,7.397849853515625,-2.3573873025000096,-0.5341700050652027,0.941080242395401
1684200573687875800,7.407875732421875,-2.0118354969739913,-0.801197139930725,0.9035787792578339
1684200573697901800,7.41790185546875,-1.7814169680595398,-0.8312725447207688,0.9695672089502215
1684200573707927800,7.427927734375,-1.715005344519019,-0.6468365993022919,1.1374293284475803
1684200573717953800,7.437953857421875,-1.7869325166106222,-0.40392683760523795,1.335629303063452
1684200573727979800,7.447979736328125,-1.9256530050367116,-0.15145897396802901,1.5291060485497117
1684200573738005800,7.458005859375,-1.8915923300027846,-0.020391630643606183,1.532654388681054
1684200573748031000,7.468031005859375,-1.8042203360199927,-0.04014320981800556,1.308008890210092
1684200573758057000,7.478056884765625,-1.7385452100604772,-0.056548401173949235,0.9982055666744708
1684200573768083000,7.4880830078125,-1.6231027213692664,-0.14621990427076817,0.648921296621859
1684200573778109000,7.49810888671875,-1.3414543559551237,-0.2065069074511528,0.29083178882300853
1684200573788135000,7.508135009765625,-1.0469856719344854,-0.11371171937584876,0.00599310293495655
1684200573798161000,7.518160888671875,-0.857981103426218,0.05041325941979885,-0.15755933666974306
1684200573808185900,7.528185791015625,-0.6578560059666633,0.17490239339768884,-0.23790786175653336
1684200573818211800,7.5382119140625,-0.5690367357850075,0.27797172272801396,-0.1569068641103804
1684200573828237800,7.54823779296875,-0.6021966625869274,0.39502223113775253,0.05090177358910441
1684200573838263800,7.558263916015625,-0.7357523155957459,0.4601923301845789,0.17773250225707887
1684200573848289800,7.568289794921875,-0.8430728726297616,0.5252075309306383,0.16143763940781353
1684200573858315800,7.578315673828125,-0.7163824292153119,0.5155050520837307,-0.05218523752838373
1684200573868340700,7.5883408203125,-0.24465163692831993,0.4039461268275976,-0.4239370677158236
1684200573878366700,7.59836669921875,0.3483399749398231,0.33805297420322894,-0.6989446799412369
1684200573888392700,7.608392822265625,0.8362871580123901,0.3538958555012941,-0.6287165668524801
1684200573898418700,7.618418701171875,1.286986852708459,0.41649172014594077,-0.208714646628499
1684200573908445000,7.62844482421875,1.4821552045434712,0.404281057870388,0.20754048828259108
1684200573918471000,7.638470947265625,1.2740443690270185,0.2934323267102241,0.5607163589462637
1684200573928497000,7.648496826171875,1.0336147337079047,0.09893675957024096,0.8405737492904066
1684200573938521900,7.65852197265625,0.9764671975970267,-0.24155367091298102,1.1191190341226755
1684200573948547800,7.6685478515625,0.8586310917675495,-0.5254027612417936,1.3993373667337
1684200573958573800,7.67857373046875,0.808067537156865,-0.5305746109217405,1.6051503005713224
1684200573968599800,7.688599853515625,0.4215700463235378,-0.3451233509808779,1.528640769125521
1684200573978625800,7.698625732421875,-0.4591033659040928,0.1139326686501503,1.4210022321835158
1684200573988651800,7.70865185546875,-1.3531143986105918,0.6887737067997455,1.5800065069645641
1684200573998676700,7.7186767578125,-1.9858840402461586,1.194012216413021,1.808037556220591
1684200574008702700,7.72870263671875,-2.3400739102579653,1.469555835211277,1.8655851975649593
1684200574018728700,7.738728759765625,-2.410354484186321,1.5213520734220742,1.8508669363826513
1684200574028754700,7.748754638671875,-2.2162135757029056,1.2456179004877805,1.729213025830686
1684200574038780700,7.75878076171875,-2.2556325628995895,0.763865480402112,1.2585782120868563
1684200574048806700,7.768806640625,-2.646613409692049,0.32625264629423617,0.6586097469434141
1684200574058831600,7.77883154296875,-3.252957839608192,0.06431143639087676,0.2710644275575876
1684200574068857600,7.788857666015625,-4.026572560608387,-0.08383972820341587,0.22532208255827427
1684200574078883800,7.7988837890625,-4.15594245236516,-0.1589975527793169,0.5949453762844205
1684200574088909800,7.808909912109375,-3.5621383550703523,-0.15097440532147882,1.1141074895709753
1684200574098935800,7.818935791015625,-2.720816125500202,-0.16779577626287936,1.9166531215012073
1684200574108961800,7.8289619140625,-1.054060140365362,-0.22603227665424347,2.169513491587341
1684200574118987800,7.83898779296875,-0.15333638521246612,-0.28135961160063744,2.1586367082640527
1684200574129012700,7.8490126953125,0.333461627824977,-0.09021218584477901,1.9281974288225172
1684200574139038700,7.859038818359375,0.18974296578541397,0.4590303006678819,0.8249456797868013
1684200574149064700,7.869064697265625,-0.32072000047788024,1.0410019213497639,-0.35452976949065923
1684200574159090700,7.879090576171875,-0.5969897415935993,1.590622593525052,-1.3140633679434657
1684200574169116700,7.88911669921875,-0.8098631153367459,2.0038135185599324,-2.163508990475535
1684200574179142700,7.899142578125,-0.9364962756060063,2.2241104664325713,-2.849631890505552
1684200574189167600,7.909167724609375,-0.9664179511390626,2.0661492709636686,-3.5137057480737566
1684200574199193600,7.919193603515625,-0.9995734940268098,1.5497072302907704,-4.056586590600014
1684200574209219600,7.929219482421875,-0.9321908334970473,0.952193757084012,-4.214441987606882
1684200574219245600,7.93924560546875,-0.5261771066151559,0.389890713468194,-3.9171366188555954
1684200574229271800,7.949271728515625,-0.09541150805354118,0.04684007710814476,-3.3589208445534107
1684200574239297800,7.9592978515625,0.13001155066117642,-0.01965337949693203,-2.6607985869109627
1684200574249323000,7.969322998046875,0.25930530844181776,0.03734510353207588,-1.9674176785767077
1684200574259349000,7.979348876953125,0.3508437744542956,0.1802688888669014,-1.3446902691364289
1684200574269374700,7.989374755859375,0.2692002411209047,0.30955344042778016,-0.9384259284943341
1684200574279400700,7.999400634765625,0.1503612418591976,0.48240942268967624,-0.6663643065929412
1684200574289426700,8.0094267578125,-0.10657952940836549,0.6500327649950981,-0.5779641386061907
1684200574299452700,8.01945263671875,-0.3517909921765327,0.7432388719588517,-0.7451917595922947
1684200574309478700,8.029478759765626,-0.5670460003592074,0.7819669542819261,-1.1543670192450284
1684200574319504000,8.03950390625,-0.8960779021084309,0.7279214758396149,-1.5874924788057803
1684200574329529900,8.04952978515625,-1.1178910997629166,0.6427338401585817,-1.8521254120111463
1684200574339555600,8.0595556640625,-1.1859867308676242,0.536038137024641,-1.9064964691460131
1684200574349581600,8.06958154296875,-1.0746050618745386,0.3915490020692348,-1.7725526936024427
1684200574359607600,8.079607666015624,-0.9077591336823999,0.18172960906922817,-1.5973492714315651
1684200574369633500,8.089633544921876,-0.6662054627694189,-0.11931845334172247,-1.5017951400369405
1684200574379658500,8.099658447265625,-0.34057986233234405,-0.4561947849810123,-1.5257178674161433
1684200574389684500,8.1096845703125,-0.13879808370694519,-0.757235248607397,-1.5911515858352183
1684200574399710500,8.11971044921875,-0.11164368093013763,-0.9221651140451431,-1.5148486828774212
1684200574409736400,8.129736328125,-0.08142740636467934,-0.8970493774890899,-1.332929104194045
1684200574419762400,8.139762451171874,-0.07221797173172236,-0.7483043386548757,-1.1616828952163458
1684200574429788400,8.149788330078126,-0.2438778760768473,-0.4933867437779903,-1.0192851795822382
1684200574439813400,8.1598134765625,-0.4030933093905449,-0.3047586073666811,-0.7523451384782791
1684200574449839400,8.16983935546875,-0.646374680878967,-0.3703729430496692,-0.5769312884271145
1684200574459865300,8.179865234375,-0.7903998515844345,-0.6618529666483401,-0.7476555193573236
1684200574469891300,8.189891357421875,-0.6617933454155922,-1.0441267753720282,-1.2391197706401347
1684200574479917300,8.199917236328124,-0.3949626099050045,-1.388069976657629,-1.9064953001022338
1684200574489943600,8.209943603515624,-0.3068083795033395,-1.5134452458202838,-2.321139931076765
1684200574499968300,8.21996826171875,-0.4609774892129004,-1.4390157355189324,-2.2606425000160932
1684200574509994500,8.229994384765625,-0.7185762129325419,-1.4254659335941076,-2.0426076518565415
1684200574520020500,8.2400205078125,-1.0163326133869588,-1.4539274734467267,-1.8490408899992703
1684200574530046500,8.25004638671875,-1.1425451370913535,-1.3753975420892237,-1.6175684681177138
1684200574540072400,8.260072509765624,-0.9408337202884256,-1.0248258625745772,-1.3041454927802085
1684200574550098400,8.270098388671874,-0.5100700944881886,-0.5193208109796047,-0.939194574779272
1684200574560124400,8.28012451171875,0.011923004440590738,-0.04964753574430942,-0.5229489383488893
1684200574570149400,8.2901494140625,0.46812838388085365,0.3632803544402122,-0.14675532632172106
1684200574580175400,8.30017529296875,0.7545335884332657,0.7609761887013912,0.19430793561339377
1684200574590201300,8.310201416015625,0.9321581002712249,1.1391910774230956,0.40744624390304085
1684200574600227300,8.320227294921875,1.2936229297220707,1.5441262152880428,0.4395645526975393
1684200574610253300,8.33025341796875,1.5482698909640311,1.9272890818059443,0.41183015807569023
1684200574620279300,8.340279296875,1.5776783562779426,2.1211317379951478,0.3333206849843263
1684200574630304300,8.35030419921875,1.492816299289465,1.9937486361414194,0.09304302535653114
1684200574640330200,8.360330322265625,1.4796926138222217,1.4887211389303205,-0.2484954528748989
1684200574650356200,8.370356201171875,1.3806103083014487,0.8267910153925419,-0.5022624164119363
1684200574660382500,8.380382568359375,1.214932254844904,0.4368599699139595,-0.48478784225881094
1684200574670408400,8.390408447265624,1.1306243246078491,0.32578035260736943,-0.2874231494233012
1684200574680434400,8.400434326171874,0.9990981316000223,0.3258972569853067,0.02652998726814985
1684200574690460400,8.41046044921875,0.7860977704763412,0.38928865592181683,0.4096215421155095
1684200574700485400,8.4204853515625,0.7935755590111017,0.4968453597992658,0.7110942596793174
1684200574710511400,8.430511474609375,1.0030962613254786,0.7254547934651374,0.9316185865670442
1684200574720537300,8.440537353515625,1.287878248590231,0.908241218110919,1.0599094509154559
1684200574730563300,8.450563232421874,1.533598391532898,0.7669038251847028,1.0714707093715667
1684200574740589300,8.46058935546875,1.6488333749532698,0.3349707902789116,1.0534031377613544
1684200574750615300,8.470615234375,1.5109581051796674,-0.03736789988577366,1.1155614877715707
1684200574760640300,8.48064013671875,1.1282324610352517,-0.14535013569891453,1.2995938208252191
1684200574770666200,8.490666259765625,0.5518196435242891,0.03261924405395984,1.5940721494570373
1684200574780692200,8.500692138671875,0.13811433922648428,0.28866613522171974,1.816562515720725
1684200574790718200,8.51071826171875,-0.15466799914240836,0.3194546567171812,1.9014222346216438
1684200574800744200,8.520744140625,-0.5001029002904892,0.11836860527098178,1.7019865807309746
1684200574810770400,8.5307705078125,-0.8154787632614374,-0.20403788698911665,1.2821435043305158
1684200574820795400,8.54079541015625,-0.8443605743527411,-0.3542413079380989,0.8239888174533844
1684200574830821600,8.550821533203125,-0.6973492274433374,-0.19368132814764977,0.5378630143642426
1684200574840847600,8.56084765625,-0.5222749846100807,0.16995266203582285,0.3392743326917291
1684200574850873300,8.570873291015625,-0.535120437657833,0.6680763712078333,0.10204057080447673
1684200574860899300,8.5808994140625,-0.5079670577943325,0.8130407224595546,-0.43854397747814655
1684200574870925300,8.59092529296875,-0.3465893318802118,0.5161211381554603,-1.2413558591291307
1684200574880950500,8.600950439453126,-0.0890367123246193,-0.07908581167459487,-1.9587083024203775
1684200574890976500,8.6109765625,0.24932898108959198,-0.5693605609118938,-2.3666341465339062
1684200574901002500,8.62100244140625,0.4796089783161878,-0.7381611303031445,-2.494548286524415
1684200574911028500,8.631028564453125,0.4161223023116588,-0.648971857765317,-2.3997774144619703
1684200574921054500,8.641054443359375,-0.008947861087322234,-0.3900210618495941,-2.158006009145081
1684200574931080400,8.65108056640625,-0.6122650521367788,0.026754151412844655,-1.820044512617588
1684200574941106400,8.6611064453125,-1.0662602812469004,0.3116881143689155,-1.511965528656542
1684200574951131400,8.67113134765625,-1.3156570668756962,0.3667535835087299,-1.1630913007095456
1684200574961157400,8.681157470703125,-1.3975591050148009,0.31309564307928084,-0.779630328027904
1684200574971183400,8.691183349609375,-1.3494073607861994,0.1581260306417942,-0.35753187391608954
1684200574981209600,8.701209716796875,-1.1722387760221957,-0.2624637724727392,-0.04694412200450897
1684200574991235600,8.711235595703124,-0.8480886549651623,-0.6574865881323814,0.3001721563592553
1684200575001261600,8.721261474609374,-0.4181283814370632,-0.9138041129350661,0.792343971389532
1684200575011286500,8.73128662109375,-0.07642156090140342,-0.9809639244943856,1.2222367326393724
1684200575021312500,8.7413125,0.09193011394487693,-0.8493716805130243,1.516926950456202
1684200575031338500,8.75133837890625,0.07448094822764396,-0.4731131865561008,1.8438591034471987
1684200575041364500,8.761364501953125,0.06133150726463645,0.1427799929499626,2.2815999478489157
1684200575051390500,8.771390380859375,0.1500654372503981,0.9563953004270791,2.5997186797872183
1684200575061416400,8.78141650390625,0.4748433713495731,1.7439233959674834,2.7351813354611396
1684200575071441400,8.79144140625,1.1591864022254943,2.0653525676280258,2.135206148315966
1684200575081467400,8.80146728515625,1.580214012235403,1.6345914991110562,1.2064534725740552
1684200575091493400,8.811493408203125,1.3205834173619746,0.40922319044768807,0.5929460191607475
1684200575101519400,8.821519287109375,0.7389245158910751,-0.33520167642533777,0.33850276379734273
1684200575111545300,8.83154541015625,0.06745793598936871,-0.6534948881477117,0.07457797886133194
1684200575121571300,8.8415712890625,-0.43355449862778184,-0.7574222956120967,-0.023925942249596117
1684200575131597600,8.85159765625,-0.885666982731223,-0.5776239468663931,0.20494185009151697
1684200575141622300,8.861622314453125,-1.2258937938421963,-0.38890053338706493,0.3830947697177529
1684200575151648500,8.8716484375,-1.4090391149282455,-0.36843291489779945,0.34844401983618734
1684200575161674500,8.881674560546875,-1.4734072499424218,-0.4211515286505222,0.3502420091688633
1684200575171700500,8.891700439453125,-1.6215975775033236,-0.4911433487653732,0.4078928186267614
1684200575181726500,8.9017265625,-1.5290163244396446,-0.589086421123147,0.18236089271008968
1684200575191752400,8.91175244140625,-1.353259360039234,-0.6532528960853815,-0.2042351631268859
1684200575201777400,8.92177734375,-1.1099679055482148,-0.6083189448595047,-0.6481131951093674
1684200575211803400,8.931803466796875,-0.7994523420900106,-0.5076420636236667,-0.917696736459434
1684200575221829400,8.941829345703125,-0.3189975605994463,-0.2773088749051094,-0.9982342082470654
1684200575231855400,8.95185546875,0.29669045172333713,0.06380757852196693,-0.940015243512392
1684200575241881300,8.96188134765625,0.8669365632981061,0.43484336939454077,-0.8258318149715661
1684200575251907300,8.9719072265625,1.3144213876008988,0.6617810704559087,-0.7887216892391443
1684200575261932300,8.981932373046876,1.5145372788406908,0.6728150901675224,-0.8516685592785477
1684200575271958300,8.991958251953125,1.3538532342791556,0.5361158784359693,-0.8380033142805099
1684200575281984300,9.001984375,0.7421756997067481,0.2291805115520954,-0.6533811986401676
1684200575292010200,9.01201025390625,-0.05547755707204342,-0.14154197558760642,-0.29671938555687666
1684200575302036500,9.022036376953125,-0.6980220852036029,-0.28750936640202995,0.18910159914195537
1684200575312062500,9.0320625,-1.0192482816379518,-0.3069955726385116,0.6405006742790341
1684200575322087200,9.042087158203126,-1.0831173080235719,-0.34264088651537894,0.8933417551428079
1684200575332113400,9.052113525390626,-0.9059194971650838,-0.44606794324219223,0.9806839385092257
1684200575342139100,9.06213916015625,-0.5374130055744201,-0.530200516912341,0.9660609543949366
1684200575352165000,9.0721650390625,-0.08219787928052245,-0.5425660774886608,0.7677320927023887
1684200575362191000,9.082191162109375,0.2582457894515246,-0.37032968842983244,0.5983820727348327
1684200575372217000,9.092217041015624,0.5249696305215359,-0.08673194251358508,0.4178536561489105
1684200575382243000,9.1022431640625,0.754097023646906,0.09010054216384887,0.12737667211294174
1684200575392268300,9.112268310546876,0.9333324047476053,0.10547814403772353,-0.05858575222045183
1684200575402294300,9.122294189453125,1.0308845050264148,0.18645254593789576,-0.08684212488979101
1684200575412320300,9.1323203125,1.0484077406268566,0.280457694324851,-0.14874708466082812
1684200575422346200,9.14234619140625,1.041287241097167,0.37249417298734183,-0.2659080677077174
1684200575432372000,9.1523720703125,0.9934055459816008,0.3272878345608711,-0.3981479619428515
1684200575442398000,9.16239794921875,0.8701590324759483,-0.002642623463273048,-0.5157607804104686
1684200575452423200,9.172423095703126,0.6707056237328797,-0.3211322345405817,-0.48111587574779985
1684200575462449200,9.18244921875,0.42095344879515467,-0.4838362406224012,-0.3719759943321347
1684200575472475100,9.19247509765625,0.15721892573423682,-0.48748190364837646,-0.237405903583765
1684200575482501400,9.20250146484375,-0.06230133867748081,-0.3594347849279642,-0.14599194073379038
1684200575492527400,9.21252734375,-0.197474290689826,-0.23643676629066465,-0.08264379641711711
1684200575502553300,9.22255322265625,-0.25055881514549255,-0.14366612813472748,-0.021419804647564888
1684200575512578300,9.232578369140626,-0.260350652776286,-0.11493570821285247,0.017738193525373935
1684200575522604300,9.242604248046876,-0.20489070442616938,-0.14989479339122772,0.0009632920742034911
1684200575532630300,9.25263037109375,-0.12374679117798805,-0.20178513962626457,0.03121522247493267
1684200575542656300,9.26265625,-0.058316726020723575,-0.3143628865361214,-0.0009244213685393333
1684200575552682200,9.27268212890625,0.06370185312516986,-0.49755029319822786,-0.08920330106317996
1684200575562708200,9.282708251953125,0.1770190202254802,-0.5669166748911142,-0.13131722643226384
1684200575572734200,9.292734130859374,0.2674602655857801,-0.4992097508430481,-0.20300883620232343
1684200575582759200,9.30275927734375,0.34428280850350856,-0.28715280804932114,-0.26573826409876344
1684200575592785200,9.31278515625,0.367746540068835,-0.040729485273361205,-0.2061924346745014
1684200575602811100,9.32281103515625,0.3513321424931288,0.23380232613384722,-0.06850128929615021
1684200575612837000,9.332837158203125,0.3185714441418648,0.43335634570717807,-0.07930559190511703
1684200575622863000,9.342863037109375,0.29711086909249423,0.44347851127088067,-0.06347206295728683
1684200575632889300,9.352889404296874,0.36002054892666635,0.33393034131526944,-0.13594985466897486
1684200575642914000,9.3629140625,0.3990912341423333,0.2915256163060665,-0.12540537203997373
1684200575652940300,9.372940185546875,0.42365167490318417,0.2780477105736732,0.026961072161793706
1684200575662966300,9.38296630859375,0.47878947862684723,0.1411205353051424,0.129649585480988
1684200575672992300,9.3929921875,0.511922663552314,-0.06742693806290626,0.3865630303502083
1684200575683018200,9.403018310546875,0.37089506722763177,0.0031955811709165572,0.9810083481580019
1684200575693044200,9.413044189453124,0.09958411756306886,0.40401743849813937,1.6730419335365294
1684200575703069200,9.423069091796876,-0.24565986412279306,0.9385065925151109,2.235170497368276
1684200575713095200,9.43309521484375,-0.5776337376080453,1.2516852377027272,2.5875562405675647
1684200575723121200,9.44312109375,-0.8170772844992578,1.242845513164997,2.6380969257593154
1684200575733147100,9.453147216796875,-0.8937748858630656,1.0049486111938952,2.2695956218004225
1684200575743173000,9.463173095703125,-0.7340699885319918,0.7253022332519292,1.5636024846524
1684200575753199000,9.47319921875,-0.26240415123999117,0.6135644442975521,0.6930065220639109
1684200575763224000,9.48322412109375,0.40986448402591047,0.6359387731909751,-0.06097586222738027
1684200575773250000,9.49325,1.3542014631949364,0.707547965374589,-0.5840893434882164
1684200575783276000,9.503276123046875,3.1454654331386087,0.8158663012742996,-0.9036553516253828
1684200575793302000,9.513302001953125,5.403624299645424,0.7460673733830452,-0.8605126677304505
1684200575803328300,9.523328369140625,6.70008975931704,0.4384790955483913,-0.4919561264529824
1684200575813354200,9.533354248046875,6.20323446264565,0.05537058956623077,-0.0075546531632542605
1684200575823380200,9.543380126953124,4.615695806610584,-0.1257668988287449,0.3483747539922595
1684200575833405200,9.5534052734375,3.067229516291618,-0.1550537835896015,0.5971177518874407
1684200575843431200,9.56343115234375,2.4180519068211317,-0.026195933008193967,1.0453802825644611
1684200575853457200,9.57345703125,2.581569567373395,0.23941198270916939,1.9128072597280144
1684200575863483100,9.583483154296875,2.7290514544039963,0.4146498916715383,2.784327643685043
1684200575873509000,9.593509033203125,2.1328630923211573,0.45855333080589766,3.2404747901320454
1684200575883535000,9.60353515625,0.8255050672352313,0.3681459146499634,3.238304752616584
1684200575893560000,9.61356005859375,-0.848551596301794,0.5494534989148379,2.727584012199938
1684200575903586000,9.6235859375,-2.86720378755331,1.172656124651432,1.794905687446892
1684200575913612000,9.633612060546875,-4.285831399559974,1.9486907662749289,0.6869961757332086
1684200575923638000,9.643637939453125,-5.131849677991867,2.805244467246532,0.12083996382057666
1684200575933664000,9.6536640625,-6.552195784354209,3.327334158417582,0.044857671119272705
1684200575943690000,9.66368994140625,-7.41690356568694,3.803627728575468,0.7574024218678475
1684200575953715200,9.673715087890624,-6.908396409666538,3.880152165329456,1.9997867472618818
1684200575963741200,9.6837412109375,-4.197527677685022,2.9345781186461446,3.599856675828993
1684200575973767200,9.69376708984375,-1.6677848897911607,2.0242893203556536,4.366011143951118
1684200575983793200,9.703793212890625,-0.8968354424774646,1.5587281566143034,3.5240029779434203
1684200575993819100,9.713819091796875,-1.1066180105984211,1.5064239688813685,1.8238818988233803
1684200576003845000,9.72384521484375,-1.5926457699157297,1.5716542736828327,0.23668460357189178
1684200576013870300,9.733870361328124,-2.4295363006487487,1.2420569931358099,-0.3015373072326183
1684200576023896300,9.743896240234376,-1.7072284269072115,0.8788397670596837,-0.7591670934528112
1684200576033922300,9.75392236328125,-1.2667105190075933,0.5197422512620687,-1.3135060263216494
1684200576043948300,9.7639482421875,-1.1899518351063132,0.2513409054338932,-2.5572429353684187
1684200576053974300,9.773974365234375,-1.5298127355143427,0.155860423797369,-3.6245483417540787
1684200576064000300,9.784000244140625,-1.862027212822437,0.11387772359251976,-4.338523709827661
1684200576074026000,9.79402587890625,-1.8299553735181688,0.09068857118487357,-4.711109068229794
1684200576084051200,9.80405126953125,-1.709813328833878,0.13804127399027347,-4.927138421785831
1684200576094077200,9.8140771484375,-1.6314707367420196,0.2033037274956703,-4.891403091537952
1684200576104103200,9.824103271484375,-1.3866577717721462,0.06056991177499294,-4.510907398402691
1684200576114129200,9.834129150390625,-1.2230033330976962,-0.10077449639141559,-3.8649493355005977
1684200576124155100,9.844155029296875,-1.2030895490989089,-0.2006377231568098,-3.291000277754664
1684200576134181400,9.854181396484375,-1.4245684002324939,-0.27352468019127846,-2.917954900625348
1684200576144206000,9.8642060546875,-1.7884630871787666,-0.2955254995971918,-2.7318840474814174
1684200576154232300,9.874232421875,-1.9831360567122696,-0.27195933057069777,-2.658280466610193
1684200576164258300,9.88425830078125,-1.9464418183043597,-0.250287596988678,-2.5865812580555674
1684200576174284300,9.8942841796875,-1.676797194416821,-0.2645768191039562,-2.63073954873383
1684200576184310300,9.904310302734375,-1.2951356723725795,-0.3531809852302074,-2.7173019798994065
1684200576194336300,9.914336181640625,-0.9562567687392234,-0.38522915139794345,-2.694773337227106
1684200576204361200,9.924361328125,-0.6132005794212222,-0.3879214592218399,-2.608898888325691
1684200576214387200,9.93438720703125,-0.39595015963763,-0.46027533229291434,-2.3626263721972705
1684200576224413200,9.9444130859375,-0.3172676680669188,-0.5580792884409427,-2.0239684178382156
1684200576234439200,9.954439208984375,-0.3830906780645251,-0.5929629702955485,-1.8240975874006746
1684200576244465200,9.964465087890625,-0.524926375901699,-0.668060004594922,-1.8947481636852024
1684200576254491100,9.9744912109375,-0.6630795858338475,-0.890624312877655,-2.1336258933871983
1684200576264516000,9.98451611328125,-0.787157508662343,-1.2102736153841018,-2.3747663073241707
1684200576274542000,9.9945419921875,-0.8180565047949552,-1.4768039066433907,-2.4718553932011127
1684200576284568000,10.004568115234376,-0.7354805129170418,-1.4974609102249146,-2.3631126944094896
1684200576294594000,10.014593994140625,-0.5466764354169369,-1.3843033176004886,-2.0393582946717737
1684200576304620300,10.024620361328125,-0.23315058422684667,-1.19181324506402,-1.6123241377234458
1684200576314646300,10.034646240234375,0.06434212379008532,-0.9939636913210153,-1.1860977900266647
1684200576324672300,10.04467236328125,0.2953764465153217,-0.759838709104061,-0.7612666960805654
1684200576334697200,10.054697265625,0.40663682721629735,-0.435104066157341,-0.3271083863407373
1684200576344723200,10.06472314453125,0.5611247936166822,0.057010757988691325,0.11410568712949752
1684200576354749200,10.074749267578126,0.6916578839339316,0.4304577016562223,0.6975847897648811
1684200576364775200,10.084775146484375,0.5561854375183582,0.5382376928955316,1.2423521766901016
1684200576374801200,10.09480126953125,0.24846403482332824,0.3216682411134243,1.5930606343269347
1684200576384827100,10.1048271484375,-0.12786299432516096,-0.24649638801217078,1.6951128955692052
1684200576394852000,10.11485205078125,-0.6347017787419259,-0.9077858755588532,1.5480091942012308
1684200576404878000,10.124878173828124,-1.2301273397587238,-1.3180904315024613,1.2658663232684135
1684200576414904000,10.134904052734376,-1.6371593037724494,-1.530972134682536,0.9952999083608388
1684200576424930000,10.144929931640625,-1.6472797157704828,-1.553592547291517,0.8204244029700756
1684200576434956000,10.1549560546875,-1.4802397263109683,-1.3910609751671552,0.7393301740825176
1684200576444982000,10.16498193359375,-1.088234797167778,-1.088818150013685,0.7187219780787825
1684200576455007000,10.175007080078124,-0.40474988095853476,-0.770614954662323,0.7833914341270923
1684200576465033000,10.185032958984374,0.38689149511959403,-0.34316344908475876,0.8739408891022205
1684200576475059200,10.19505908203125,0.9873568404018879,0.09642448448836803,0.8940978342071175
1684200576485085200,10.205085205078126,1.3406640823602676,0.6796475665360688,0.9376856315210461
1684200576495111200,10.215111083984375,1.5775684661626814,1.3133750934183597,0.9351552362605929
1684200576505137200,10.22513720703125,1.7846084575772285,1.9191092824816702,0.7590867216929793
1684200576515162000,10.235162109375,1.838907033997774,2.67249779253304,0.5135024800896645
1684200576525188000,10.24518798828125,1.818675562351942,3.5762206564366816,0.33906916550844907
1684200576535214000,10.255214111328126,1.9960960760504005,4.457053058618307,0.31789222970604897
1684200576545240000,10.265239990234376,2.5467548591017724,4.907797176977992,0.4490530965328216
1684200576555266000,10.27526611328125,3.5438515877515075,4.7192988044261925,0.8193415761694312
1684200576565292000,10.2852919921875,4.6091602673619985,3.622063539201021,1.8530051174551248
1684200576575318000,10.295318115234375,4.336965374469757,2.203674412125349,2.916570460529625
1684200576585343200,10.30534326171875,2.796173272040486,1.3813567427545785,3.1671058947995303
1684200576595369200,10.315369140625,1.1387620383560657,0.4331991093188524,2.854334076847136
1684200576605395200,10.325395263671876,-0.3371750223249197,-0.7542237918317317,1.9860516518980265
1684200576615421200,10.335421142578125,-1.461733763283491,-1.7395400663167238,1.0383730341508983
1684200576625447200,10.345447265625,-2.2141747633516786,-2.4638006815612314,0.0032718612775206562
1684200576635473200,10.35547314453125,-2.5741326953709125,-2.7551141164213417,-0.9041431351423262
1684200576645498400,10.365498291015625,-2.664836464124918,-2.6399416768431663,-1.5840397080034017
1684200576655524400,10.3755244140625,-2.4974375782251355,-2.0370909342616796,-1.8770213683366774
1684200576665550300,10.38555029296875,-2.1814953135430812,-1.1797089657723903,-1.8614178487524389
1684200576675576300,10.395576416015626,-1.9633575895309447,-0.30094401751458644,-1.6495830242767928
1684200576685602300,10.405602294921875,-1.8204922563850878,0.4349064977586269,-1.3064058389276265
1684200576695628300,10.415628173828125,-1.68432437505126,0.9573340425819158,-0.9031965019419789
1684200576705653200,10.4256533203125,-1.462642110300064,1.0589116720497607,-0.6310065774857998
1684200576715679200,10.43567919921875,-1.2050433135151863,0.819388630181551,-0.43164281978756186
1684200576725705200,10.445705322265624,-0.9802385328292846,0.4404448426634073,-0.2764835299968719
1684200576735731200,10.455731201171876,-0.6019020635545254,0.014531798699498175,-0.3541232345163822
1684200576745757200,10.465757080078125,0.03424245677504223,-0.2827028429031372,-0.5754001333370804
1684200576755783200,10.475783203125,1.2187643803536892,-0.32158582352697845,-0.810100869615376
1684200576765809200,10.48580908203125,2.755628495684266,0.05352759204804897,-0.8788669473275542
1684200576775834000,10.495834228515625,3.662594287031889,0.43163609778583045,-0.899065393486619
1684200576785860000,10.505860107421874,3.4654274548560378,0.6561193914324045,-0.772450061134994
1684200576795886000,10.515885986328126,2.330638411784172,0.711843032220006,-0.4280298899874091
1684200576805912300,10.525912353515626,0.7165308977752923,0.6057727675080299,0.07978840698599815
1684200576815938300,10.535938232421875,-0.7445014392405748,0.339345352101326,0.486128735473752
1684200576825964300,10.54596435546875,-1.7904080837666987,0.13611176723241805,0.6904357947930693
1684200576835989200,10.5559892578125,-2.321136423945427,0.10131108748614788,0.8558546127915382
1684200576846015200,10.56601513671875,-2.3124609500586986,-0.019857377636432645,0.9595695465490222
1684200576856041200,10.576041259765624,-2.231816803026199,-0.13719137916266919,1.0318547382980585
1684200576866067200,10.586067138671876,-2.163036112266779,-0.3751210143595934,1.1213540996983646
1684200576876093200,10.59609326171875,-1.7486065853476522,-0.4363859226614237,0.9202613262504339
1684200576886119200,10.606119140625,-1.1365712503135204,-0.23341771073043346,0.5560089119076729
1684200576896144100,10.61614404296875,-0.6373217519819736,-0.11455343089699745,0.3943731195792556
1684200576906170000,10.626170166015624,-0.3541056988596916,-0.14030162013769149,0.2624102887198329
1684200576916196000,10.636196044921874,-0.3269417976021766,-0.17439678196310995,0.033092122262716295
1684200576926222000,10.64622216796875,-0.49152913321256636,-0.2128980697929859,-0.042397710746526714
1684200576936248000,10.656248046875,-0.564005755880475,-0.23248072214126586,-0.046237435039877886
1684200576946274000,10.666274169921875,-0.3595657543638721,-0.18165829739868639,-0.03837415431886911
1684200576956299000,10.676299072265625,0.11503624597787857,-0.22258009037375448,-0.28795009590685366
1684200576966325000,10.686324951171875,0.42069560157656666,-0.17059388254880903,-0.6805120744109153
1684200576976351200,10.696351318359374,0.3693985450595617,-0.0556482374638319,-0.9235822873666882
1684200576986377200,10.706377197265626,0.15054770434200762,0.05905073938369751,-1.0157584667608142
1684200576996403200,10.7164033203125,-0.10562895068526268,0.1549146673798561,-0.9891223887696862
1684200577006429200,10.72642919921875,-0.26734745286107064,0.1779541821837425,-0.9537582299217581
1684200577016454100,10.7364541015625,-0.26112865141145886,0.17551380329430102,-0.8951227933406829
1684200577026480000,10.746480224609375,-0.28681316429879516,0.18586510143876075,-0.761824914485216
1684200577036506000,10.756506103515624,-0.2899929999113083,0.20134967081844807,-0.46956806129515166
1684200577046532000,10.766531982421874,-0.18105850487463176,0.14821195487082003,-0.10773761340230703
1684200577056558000,10.77655810546875,-0.04782086830642074,-0.003273322582244873,-0.023930326163768768
1684200577066584000,10.786583984375,0.11452961162999271,-0.1862029550909996,-0.04846884735375642
1684200577076610000,10.796610107421875,0.1867464873831719,-0.24941724389493464,-0.006053308689594268
1684200577086635000,10.806635009765625,0.21626027623508123,-0.26059797860085965,-0.023226854069530962
1684200577096661000,10.816660888671874,0.24913557740934192,-0.2800391766518354,0.04392769679278135
1684200577106687000,10.82668701171875,0.2910591678380966,-0.3227496066093445,0.1037611109867692
1684200577116713000,10.836712890625,0.2936818444918841,-0.3235299433320761,0.16195289545357228
1684200577126739200,10.8467392578125,0.30702019562311467,-0.3774199389517307,0.3713192839890718
1684200577136765200,10.85676513671875,0.23352643180191515,-0.3411123617738485,0.6914823812365531
1684200577146790100,10.8667900390625,0.19576748677194117,-0.22306056736707686,0.8043252088233828
1684200577156816100,10.876816162109375,0.29830080952942367,-0.07512684491574764,0.7942401603996754
1684200577166842000,10.886842041015624,0.4263233783304691,-0.029600773015618323,0.7907298141911625
1684200577176868000,10.8968681640625,0.6130027187615633,-0.14520108261704445,0.6811772603213787
1684200577186894000,10.90689404296875,0.7517595206100494,-0.31790625823140145,0.5450508800417184
1684200577196920000,10.916920166015625,0.9098591747015714,-0.3470201245129108,0.300745280072093
1684200577206945300,10.9269453125,1.0084059851061553,-0.2152151145637035,0.10433949539661407
1684200577216971300,10.93697119140625,0.9383066860288382,-0.07040449256896972,-0.024537059885263442
1684200577226997200,10.946997314453125,0.732671300715208,-0.034731121641397474,-0.043866614255309105
1684200577237023200,10.957023193359374,0.47162207121551036,-0.04744213465452194,0.13207593584507704
1684200577247049200,10.96704931640625,0.1432289057612419,-0.08794248734712601,0.3543406766593456
1684200577257075000,10.977074951171875,-0.1557546253353357,-0.14725859966874122,0.5002098677963018
1684200577267100200,10.98710009765625,-0.2525812608838081,-0.20182956328988075,0.5317275803491472
1684200577277126100,10.997126220703125,-0.21089016403667626,-0.20529402453005313,0.4364689247697591
1684200577287152000,11.007152099609375,-0.04551606196276843,-0.17325462619066237,0.24427841970175504
1684200577297178400,11.017178466796874,0.21329203754663467,-0.0708458065956831,0.04819762919694185
1684200577307204400,11.027204345703124,0.5373112987656146,-0.036652445092797276,-0.16073898961916566
1684200577317230300,11.037230224609376,0.9000702596802264,-0.1563923387169838,-0.3467169037826359
1684200577327256300,11.04725634765625,1.2235451848894356,-0.3209446030139923,-0.4285762718237936
1684200577337281800,11.05728173828125,1.4434674542307853,-0.33971301636993884,-0.38236397122517224
1684200577347307800,11.067307861328125,1.54782448528409,-0.19795710577070713,-0.24397402992770073
1684200577357333800,11.077333740234375,1.4929863951593636,-0.13045301081836222,0.016515227601677177
1684200577367359700,11.08735986328125,1.2881123496070503,-0.21235680252313613,0.3029091801077127
1684200577377385700,11.0973857421875,0.9863772547800094,-0.27512685469090936,0.5934475389420986
1684200577387411700,11.10741162109375,0.7242915949046611,-0.3451595913380384,0.8810743942439555
1684200577397436700,11.117436767578125,0.5370758825745433,-0.40850481304526326,1.0450444747388363
1684200577407462700,11.127462646484375,0.4239327568668872,-0.4563181190997362,1.2203536953717469
1684200577417488600,11.137488525390625,0.2496161274679005,-0.4593757531046867,1.556763578543067
1684200577427514600,11.1475146484375,0.09122231273539363,-0.32000001564025876,1.9439527779676018
1684200577437540900,11.157540771484374,-0.06845620804540813,-0.04640928447544575,2.3535262431576847
1684200577447566800,11.16756689453125,-0.21375366370901464,0.23469956723451613,2.6504388131991026
1684200577457591800,11.177591796875,-0.3887485576957464,0.40624622046351433,2.9467390965610742
1684200577467617800,11.18761767578125,-0.5064706086914986,0.5429132834911347,3.170578831607103
1684200577477643800,11.197643798828125,-0.5989722937129438,0.8834779482543468,3.340761503006518
1684200577487669800,11.207669677734375,-0.5785508524529636,1.3146487666159867,3.3612662386357783
1684200577497695700,11.21769580078125,-0.2525981389533728,1.5676111357718705,2.995570932008326
1684200577507721700,11.2277216796875,0.4752240412302315,1.6962170574188231,2.117150851665437
1684200577517747700,11.237747802734376,1.8294021235495805,1.6827309683799743,1.0384531136497854
1684200577527772700,11.247772705078125,3.7824960932195184,1.6102093375265598,0.1712809880301356
1684200577537798700,11.257798583984375,6.032483343708515,1.7070815657824276,-0.16273936965614555
1684200577547824600,11.26782470703125,7.904270318523049,1.7692647579729557,-0.19096417814344166
1684200577557850600,11.2778505859375,8.614121884664893,1.700824258953333,0.009651040920615195
1684200577567876600,11.287876708984374,7.112018117070198,1.4207120170652865,0.29913433774411674
1684200577577902600,11.297902587890626,3.734169576945901,1.1811691014528274,0.21665040806382893
1684200577587927600,11.307927490234375,0.5389665916919708,1.1851473574340343,-0.46315234903395175
1684200577597953500,11.31795361328125,-1.9869488929986951,0.9851888487130402,-1.139798687927425
1684200577607979800,11.327979736328125,-3.6339223192989825,0.8833382475227117,-1.04048695756495
1684200577618005800,11.338005859375,-5.189036961591244,1.099275246620178,-1.3739786152020097
1684200577628031700,11.34803173828125,-5.783053824853897,1.640716703993082,-1.7842080600827932
1684200577638057700,11.3580576171875,-5.153879138970375,2.5119021569073197,-1.662771883934736
1684200577648082700,11.368082763671875,-5.178086528509855,3.199862209236622,-0.969265887916088
1684200577658108700,11.378108642578125,-4.902625911819935,3.7654800764888523,-0.03976210154592991
1684200577668134700,11.388134765625,-3.5138474946320053,3.8839614944845438,1.3536366689190267
1684200577678160600,11.39816064453125,-0.5139069692373276,3.2162767529428002,2.8857939217329025
1684200577688186600,11.4081865234375,0.2212766065597534,2.4779151316314936,3.851104934543371
1684200577698212600,11.418212646484376,-1.5371755193673073,2.01903739117682,3.511696454077959
1684200577708237600,11.428237548828125,-2.6509926476895807,1.8148907831162213,2.397168693268299
1684200577718263600,11.438263671875,-2.631795779788494,1.5385510455042122,1.3468202669024467
1684200577728289500,11.44828955078125,-2.590037535989284,1.2552110737413167,0.5125397725373506
1684200577738315500,11.4583154296875,-2.6326398293972013,0.9165297385066747,-0.29973639529049395
1684200577748341500,11.468341552734374,-2.2169839755535126,0.5998293489336967,-1.214326105645299
1684200577758367500,11.478367431640624,-1.6688488657608627,0.34611353106200693,-2.162414765498042
1684200577768392400,11.488392333984375,-1.4194041493371128,0.16065876398980616,-3.114384650698304
1684200577778418400,11.49841845703125,-1.2952271500483155,0.025262451550364492,-3.870881063637137
1684200577788444700,11.508444580078125,-1.3949918848752976,-0.08198796285688877,-4.4421530111283065
1684200577798470700,11.518470703125,-1.5768468738898633,-0.14594225637316702,-4.842250061312318
1684200577808496600,11.52849658203125,-1.5322677274510264,-0.16782383331358433,-4.8817637410551304
1684200577818522600,11.538522705078124,-1.4626678292632103,-0.18329905034303665,-4.548668096998334
1684200577828548600,11.548548583984376,-1.3899658734068274,-0.33802550167441364,-4.072237748718261
1684200577838573600,11.558573486328125,-1.3520856400847434,-0.598351677596569,-3.639691550350189
1684200577848599600,11.568599609375,-1.6039792109653352,-0.8625871359169482,-3.254952228295803
1684200577858625500,11.57862548828125,-1.8432719512090086,-1.1115595586538314,-2.794274744942784
1684200577868651500,11.588651611328125,-1.969341632376611,-1.2191963420301675,-2.3537305335581302
1684200577878677500,11.598677490234374,-1.9544617508918045,-1.145650628826022,-2.1773358557760716
1684200577888703500,11.608703369140626,-1.8822931712597608,-0.9786538939863443,-2.2671476441264153
1684200577898728700,11.618728759765625,-1.7475266811564563,-0.930126886704564,-2.40859960334301
1684200577908754700,11.628754638671875,-1.721434208522737,-1.0560375779181719,-2.252227722892165
1684200577918780700,11.63878076171875,-1.7504791012212633,-1.2953934465259314,-1.918201519986987
1684200577928806700,11.648806640625,-1.6927765615761279,-1.4764678065568209,-1.3806108928233385
1684200577938832600,11.65883251953125,-1.654814202928543,-1.4657517667531967,-0.7312076579034328
1684200577948858600,11.668858642578124,-1.7128201094344258,-1.3572919765561817,-0.41541152369379997
1684200577958883800,11.6788837890625,-1.7085399478971957,-1.3221966977775097,-0.5716968949049711
1684200577968909800,11.688909912109375,-1.556843365781009,-1.4408920507848262,-0.9134504771918058
1684200577978935800,11.698935791015625,-1.4163649277716874,-1.5036743779122828,-1.103359885585308
1684200577988961800,11.7089619140625,-1.510152926276624,-1.4580565360754727,-0.9994628732591867
1684200577998987800,11.71898779296875,-1.606885453800857,-1.3711772940456866,-0.8583779937893151
1684200578009013800,11.729013671875,-1.4829144984781741,-1.1736550725609063,-0.8554699973881245
1684200578019038700,11.739038818359376,-1.142163371232152,-0.7116548161715268,-0.9565198035895824
1684200578029064700,11.749064697265625,-0.4789049217000603,-0.3538350652247667,-1.3074538866758345
1684200578039090700,11.759090576171875,0.0423449576459825,0.017552023303508756,-1.3021113566040992
1684200578049116700,11.76911669921875,0.46142377167567605,0.2924205193191767,-1.2397212436646223
1684200578059142700,11.779142578125,0.7995718768164515,0.45476036826372146,-0.9487848254233598
1684200578069168600,11.789168701171874,1.2259516615092754,0.5974474222332239,-0.5033037421584129
1684200578079194600,11.799194580078124,1.7106383814811705,0.3071709292054176,-0.518645103675127
1684200578089219600,11.809219482421875,1.7022947698973119,0.25671967586278915,-0.19713585251569746
1684200578099245600,11.81924560546875,1.5547861409902572,0.29680852514505385,-0.0748491970181465
1684200578109271800,11.829271728515625,1.372426855715364,0.16374094791412352,-0.3555909689813852
1684200578119297800,11.8392978515625,1.0993886438667773,-0.016337386816740036,-0.7955354609072208
1684200578129323800,11.84932373046875,0.738755004543066,-0.22831658819913864,-1.2267875278115272
1684200578139349800,11.859349853515624,0.43442938176617024,-0.4099234476715326,-1.5288433059602975
1684200578149374700,11.869374755859376,0.17489362556934357,-0.640883243855834,-1.6794295887470245
1684200578159400700,11.879400634765625,-0.028839067928120493,-0.8292261335849761,-1.7576707662910223
1684200578169426700,11.8894267578125,-0.1467758576530963,-0.9793751939982175,-1.8461708875209093
1684200578179452700,11.89945263671875,-0.14102178763840348,-1.042853686696291,-1.8864803938165307
1684200578189478700,11.909478759765625,-0.08795421431753783,-0.8983879326164722,-1.68828714120239
1684200578199504600,11.919504638671874,0.04775664396379143,-0.4819079029083252,-1.1876458962514995
1684200578209529600,11.929529541015626,0.17172551692724228,0.2877402525484562,-0.4696908108919859
1684200578219555600,11.9395556640625,0.31606150714755055,1.650265453583002,0.2884159598529339
1684200578229581600,11.94958154296875,0.41268706716597076,3.8926667789876457,1.0182917846307158
1684200578239607600,11.959607666015625,0.7083446687102317,6.658439652067423,1.8356568000301718
1684200578249633500,11.969633544921875,2.5154917058318853,9.644142393273114,4.072506628787517
1684200578259659800,11.97965966796875,6.257973768571019,10.882611006528139,7.934067490893602
1684200578269684500,11.9896845703125,7.130953119164705,8.55955501269698,9.55239233033657
1684200578279710700,11.999710693359376,3.645176703763008,4.15126160107255,8.713981019777059
1684200578289736700,12.00973681640625,-0.45148236950635906,0.7816963206470012,7.078240935152769
1684200578299762700,12.0197626953125,-3.0935610583782194,-2.293924007371068,4.9930444338917725
1684200578309788700,12.02978857421875,-3.5292554916441436,-5.22084138213098,2.3554463975653053
1684200578319814700,12.039814697265625,-2.7970085538208482,-6.859301831629872,-0.37969635945111513
1684200578329839600,12.049839599609374,-1.8796505477964878,-6.668472385782003,-2.242712291049957
1684200578339865900,12.059865966796876,-1.2454150713920593,-5.713879166340828,-3.2185975971058007
1684200578349891800,12.069891845703125,-1.0045675029218197,-4.4262645371228455,-3.2266087618649
1684200578359917800,12.079917724609375,-1.1016811387181282,-2.6784084778815505,-2.6420190676391124
1684200578369943800,12.08994384765625,-1.2414227868855,0.06280570800304412,-2.142529915332794
1684200578379969800,12.0999697265625,-1.4561223531424998,3.126456781286001,-1.9047876194015143
1684200578389995800,12.109995849609374,-1.6293348937571048,4.5854859617859125,-1.3170108195722103
1684200578400020700,12.120020751953126,-1.4911971736550331,4.365911482968926,-0.6250149358555674
1684200578410046700,12.130046630859376,-0.7993897982478141,2.7775907366454597,-0.5750878525175154
1684200578420072700,12.14007275390625,0.21011574559807777,0.7997925338298082,-1.0189844430699944
1684200578430099000,12.150098876953125,0.6314730259537696,-0.7242804889887571,-1.434769768512249
1684200578440125000,12.160125,0.31406711845993995,-1.2334195131719112,-1.6840213004514575
1684200578450151000,12.17015087890625,-0.2483622001503594,-1.06991646566689,-1.7380645869366824
1684200578460176000,12.18017578125,-0.658688365137577,-0.9470733453303575,-1.4935549888275563
1684200578470201900,12.190201904296876,-1.1424527095675467,-0.9046376406610012,-0.8745764105267823
1684200578480227800,12.200227783203125,-1.512301921004057,-0.5008680394440889,-0.16095774693638085
1684200578490253800,12.21025390625,-1.0908148767888546,0.10122457824647425,0.12077099023759365
1684200578500279800,12.22027978515625,-0.8326981936097144,0.0549509028494358,0.012287819164991378
1684200578510305800,12.230305908203125,-0.2796808829997666,-0.09394786524176597,-0.49997386708334085
1684200578520331000,12.2403310546875,0.1932066781069152,1.1213462086528538,-1.0758945171631873
1684200578530357000,12.25035693359375,0.6919546749234199,2.494611414888501,-1.0237766457825899
1684200578540383000,12.260383056640626,0.6772165399968624,2.633237210768461,-0.6598772826611995
1684200578550409000,12.270408935546875,0.4811924481153488,1.4970108283698558,0.766147307728976
1684200578560435000,12.28043505859375,0.5937900322368368,0.6411082847833633,2.071626533330977
1684200578570460700,12.290460693359375,0.6051660337865352,1.1134896499335765,2.0578020061179996
1684200578580486000,12.30048583984375,0.8028945914983749,1.5880799233049154,1.9224840196117758
1684200578590511900,12.310511962890626,0.9342249696731567,1.0578075102001427,2.643026783376932
1684200578600538000,12.3205380859375,0.45046530141830443,-0.7988169667959213,3.526881455989182
1684200578610564000,12.330564208984375,-0.3401028924703598,-2.816267381042242,4.140166791084408
1684200578620590000,12.340590087890625,-0.9294494258344173,-3.9085043995887037,4.265306205664575
1684200578630616000,12.350615966796875,-1.101858833372593,-3.950498205709457,3.6042610482677815
1684200578640641000,12.36064111328125,-1.0006618737854063,-2.998012187680602,2.3517545573100445
1684200578650667000,12.3706669921875,-0.9547651419419795,-1.528864933270216,1.4814429646208882
1684200578660693000,12.38069287109375,-0.9382009606320411,-0.6327250718414783,0.8571317931205034
1684200578670719000,12.390718994140625,-1.0599672455172986,-0.46906361890435216,0.08921266254656948
1684200578680745000,12.400744873046875,-1.2954700188934802,-0.7908283061295748,-0.8104609350994229
1684200578690771000,12.41077099609375,-1.5261001447319984,-0.8134604091763495,-1.2419421345844863
1684200578700796000,12.4207958984375,-1.815495763272047,-0.6201894153952598,-1.4176789329797028
1684200578710822000,12.43082177734375,-1.7932371697127818,0.14694354237020016,-1.5331810429036616
1684200578720848000,12.440847900390626,-1.300168405842781,0.6224936006844043,-1.3133318387985229
1684200578730873900,12.450873779296876,-0.8693980580408126,0.8240244732886552,-1.0351610863670706
1684200578740899800,12.46089990234375,-0.49273565945811565,0.33287177217304703,-0.7821089931011199
1684200578750926000,12.470926025390625,-0.3149965082645416,-0.6375415322124958,-0.21411621341109274
1684200578760952000,12.4809521484375,-0.39816695890426634,-1.4254706097692251,0.4762175823122263
1684200578770977000,12.49097705078125,-0.44075522378683085,-0.8657049756765365,0.9323357949256896
1684200578781003000,12.5010029296875,-0.45226102572865784,0.5014133983671665,0.9171025699585675
1684200578791029000,12.511029052734376,-0.44393743401952085,1.8528093026220798,0.4695981641724705
1684200578801055000,12.521054931640625,-0.4809819471698254,1.959588007864356,-0.165347469795309
1684200578811081000,12.5310810546875,-0.49163317810893054,0.539581508719921,-0.6726067081138491
1684200578821107000,12.54110693359375,-0.23334354951567945,-0.6432581562936306,-1.1489254857782274
1684200578831132000,12.5511318359375,0.26703761972691864,0.03495265543758869,-1.6885498837918043
1684200578841158000,12.561157958984374,0.6191197403371334,1.8510358632087707,-2.697548062637448
1684200578851183900,12.571183837890626,1.3432476691126822,3.986850791072845,-4.730041439975798
1684200578861209900,12.5812099609375,2.020202343302965,4.141233543533087,-6.319204190081358
1684200578871235800,12.59123583984375,2.289267121475935,2.4751012432545423,-6.218576408684253
