time,seconds_elapsed,z,y,x
1684201242716480000,0.03747998046875,4.920151631638407,3.170107122442126,0.839480401095748
1684201242726506000,0.047506103515625,4.689592817470431,3.2269378476887938,0.3010316957980394
1684201242736532000,0.057531982421875,4.638958024254441,3.493980764645338,-0.5591191528826952
1684201242746559200,0.067559326171875,4.694799738463759,4.250702218511701,-1.695424445736408
1684201242756585200,0.077585205078125,4.312541127309203,5.280138789752125,-3.0472876752421256
1684201242766612000,0.087612060546875,3.63465472522676,6.416181632277369,-4.413736479461193
1684201242776638000,0.097637939453125,2.6060546048104762,7.406029120451212,-5.489917266219854
1684201242786664000,0.107663818359375,1.7056886501193045,8.130600116819142,-6.259066239982843
1684201242796691000,0.11769091796875,1.4704150823891162,8.81692818403244,-6.523162582093477
1684201242806717000,0.127717041015625,1.7074585824012756,9.575507832986116,-6.427326711148023
1684201242816744200,0.137744140625,2.2894714118763804,10.219320116031168,-6.327444195160269
1684201242826770200,0.147770263671875,3.726954823261499,10.429956086111067,-7.098574698129296
1684201242836797000,0.157796875,4.519510099314153,9.908715705245733,-7.010017878276109
1684201242846823000,0.167822998046875,4.191611147117614,8.955399081611633,-6.269136383098363
1684201242856849000,0.177848876953125,2.981536269176006,8.898441515114904,-5.054105928575992
1684201242866876200,0.187876220703125,1.2905062590062617,9.976441918516159,-3.6685178318619727
1684201242876902100,0.197902099609375,-0.9251403304636477,11.136002414751053,-1.851369040685892
1684201242886929200,0.20792919921875,-4.089747686445713,11.385465835875273,0.23319500789046285
1684201242896955100,0.217955078125,-5.738129810500145,10.97977724929452,2.6268939792215824
1684201242906980900,0.22798095703125,-7.180342880755663,10.728546233975887,5.414698651367425
1684201242917008000,0.2380078125,-8.319670736300944,10.797615678548812,7.445261060643196
1684201242927034000,0.2480341796875,-8.7641084479928,10.745706627613306,9.28399916781485
1684201242937061000,0.25806103515625,-7.270000355327129,10.493168621349334,12.350251948028802
1684201242947087000,0.268087158203125,-5.826680200612545,9.121720109146834,15.146818603301048
1684201242957113900,0.27811376953125,-5.0902983549416065,7.463066181924939,16.14132648450136
1684201242967139800,0.288139892578125,-4.375403533935547,6.305931451532245,16.913785021203754
1684201242977165800,0.298165771484375,-3.48964945744276,5.404129326558113,17.724915526127813
1684201242987193000,0.308193115234375,-2.8369232155799864,4.999005972644686,19.04518447071314
1684201242997219000,0.318218994140625,-1.553005687314272,4.035434496977925,19.69136640549898
1684201243007246000,0.32824609375,0.8424094402849673,2.1101631847351787,19.94569889396429
1684201243017272000,0.33827197265625,3.9821266851603982,0.3919213425129652,21.27132205905914
1684201243027298000,0.348298095703125,5.567281076407432,-1.5102110862046478,21.530978372895717
1684201243037325000,0.358324951171875,5.206652113258838,-2.973587940520048,19.85453686004877
1684201243047351000,0.36835107421875,4.677682599446177,-3.5241742428570983,18.439869968366622
1684201243057378000,0.3783779296875,4.034319229212403,-2.8364725492030383,17.083152576828002
1684201243067404000,0.388404052734375,4.091775977402925,-2.492406598320603,14.317486086732147
1684201243077431000,0.39843115234375,3.178824097383022,-2.5394693782687185,11.851955220377445
1684201243087457000,0.40845703125,0.7584229970872401,-1.4562287361264228,9.69868413079977
1684201243097483000,0.41848291015625,2.943684385165572,-1.2883879516780377,7.069067448616027
1684201243107510000,0.428510009765625,4.998766903191805,-2.2117045738458634,4.823977322518825
1684201243117536000,0.438535888671875,5.232998852914571,-2.923257683208585,3.879257262316346
1684201243127562800,0.448562744140625,5.6826855711758135,-4.052528839641809,3.0282424907714125
1684201243137588700,0.458588623046875,4.760386309356988,-4.630621573063731,2.9450241093367335
1684201243147614700,0.46861474609375,6.521819350790977,-4.000589393568038,1.800281243005395
1684201243157641700,0.478641845703125,7.081791321110725,-3.3385780214875935,-1.605374756976962
1684201243167667700,0.488667724609375,4.521372970576584,-2.468127312588692,-3.729267776378989
1684201243177694500,0.498694580078125,4.7266547201469535,-1.3301421038240193,-3.6879479239970445
1684201243187720400,0.508720458984375,4.195250672663748,-1.4302017299443484,-2.7143098123461007
1684201243197747700,0.518747802734375,3.0944582994788883,-2.582019064706564,0.42588732500076293
1684201243207773700,0.528773681640625,0.6896050430573523,-3.4112866993457076,2.1535265256434677
1684201243217799700,0.538799560546875,1.3335552732683718,-2.9354847120970486,1.9301538235872984
1684201243227826700,0.54882666015625,0.36152810394540424,-3.095215839847922,1.0718068094581366
1684201243237852700,0.558852783203125,-1.392225781162828,-1.0800853929817675,2.0269547401726244
1684201243247879700,0.568879638671875,-2.1969337056934832,-0.528762885324657,1.114760400521755
1684201243257905700,0.57890576171875,-2.9072265858620403,0.29524960526525973,-0.9901917715668678
1684201243267931600,0.588931640625,-3.246093214535713,0.9826470552757381,-0.12487491842508315
1684201243277958700,0.598958740234375,-3.863626562464237,-0.4828323242768645,2.1506804885625836
1684201243287984600,0.608984619140625,-2.856447415739298,-1.9068819613322614,1.0276175391197204
1684201243298011600,0.61901171875,-1.15729949250035,0.4993693253189325,-1.9230279172301292
1684201243308037600,0.62903759765625,-2.57700912759006,1.3496648426786064,-2.092277399432659
1684201243318064600,0.639064697265625,-3.072020842221379,3.249193226377666,-3.952678472357988
1684201243328090600,0.649090576171875,-1.5451403607666492,4.327853847253323,-5.454195964497328
1684201243338116600,0.65911669921875,0.17534717802312225,3.6027462597906585,-7.1026564144849775
1684201243348143600,0.6691435546875,4.357001615804434,1.7041373290240764,-6.097864455157518
1684201243358169600,0.679169677734375,3.7115585166871545,2.0862974482402206,-3.464931195771694
1684201243368196600,0.689196533203125,-0.3862595904242247,2.479244042147696,-1.5910300052821635
1684201243378222600,0.69922265625,-0.7621937477976083,1.6494474151983856,-1.2774229055494069
1684201243388248600,0.70924853515625,1.4791852488219737,1.5567548107147215,-2.900664158606529
1684201243398275600,0.719275634765625,2.3848902264535425,1.9954177383974194,-3.4571190607160327
1684201243408301600,0.729301513671875,-1.0770891337752342,1.5611939622059463,-5.6156181140750645
1684201243418328800,0.739328857421875,-3.713780868911743,1.7650985782042146,-8.924756106066702
1684201243428354800,0.749354736328125,-3.100333328992128,3.094908381333947,-10.614666172295808
1684201243438381600,0.759381591796875,-2.333473342949152,3.9115854144692417,-8.16249922990501
1684201243448407600,0.769407470703125,-2.0732851141929625,3.797144796296954,-6.2772746813684694
1684201243458433500,0.77943359375,-0.598849690246582,1.3775029899358748,-8.199663716173172
1684201243468460500,0.78946044921875,1.3933014475703238,1.4010013544231652,-7.084942478618025
1684201243478486500,0.799486572265625,3.022033114737272,0.4841062897354364,-0.6209463712424039
1684201243488513800,0.809513671875,3.463108656519651,0.37030689207613465,3.544109361904859
1684201243498539800,0.819539794921875,2.949374705761671,1.2157441557496786,3.1039485968798397
1684201243508565800,0.829565673828125,1.9095090949654578,-0.12470248446762561,3.712068804296851
1684201243518592500,0.839592529296875,-2.289269605693966,-0.9414642732769251,4.5253994496136905
1684201243528618500,0.849618408203125,-5.210514633905888,1.3157809855163096,7.902282944098115
1684201243538645800,0.859645751953125,-5.752976666498184,4.239229222860932,10.923957746917008
1684201243548671700,0.869671630859375,-5.186313089585304,7.762786210602521,11.127197177004813
1684201243558698800,0.87969873046875,-3.637147711086273,7.895676093178987,10.812944180583953
1684201243568724700,0.889724853515625,-0.8979168079733848,5.639993845918775,9.185221398198603
1684201243578750700,0.899750732421875,3.769315124607086,2.477954879119992,7.1354878399848936
1684201243588777500,0.909777587890625,9.245293881845473,-0.2689087108284235,4.597299149176478
1684201243598803700,0.9198037109375,12.622371437597273,-1.7379793928712606,2.079196384063363
1684201243608830700,0.929830810546875,11.7538630949378,-1.8618179539859294,1.466422505621612
1684201243618856700,0.939856689453125,7.106075867539644,-1.6589894427865743,2.443068566916883
1684201243628882700,0.949882568359375,1.643280270870775,-1.010246133080125,3.5032755394741892
1684201243638909700,0.95990966796875,-3.033119156897068,-0.6844295401155949,3.1449960620611903
1684201243648935700,0.969935791015625,-5.149407546514272,-1.474048470455408,-0.39553105744272465
1684201243658962700,0.979962646484375,-7.059643786710501,-2.6776725648224353,-3.89924206572473
1684201243668988700,0.98998876953125,-7.819682402300834,-2.627589560270309,-5.7004982912421225
1684201243679015700,1.000015625,-5.849156236314773,-1.9219699326097963,-5.5148851187378165
1684201243689041700,1.010041748046875,-1.946723265594244,-2.454099371758103,-4.1820451541319486
1684201243699067600,1.020067626953125,1.0644001864634454,-4.294483492571115,-2.6026611629799006
1684201243709094700,1.0300947265625,0.7530594242274761,-5.005936064168811,-0.6120610539972782
1684201243719120600,1.04012060546875,-0.34578356845527886,-5.464556030470132,1.3211018882781267
1684201243729147600,1.050147705078125,-0.8220543422594666,-6.06930880728066,2.171446797737479
1684201243739173600,1.060173583984375,-1.0096062277413904,-6.059651921141147,2.044001444302499
1684201243749199600,1.07019970703125,-0.9309659678772091,-5.730339887276291,1.916562520608306
1684201243759226600,1.0802265625,-0.4809355507448315,-5.701364552682638,1.7963649463444946
1684201243769252600,1.090252685546875,-0.6540846707344055,-6.006827508926391,1.081086094456911
1684201243779279600,1.100279541015625,-1.4236824111782014,-7.375780112659931,-0.028340543821454046
1684201243789305600,1.1103056640625,-1.9150166063405571,-9.34903015065193,-1.0011655855238437
1684201243799331600,1.12033154296875,-2.8742379239737987,-9.969121366369723,-1.816885171803832
1684201243809358600,1.130358642578125,-3.63267728767395,-4.591861926558614,-1.5130115305781364
1684201243819384600,1.140384521484375,-3.989704426938295,1.2864765650987624,-0.35952538582086563
1684201243829411800,1.150411865234375,-3.6214568054795264,6.503473546761274,0.5053256033748388
1684201243839437800,1.160437744140625,-3.5899867314606904,9.607688685622811,0.008097381737828254
1684201243849464600,1.170464599609375,-4.2624142836153505,12.908127822852133,-1.5243331350594758
1684201243859490600,1.180490478515625,-4.445333394730091,14.682995807659625,-2.91755976382792
1684201243869516500,1.1905166015625,-5.313104655286669,13.002811016631126,-3.0569004299789664
1684201243879543600,1.20054345703125,-4.745928452676535,8.129207201156019,-1.326220546466112
1684201243889569800,1.21056982421875,-2.8861411277353763,2.8283874424248934,0.4382306737452745
1684201243899596800,1.2205966796875,-1.5845055719494818,0.7200123101502657,1.0715516656532884
1684201243909622800,1.230622802734375,-0.45625908238887786,0.8884428771853446,0.2625400525793433
1684201243919649500,1.2406494140625,0.6908277167201041,1.911274935594201,-0.5468137980610132
1684201243929675500,1.250675537109375,1.6652368127435444,2.505974520424008,-1.2110533675849438
1684201243939701500,1.260701416015625,3.385979824131727,-15.993599098277091,-1.722564381596446
1684201243949728800,1.270728759765625,4.070715653717517,-13.258416593772171,0.20899141774326563
1684201243959754800,1.280754638671875,7.145650337558984,3.283372851616144,1.7367548195123672
1684201243969780700,1.29078076171875,8.257209896212816,-5.490735012343525,0.6555284398019313
1684201243979807500,1.300807373046875,2.7021646165221926,-3.9882518900424238,-0.5454346186622977
1684201243989833500,1.31083349609375,0.967770753987506,-2.832336472311616,-2.1502985035076736
1684201243999860700,1.32086083984375,0.7441583248913287,-8.435416007331014,-4.589259927366673
1684201244009886700,1.33088671875,-0.12404942738637327,-5.818980878281593,-4.533994551740586
1684201244019913700,1.340913818359375,0.3487584926128387,1.4905162056535481,-3.087663232511282
1684201244029939700,1.350939697265625,2.099081964880973,0.9840560452908277,-0.24765578718036413
1684201244039965700,1.360965576171875,1.0847792498864233,-3.3414573763161894,2.808865288092196
1684201244049992400,1.370992431640625,-1.117493405682221,-1.4231757768303155,5.931445227944851
1684201244060018400,1.381018310546875,-2.0301438916027545,0.4528326150715351,6.510337002789973
1684201244070045700,1.391045654296875,-4.384883894464373,5.35721092351675,5.1285903839349745
1684201244080071700,1.40107177734375,-5.628056155365705,9.358234032326935,2.476791680559516
1684201244090097700,1.41109765625,-2.6557711141377687,9.505458145204186,0.02880611550658941
1684201244100124700,1.421124755859375,-2.19765763605386,10.679507185518741,-0.7926929309576749
1684201244110150700,1.431150634765625,-1.5526421146988867,11.798152318519353,-2.6809920646339656
1684201244120178000,1.441177978515625,-0.21340324283614753,12.594971389496326,-5.513107587671279
1684201244130204000,1.451203857421875,1.2424888086818158,11.528657332235573,-7.654440402173996
1684201244140231200,1.461231201171875,2.3207557540647685,8.531764503973722,-6.212874397650361
1684201244150257200,1.471257080078125,2.8474750047326087,6.431543452060223,-3.9259912487015125
1684201244160283100,1.481283203125,3.294409793937206,5.1605736681729555,-3.284767520844936
1684201244170310100,1.49131005859375,3.4856653562426567,3.845172621884942,-3.360839537656307
1684201244180335900,1.5013359375,3.470406996834278,1.732355707770586,-3.6957863625377416
1684201244190363000,1.51136279296875,2.8188082976967093,-1.581366689401865,-4.09672863137424
1684201244200388900,1.521388916015625,2.7411405361264944,-4.266733315858245,-4.047701857876778
1684201244210415000,1.5314150390625,2.6984149085998532,-5.781318963885307,-3.792048057679832
1684201244220442000,1.541442138671875,2.271564437655359,-6.622960926929116,-3.408174997065961
1684201244230468000,1.551468017578125,1.535713191729784,-6.586744535166025,-2.567381467545032
1684201244240494800,1.561494873046875,1.4071617767490445,-6.141461604821681,-1.601003117763996
1684201244250520800,1.571520751953125,0.9277356076538562,-5.075319981518388,-0.5551864896088838
1684201244260546800,1.581546875,0.3569366845019161,-2.8585926110744473,0.9689423550501465
1684201244270574000,1.591573974609375,-0.3301075681567192,0.00168225399851799,2.1011019264012574
1684201244280600000,1.60160009765625,-1.4506331080764532,3.307556860280037,3.035039895826578
1684201244290627000,1.611626953125,-2.4096963125385344,5.635315332713723,3.8068691947147246
1684201244300653000,1.621653076171875,-3.2115374494612214,6.2132110822588205,3.4718346915498373
1684201244310679800,1.6316796875,-4.058191687709093,4.845986909753084,2.3256413341492412
1684201244320706000,1.6417060546875,-4.186217179119587,2.770900883617997,1.1073615224421023
1684201244330732000,1.65173193359375,-4.5920670937418935,1.1074193901091813,1.2895479353681205
1684201244340759000,1.661759033203125,-4.064651823633909,-0.5331389084517956,1.590907840207219
1684201244350785000,1.671784912109375,-2.5443688407480716,-1.735059706032276,1.5696049399375915
1684201244360812000,1.68181201171875,-1.6183143180489539,-2.5226632048964497,1.6596061133801936
1684201244370838000,1.691838134765625,-1.0494482626557349,-2.7049089467942715,1.8750614664405583
1684201244380864300,1.7018642578125,-0.6609742841176688,-2.436231122112274,2.006649326507747
1684201244390891000,1.71189111328125,-0.33551081543974576,-1.940225135746598,2.145731049461663
1684201244400917000,1.7219169921875,-0.12757358292452992,-1.4510329210489987,2.2470570422559977
1684201244410944000,1.731944091796875,0.032704584249854084,-1.0610112746775149,2.2735639409095048
1684201244420970000,1.741969970703125,0.18350377913489938,-0.7496200974285602,2.1927067356482146
1684201244430996000,1.751995849609375,0.3319540728062391,-0.5611141260921955,1.9043004204064606
1684201244441023200,1.762023193359375,0.487623504076153,-0.40166824502348897,1.5461118361473083
1684201244451049200,1.77204931640625,0.6229582955867051,-0.14246961182653903,1.361984226025641
1684201244461076000,1.782075927734375,1.0502701004326342,0.0819645819813013,1.1157108331143855
1684201244471102000,1.79210205078125,1.60265073884055,0.3255576497673988,0.8968085544705391
1684201244481129000,1.80212890625,2.390847819683701,0.5649871681332588,0.634777328196168
1684201244491155000,1.812155029296875,3.1349937234848735,0.7827233256071805,0.38002661431878804
1684201244501181200,1.82218115234375,3.4012884524226186,0.9132961634129285,0.1951627988770604
1684201244511208000,1.8322080078125,3.1448247971475123,0.8133060953974723,0.09084580757319927
1684201244521234000,1.84223388671875,2.6457857266962526,0.5684323401510715,0.008738894511759281
1684201244531261000,1.852260986328125,2.1821809577196833,0.3499140923887491,-0.13243921619951723
1684201244541287000,1.862286865234375,1.7388855479307472,0.21284429377913475,-0.1361161511465907
1684201244551313000,1.87231298828125,1.3224112173110245,0.11824234854280948,0.03787234227657318
1684201244561340200,1.882340087890625,0.8776176779188215,0.05649111802875995,0.2648918764024973
1684201244571366100,1.8923662109375,0.4002731374032795,-0.07177694996595382,0.4209717881694436
1684201244581393000,1.902392822265625,0.07290829208344221,-0.26291619241535663,0.4119529076725244
1684201244591419000,1.9124189453125,-0.23706037808172403,-0.3947860842943191,0.592823854085803
1684201244601446000,1.92244580078125,-0.5918260021548718,-0.5277852724641561,0.7467424961656332
1684201244611472100,1.93247216796875,-0.8098737097959965,-0.6924515185296535,0.6763450178593396
1684201244621498000,1.942498046875,-0.9192453541409223,-0.8007061415433884,0.6288046835273504
1684201244631525000,1.952525146484375,-1.0214403117895126,-0.8422229778021574,0.6449521007299422
1684201244641551000,1.962551025390625,-1.1038152281373739,-0.874827608808875,0.6610603549659252
1684201244651577900,1.972577880859375,-1.1352765343278646,-0.8932914862602949,0.6319298298105597
1684201244661603800,1.982603759765625,-1.1254606582343578,-0.9398159215480089,0.5590148157253861
1684201244671630000,1.992630126953125,-1.0563901907481252,-0.9341957435786723,0.4921595400705933
1684201244681657000,2.002656982421875,-0.978696417953819,-0.8414139995068312,0.43585926843881606
1684201244691683000,2.01268310546875,-0.83982629192397,-0.737990449911356,0.3818079447776079
1684201244701710000,2.0227099609375,-0.6923824718814343,-0.5839280154466628,0.3374102923855185
1684201244711736000,2.032736083984375,-0.5398747925780714,-0.4073129729121923,0.3224681593194604
1684201244721762000,2.042761962890625,-0.3969528338741511,-0.28510522786974907,0.27820523922294377
1684201244731789000,2.0527890625,-0.26253566866517064,-0.21737200033664703,0.23870441896170377
1684201244741815000,2.06281494140625,-0.10940730018019676,-0.2735439694136381,0.19230361005365848
1684201244751842000,2.072842041015625,-0.00041691023781895636,-0.4185235182344913,0.22980068927705286
1684201244761868000,2.082867919921875,0.1373125213243067,-0.5177624756217003,0.3861965351253748
1684201244771895000,2.09289501953125,0.26664953372478484,-0.5634253256440163,0.6293567644521594
1684201244781921000,2.102921142578125,0.4614291785031557,-0.5207698407441377,0.8707529067158698
1684201244791947000,2.112947021484375,0.7103180146098137,-0.4075701625436544,1.0272539665043354
1684201244801974000,2.12297412109375,0.9659908117681741,-0.30051147131621836,1.1297788136944173
1684201244812000000,2.133,1.270261343356967,-0.22957331026196479,1.1095382819592952
1684201244822027000,2.143027099609375,1.5557476794987917,-0.2457335869461298,0.9846201089143752
1684201244832053000,2.153052978515625,1.830088498378545,-0.4114005344867706,0.7084969366624951
1684201244842079000,2.163078857421875,2.022691383639723,-0.4634761741608381,0.4662453466132283
1684201244852106000,2.17310595703125,2.068329976003617,-0.266429168972373,0.30841333048194647
1684201244862132000,2.183132080078125,1.9880420950628817,-0.00414659828543663,0.18866379224658011
1684201244872159000,2.193158935546875,1.8301358446516096,0.1450064368277788,0.002660159119963646
1684201244882185000,2.20318505859375,1.6211131549872457,0.18046645726561544,-0.1669710158765316
1684201244892211000,2.2132109375,1.3592029247440396,0.12832242853045464,-0.35364568013250824
1684201244902238200,2.22323828125,1.0826860769994557,0.029037293913960455,-0.5419172581911087
1684201244912264200,2.23326416015625,0.8342775717556477,-0.015841127732396126,-0.6839771201729774
1684201244922291000,2.243291015625,0.6024900925755501,0.046212885120511055,-0.7342287592902779
1684201244932317000,2.25331689453125,0.4187016512803733,0.0833849701732397,-0.7901262953400612
1684201244942343000,2.263343017578125,0.24003975921869278,0.11391747108101843,-0.8032341987162828
1684201244952370000,2.273369873046875,0.03180383601784706,0.10198445670306681,-0.8184402434155345
1684201244962396200,2.283396240234375,-0.14874445431232453,0.026262568503618237,-0.7520812268450856
1684201244972423200,2.293423095703125,-0.31866891316697,-0.08427870414257049,-0.5683899623140692
1684201244982449200,2.30344921875,-0.4678371458493173,-0.16502514250576494,-0.37023733397126196
1684201244992476000,2.313475830078125,-0.6172590610317885,-0.22633038281798362,-0.04935556706041097
1684201245002502000,2.323501953125,-0.7256276658140123,-0.25331425133347507,0.3671107263833284
1684201245012527900,2.33352783203125,-0.787198425194621,-0.30195757847130295,0.7454957109749317
1684201245022555100,2.34355517578125,-0.7596094303928315,-0.4309732499629259,1.0541188848152756
1684201245032581000,2.3535810546875,-0.6784430130518972,-0.5665577784508466,1.3259464056998491
1684201245042608000,2.363608154296875,-0.5559713563762605,-0.6793149735808373,1.5976652055129408
1684201245052634000,2.373634033203125,-0.3720731710962951,-0.7518237449526787,1.8273104119673371
1684201245062660000,2.38366015625,-0.1655688939936459,-0.7626362308681011,2.014633603259921
1684201245072686800,2.393686767578125,0.06957695570364594,-0.6600199060022831,2.2517995606079695
1684201245082713000,2.403713134765625,0.34539866079092024,-0.44499593009650706,2.4950655883967876
1684201245092740000,2.413739990234375,0.5847149280406534,-0.13306816175282002,2.7283129109963773
1684201245102766000,2.42376611328125,0.828909322720766,0.16653379350304603,2.887478806079924
1684201245112792000,2.4337919921875,1.0761083060443402,0.4256938482552767,2.932003884243965
1684201245122818600,2.443818603515625,1.3072389287509023,0.6229121183574199,2.8838547703638673
1684201245132844500,2.453844482421875,1.537293300528079,0.7568769366890191,2.812783338318765
1684201245142871600,2.46387158203125,1.7951117314130067,0.8873743711709976,2.7044740625083445
1684201245152897500,2.4738974609375,2.169537749245763,0.9918564899086951,2.430883623604476
1684201245162924500,2.483924560546875,2.735957580530643,1.1043220086157322,1.986563108551502
1684201245172950500,2.493950439453125,3.4673736204877494,1.2232605227291584,1.4211118300378323
1684201245182976500,2.5039765625,4.293658147662878,1.2794564572036267,0.8947229803681374
1684201245193003500,2.51400341796875,4.9196518654227255,1.2529846298635006,0.4887333650141954
1684201245203029800,2.52402978515625,4.98180290890932,1.189726501917839,0.21203151609152554
1684201245213056500,2.534056396484375,4.451836785274744,1.0821166065484285,0.15046879388689993
1684201245223082500,2.54408251953125,3.6165479906499383,0.939302711328864,0.22060060699433087
1684201245233108500,2.5541083984375,3.3015427145570513,0.8935650425046682,0.43260085116475816
1684201245243135500,2.564135498046875,4.113534220224619,0.8028250333935022,0.7750918078154325
1684201245253161500,2.574161376953125,5.512181120476126,0.9031693216741085,0.9140046039432287
1684201245263188500,2.5841884765625,5.3199020603418345,1.1319371607720852,1.0869283907443283
1684201245273214500,2.59421435546875,2.979772182112932,1.2986176692694424,1.1177683501660822
1684201245283240400,2.604240478515625,1.1375579232633113,1.6755150456517933,1.5876415318876504
1684201245293267500,2.614267333984375,-1.2245580882590263,2.0066227307617663,1.7436375647634266
1684201245303293400,2.62429345703125,-3.2255905247330663,2.5008114385724065,1.785267798268795
1684201245313320700,2.63432080078125,-4.6685120355188845,2.93551919888854,1.6760405308306217
1684201245323346700,2.6443466796875,-6.6408794454574585,3.165338592866063,1.492607040452957
1684201245333373400,2.65437353515625,-8.11777453751564,3.003795447257161,1.8913199428021907
1684201245343399400,2.6643994140625,-8.078370747888087,2.435263153862953,2.912121372166276
1684201245353425400,2.67442529296875,-4.973844058859348,1.678050117087364,4.0328678613603115
1684201245363452400,2.684452392578125,-1.8446058301612733,1.0498457375407217,5.122793095833063
1684201245373478400,2.694478515625,-1.9662927662000058,0.7077689146488905,5.771680782446265
1684201245383505700,2.704505615234375,-3.8964875063195823,0.44628538538515566,4.857334817719459
1684201245393531600,2.71453173828125,-4.162322801052033,0.10350304457247257,3.5104105059206483
1684201245403557600,2.7245576171875,-3.6196997326791283,-0.3693424309581518,2.320058565580845
1684201245413584400,2.73458447265625,-3.232290314632654,-0.1961199534714222,1.8762848707556723
1684201245423610400,2.7446103515625,-2.89572933255285,-0.005704349121451378,1.1292261482477188
1684201245433637600,2.7546376953125,-2.959209871077537,0.464030300912261,0.04577332465946674
1684201245443663600,2.76466357421875,-3.0999262094959614,1.051246251988411,-1.177605856013298
1684201245453689600,2.774689697265625,-2.9652485667198896,1.422494224306941,-2.1210610108464953
1684201245463716600,2.784716552734375,-3.2614468510121104,1.7276947302222252,-2.4867332288593054
1684201245473742600,2.79474267578125,-3.2993998573094605,1.8117513160467147,-2.906810990798473
1684201245483769300,2.804769287109375,-2.862754406929016,1.3424451205581427,-3.5791491111040115
1684201245493795600,2.814795654296875,-2.846064553412795,0.777179720005393,-3.8684114586532115
1684201245503822600,2.824822509765625,-2.621440974512696,0.33958559059798715,-4.037712963303924
1684201245513848600,2.8348486328125,-2.3724951475217937,0.001450198808312416,-4.027285677313804
1684201245523874600,2.84487451171875,-2.3425769791200755,-0.24695932934880255,-4.012349973988533
1684201245533901600,2.854901611328125,-2.368339489147067,-0.39817338864505286,-4.014267790308595
1684201245543927600,2.864927490234375,-2.4849331937000154,-0.5582412010043859,-3.9056741445988417
1684201245553954600,2.87495458984375,-1.9117770398974419,-0.7497393398940563,-3.6746652485758062
1684201245563980500,2.88498046875,-1.3707280889734625,-0.9525637594401836,-3.2336896600365637
1684201245574006500,2.895006591796875,-1.1620859230592846,-1.1164566830456257,-2.6471418174803256
1684201245584033500,2.905033447265625,-1.2193337046742438,-1.2691267863690852,-1.8190192612230778
1684201245594059500,2.9150595703125,-1.2227499428585171,-1.5399685110867023,-1.0773352174907922
1684201245604086500,2.92508642578125,-1.500969502867758,-1.6990139946609735,-0.34533436338305473
1684201245614112500,2.935112548828125,-2.3064614173829554,-1.5186001443654298,0.2751917366206646
1684201245624139500,2.945139404296875,-2.832186834707856,-1.244883740994334,0.25789982555806634
1684201245634165500,2.95516552734375,-3.3584126027703283,-1.1008879425138234,-0.1818552812755108
1684201245644192500,2.965192626953125,-3.0848744785755873,-1.1513088007181882,-1.1945622515112162
1684201245654218500,2.975218505859375,-2.755201794704795,-1.232602936092019,-2.2745020985424516
1684201245664244500,2.985244384765625,-2.3385505000829694,-1.1197352663248776,-3.267532892927527
1684201245674271500,2.995271484375,-1.6294477064818143,-0.8264362106055021,-4.133196367549896
1684201245684297500,3.00529736328125,-0.5628145002692938,-0.36099604289531706,-4.891321258473396
1684201245694324500,3.015324462890625,0.16484277167618275,0.2057084505498409,-5.140954775467515
1684201245704350500,3.0253505859375,0.5578127464592456,0.6488584605187178,-4.90597346868217
1684201245714376400,3.03537646484375,0.6697562871187925,0.7432733587503433,-4.094068472254276
1684201245724403700,3.04540380859375,0.541310524469614,0.42743280087709423,-2.930909659266472
1684201245734429700,3.0554296875,0.23305735298544167,-0.0836900905996561,-1.6242711806267498
1684201245744456400,3.06545654296875,0.018094459617137907,-0.5770587141990662,-0.40831075177788734
1684201245754482400,3.075482421875,-0.2418134908929467,-0.9148667737305164,0.5820119526922702
1684201245764508400,3.08550830078125,-0.555072507840395,-1.1362135229170323,1.277611121597886
1684201245774535400,3.095535400390625,-0.7978928376883268,-1.229609599494934,1.6018804851204156
1684201245784561700,3.105561767578125,-0.8916625698842108,-0.8765618852555751,1.7631313697844744
1684201245794588700,3.115588623046875,-0.7279099315322936,-0.28958266554474826,1.7726590765863657
1684201245804614700,3.12561474609375,-0.24950331474319098,0.1236877544671297,1.6441308963507413
1684201245814641400,3.135641357421875,0.32096330771446224,0.31863749511539935,1.3923182817518711
1684201245824667400,3.14566748046875,0.7699896623708308,0.28213351858258245,1.052834982484579
1684201245834693400,3.155693359375,1.136519812387228,0.08136661608815193,0.7268155604243278
1684201245844720600,3.165720703125,1.43163439309597,-0.14909692101180552,0.39252398458123205
1684201245854746600,3.17574658203125,1.4339317102529108,-0.1861024173259735,0.2639408592879772
1684201245864773600,3.185773681640625,1.4020692759156226,-0.2522469143629074,0.22070435962975024
1684201245874799600,3.195799560546875,1.3130641277730464,-0.1587871248990297,0.20611644682884214
1684201245884825300,3.205825439453125,1.1779765159565954,0.14811609328091144,0.3645663025975227
1684201245894852600,3.2158525390625,0.9987889195203781,0.5395493600159883,0.5922235501050949
1684201245904878600,3.225878662109375,0.856944161593914,0.8284247540742158,0.8672177183270454
1684201245914905600,3.235905517578125,0.6989525709867477,1.2298878319144249,1.2280103476047515
1684201245924931600,3.245931640625,0.564699583363533,1.9002035064816474,1.6723872690200805
1684201245934957600,3.25595751953125,0.5096247618734836,2.6532471486181017,2.1888936071008445
1684201245944984300,3.265984375,1.114896594122052,3.016779431992769,2.7783418472737074
1684201245955010300,3.27601025390625,2.3738643900483845,2.737715237852931,3.333907107067108
1684201245965037600,3.28603759765625,3.6144010417491197,2.2171137394130227,3.775689335814118
1684201245975063600,3.2960634765625,4.546435807901621,1.9372405669778585,4.068399777990579
1684201245985089500,3.306089599609375,4.9873038444131605,1.7064046894341707,4.165947713550925
1684201245995116500,3.316116455078125,4.233681525605917,1.0046125111073254,3.682877781125903
1684201246005142500,3.326142578125,2.0747814902305604,-0.11912263850867748,2.604393393599987
1684201246015169500,3.33616943359375,-0.46888475520610806,-1.0725883152246474,1.375999599635601
1684201246025195500,3.346195556640625,-2.6109832933843133,-1.681146329537034,0.24665479344427585
1684201246035222500,3.356222412109375,-3.6609272306025025,-1.9887404525905847,-0.7418202373325824
1684201246045248500,3.36624853515625,-3.5673581355452537,-2.1914625808060166,-1.4075719649851322
1684201246055274500,3.3762744140625,-2.970708585691452,-2.334444818329811,-1.6211188540756702
1684201246065301500,3.386301513671875,-2.2824247082352636,-2.1959505398750303,-1.359485102686286
1684201246075327700,3.39632763671875,-1.4835785153448582,-1.517324133080244,-0.8100988237887621
1684201246085354500,3.4063544921875,-0.533425324177742,-0.6344020651429891,-0.07718319292366504
1684201246095380500,3.41638037109375,0.2901052281141281,0.26412498368322845,0.7316098089635372
1684201246105406500,3.426406494140625,0.8758359090685844,0.8615560393035412,1.141391217815876
1684201246115433500,3.43643359375,1.127961242878437,0.9689408937454224,0.8297714925080537
1684201246125460000,3.4464599609375,1.1376058540582656,0.5936117895931005,0.13194646424651146
1684201246135486700,3.45648681640625,0.92651629499197,0.0038292028993368145,-0.5580798729628325
1684201246145512700,3.4665126953125,0.6366904683411121,-0.38324119245111943,-0.9490338317483663
1684201246155540000,3.4765400390625,0.4697282568255439,-0.4087830454647541,-1.0076689760684967
1684201246165566000,3.48656591796875,0.2940741682777181,-0.187740832182765,-0.9405342989504337
1684201246175592000,3.496592041015625,0.10619593691825865,0.2103361103504896,-0.9166711928039789
1684201246185619000,3.506618896484375,-0.11757071462525054,0.7172323240429163,-0.7371504919558763
1684201246195645000,3.51664501953125,-0.6046393795639277,1.119704871186614,-0.35395138508081436
1684201246205671700,3.526671630859375,-1.0330150142490864,1.1887760693252085,-0.21050328361093998
1684201246215698000,3.536697998046875,-1.136232227617502,1.0653092641323805,-0.32485505445599555
1684201246225724000,3.546723876953125,-1.2711878105521202,0.8327087150037288,-0.2575052732825279
1684201246235751000,3.5567509765625,-1.6776023733198642,0.21336276469528673,0.18346388551592827
1684201246245777000,3.56677685546875,-1.9162626608788966,-0.22590368183851242,0.550309238961339
1684201246255804000,3.576803955078125,-2.0671295141726733,-0.43675943214893337,0.6523018789708614
1684201246265830000,3.586829833984375,-2.019661076033115,-0.37882980574965475,0.662549132218957
1684201246275856100,3.596856201171875,-1.5094950468897819,-0.25043138937354087,0.6952770973443985
1684201246285883000,3.6068828125,-0.977179145258665,-0.3453793715685606,0.6595557956218719
1684201246295908900,3.616908935546875,-0.7990969527810812,-0.3121837889313698,0.6088356622099876
1684201246305936000,3.626935791015625,-0.5810732105374335,-0.25910277160704137,0.5007096340119839
1684201246315961900,3.6369619140625,-0.15145835291352122,-0.25401275499165055,0.29366379737854004
1684201246325987800,3.64698779296875,0.1433511073688045,-0.09211305103003978,0.1880062051206827
1684201246336015000,3.65701513671875,0.36116208364460617,0.06381926895976066,0.10571195279359817
1684201246346041000,3.667041015625,0.4984423466671258,0.09624854339957237,-0.07068330951035022
1684201246356067800,3.67706787109375,0.5410223551779985,-0.016962240716814993,-0.20901742896735667
1684201246366093800,3.68709375,0.4521171602785587,-0.2883732897549868,-0.3521148173034191
1684201246376120800,3.697120849609375,0.1868045011807233,-0.5252250665873289,-0.227955938193202
1684201246386146800,3.707146728515625,-0.17531612529773263,-0.4815460838586092,0.006882745251059532
1684201246396173000,3.717173095703125,-0.42329730850756164,-0.3135714438974857,0.05392039075791835
1684201246406199800,3.72719970703125,-0.4774234509706497,-0.14821020130515097,0.18375965359210966
1684201246416225800,3.737225830078125,-0.2577062757473439,-0.0386164386421442,0.09939093307852745
1684201246426252800,3.747252685546875,-0.01719553801603615,-0.016408113965392112,0.023788871866464615
1684201246436278800,3.75727880859375,0.1253951429069042,-0.08507365391254425,-0.10204583150148391
1684201246446304800,3.7673046875,0.10172207943983376,-0.09718027129173278,-0.20513035840094088
1684201246456332000,3.77733203125,0.03630991526544094,-0.12092296592891215,-0.24618425332307814
1684201246466358000,3.78735791015625,0.05649645179100334,-0.1097106670409441,-0.329222017493844
1684201246476384800,3.797384765625,0.11108085941560565,-0.1391121180921793,-0.36404607811570167
1684201246486410800,3.80741064453125,0.1054280212856829,-0.13079670968949794,-0.38555531461238857
1684201246496436700,3.817436767578125,0.0338118148393929,-0.08437631929814815,-0.35277708060443397
1684201246506464000,3.827464111328125,-0.033425738131254906,-0.04853928224146366,-0.26490590492784977
1684201246516490000,3.837489990234375,-0.009736965638399124,-0.09582359598577021,-0.2457768415659666
1684201246526517000,3.84751708984375,0.07635499847121537,-0.2131909152597189,-0.11225801343619823
1684201246536543000,3.85754296875,0.17995690030828118,-0.2887491373300552,0.1046913775742054
1684201246546569000,3.86756884765625,0.2805021910537034,-0.30292554672062394,0.35859599601626396
1684201246556595700,3.877595703125,0.3490051608502865,-0.19412322669625282,0.6021715281456709
1684201246566622000,3.8876220703125,0.47479850929453965,-0.014947393763065336,0.7890928606390952
1684201246576649000,3.89764892578125,0.6252847657728939,0.1009048447728157,0.8697574659377336
1684201246586675000,3.907675048828125,0.7349478673450648,0.06324351489841938,0.812648508271575
1684201246596702000,3.917701904296875,0.8662976808726787,-0.009395604854822158,0.4884942955613136
1684201246606728000,3.92772802734375,1.041640365383774,-0.12171908474266528,0.07961363494098186
1684201246616754000,3.93775390625,1.1773647407338022,-0.1820546032398939,-0.2818833432137966
1684201246626781000,3.947781005859375,1.2861504018843173,-0.252656079685688,-0.6069815587759018
1684201246636807000,3.957806884765625,1.2148550979554653,-0.25099837560653687,-0.7452782688319682
1684201246646834000,3.967833984375,1.0269828944779933,-0.21193243963122366,-0.6919798093646764
1684201246656860000,3.97785986328125,0.7556921108186244,-0.1815747107684612,-0.5537561645448208
1684201246666886000,3.987885986328125,0.4638603511728346,-0.10725625962615012,-0.3866688288122415
1684201246676913000,3.997912841796875,0.24707696437910198,-0.012930793243646621,-0.16862988899946213
1684201246686939000,4.00793896484375,0.07729016042947769,0.08606149590611457,-0.005821253499388695
1684201246696966000,4.0179658203125,-0.00465790880843997,0.13508417775034903,0.13551555490493775
1684201246706991900,4.027991943359375,-0.04596037166416645,0.16085107169151305,0.19169804537594318
1684201246717019000,4.038018798828125,-0.0553073150716722,0.1428682557553053,0.19305413616001604
1684201246727044900,4.048044921875,-0.02645531459674239,-0.00232055190205574,0.13515841203033924
1684201246737070800,4.05807080078125,0.03244856366217136,-0.2085053877919912,0.03394786230921745
1684201246747097900,4.068097900390625,0.1285753803782165,-0.5551724610835314,-0.07319733815789223
1684201246757123800,4.078123779296875,0.26783187537714837,-1.0372545515149831,-0.043293782803416246
1684201246767150800,4.08815087890625,0.3830710965812206,-1.3197539808005094,0.23103812211751937
1684201246777176800,4.0981767578125,0.4214268384605646,-1.3103466855078936,0.6777163062125444
1684201246787202800,4.108202880859375,0.4411854318976402,-1.1043915667206048,1.1174486166924238
1684201246797230000,4.11822998046875,0.4220196897871792,-0.8127730114340782,1.4956255114912986
1684201246807256000,4.128256103515625,0.40501521736383433,-0.5892962644815445,1.821627982416749
1684201246817282800,4.13828271484375,0.3787269298970699,-0.4694488188296556,2.1082523826777932
1684201246827308800,4.148308837890625,0.35706761740520593,-0.36854865023195743,2.3230633003547787
1684201246837334800,4.158334716796875,0.3485165005505085,-0.2686030058801174,2.4746757113188504
1684201246847361800,4.16836181640625,0.2995335661947727,-0.13436930747926235,2.619619604304433
1684201246857388000,4.178387939453125,0.24850538974702358,0.08937924215197562,2.8258360043764115
1684201246867415000,4.1884150390625,0.24534093436673282,0.18752455908358096,2.8703812485456464
1684201246877441000,4.19844091796875,0.3294536342926323,0.1705126340061426,2.778148955050111
1684201246887467000,4.208467041015625,0.48598260500133034,0.09248889860510826,2.6073221405282614
1684201246897493800,4.21849365234375,0.6536123770475387,0.31759763067364694,2.6063579716712235
1684201246907519700,4.228519775390625,0.8406295711308718,0.842341051223874,2.6733073553502558
1684201246917547000,4.238547119140625,1.1355249561309815,1.3554215065091848,2.3641242095395922
1684201246927573000,4.248572998046875,1.5953430461756883,1.6851199093431233,1.7070979323953388
1684201246937600000,4.25860009765625,2.2839076402693985,1.8465800528436898,1.0008765394493937
1684201246947626000,4.2686259765625,3.236689426374435,1.8042261812388896,0.3498120933189988
1684201246957652000,4.27865185546875,4.564335037207603,1.5580290684342384,-0.12379881362617015
1684201246967678700,4.2886787109375,7.656560463067889,1.1093085648566483,0.09963584775030612
1684201246977705000,4.298705078125,11.583106715303659,0.6881833396911621,1.1025900702565907
1684201246987732000,4.30873193359375,12.531589342910051,0.4231166912436485,1.8727882608115671
1684201246997758000,4.318758056640625,8.881167724230885,0.40623102289438245,1.4187053534179925
1684201247007784000,4.328783935546875,4.382359344422817,0.7764847234785557,1.0255454090207814
1684201247017811000,4.33881103515625,0.47425417328476904,1.2681009504526852,1.3644044389098882
1684201247027836700,4.348836669921875,-3.166179719865322,1.6619634901612996,1.8076468033373354
1684201247037864000,4.358864013671875,-5.798342579400539,1.9642232664495705,1.4710773456901312
1684201247047890000,4.368889892578125,-8.355130172216892,2.522301970368624,1.087910387519002
1684201247057916000,4.378916015625,-8.04612033714652,2.776297774225473,0.9100643418848514
1684201247067943000,4.38894287109375,-7.036478015178441,3.292226020157337,1.0393646755367516
1684201247077969000,4.398968994140625,-7.044475443673133,3.3549487260520454,1.4247574930638074
1684201247087996000,4.408995849609375,-6.877509103971719,2.8701158756077287,2.084681537476182
1684201247098022000,4.41902197265625,-5.462224957174063,2.145631388479471,2.5071990937829014
1684201247108048000,4.4290478515625,-2.113176395076513,1.338124919271469,3.1359745512157677
1684201247118075000,4.439074951171875,1.1557374308153987,0.43524201332330703,4.191149374824762
1684201247128100600,4.4491005859375,1.4108755365751684,-0.0015016367346048355,4.784982113692164
1684201247138127600,4.459127685546875,-1.4021721517682075,-0.01483399651646614,4.209613836798072
1684201247148153600,4.469153564453125,-3.8385973351478575,0.15659107615947723,3.32482071429193
1684201247158180400,4.479180419921875,-4.228761020338535,0.28234394646286964,2.2510616017222405
1684201247168206300,4.489206298828125,-3.701144090178609,0.6973708547532558,0.9199357475578784
1684201247178232300,4.499232421875,-3.2618788126885887,1.338221949905157,-0.5128688583612442
1684201247188259600,4.509259521484375,-2.3733248763442036,1.8855682474076747,-1.9097949261695146
1684201247198285600,4.51928564453125,-2.3736449020788073,2.2173253363370895,-2.5117799918323755
1684201247208312600,4.5293125,-2.435774610516429,2.209783250394463,-2.8633576335191724
1684201247218338600,4.539338623046875,-2.1458003153055905,1.8752771550178526,-3.005125234556198
1684201247228364500,4.549364501953125,-1.884539781142771,1.291542616316676,-3.388337200912833
1684201247238391600,4.5593916015625,-2.364456510233879,0.6199123520195484,-3.6877906876087185
1684201247248417500,4.56941748046875,-2.5969176508918403,0.17718319781124592,-3.829339092937112
1684201247258444500,4.579444580078125,-2.4185034499809146,0.11612813286781311,-3.8422061732947825
1684201247268470500,4.589470458984375,-2.0915175209760664,0.1696551403939724,-3.5928175709724424
1684201247278496500,4.59949658203125,-1.7880355094164608,0.21938684729039667,-3.3193291311383244
1684201247288523500,4.6095234375,-1.5638377547129987,0.12194704827964305,-2.8540637354731557
1684201247298549500,4.619549560546875,-1.2717816847920418,-0.12616378919184207,-2.3614047214478253
1684201247308576500,4.629576416015625,-1.4052858998745679,-0.21191607301831245,-1.772951337531209
1684201247318602500,4.6396025390625,-1.5628934596002102,-0.3344061421334743,-1.5493734682917595
1684201247328629500,4.64962939453125,-2.0179811601221562,-0.4784329202741384,-1.4649953954279422
1684201247338655500,4.659655517578125,-2.0736922336891292,-0.6574339811623096,-1.7296411881148814
1684201247348681500,4.669681396484375,-2.322406297750771,-1.0498182650119066,-2.0090993500083685
1684201247358708700,4.679708740234375,-2.306072125804424,-1.147125962075591,-2.134877354753017
1684201247368734700,4.689734619140625,-2.140202349168062,-1.2997247537285088,-2.4904893665224312
1684201247378761500,4.699761474609375,-2.173636416736245,-1.4891314732968806,-2.4866578255355356
1684201247388787500,4.709787353515625,-1.8426494353964924,-1.6564648927450178,-2.7505115910619495
1684201247398813400,4.7198134765625,-1.7087959684848784,-1.7886200313061476,-3.0264713894456623
1684201247408840400,4.72984033203125,-1.642514693325758,-1.7713433178126812,-3.2477965113222598
1684201247418866700,4.73986669921875,-1.485965702742338,-1.6992296832382678,-3.4698891104400156
1684201247428893400,4.7498935546875,-1.219952713355422,-1.604229678595066,-3.606397183513641
1684201247438919400,4.75991943359375,-1.0367650144323706,-1.4246493565142153,-3.5079081677109003
1684201247448945400,4.7699453125,-0.9690592594280838,-1.1353273877322674,-3.2339544484525917
1684201247458972400,4.779972412109375,-0.9908139951184392,-0.7964467305332422,-2.8414024068206545
1684201247468998400,4.789998291015625,-0.9213006061702966,-0.4801777181148529,-2.4516800356566906
1684201247479025700,4.800025634765625,-0.8459645024180412,-0.1274661039620638,-2.0226035592257974
1684201247489051600,4.8100517578125,-0.6874681771591306,0.24833529387712477,-1.497700564199686
1684201247499078400,4.820078369140625,-0.543861670257151,0.5144353770256043,-0.831540840268135
1684201247509104400,4.8301044921875,-0.6419692855268716,0.3425391797065735,-0.2773819401413202
1684201247519130400,4.84013037109375,-0.9855646962881087,0.16282149498164653,0.3841191443294287
1684201247529157600,4.85015771484375,-1.0663448907904327,-0.05386076952517032,0.8549719847381114
1684201247539183600,4.86018359375,-0.8453238664269447,-0.5553741211354732,0.9162877464443445
1684201247549210600,4.870210693359375,-0.6262031227268279,-0.8802297601133584,0.8423416357457637
1684201247559236600,4.880236572265625,-0.5878748533762991,-0.9397107076078652,0.8453501699119805
1684201247569262600,4.8902626953125,-0.5951810847364366,-0.6724415806800127,0.9737614457696676
1684201247579289300,4.900289306640625,-0.45375740176625545,-0.1723258209079504,1.174013969001174
1684201247589315300,4.9103154296875,-0.20954744419083,0.3482885370135307,1.2648551003992556
1684201247599342600,4.920342529296875,0.2529670453310013,0.8109130627810954,1.3515806131720542
1684201247609368600,4.93036865234375,0.7152350127458572,1.1888175703793764,1.6305378398060797
1684201247619394600,4.94039453125,1.111035753975436,1.4182055872023105,1.9401707752108572
1684201247629421600,4.950421630859375,1.4860229858875273,1.3851578886032103,2.1050877811670303
1684201247639447600,4.960447509765625,1.5855904445767401,1.5652981826543808,2.2067314616084097
1684201247649474600,4.970474609375,1.3176701602637766,2.5687521713763473,2.445391749167442
1684201247659500500,4.98050048828125,0.8508522744596004,4.18056076079309,2.821317650169134
1684201247669527600,4.990527587890625,0.5154547832012176,5.425287849920988,3.5779824054121967
1684201247679553500,5.000553466796875,1.1178501832306385,4.982473355516791,4.257932754287124
1684201247689579500,5.01057958984375,2.5221517482429743,2.905015924075246,3.913373466929793
1684201247699606500,5.0206064453125,3.817288589659333,0.9674515319705009,2.9501959590166806
1684201247709632500,5.030632568359375,4.624324518746137,0.062217094460129733,2.1855998262524605
1684201247719659500,5.040659423828125,4.49058123421073,-0.1876619217276573,1.4118600175678728
1684201247729685500,5.050685546875,3.228854494965076,-0.35320144349634647,0.5083288768440485
1684201247739711500,5.06071142578125,1.4903776739656924,-0.7405652688354253,-0.3800958801627159
1684201247749738500,5.070738525390625,-0.367079746723175,-1.3259464056998491,-1.2776695737868546
1684201247759764500,5.080764404296875,-1.8718740685760973,-1.838306730017066,-2.0409464406460525
1684201247769791500,5.09079150390625,-2.6732582555115223,-2.1853969971567393,-2.357861934274435
1684201247779817500,5.1008173828125,-2.7050036393404007,-2.2491548913180828,-2.284582178530097
1684201247789843500,5.110843505859375,-2.348492048382759,-1.8561708880096672,-1.7907716563820837
1684201247799870500,5.120870361328125,-2.0431565179109574,-1.0004735116064547,-0.776769385638833
1684201247809896400,5.130896484375,-1.8180384334921835,-0.1628963137835264,0.32054946621656416
1684201247819923700,5.140923828125,-1.3037363274574278,0.39049452458024025,1.2414379844546317
1684201247829949700,5.15094970703125,-0.6392530123054981,0.4872884269028902,1.9132780921101569
1684201247839975700,5.1609755859375,-0.08401099311709403,0.2943307368546724,2.2057038721263407
1684201247850002400,5.17100244140625,0.45514264557957645,-0.03330839536190033,2.012649151444435
1684201247860028400,5.1810283203125,0.5985749649584293,-0.22446868059933184,1.5348919384747743
1684201247870055400,5.191055419921875,0.23537881820295004,-0.07967500973939895,1.2227005507588387
1684201247880081400,5.201081298828125,0.01949731215238571,0.05430149902999401,0.7122369999736547
1684201247890108700,5.211108642578125,-0.41437341281771656,-0.049852702927589414,0.1432166308015585
1684201247900134700,5.221134765625,-1.2176520351976154,-0.38122459193170066,0.11770341936051845
1684201247910160600,5.23116064453125,-1.7496002725601196,-0.33819618206620217,0.4674585217952728
1684201247920187400,5.2411875,-1.33467273299098,0.2690694543480873,0.33010230745971203
1684201247930213400,5.25121337890625,-0.680294632267952,0.7689040590912103,-0.05502279904186725
1684201247940240600,5.26124072265625,-0.5851473281085491,0.9302946444869041,-0.27109365365207194
1684201247950266600,5.2712666015625,-0.9344441653817892,1.0636796171039342,-0.36131869897842406
1684201247960292600,5.281292724609375,-1.146551961579919,1.2976041083127259,-0.30576106240749357
1684201247970319600,5.291319580078125,-0.7069359709560871,1.1594751560389995,-0.5141565600842237
1684201247980345600,5.301345703125,0.024124405697453766,0.557498858204484,-0.8864981728583574
1684201247990372400,5.311372314453125,0.643908144634962,-0.06483341443836689,-0.9380921664953231
1684201248000398600,5.321398681640625,1.0001122770786284,-0.4858920041084289,-0.8232230937778949
1684201248010425600,5.331425537109375,1.148593696540594,-0.7673615058243274,-0.6568389378786087
1684201248020451600,5.34145166015625,1.011059203028679,-0.9496896653085947,-0.4175310000658035
1684201248030477600,5.3514775390625,0.6084148795146495,-0.9669318920105695,-0.13693828118443488
1684201248040504600,5.361504638671875,0.0853068781465292,-0.7366559864372014,0.1912830348342657
1684201248050530600,5.371530517578125,-0.42442371872160584,-0.4013315604150295,0.5689028802722692
1684201248060557600,5.3815576171875,-0.7257189973592758,-0.1618120256781578,0.8034995716542005
1684201248070583600,5.39158349609375,-0.8202326797902584,-0.0867921482682228,0.8649597102671861
1684201248080609500,5.401609619140625,-0.8576262986391783,-0.1720768145829439,0.7655716997981071
1684201248090636500,5.411636474609375,-0.784460524663329,-0.30271628788411614,0.5385638561099767
1684201248100662500,5.42166259765625,-0.5915495963662862,-0.49017830312550065,0.15205752438306808
1684201248110689500,5.431689453125,-0.2800923681437969,-0.4546265127509832,-0.24620880324244498
1684201248120715500,5.441715576171875,0.10340659846067428,-0.2820394105583429,-0.5754653075277805
1684201248130741800,5.45174169921875,0.4817676907200366,-0.14945406388640403,-0.9187170194178819
1684201248140768800,5.461768798828125,0.7885499128688126,0.08163900328874588,-1.0874147129565477
1684201248150794800,5.471794677734375,1.0276110363136977,0.27051497698128224,-1.1005804839998483
1684201248160821800,5.48182177734375,1.2807061650037765,0.453983538672328,-1.0894307289540768
1684201248170848000,5.491847900390625,1.5946277375131845,0.5281739795207977,-0.9802987385839224
1684201248180874000,5.5018740234375,1.7966133681476115,0.3175584677070379,-0.5561743316024541
1684201248190900700,5.511900634765625,1.5947019717931747,0.03402501919865608,0.08031564573049545
1684201248200926700,5.5219267578125,1.1946646159071475,-0.20645137787163256,0.48342999790906904
1684201248210953700,5.53195361328125,0.8681902896862477,-0.40824294723868365,0.6194686999052763
1684201248220979700,5.541979736328125,0.6076011519789696,-0.5590870041787624,0.6001192717909812
1684201248231007000,5.552007080078125,0.4167476676683873,-0.6204366681545972,0.5406459230810403
1684201248241033000,5.562032958984375,0.2810070718359202,-0.5635521668940783,0.5722948607981204
1684201248251059000,5.572058837890625,0.17007490017600357,-0.39775136384069915,0.7114169157624244
1684201248261085700,5.582085693359375,0.07518010947294533,-0.19324118316471575,0.8421002282053232
1684201248271111700,5.592111572265625,0.0743265613835305,-0.10654431196451186,0.8674842603087425
1684201248281138700,5.602138671875,0.04725859478116035,-0.12253799991011619,0.8151192822992801
1684201248291165000,5.6121650390625,0.035033319458365436,-0.31881928142309185,0.6187269416272639
1684201248301191000,5.62219091796875,0.04651742102503776,-0.7121592585623264,0.3175543760538101
1684201248311217700,5.6322177734375,0.011441869860142468,-1.0502326910316944,0.08959259264171122
1684201248321243600,5.64224365234375,-0.016708558216691018,-1.1680951003462074,-0.00008241758644580841
1684201248331270700,5.652270751953125,0.012941753029078244,-0.9521966796934604,0.06202537128031253
1684201248341296600,5.662296630859375,0.0977987685162574,-0.6120926181793213,0.09043605772852897
1684201248351323000,5.672322998046875,0.19562544795274733,-0.34603871226012706,0.1269125617325306
1684201248361350000,5.682349853515625,0.24302206296510992,-0.13829437196850775,0.16111176845431327
1684201248371375900,5.6923759765625,0.24501696310937404,-0.07405775437951087,0.0958066448509693
1684201248381402600,5.702402587890625,0.1811662030328065,-0.0892582461208105,0.013614683854579925
1684201248391428600,5.7124287109375,0.16122458117902277,-0.1105862808316946,-0.041353754651546476
1684201248401455900,5.722455810546875,0.16894326579757032,-0.1489414381891489,-0.07957564101815223
1684201248411481900,5.73248193359375,0.08446290160305797,-0.21194120745956896,0.0106704470962286
1684201248421507800,5.7425078125,-0.08799092959873378,-0.279174668776989,0.2703618322461843
1684201248431534800,5.752534912109375,-0.3012128975838423,-0.21406477548480032,0.6345686538815498
1684201248441560800,5.762560791015625,-0.46848494223356246,-0.1352899294555187,0.8055752088844775
1684201248451587600,5.772587646484375,-0.41161213141083713,-0.20185645129680632,0.6530278551578521
1684201248461613800,5.78261376953125,-0.17306874822974205,-0.3276905701428652,0.491177251034975
1684201248471639800,5.792639892578125,0.06204129950180649,-0.42923137473165984,0.6109668290197849
1684201248481666800,5.802666748046875,0.1722745291121304,-0.5101981778472662,0.9937561860501766
1684201248491692800,5.81269287109375,0.11523133015856146,-0.48976738423705096,1.5845979264080523
1684201248501719800,5.8227197265625,-0.029327362901717422,-0.31695641016066073,2.2553747887462374
1684201248511745800,5.832745849609375,-0.19736440057456492,-0.05065115982890129,2.8107442337065933
1684201248521771800,5.842771728515625,-0.31459625690057874,0.2642027250945568,3.200594322903454
1684201248531798800,5.852798828125,-0.16800854223072528,0.5560784700125455,3.203440067723393
1684201248541824800,5.86282470703125,0.2762584890693426,0.7805670243561268,2.8074785099089143
1684201248551851800,5.872851806640625,0.7828991205655038,1.0396002378582954,2.3296920708447693
1684201248561877800,5.882877685546875,1.2763583450578153,1.260441960132122,1.8772399795234203
1684201248571904800,5.89290478515625,1.8285304552815853,1.2767968826055527,1.2633598934054373
1684201248581930800,5.9029306640625,2.4171454595007003,1.0376590406626462,0.6404138727784157
1684201248591956700,5.912956787109375,3.081097882646322,0.6192611946344375,0.250240835237503
1684201248601983700,5.922983642578125,3.8493198046922683,0.10140811811983584,0.19714578938782215
1684201248612009700,5.933009765625,4.83502770884335,-0.34844343531429767,0.4229395811110735
1684201248622036700,5.94303662109375,5.564201815092563,-0.6047551148980855,0.8734937298566102
1684201248632062700,5.953062744140625,5.73302693440318,-0.6384551399260759,1.4381921441763639
1684201248642089000,5.9630888671875,5.4475154638201,-0.5650011966586113,2.0201322006762026
1684201248652115700,5.97311572265625,4.44843194526732,-0.4059305786430836,2.4048808750808237
1684201248662141700,5.9831416015625,2.5597207236588,-0.16027181049883366,2.4335575189888474
1684201248672168700,5.993168701171875,-0.3356979355096817,0.1197708732843399,1.823483254894614
1684201248682194700,6.003194580078125,-3.3725638777196405,0.5506938543647527,1.2556547258555888
1684201248692220700,6.013220703125,-4.657660971158743,1.13942547070086,1.4833359387606382
1684201248702248000,6.023248046875,-6.114394734197854,1.6955904499530792,1.5321493617683648
1684201248712274000,6.03327392578125,-8.505838620078563,1.9789345133692025,1.383004509961605
1684201248722300700,6.04330078125,-8.653903859955072,1.9688538488596676,1.56017075663805
1684201248732326700,6.05332666015625,-7.157343113440275,1.7232061866313217,2.023524181202054
1684201248742353700,6.063353759765625,-5.873056167340279,1.2720534874707459,2.5955688666313885
1684201248752380000,6.0733798828125,-4.571083926945924,0.8024018395453691,3.4614906999289987
1684201248762406000,6.083406005859375,-2.758780822235346,0.22596154950559139,4.276137688541412
1684201248772433000,6.093432861328125,-1.418628634919971,-0.2984095306009054,4.944644852381944
1684201248782459000,6.103458984375,-0.5660545051038265,-0.6064116499334573,4.812683190566301
1684201248792485600,6.113485595703125,-1.4028104496717453,-0.7918436206519603,3.8651755454719066
1684201248802511600,6.12351171875,-2.643356453722715,-0.9672340898275374,2.45289291857779
1684201248812537600,6.13353759765625,-3.9328783778667447,-0.9974188002109527,1.3231418696731327
1684201248822564900,6.14356494140625,-3.9909494585633274,-1.0948954241007567,0.26524668118953704
1684201248832590800,6.1535908203125,-3.9269326212048528,-1.1953408346682786,-0.7204869419246912
1684201248842617900,6.163617919921875,-3.4233576608896255,-1.0727613337039947,-1.6959271345615385
1684201248852643800,6.173643798828125,-3.114095312362909,-0.7423498141646385,-2.2440140212982893
1684201248862669800,6.183669921875,-2.968807720506191,-0.6178542504459619,-2.6120763493180275
1684201248872696800,6.19369677734375,-3.042630204825103,-0.5763923592448235,-2.837318936899304
1684201248882722800,6.203722900390625,-2.9480636231631037,-0.49994741746783256,-2.9659944166511294
1684201248892749800,6.213749755859375,-2.667034558691084,-0.37239421974420545,-3.0317583899378775
1684201248902775800,6.22377587890625,-2.2790999477267264,-0.10494096842110157,-3.068841043141484
1684201248912802800,6.233802734375,-1.956764474876225,0.18405717523396015,-3.128432465273142
1684201248922828800,6.243828857421875,-1.8216322202004491,0.45005555157363414,-3.2004964154869318
1684201248932854800,6.253854736328125,-1.9860734253384171,0.7746925793647765,-3.1808436205118893
1684201248942881800,6.2638818359375,-2.142248175781965,1.023024950632453,-2.9291268675029274
1684201248952907800,6.27390771484375,-2.074849587030709,1.2516367223858833,-2.567546302717924
1684201248962934800,6.283934814453125,-1.7896832766234874,1.4143828140437602,-2.273966091969609
1684201248972960800,6.293960693359375,-1.3818987406767904,1.423957867118716,-2.0992659431457517
1684201248982986800,6.30398681640625,-0.8528713591970503,1.2304203313559292,-1.9509967051297425
1684201248993013800,6.314013671875,-0.4010428066015243,0.8918681754589081,-1.8369576534956693
1684201249003039700,6.324039794921875,0.021022768153995276,0.537740849289298,-1.810997282809019
1684201249013066800,6.334066650390625,0.3832661807619035,0.17037760944962502,-1.814419658473134
1684201249023092700,6.3440927734375,0.7417888192810118,-0.007903320470452307,-1.7511849114030598
1684201249033118700,6.35411865234375,1.2471978631556033,0.10252923110425471,-1.5916531056165695
1684201249043146000,6.36414599609375,1.9483776086725293,0.5091127206981182,-1.3658844483345747
1684201249053172000,6.374171875,2.4733213741004465,1.1272937188804149,-0.9934890595465898
1684201249063198700,6.38419873046875,2.8658605562508104,1.7853168981075285,-0.44977088941335674
1684201249073224700,6.394224609375,3.2849346941053867,2.1996809585750103,0.11384732845425605
1684201249083251700,6.404251708984375,3.585469546297192,2.2020377508342266,0.6132359429955482
1684201249093277700,6.414277587890625,3.3777918415009975,1.6999901462167502,0.9068675916701555
1684201249103303700,6.4243037109375,2.916334021425247,0.5700280849099159,1.0803636254012583
1684201249113331000,6.4343310546875,1.958510880152136,-0.917027166634798,0.8717810807198285
1684201249123356700,6.444356689453125,0.7013140394210815,-2.214778574463725,0.41187808887064453
1684201249133383400,6.454383544921875,-0.6395793216504156,-3.190371327313781,-0.06295885273814202
1684201249143409400,6.464409423828125,-1.9374961491741238,-3.8734617277801036,-0.45675709503889084
1684201249153435400,6.474435302734375,-3.180482093723118,-4.258123308423161,-0.5792834045112133
1684201249163462700,6.484462646484375,-4.199391133469343,-4.296826840826869,-0.35946751815378664
1684201249173488600,6.494488525390625,-4.484197086131572,-3.99532752751708,0.15076397744119166
1684201249183515600,6.504515625,-4.4840290360882875,-3.4592654250949617,0.8086451178491115
1684201249193541600,6.514541748046875,-4.347638744175434,-2.7523656944960355,1.362918584266305
1684201249203567600,6.524567626953125,-3.6748309605315326,-2.073134892067313,1.9943390032500028
1684201249213594400,6.534594482421875,-2.7191139977574346,-1.4888655158370732,2.7284277695477006
1684201249223620400,6.544620361328125,-1.8439830220878124,-1.1366805559068918,3.125308195772767
1684201249233647600,6.554647705078125,-1.40482018205896,-1.1095523104846476,2.9326357524067164
1684201249243673600,6.564673583984375,-1.2664543522894383,-1.1550257754147053,2.3344144231915473
1684201249253700600,6.57470068359375,-1.0515619668740779,-1.1306658256620168,1.5436469073385
1684201249263726600,6.5847265625,-0.7019920117478817,-1.3607938471972942,-0.15487842702269553
1684201249273752600,6.594752685546875,-0.4035609269022941,-1.4581202489614487,-1.8800059371054172
1684201249283779600,6.604779541015625,-0.11603928554058074,-0.5433411535143852,-2.470328622025251
1684201249293805600,6.6148056640625,0.004733458262681961,1.8251649243712424,-1.8809540316104887
1684201249303832600,6.62483251953125,0.040239655929803844,6.046911682033539,-0.4816577275395393
1684201249313858600,6.634858642578125,0.45041853966712947,11.130313847720622,0.5783750574946404
1684201249323884500,6.644884521484375,1.5712439393162727,14.754693262648582,0.8268804472416639
1684201249333911300,6.654911376953125,2.639009948951006,12.589030309009551,-0.6055383742302656
1684201249343937500,6.6649375,2.3805916524767876,5.375428132730722,-2.617172211152315
1684201249353964500,6.674964599609375,0.7847663026768714,-0.6557400367259979,-3.6641836020499468
1684201249363990500,6.684990478515625,-1.060839352176711,-3.9685137548714873,-4.146204317682981
1684201249374016500,6.6950166015625,-2.762525269460678,-5.835304236572981,-3.7491573027193543
1684201249384043500,6.70504345703125,-3.9400983922481534,-6.222509071958065,-2.600529119387269
1684201249394069500,6.715069580078125,-4.401901080238819,-5.104384163439273,-0.6857078894883394
1684201249404096500,6.725096435546875,-4.327102152103185,-3.0448733075767755,2.067128052867949
1684201249414122500,6.73512255859375,-3.9081788208961483,-1.0954659174650907,4.883274730139971
1684201249424149500,6.7451494140625,-3.495236317664385,0.06546411355733871,6.755571992564201
1684201249434175500,6.755175537109375,-2.3224539362847803,0.37794250152111053,6.6232309760421515
1684201249444201500,6.765201416015625,-0.41498365367054935,-0.026945874592661855,5.221633409291505
1684201249454228700,6.775228759765625,1.204832885634899,-0.7456301510095595,3.614156127077341
1684201249464254700,6.785254638671875,2.560677001470327,-1.2914391559422016,2.4170541279554367
1684201249474281500,6.795281494140625,3.243871446833014,-1.5943968513667583,1.5915876391649246
1684201249484307500,6.805307373046875,2.939167784523964,-1.6943763979882,1.2326257324457168
1684201249494333400,6.81533349609375,1.8383160823673008,-1.3327297822296618,1.2753224261388183
1684201249504360400,6.8253603515625,0.48821840122938154,-0.7643003646880387,1.4460937110811471
1684201249514386400,6.835386474609375,-0.530129789763689,-0.4958218619704246,1.6836176880866287
1684201249524413700,6.84541357421875,-1.3250690383434296,-0.5204641357958316,1.8037322602421044
1684201249534439700,6.855439697265625,-1.7787433649361133,-0.671657736825943,1.8295576063722372
1684201249544465700,6.865465576171875,-2.0255179853677747,-0.9192506879031658,1.618151820963621
1684201249554492400,6.875492431640625,-2.320184822309017,-1.3061094863295555,1.3472478446647524
1684201249564518400,6.885518310546875,-2.5273393800139425,-1.3791267917454242,1.0996811970725655
1684201249574545700,6.895545654296875,-2.6124621337652205,-1.169119767218828,1.0158005523368716
1684201249584571600,6.905571533203125,-2.6070178968846798,-0.9721253690004348,1.2241931274041533
1684201249594598700,6.9155986328125,-2.466706924396753,-0.7324614573568106,1.316720312193036
1684201249604624400,6.925624267578125,-2.383387420675158,-0.6329448520720005,1.3054784949496387
1684201249614650400,6.935650390625,-2.297469132632017,-0.6709311761170625,1.2253951966702938
1684201249624677400,6.945677490234375,-2.16987852550745,-0.6825035404890776,1.136540270653367
1684201249634703600,6.95570361328125,-2.035887403690815,-0.5925415300130844,0.9447142149835824
1684201249644730600,6.965730712890625,-1.8564134645938872,-0.4824830724477768,0.7796101620227098
1684201249654756600,6.975756591796875,-1.683199754935503,-0.26757600091993805,0.7038146240651607
1684201249664782600,6.985782470703125,-1.494962663668394,-0.085389295732975,0.46513709311038254
1684201249674809300,6.995809326171875,-1.3405559458106755,-0.058684828680753705,0.27426351585984227
1684201249684835300,7.00583544921875,-1.148506018257141,-0.09321662835776805,0.06716974843144416
1684201249694862600,7.015862548828125,-0.9405892440080642,-0.11312953557372092,-0.15533464635759592
1684201249704888600,7.025888671875,-0.6989894689310342,-0.11649112096130847,-0.45780864991843695
1684201249714914600,7.03591455078125,-0.5369633621107787,-0.13479074776172636,-0.6822530728593468
1684201249724941600,7.045941650390625,-0.48459202742576596,-0.2210767000734806,-0.5601181007921695
1684201249734967600,7.055967529296875,-0.473101459585689,-0.29743513261079785,-0.2520209966525435
1684201249744994600,7.06599462890625,-0.4770955341905355,-0.22727321662604807,0.15395108304470775
1684201249755020500,7.0760205078125,-0.6016004502594471,-0.03849953426420689,0.6815504775479435
1684201249765047600,7.086047607421875,-0.7315103671770542,0.08759469682276248,0.9412146824300288
1684201249775073500,7.096073486328125,-0.6937994260072707,0.024035540103912352,0.9152619105279445
1684201249785099500,7.106099609375,-0.4966249219816178,-0.09596680384874344,0.8804644456520676
1684201249795126500,7.11612646484375,-0.2676624370943755,-0.024757424637675284,0.8946253652125596
1684201249805152500,7.126152587890625,-0.12339315543472766,0.11338672520518302,0.8437503334999084
1684201249815179500,7.136179443359375,-0.11374730214588344,0.2221177335590124,0.6713400491788983
1684201249825205500,7.14620556640625,-0.1650841792166233,0.271457226267457,0.27242344095110893
1684201249835231500,7.1562314453125,-0.2117962460309267,0.32247546584308145,-0.170127726341784
1684201249845258500,7.166258544921875,-0.14846034014131873,0.3975865286678076,-0.6174222887694836
1684201249855284500,7.176284423828125,0.04229775750339031,0.4124883297234773,-0.9475888936370611
1684201249865311700,7.186311767578125,0.2973287496268749,0.2880179004460573,-1.1288251662313937
1684201249875337700,7.196337646484375,0.6185528271693735,0.09006956250369548,-0.9986875049725175
1684201249885363500,7.206363525390625,1.0609113214343786,-0.024710662886500357,-0.46228491854965686
1684201249895390500,7.216390380859375,1.4204180025547741,-0.06733049195110798,0.28818828857690093
1684201249905416400,7.22641650390625,1.4964689765781163,-0.15832009190917015,0.9491539509966969
1684201249915443500,7.236443359375,1.2542547959297894,-0.2662970670253038,1.4372645079374313
1684201249925469700,7.2464697265625,0.7918903824031353,-0.35515023947656155,1.834783232066035
1684201249935496400,7.256496337890625,0.26510171976089475,-0.42224341554045675,2.2636112866938114
1684201249945522400,7.2665224609375,-0.10394085146784782,-0.46546822476089,2.73338977586925
1684201249955548400,7.27654833984375,0.023626374781131745,-0.3514092993825674,3.0532804859161375
1684201249965575400,7.286575439453125,0.7221919922769069,-0.004964928930997848,3.1241449972122908
1684201249975601400,7.296601318359375,1.791643763041496,0.49673137803077694,3.0609517511963844
1684201249985628700,7.306628662109375,2.346822653865814,0.8792904334366322,2.9553070184201
1684201249995654700,7.316654541015625,2.165881564825773,1.079860936576128,2.697050049987435
1684201250005680600,7.3266806640625,1.8962322647631167,1.3108201482385395,2.6970494654655455
1684201250015707400,7.336707275390625,0.8635011820219457,1.4995482378929852,2.3399995298475025
1684201250025733400,7.3467333984375,-1.162521684128046,1.7631641030102967,1.0287649555891751
1684201250035760600,7.3567607421875,-3.539693883550167,2.084651726859808,-0.03091068657040596
1684201250045786600,7.36678662109375,-5.090004924952984,2.349617253020406,-0.5240384871512651
1684201250055812600,7.3768125,-5.776536405783891,2.3558657920211554,-0.7173264320671559
1684201250065839600,7.386839599609375,-5.295355063584447,1.9982821879178285,-0.5956295591562986
1684201250075865600,7.396865478515625,-4.013336646938324,1.6232319007068872,0.22286182992458342
1684201250085892400,7.406892333984375,-2.669908945083618,1.4338842178493738,1.4045482332497834
1684201250095918300,7.41691845703125,-1.6230568364009261,1.268299103373289,2.363479189634323
1684201250105945600,7.426945556640625,-1.131297693824768,1.096804472592473,2.925436780813336
1684201250115971600,7.4369716796875,-1.4644099967554212,0.9678671270340681,3.201446848079562
1684201250125998800,7.446998779296875,-2.090925984823704,0.6814543236970901,2.811305959242582
1684201250136025600,7.457025634765625,-2.1973288424909114,0.17830138818621635,1.8815853152513502
1684201250146051600,7.467051513671875,-1.9024074462667107,-0.2629834124326706,0.6121838035941124
1684201250156078600,7.47707861328125,-1.656858568237722,-0.4395955323576927,-0.778796507552266
1684201250166104800,7.487104736328125,-1.9940902891859411,-0.32494623987078664,-1.7893658812373876
1684201250176130800,7.497130859375,-2.1023945965602993,-0.1698638147085905,-2.4340309817194936
1684201250186157800,7.50715771484375,-1.8132991300106047,0.06801438256204127,-2.802218397423625
1684201250196183800,7.517183837890625,-1.6086919187009334,0.33394261627495286,-3.014382307723164
1684201250206210600,7.52721044921875,-1.4509917122557758,0.6632207478702068,-3.0274872884899375
1684201250216236500,7.537236572265625,-1.6459551891684532,1.0931541333913803,-2.9022108035266396
1684201250226262800,7.5472626953125,-1.7186840330317616,1.5165654236674309,-2.762868383809924
1684201250236289800,7.557289794921875,-1.3402730372160672,1.8115975867897272,-2.7577111471772193
1684201250246315800,7.567315673828125,-1.2379191626787185,1.7084844183176755,-2.7908587990194555
1684201250256342500,7.577342529296875,-1.7924588788166642,1.3329209208875894,-2.6460247961491343
1684201250266368500,7.587368408203125,-1.2721525639310478,0.7187018120735883,-2.7202427095264197
1684201250276395800,7.597395751953125,-1.547427302660048,0.04844985039234161,-2.5351982768207786
1684201250286421800,7.607421875,-1.31272159794569,-0.5592682059645653,-2.361815640336275
1684201250296447700,7.61744775390625,-1.0974471544101834,-1.06447105974257,-2.0871979042112825
1684201250306474800,7.627474853515625,-0.5311465655907989,-1.4852771359562873,-1.6388877350002526
1684201250316500700,7.637500732421875,-0.8243278401494025,-1.6968185304433105,-1.1134762059301138
1684201250326527500,7.647527587890625,-0.9540934532254933,-1.8175398363202808,-1.1236731902956962
1684201250336553500,7.657553466796875,-1.5371932011544704,-1.5319225672751664,-1.100032786989212
1684201250346579700,7.667579833984375,-1.2859563406169414,-1.1494266402333975,-1.333382108658552
1684201250356606700,7.677606689453125,-1.3664929356217383,-0.8662474119901656,-1.4287310728698968
1684201250366632700,7.6876328125,-1.477918297626078,-0.6705944915086031,-1.4304098197370767
1684201250376659700,7.69765966796875,-1.6006567885443568,-0.6531494357109069,-1.3889099346131086
1684201250386685700,7.707685791015625,-1.6781459786772728,-0.8202963926762342,-1.3303455174416303
1684201250396712700,7.717712646484375,-1.5753566353321073,-0.9610884266793728,-1.1525409728616476
1684201250406738700,7.72773876953125,-1.2930147346958518,-0.962014893874526,-1.0634405476510524
1684201250416764700,7.7377646484375,-0.9057166680693626,-0.7694844893276691,-1.1289730502694844
1684201250426791700,7.747791748046875,-0.6677239045083523,-0.5134627326011657,-1.3014561075657605
1684201250436817700,7.757817626953125,-0.4168342499732971,-0.19477146147191524,-1.4957956073611973
1684201250446844700,7.7678447265625,-0.04963263043612241,0.07864332860410213,-1.688570926579833
1684201250456871000,7.777870849609375,0.3697193014465272,0.2588175249248743,-1.9664374353677032
1684201250466897000,7.78789697265625,0.8298223459124565,0.32379122461676596,-2.131505832493305
1684201250476923600,7.797923583984375,1.0607970474049448,0.2528741063505411,-2.4392536848038433
1684201250486949600,7.80794970703125,1.0414335907652974,0.09088438601791858,-2.742130131685734
1684201250496976600,7.8179765625,0.7161364916302263,-0.08786357689201832,-2.7545921383738516
1684201250507002600,7.828002685546875,0.14621113644242287,-0.12970832993090153,-2.636524561876058
1684201250517028900,7.83802880859375,-0.3085669136084616,-0.11992284897565841,-2.3883441662997007
1684201250527055600,7.8480556640625,-0.5472011899434029,-0.12426643113791942,-2.125388810917735
1684201250537081600,7.85808154296875,-0.39730077052898705,0.08138882791996002,-1.735772238215804
1684201250547108600,7.868108642578125,0.03260689602904022,0.46184009739160536,-1.2071072603076696
1684201250557134600,7.878134521484375,0.48160625308062877,1.161141627946496,-0.4928863930404186
1684201250567160600,7.88816064453125,1.0196797318577766,2.1461621343553063,0.36969431313574314
1684201250577187800,7.898187744140625,1.73814831969738,3.4580870289653536,1.2217799287825821
1684201250587213800,7.9082138671875,3.073409081709385,4.9470992597967385,2.584993696603179
1684201250597240600,7.918240478515625,4.751821602368355,5.817995374375581,4.391153476253152
1684201250607266600,7.9282666015625,4.764298806625605,4.931285020071268,5.199229854303598
1684201250617293600,7.93829345703125,3.4813474930435415,2.928387447312474,4.603364732825756
1684201250627319600,7.948319580078125,2.3728502445697783,1.176363746997714,3.648470484611392
1684201250637345800,7.958345703125,1.6808599138110876,0.1791390080541372,2.984104658359289
1684201250647372800,7.968372802734375,1.9419465527117252,-0.49628129617571826,2.6443308517128226
1684201250657398800,7.978398681640625,2.604428464913368,-1.023047162464261,2.432629882749915
1684201250667425500,7.988425537109375,2.2984254104435444,-1.2579530659258364,2.11439512321651
1684201250677451500,7.998451416015625,1.3456331029444932,-1.2742512897759675,1.3333850312680005
1684201250687477500,8.0084775390625,0.39188744024336336,-1.340862819802761,0.3355529740810394
1684201250697504800,8.0185048828125,-0.49456221729815003,-1.4794284099280834,-0.39931262180805205
1684201250707530800,8.02853076171875,-1.0603162781506776,-1.3697364475876093,-0.6543167259246111
1684201250717557800,8.038557861328124,-1.6409458365738392,-0.9553303015440702,-0.36736616244912146
1684201250727583700,8.048583740234376,-2.0119822119683026,-0.4563830010294914,-0.09900456410944461
1684201250737610500,8.058610595703126,-1.786724426817894,-0.11514555157124995,-0.20549451553821563
1684201250747636700,8.06863671875,-1.5338672716021537,-0.10850655194818973,-0.5058060803681612
1684201250757662700,8.078662841796875,-1.1859212644159793,-0.20010697728097437,-0.8655255274564028
1684201250767689700,8.088689697265625,-0.6334533861160278,-0.18522329640388488,-0.9175608351200818
1684201250777715700,8.0987158203125,0.007892251087166369,0.057610477447509766,-0.4901157592833042
1684201250787742700,8.10874267578125,0.7425766086578369,0.49578620613515373,0.12632219462394714
1684201250797768700,8.118768798828125,1.2272644976735114,0.8067062587410211,0.23122341555655002
1684201250807794700,8.128794677734374,1.243145957416296,0.702756639444828,-0.16951836227178574
1684201250817821700,8.13882177734375,1.0560971991509198,0.29215105472803116,-0.7121545823872089
1684201250827847700,8.14884765625,0.8509493050932884,-0.06299801570475101,-1.08757837908566
1684201250837874700,8.158874755859374,0.5934878344198689,-0.2822679586172104,-1.24787532402575
1684201250847900700,8.168900634765626,0.26038638167679307,-0.3796785315334797,-1.2906839536607264
1684201250857926700,8.1789267578125,-0.16048044828083366,-0.23998422963917254,-1.28618255058825
1684201250867953700,8.18895361328125,-0.4830705169469118,0.15495149225890636,-1.0650397995412348
1684201250877979600,8.198979736328125,-0.8242752331793308,0.6356511884212493,-0.6735311294823885
1684201250888006700,8.209006591796875,-1.591015976756811,1.0084119033902883,-0.1543172860085964
1684201250898032600,8.21903271484375,-2.3431401659607887,1.0388245773106812,0.5158090034663677
1684201250908059600,8.2290595703125,-2.5465210503458975,1.0982055715620518,1.3996429255515337
1684201250918085600,8.239085693359375,-2.8524679907143113,1.068223105752468,2.1183914993762967
1684201250928111900,8.24911181640625,-2.5832407154560086,0.7922124539643526,1.7919447918146847
1684201250938138600,8.259138671875,-1.610535500741005,0.32169512912034987,1.0868202541947365
1684201250948164600,8.26916455078125,-1.037954224216938,0.031387656432390214,0.3513824113756418
1684201250958191600,8.279191650390626,-0.8250485556393862,-0.12836977480351924,-0.07948328655958176
1684201250968217600,8.289217529296875,-0.5959674128085375,-0.18039806820452212,-0.21228198372125626
1684201250978244900,8.299244873046876,-0.25338092336151746,-0.31122751111984254,-0.44619010831713674
1684201250988270800,8.309270751953125,0.056614470413792875,-0.2958434795051813,-0.6781921070307493
1684201250998296800,8.319296875,0.28011227842066433,-0.09443068032264709,-0.9040496116399764
1684201251008323600,8.329323486328125,0.4682412331381812,0.18094225808382033,-1.0588426984667778
1684201251018349600,8.339349609375,0.6278045665740967,0.4539607423186302,-1.1877110704421996
1684201251028376600,8.34937646484375,0.7064326976090669,0.5743693289846181,-1.1774655707597732
1684201251038402800,8.35940283203125,0.6304699863910674,0.5647042595386504,-1.1659387990951537
1684201251048428800,8.3694287109375,0.3194966692280024,0.3875298295557499,-1.058538162562251
1684201251058455800,8.379455810546874,-0.03987257618308067,0.13531097224354743,-1.044524834778905
1684201251068481800,8.389481689453126,-0.434898898974061,0.15712240655720233,-0.9640782561451197
1684201251078508500,8.399508544921876,-0.8023585849255322,0.3776946642398834,-0.595201689133048
1684201251088534500,8.409534423828125,-0.9519956041634082,0.5989718553215265,-0.2683160056322813
1684201251098560800,8.419560791015625,-1.018839116315171,0.7526344768136739,-0.12044950319826603
1684201251108587800,8.429587890625,-0.9497270016442984,0.6897440131366253,-0.16629004787504673
1684201251118613800,8.43961376953125,-0.7022294007003307,0.496927192863822,-0.1632148782134056
1684201251128640500,8.449640625,-0.5006855955492705,0.27275486486256123,-0.09621931730508804
1684201251138666500,8.45966650390625,-0.3805834444839507,0.2780412808328867,-0.07497720731198787
1684201251148693200,8.469693359375,-0.3161084150291979,0.49006607492268084,0.04093406793475151
1684201251158719200,8.47971923828125,-0.22215572748184204,0.6565612899810075,0.21877836000323295
1684201251168745500,8.489745361328126,-0.06328611193113029,0.5428039778977632,0.33685704241693015
1684201251178772500,8.4997724609375,0.11075403861403464,0.09428279628455638,0.3595645487874746
1684201251188798500,8.509798583984375,0.21590243924073874,-0.5167459920555353,0.2707107918143272
1684201251198825500,8.519825439453125,0.25532376452498134,-0.9438263262331485,0.15043372257351875
1684201251208851500,8.5298515625,0.32633097222745416,-1.1598866594493389,0.07614742013514042
1684201251218877400,8.53987744140625,0.4156606761492789,-1.26087450633049,0.0770715492427349
1684201251228904400,8.549904541015625,0.48414720626771446,-1.2453665560752152,0.10772972235679626
1684201251238930400,8.559930419921875,0.49378312268443403,-1.2165712542235851,0.1164811840891838
1684201251248957400,8.56995751953125,0.42082711900174613,-1.1720505599737168,0.15672084001898764
1684201251258983400,8.5799833984375,0.35973062606938183,-1.1444833386123179,0.1950210523188114
1684201251269009400,8.590009521484374,0.3545032468099147,-1.1360393353939056,0.2317681899577379
1684201251279036200,8.6000361328125,0.3578874824207276,-1.240700902351737,0.22792671209871768
1684201251289062400,8.6100625,0.3137502345304936,-1.354876147586107,0.2624246095061302
1684201251299089400,8.62008935546875,0.2436322307527065,-1.3212468497067689,0.33166122733950615
1684201251309115400,8.630115478515625,0.17170447413921355,-1.0830904200166462,0.4501204335033893
1684201251319142400,8.640142333984375,0.12229418121688067,-0.703131317976117,0.6554840161383152
1684201251329168400,8.65016845703125,0.04423902776427567,-0.2852700630426407,0.8549176242023706
1684201251339194400,8.6601943359375,-0.012125175949186086,0.01267068100273609,0.9477361931532621
1684201251349221400,8.670221435546875,0.029075287836790083,0.031200609427690505,0.8841215068548918
1684201251359247400,8.680247314453124,0.10054127215743064,-0.3581155190229416,0.6659913816273212
1684201251369274400,8.6902744140625,0.17975509412586688,-0.9356944577038288,0.4271434625416994
1684201251379300400,8.70030029296875,0.21608020696043967,-1.1647574803560972,0.39629181268215175
1684201251389326300,8.710326416015626,0.21788813316524028,-0.9107394646674394,0.4773486321687698
1684201251399353600,8.720353515625,0.27380064758844674,-0.23003157542347907,0.63225570076406
1684201251409379600,8.730379638671875,0.48095462077148254,0.5191138902306557,0.6684083796411753
1684201251419406300,8.74040625,0.8136854501038789,1.0317039316505192,0.511681109881401
1684201251429432300,8.750432373046875,1.182881750589609,1.1463923871040345,0.20521862120628356
1684201251439459300,8.760459228515625,1.5635848028652368,0.8607891465842723,-0.27552257601022717
1684201251449485300,8.7704853515625,1.8928024364449083,0.34665304476618763,-0.755198774343729
1684201251459511600,8.780511474609375,2.163258376715332,-0.21733517545759676,-1.0056547136366367
1684201251469538600,8.79053857421875,2.3311251723878086,-0.6691226653903722,-0.9926286433249711
1684201251479564500,8.800564453125,2.3270979626983403,-0.7627274162828922,-0.6598609160482883
1684201251489591300,8.81059130859375,2.1195995599918067,-0.5081716404557228,-0.12062252167761325
1684201251499617300,8.8206171875,1.8237679170548915,-0.05349018264710903,0.43200668466389175
1684201251509643300,8.830643310546876,1.5062660018406808,0.3457657405376434,0.88623221539855
1684201251519670500,8.84067041015625,1.2171370714128016,0.6456102723777294,1.1845809557229279
1684201251529696500,8.850696533203125,0.9538415242910384,0.7876601974874734,1.3714531883776186
1684201251539723500,8.8607236328125,0.7185498363822698,0.7119967614769935,1.5190782832711933
1684201251549749200,8.870749267578125,0.4928291829604655,0.5465858345240354,1.6240046386450528
1684201251559776300,8.8807763671875,0.18128208449743688,0.4473889627128839,1.8468366579532622
1684201251569802200,8.89080224609375,-0.11608948135785757,0.54724868234694,2.2467168505162
1684201251579828500,8.900828369140624,-0.2963127775173634,0.7827782706648111,2.6190187158018348
1684201251589855500,8.91085546875,-0.36342648491263385,0.9372814346343278,2.7077450470030304
1684201251599881500,8.920881591796874,-0.3075227383177727,0.867330531051755,2.369150805529952
1684201251609908200,8.930908203125,-0.07968838067762553,0.6150754333823919,1.7335113075464963
1684201251619934200,8.940934326171876,0.3865869957476854,0.29719138698279857,1.0884218441724776
1684201251629960200,8.950960205078125,1.4669476985394954,0.06624854193329811,0.4445283125847578
1684201251639987500,8.960987548828125,5.508161363440752,-0.13091712119877338,-0.12575462386906147
1684201251650013400,8.971013427734375,15.431289040398596,0.1091957032561302,0.4644891505956649
1684201251660040400,8.98104052734375,20.352874504232407,1.1831102986484765,1.1114327174037695
1684201251670066400,8.99106640625,11.3745598264575,2.298120290017128,0.3117722855210304
1684201251680092400,9.001092529296875,2.207299616885185,3.4191683925062417,0.07086977199316025
1684201251690119400,9.011119384765625,-5.3186044217467305,4.2470109627783295,-0.19356851542294023
1684201251700145400,9.0211455078125,-12.613777796775102,4.904423901152611,0.11285539480745792
1684201251710172400,9.03117236328125,-12.046703885495662,5.133291693493724,0.8932821339100598
1684201251720198400,9.041198486328126,-9.202727828794718,4.801733926528692,1.2229039643764494
1684201251730225400,9.051225341796876,-9.208642021274565,4.005325774440169,2.034619575712085
1684201251740251400,9.06125146484375,-8.389349252682925,3.0546687254041434,2.9500743784636256
1684201251750277600,9.071277587890625,-4.653447737377881,2.147451005122065,4.456518221089244
1684201251760304400,9.081304443359375,0.037969519040733576,1.1515502082586289,7.197073650804161
1684201251770330400,9.091330322265625,0.3510800674282014,-0.24065584529042242,8.561770935180784
1684201251780357400,9.101357421875,-2.6511592364281413,-1.5311170961111784,7.185054127186536
1684201251790383400,9.11138330078125,-4.381834443765879,-2.523992992195487,5.349236875897645
1684201251800409300,9.121409423828124,-5.01244588445425,-2.934271829175949,4.089363655564188
1684201251810436600,9.1314365234375,-3.935250367695093,-2.2345243084192274,2.271899807089567
1684201251820462600,9.141462646484374,-2.7054177730992435,-0.6611398499429225,0.1810433803707361
1684201251830489300,9.1514892578125,-2.7083827603846786,0.7322633044362068,-1.5867355229586362
1684201251840515300,9.161515380859376,-3.1342256617218256,1.8642928196668624,-2.9508769270181654
1684201251850542300,9.171542236328126,-2.98585588594079,2.4135025729537007,-4.062341793125867
1684201251860568300,9.181568359375,-2.8308468182757496,2.8229619102448225,-4.954972769650817
1684201251870594600,9.191594482421875,-2.5117297229498625,3.1849668379217384,-5.544108875134587
1684201251880621300,9.201621337890625,-2.101418445004523,2.914589808106422,-5.717879049631953
1684201251890647300,9.211647216796875,-1.909797848778963,2.194090591222048,-5.368182399386167
1684201251900674300,9.22167431640625,-1.8772858644917607,1.5331412954151629,-4.51424794100225
1684201251910700300,9.2317001953125,-1.9081459899187088,1.1103396614700556,-3.3244390214979647
1684201251920726300,9.241726318359374,-1.977842626479268,0.6603770488768815,-2.4827093801707028
1684201251930753500,9.25175341796875,-1.9617413865059612,0.41976153559684753,-2.100671133768558
1684201251940779500,9.261779541015626,-1.8814917917490004,0.5656663825690746,-2.1194798791348934
1684201251950806300,9.27180615234375,-1.7336086304411291,0.8281804239243269,-2.281304764294624
1684201251960832300,9.281832275390625,-1.772313331888616,0.7105594221502542,-2.5648972495138644
1684201251970859300,9.291859375,-2.0211513145908713,0.5552934571146965,-2.7835703955769535
1684201251980885500,9.301885498046875,-2.1616355978190898,0.3816986391842365,-2.9817256542682644
1684201251990911500,9.311911376953125,-2.1620371643573044,0.17292554036676883,-3.1119425182431932
1684201252000938500,9.3219384765625,-2.126670082899928,-0.09702361942529678,-3.1179683544039722
1684201252010964500,9.331964599609375,-1.8465151709139347,-0.42506548722386356,-3.4286171888530252
1684201252020991200,9.3419912109375,-1.979576902925968,-0.7129927867770195,-3.4422774654150006
1684201252031017200,9.352017333984374,-1.6023910649910569,-1.0057336240917443,-3.664498074826598
1684201252041043500,9.36204345703125,-1.5364286465227603,-1.2026917819529772,-3.501757243865728
1684201252051070500,9.372070556640624,-1.4908569819152355,-1.2508487868785858,-3.109407446807623
1684201252061096400,9.382096435546876,-1.4209203991189598,-1.173240062019229,-2.8679303482621905
1684201252071123500,9.39212353515625,-1.3289555243879556,-1.0832114160478115,-2.7033061877727507
1684201252081149400,9.4021494140625,-1.2754434221699833,-1.0414783066898583,-2.5084973168998954
1684201252091175400,9.412175537109375,-1.2772414115026594,-1.030227429357171,-2.3454151251554487
1684201252101202400,9.422202392578125,-1.1926935350298882,-0.9003858284354209,-2.1682757664859293
1684201252111228400,9.432228515625,-1.0492968714863062,-0.728299661502242,-1.9788170244693755
1684201252121255400,9.44225537109375,-0.9865469853237271,-0.5219190107792615,-1.7175298945605755
1684201252131281200,9.45228125,-0.7026479183733463,-0.2607815184742212,-1.4428420158088207
1684201252141308200,9.46230810546875,-0.4404644241467118,0.06455868915021419,-1.048144778841734
1684201252151334100,9.472334228515624,-0.5092468684718012,0.31921967891752717,-0.5507727648198604
1684201252161360400,9.4823603515625,-0.5902428976818919,0.5069026434332132,-0.05544599289000034
1684201252171387100,9.49238720703125,-0.5878232693195342,0.5945592995762825,0.317698168438673
1684201252181413000,9.5024130859375,-0.43284313548803327,0.5760141735821962,0.5602677383959292
1684201252191440100,9.512440185546875,-0.07307911860570311,0.6230173322975635,0.7593892117708921
1684201252201466000,9.522466064453125,0.25855259037837386,0.8107464740425347,0.9151309776246547
1684201252211492000,9.5324921875,0.4285828476950526,1.0080985996574163,0.8241390395790338
1684201252221519000,9.54251904296875,0.569616727630049,1.0841869830816984,0.5069716170161962
1684201252231545000,9.552545166015625,0.8427613955277949,1.272924425086379,0.08917933566570281
1684201252241572000,9.562572021484375,1.2841221109271048,1.5617320146054028,-0.3317676103234291
1684201252251598000,9.57259814453125,1.844489218044281,1.7931319557726382,-0.53245910949409
1684201252261625000,9.582625,2.276789917218685,2.066872909063101,-0.350430809739232
1684201252271651300,9.5926513671875,2.475055066025257,2.1229075154960153,0.16651041262745855
1684201252281677300,9.60267724609375,2.4022294837892053,1.9058558331549167,0.8419353930324316
1684201252291704000,9.6127041015625,2.0263877539396287,1.6994050398051739,1.6118179417669771
1684201252301730000,9.62272998046875,1.2240320916235445,2.0130255835413933,2.487442253911495
1684201252311757000,9.632757080078125,0.21653262690305708,2.7568092299014326,3.323339535823464
1684201252321783000,9.642782958984375,-0.3118547031074762,3.21538184992969,4.0359763487696645
1684201252331809000,9.65280908203125,0.11977202406181021,2.3635177680790425,4.2457273527085775
1684201252341836300,9.662836181640625,1.3299609020382166,0.4216705840885639,3.636179158315062
1684201252351862300,9.6728623046875,2.135733679321408,-1.1723334685683249,3.0703970404118297
1684201252361889000,9.682888916015624,2.2777087856292724,-1.977467363426089,2.844287022346258
1684201252371915000,9.6929150390625,2.225131626173854,-2.0879373244017363,2.750945306304097
1684201252381941000,9.70294091796875,1.7745733857750892,-1.7756804702341555,2.5599066016197205
1684201252391968300,9.71296826171875,0.8568728499233722,-1.434616623777151,2.1498323473006486
1684201252401994200,9.722994140625,-0.1463525542071089,-1.30902917316854,1.5871692382007836
1684201252412021200,9.733021240234375,-0.9586860417127608,-1.2747563166886566,0.9961725995421409
1684201252422047200,9.743047119140625,-1.402477272194624,-1.2012661330640315,0.6034709203064441
1684201252432074000,9.753073974609375,-1.357614048117399,-0.8904442801356315,0.48166941797733304
1684201252442100000,9.763099853515625,-0.8668670051932335,-0.4016740902423858,0.6337170054882765
1684201252452126200,9.773126220703125,-0.3707031979173422,-0.02132686566710472,0.7905950818955898
1684201252462153200,9.7831533203125,-0.0613209858706221,0.10618775361180305,0.7874176209032535
1684201252472179200,9.79317919921875,0.2698919131794944,0.08299860120415688,0.6945178034096956
1684201252482206200,9.803206298828124,0.48423904926963146,-0.19553426253795622,0.4044330335617065
1684201252492232200,9.813232177734376,0.5490495942890644,-0.6222124456554651,-0.01756196017563343
1684201252502258200,9.823258056640626,0.35002043884005396,-0.9645891282767057,-0.45769642171561714
1684201252512285200,9.83328515625,-0.09200608352422714,-1.1745692647963761,-0.7330857267349958
1684201252522311200,9.843311279296875,-0.43317572844326496,-1.2351508670091629,-0.9549562075346708
1684201252532338200,9.853338134765625,-0.6307248379349708,-1.0706845274299384,-1.089721236333251
1684201252542364200,9.8633642578125,-0.7600561512470245,-0.5826157638043165,-1.006288335365057
1684201252552391200,9.87339111328125,-0.7572440164357424,0.22264380325973032,-0.7065279746770858
1684201252562417200,9.883417236328125,-0.8049076848864555,0.9192541950345039,-0.47695934059023853
1684201252572443100,9.893443115234374,-0.7619651997387409,1.5676619891762733,-0.26082243500649926
1684201252582470100,9.90347021484375,-0.9639595982015132,1.9501222603827715,0.03483165940642357
1684201252592496000,9.91349609375,-1.175005902647972,1.9941040254503488,-0.11640636528730391
1684201252602523100,9.923523193359374,-1.3578408426105975,1.4454735333561897,-0.4315688777685165
1684201252612549000,9.933549072265626,-1.5491700546741485,0.7457493934750556,-0.5111375045239925
1684201252622575000,9.9435751953125,-1.8249650178849697,0.5096171630889177,-0.18017302727699278
1684201252632602000,9.95360205078125,-1.699837586003542,0.4437999983102083,-0.21276655236780642
1684201252642628000,9.963628173828125,-1.3348328919887542,0.42591362848579883,-0.5696387933313847
1684201252652655000,9.973655029296875,-0.9649860186398028,0.15071780021190642,-1.119014550834894
1684201252662681000,9.98368115234375,-0.970700304633379,-0.10329846191108226,-1.4581097275674342
1684201252672708000,9.9937080078125,-1.1438614073216915,-0.031493454894423484,-1.3947101453244686
1684201252682734300,10.003734375,-1.0289970107793807,0.14602876561284064,-1.2275649419248102
1684201252692760300,10.01376025390625,-0.6503484068155289,0.4798118074119091,-1.0710948617964982
1684201252702787000,10.023787109375,-0.26434827104508873,0.5046119021475315,-0.9288567206382751
1684201252712813000,10.03381298828125,0.07568973949551581,0.22066402761936185,-0.6531237167477607
1684201252722840000,10.043840087890626,0.30535653672721236,-0.08754033628702163,-0.24110884975492952
1684201252732866000,10.053865966796875,0.47003681131806224,-0.3715378951758146,0.21677228087782857
1684201252742892300,10.063892333984375,0.5285405478108673,-0.5151163450270891,0.5380325257122517
1684201252752919300,10.073919189453125,0.4744908315848559,-0.5820113681703806,0.6935743850797415
1684201252762945300,10.0839453125,0.29599720876216884,-0.5850041202455759,0.7634604067325591
1684201252772972000,10.093971923828125,0.11811959894597529,-0.5339215832620858,0.7742395749002695
1684201252782998000,10.103998046875,0.02532737001273781,-0.35250586244761944,0.5308697944760322
1684201252793025300,10.114025390625,0.14465572369396687,-0.10280103378295898,0.23069442324638365
1684201252803051300,10.12405126953125,0.33200719123296435,0.06095861883163452,0.059172904458642005
1684201252813077200,10.1340771484375,0.44651868268437683,0.1765431463420391,-0.06747019268274307
1684201252823104300,10.144104248046874,0.47856736030876634,0.19451836349368093,-0.1425537829786539
1684201252833130200,10.154130126953126,0.47457975197732444,0.11624036107063293,-0.28304946438372136
1684201252843157000,10.164156982421876,0.43211365216970443,0.03894026376903057,-0.4171475537061691
1684201252853183200,10.174183349609375,0.28949199158661065,-0.06082125618755817,-0.48117140532732006
1684201252863209200,10.184209228515625,0.13229067457430063,-0.13374562262296677,-0.5159627327233552
1684201252873236200,10.194236328125,0.031438436771556735,-0.13504501478374004,-0.5198240843266249
1684201252883262200,10.20426220703125,-0.025832944914698598,-0.09822364286482334,-0.5419640199422836
1684201252893289200,10.214289306640625,0.0563928452860564,-0.13090484623908996,-0.6553408082753419
1684201252903315000,10.22431494140625,0.13814130029864607,-0.18176994107961653,-0.6955348714977503
1684201252913342200,10.23434228515625,0.20091076794452964,-0.24234511355161664,-0.585615530142188
1684201252923368200,10.2443681640625,0.2530484400041401,-0.24735621971189975,-0.3963841671407223
1684201252933394200,10.254394287109376,0.2975422462470829,-0.13820786272883415,-0.13630232136845588
1684201252943421200,10.264421142578126,0.36973230705857274,0.0404243648469448,0.05688683934807777
1684201252953447200,10.274447265625,0.46161103787608443,0.1589882004290819,0.05464636694490909
1684201252963474000,10.284473876953125,0.6073668317664415,0.11240531295239925,-0.16818857497274875
1684201252973500200,10.294500244140625,0.732121265617013,0.022121230915188788,-0.3653209203571081
1684201252983526100,10.304526123046875,0.7882393125496804,0.010315057787299155,-0.3460357896506786
1684201252993553200,10.31455322265625,0.7844751377105712,0.026981530427932738,-0.1403577342391014
1684201253003579100,10.3245791015625,0.7302005266875028,-0.11666823109388351,0.06515548599958419
1684201253013606100,10.334606201171875,0.6361001012325287,-0.36744858003556724,0.2775561276644468
1684201253023632100,10.344632080078124,0.5665770676732063,-0.5991974807709455,0.4731839137047529
1684201253033659100,10.3546591796875,0.495597405564785,-0.7215384968042373,0.6245353356450796
1684201253043685000,10.36468505859375,0.43749826781749723,-0.6711977180987596,0.7344353877782821
1684201253053711000,10.374711181640626,0.4090384815305471,-0.4941670805007219,0.7831926966845989
1684201253063738000,10.384738037109376,0.46644971007890995,-0.29820670150518414,0.7120271566152572
1684201253073764000,10.39476416015625,0.6174864400468766,-0.19754151070713996,0.46180268799066543
1684201253083791400,10.404791259765625,0.7953992673069238,-0.22256956897974012,0.16357377465367315
1684201253093817300,10.4148173828125,0.9073043756522238,-0.3833528361320495,-0.11060381648838519
1684201253103843300,10.42484326171875,0.9871810454435646,-0.514389199796319,-0.23578970055878162
1684201253113870000,10.4348701171875,0.9818424608945846,-0.5343687425076962,-0.1305763449370861
1684201253123896000,10.44489599609375,0.9077987350404262,-0.4085685259312391,0.1370300511211157
1684201253133923000,10.454923095703125,0.7882626934252679,-0.2148585562109947,0.4500234028697014
1684201253143949000,10.464948974609374,0.7492758140355348,-0.13128361642360686,0.5733294645428657
1684201253153976000,10.47497607421875,0.6909970819376409,-0.034195699590444564,0.7540209627360105
1684201253164002300,10.485002197265626,0.5664719998635351,0.17157997097671032,1.135648874771595
1684201253174028000,10.495028076171875,0.3890186068087816,0.5585141727268695,1.621592901328206
1684201253184055000,10.505054931640625,0.2072339065514505,0.9711731828421354,2.0511200441360473
1684201253194081000,10.5150810546875,0.040219197663664816,1.085810200369358,2.239588606071472
1684201253204108000,10.52510791015625,-0.0667636518485844,0.8572299927979707,2.2449527634531257
1684201253214134000,10.535134033203125,-0.1864461161971092,0.8270411907613276,2.456919689875841
1684201253224160000,10.545159912109375,-0.37055516774877906,1.2009516602873802,2.961682983192801
1684201253234187000,10.55518701171875,-0.46359643953964114,1.5045540833562612,3.2651708399713035
1684201253244213000,10.565212890625,-0.347990576980263,1.4014081816583872,2.9880875905156135
1684201253254240000,10.575239990234374,0.06183306357860565,0.8700380364447832,2.090458951833844
1684201253264266000,10.585265869140626,0.640582799604535,0.3498398581087589,1.0566478187710047
1684201253274293200,10.595293212890626,1.3846378102518617,0.07710720507800578,0.22500118004083633
1684201253284319200,10.6053193359375,3.114875064563751,0.030054946523904797,-0.13314181151092053
1684201253294345200,10.61534521484375,9.965216760146618,-0.0077712185233831405,0.49439095238447184
1684201253304372000,10.6253720703125,17.890847262084485,0.33490590834915634,1.792003828525543
1684201253314398000,10.63539794921875,15.956528720033168,0.6131324826210737,1.9870593676358461
1684201253324425000,10.645425048828125,7.301527127969265,0.9017319823473692,0.6743477065622806
1684201253334451000,10.655450927734375,0.7276572719454765,1.533006855380535,0.3531044128626585
1684201253344477200,10.665477294921875,-3.157900551819801,1.7687801893264055,0.36557401833534237
1684201253354504200,10.675504150390625,-6.075590664029121,1.76692550137043,-0.3160743666291237
1684201253364530200,10.6855302734375,-8.052303409695625,2.034080062007904,-0.13581249202489853
1684201253374557000,10.695556884765624,-10.247620327842235,2.522325351244211,0.4804676409721374
1684201253384583000,10.7055830078125,-9.156496238973736,3.1553713256031273,1.2932096727460622
1684201253394610200,10.715610107421876,-7.620503061258792,3.644340837460756,2.1156044990062712
1684201253404636200,10.72563623046875,-6.511435903942584,3.5203175674289464,3.265012434539199
1684201253414662100,10.735662109375,-5.686642784368992,2.846118329426646,4.433203980997204
1684201253424689200,10.745689208984375,-1.4327113746777176,1.8104793964147567,5.635671306544542
1684201253434715100,10.755715087890625,4.694826918731629,0.6875070478647947,7.2080807825088495
1684201253444742000,10.765741943359375,1.4760696010194718,0.16102233660519122,6.219634393304586
1684201253454768000,10.77576806640625,-3.04685103739053,0.17674013021886348,3.420397057518363
1684201253464794000,10.785794189453124,-4.211371786381304,0.27429624908566475,1.8287591494709252
1684201253474821000,10.795821044921874,-4.950213007903098,0.6583259615659713,0.5661340000808238
1684201253484847000,10.80584716796875,-5.056500130236149,1.5262468597263097,-0.6828115835249423
1684201253494874000,10.8158740234375,-3.157397862994671,2.495505148857832,-2.247934409612417
1684201253504900000,10.825900146484376,-1.4225415705800055,3.1524697589427233,-3.277854380455613
1684201253514927000,10.835927001953126,-1.0890694944262505,3.103838122242689,-3.3820477453798055
1684201253524953000,10.845953125,-1.959852504019439,2.9070138198941944,-3.3494512976795434
1684201253534979000,10.85597900390625,-2.4430527848258614,2.1523937222212552,-3.7378555719822644
1684201253545006000,10.866006103515625,-2.7885581208616492,1.333716455179453,-3.917866686695814
1684201253555032000,10.876031982421875,-2.6662396089211104,0.4845423430651426,-3.9990199522942302
1684201253565059000,10.88605908203125,-2.3686487012267112,-0.14640753579735755,-3.9841567296832796
1684201253575085000,10.8960849609375,-2.173535878971219,-0.2098521262258291,-3.8262808744102714
1684201253585111000,10.906111083984374,-2.3580805454611777,-0.046536125725507735,-3.423281673043966
1684201253595138000,10.916137939453124,-2.322628123807907,-0.062035308152437206,-3.242272194942832
1684201253605164000,10.9261640625,-2.3196277729481456,-0.13257599432170392,-3.1078765839785336
1684201253615191000,10.93619091796875,-2.1204718127816915,-0.193678990060091,-3.143885470470786
1684201253625217000,10.946217041015625,-2.137477600379288,-0.12154606626331806,-3.1614170355081557
1684201253635244000,10.956244140625,-2.210171957451105,-0.07547580448389053,-3.108401484635472
1684201253645270000,10.96627001953125,-1.932963035789132,-0.16022504874765872,-3.334728944844007
1684201253655296000,10.9762958984375,-2.082600055027008,-0.2810889779657125,-3.36187881757617
1684201253665323000,10.986322998046875,-1.931493255497515,-0.36934009287059305,-3.3508781156122684
1684201253675349000,10.996348876953125,-1.6812427756488322,-0.4778939910918474,-3.2620173443764444
1684201253685376300,11.006376220703125,-1.88843065110147,-0.46963469679057596,-2.7326041784495114
1684201253695402200,11.01640234375,-1.9924042357951401,-0.39137364550232884,-2.252086268594861
1684201253705428200,11.02642822265625,-1.9723665331557392,-0.24316870489418504,-2.115330358240008
1684201253715455000,11.036455078125,-2.0002140327632425,0.022494740402698516,-2.1240900032788512
1684201253725481000,11.04648095703125,-1.9896485073462127,0.202424022051692,-2.24873052842617
1684201253735508000,11.056508056640626,-1.7720476666897533,0.15796236451268195,-2.347216621619463
1684201253745534200,11.0665341796875,-1.2078814595505594,0.046669981238245964,-2.286644371756911
1684201253755561200,11.076561279296875,-0.6758794461742043,0.07329261522591114,-2.0297546000242233
1684201253765587200,11.086587158203125,-0.24001287121176718,0.20326222644150255,-1.6258032124996185
1684201253775613200,11.09661328125,-0.03663666300177574,0.31773616236150265,-1.213921031975746
1684201253785640000,11.106639892578125,-0.10686784483045339,0.22074001546502112,-0.9623632689207792
1684201253795666000,11.116666015625,-0.3233569248527288,-0.04109656502008438,-0.9024339931368828
1684201253805693200,11.126693115234374,-0.4021612892374396,-0.38230595742762086,-0.9105302058309316
1684201253815719200,11.13671923828125,-0.25489713661074637,-0.6983446682214737,-0.7541630015552043
1684201253825745200,11.1467451171875,0.15907880132198332,-0.9716086516499519,-0.41840427576899525
1684201253835772200,11.156772216796876,0.684040394667536,-1.1371265461087225,-0.00033610008656978605
1684201253845798000,11.1667978515625,0.9757399062357842,-1.1305436605870722,0.3539531386464834
1684201253855825200,11.1768251953125,1.0410638806700705,-0.9344687153011559,0.5918816047996283
1684201253865851100,11.18685107421875,0.8921686197102069,-0.6764169140517712,0.6169114166378975
1684201253875877000,11.196877197265625,0.6590191314619034,-0.5132745165526866,0.4600175581395626
1684201253885904100,11.206904052734375,0.4951508308410644,-0.32619594767093657,0.1526572438418865
1684201253895930000,11.21693017578125,0.5890834254484624,-0.25814415570795535,-0.2562327691286802
1684201253905956900,11.226956787109375,1.0118821367841213,-0.23352175562679767,-0.3854927707701921
1684201253915982800,11.23698291015625,1.266118836724758,-0.28841771341860295,-0.015219780963659285
1684201253926010000,11.247010009765624,1.1127683499217034,-0.3510720302522182,0.6480927368432283
1684201253936036000,11.2570361328125,0.676551354086399,-0.051496963003277774,1.5373948612064123
1684201253946062000,11.26706201171875,0.24166005389690398,0.3357645710051059,2.386879354444146
1684201253956089000,11.277089111328126,-0.1236006607055664,0.7035778926998376,2.9546529384255407
1684201253966115000,11.287114990234375,-0.4376163412392139,1.3149772679179905,3.217832750213146
1684201253976142000,11.29714208984375,-0.5637526579022407,2.3307833732128143,3.3823961204260584
1684201253986168000,11.30716796875,-0.2998381203656085,3.2575784851461647,3.576255143228173
1684201253996195000,11.317195068359375,0.9167454270839691,3.4736990241169927,3.5766257301062345
1684201254006221000,11.327220947265625,3.5967636782497165,3.0161335353046654,3.516336973360181
1684201254016247000,11.3372470703125,6.470344599619508,2.4490748215943574,3.886223594197631
1684201254026274000,11.347274169921874,5.338282935684919,2.0619664323210714,4.303213326993585
1684201254036300300,11.35730029296875,2.3560960936456916,1.4885270776629447,3.777770818263292
1684201254046327000,11.3673271484375,0.02927521258937195,0.5446925681233405,2.382415945294499
1684201254056353000,11.37735302734375,-1.3156716799229382,-0.2361860063999891,1.0111153171300888
1684201254066379000,11.38737890625,-1.5960317590922117,-0.7374988670021295,0.007901566904783249
1684201254076406000,11.397406005859375,-1.7762877884775399,-1.19953419470489,-0.6960019044876098
1684201254086432000,11.407431884765625,-2.166601695793867,-1.4069845204859972,-1.0418886410564183
1684201254096459300,11.417459228515625,-2.281754846149683,-1.3887193804770708,-1.1421943508923054
1684201254106485200,11.4274853515625,-2.177764894843101,-1.2146440855532883,-1.0564601872444153
1684201254116512000,11.437511962890625,-1.9657693268477916,-0.8138105377882718,-0.631854718747735
1684201254126538000,11.4475380859375,-1.624470502591133,-0.3206219469308853,-0.08404606443047523
1684201254136563700,11.457563720703124,-1.220862813937664,-0.08461597327291966,0.39451077448427674
1684201254146590700,11.4675908203125,-0.8994991087287664,-0.14654197583198547,0.4231728053450584
1684201254156617000,11.477616943359376,-0.847005535903573,-0.4468324978739023,-0.04841945525407791
1684201254166644000,11.48764404296875,-0.8176490930378436,-0.8584826232075691,-0.5805921490222216
1684201254176670000,11.497669921875,-0.5892717145621776,-0.9936930576860904,-1.0967851833701132
1684201254186696000,11.507696044921875,-0.2891670704811811,-0.6826333043485879,-1.3983137227743863
1684201254196722700,11.51772265625,0.3947995282977819,-0.10836042147576808,-1.4606155729085206
1684201254206748700,11.527748779296875,1.3348936822652815,0.4950122991532087,-1.4485691612839697
1684201254216776000,11.53777587890625,1.001027053835988,1.630304031050205,-1.4264420851498842
1684201254226802000,11.547802001953125,0.9861772752285003,2.042974147081375,-1.7158096466392279
1684201254236829000,11.557828857421875,0.39341362689733506,2.1124206082731485,-2.0530583187222478
1684201254246854700,11.567854736328124,-0.48739831701815123,2.050507465195656,-1.7470330524206161
1684201254256880600,11.577880615234376,-1.4986369682669638,1.8816104496926067,-0.7334662504851818
1684201254266908000,11.587907958984376,-1.6526012030541897,2.0649369725644586,-0.6523989096045494
1684201254276934000,11.597933837890626,-1.846253305107355,1.6178361791431903,-0.9276678031146526
1684201254286961000,11.6079609375,-2.200086616766453,0.9821534265398979,-1.0870932259172201
1684201254296987000,11.61798681640625,-2.02815651717782,0.4156570228874683,-0.991140450593829
1684201254307012900,11.628012939453125,-1.3921961166769266,0.38650691624879835,-0.6877484554052352
1684201254317039600,11.63803955078125,-0.6767711343169212,0.09323708662390709,-0.200829446336627
1684201254327065600,11.648065673828125,-0.2772650357633829,-0.49422202555835243,0.6474807424247264
1684201254337092900,11.6580927734375,0.15625848320424557,-0.751209412446618,1.028120227944851
1684201254347118800,11.668118896484375,0.49335053995344785,-0.836341518548131,0.733473264747858
1684201254357145900,11.678145751953124,0.6151408998340367,-0.858743904492259,0.5125608153253793
1684201254367171800,11.688171875,0.4741501283884048,-0.6195622234076261,0.5814157403647899
1684201254377197800,11.69819775390625,-0.05067337166070938,-0.5361246462643147,0.7184639116644859
1684201254387224800,11.708224853515626,-0.624555209389329,-0.2511667179107666,0.6203612648308277
1684201254397250800,11.718250732421875,-1.1553092685312032,-0.21308745488524436,0.5077689048737287
1684201254407277800,11.72827783203125,-1.453095114275813,-0.5608025759249925,0.159694887393713
1684201254417303800,11.7383037109375,-1.5704659406811,-1.2910878582865,0.09443652554154396
1684201254427329800,11.748329833984375,-1.5675912620276211,-1.7500380794554948,-0.22921032216846943
1684201254437356800,11.758356689453125,-1.4269815988540648,-0.45030572694242,-0.8254694113999604
1684201254447383000,11.768383056640625,-1.2453215478897095,-0.08330605971813201,-0.4913450088173151
1684201254457409800,11.778409912109375,-0.7245090370476246,0.7919558488547801,-0.33102000682651994
1684201254467435800,11.788435791015624,-0.22958262607958166,1.6285405285090206,-0.00018178630769252776
1684201254477462800,11.798462890625,0.1297527901271358,0.9605833997666835,0.3951677770882845
1684201254487488800,11.80848876953125,0.5265782712945715,0.5617600227802991,0.39338498532474037
1684201254497514800,11.8185146484375,1.0262333912849426,0.37161855919659137,0.3521007887780666
1684201254507542000,11.8285419921875,1.5231997471153735,0.35775837614834305,0.6825690069407224
1684201254517568000,11.838568115234375,1.8910943173527717,0.4464449598610401,1.1090759251445532
1684201254527594800,11.8485947265625,1.841161534926295,0.09288578896820544,1.367137078744173
1684201254537620700,11.858620849609375,1.5112930362224577,0.07067278811633586,1.2734770905330777
1684201254547646700,11.868646728515625,0.8357926524937153,0.8131886064976453,0.2732496626421809
1684201254557674000,11.878674072265625,0.8787363066852092,0.9667004213422536,0.9879553908169268
1684201254567700000,11.888699951171875,0.7799825024664402,0.2099140855461359,2.005302880334854
1684201254577726700,11.898726806640624,0.4030658733943477,-0.7774912701725959,1.4633075884714721
1684201254587752700,11.908752685546874,0.3260012653490528,-1.6797674423992632,1.2960609705239534
1684201254597779700,11.91877978515625,0.3146972330570221,-2.7150959942877293,1.207893734510243
1684201254607805700,11.9288056640625,0.5590104318112135,-3.4276287623375654,1.1129241250053048
1684201254617831700,11.938831787109375,0.7189005495160817,-3.3855238970577717,0.8173834278389811
1684201254627859000,11.94885888671875,0.7688695722997189,-2.689260711285472,0.7496268194302916
1684201254637885000,11.958885009765625,0.8214695281088352,-1.8015894029945134,1.4084388109475374
1684201254647911700,11.96891162109375,0.8341923046249896,-0.758507168239355,1.6619988537356256
1684201254657937700,11.978937744140625,0.7593500488042831,0.0991097780495882,1.0607315809533
1684201254667963600,11.988963623046875,0.6649134501975029,0.4034562974840402,0.5186559173300862
1684201254677991000,11.998990966796875,-0.14761281993389128,-0.41901042496860025,-0.4365224085226655
1684201254688017000,12.009016845703124,-1.106026401380822,-1.4431576576292513,-1.4131781144291162
1684201254698044000,12.0190439453125,-1.5344678678438066,-0.49459085887074467,-1.6188593847110866
1684201254708070000,12.02906982421875,-2.0006524241805077,0.7066442945331335,-2.280536994792521
1684201254718096600,12.0390966796875,-2.5845488754451273,2.086940130057931,-3.4018498856976627
1684201254728122600,12.04912255859375,-3.2197710247993467,4.081106699350476,-3.072993194384873
1684201254738148900,12.05914892578125,-3.130253835481405,4.9836248636394735,-2.5961855372250078
1684201254748176000,12.06917578125,-2.897499557095766,4.331407740342617,-2.66112124299407
1684201254758201900,12.079201904296875,-2.8893162506401535,2.1467659454673527,-2.5424673910409212
1684201254768228900,12.089228759765625,-2.513214993071556,-1.0840151336461306,-2.9686691888183354
1684201254778254800,12.0992548828125,-1.8198083657741546,0.033220132556557654,-3.4194133071780204
1684201254788280800,12.10928076171875,-0.9431903664171695,1.27877899633348,-3.24483064725399
1684201254798307800,12.119307861328124,-0.5541464790366589,0.9025064738512039,-2.5156957039713856
1684201254808333800,12.129333740234374,0.025252514678239822,2.033753314271569,-2.0422703827261923
1684201254818360800,12.13936083984375,0.6818402542747557,3.106960638177395,-2.821601143285632
1684201254828386800,12.14938671875,0.733541215417534,2.0021821179658175,-3.944975058373809
1684201254838413800,12.159413818359376,0.08015899386405945,1.193285071182251,-3.8775872832775113
1684201254848439800,12.169439697265625,0.08292370933704078,-1.3655080162376165,-2.4196628491491077
1684201254858465800,12.1794658203125,-0.9537948356050997,-3.1991578603595494,-0.5220090271502733
1684201254868492800,12.189492919921875,-2.8737212066233155,-1.157626313301921,0.20817747101187706
1684201254878518800,12.199518798828125,-3.5071780998706816,-0.555122776722908,2.5877584851413964
1684201254888545800,12.2095458984375,-4.045622128993273,-0.4985036484003067,4.6856408649742605
1684201254898571800,12.21957177734375,-4.043132065743207,-0.3115419838964939,4.290042295253277
1684201254908597800,12.22959765625,-3.2814287318110464,0.4053957411140203,2.7958038542062043
1684201254918624800,12.239624755859374,-3.1360195594012734,0.9902554844528436,1.12152098069787
1684201254928650800,12.249650634765626,-2.677997558993101,0.8705489085763692,-0.45084699421226976
1684201254938677800,12.259677734375,-1.3818331280946732,0.8037351339757443,-1.0145236642688513
1684201254948703700,12.269703857421876,0.33477555996775626,1.0291156687229872,-0.32278526244461536
1684201254958731000,12.27973095703125,1.8605331748723983,1.7460118926793335,0.4337959061682224
1684201254968757000,12.289757080078125,2.1730928113788366,2.5314076523661613,0.20514497144818306
1684201254978783000,12.299782958984375,1.5687211428403853,3.442078727972507,-0.6028615562364459
1684201254988809700,12.309809814453125,0.44554355404190715,3.928008141481876,-1.4424667527556418
1684201254998835700,12.319835693359375,-1.2237105315189807,3.1189176179528233,-2.091242211166024
1684201255008862700,12.32986279296875,-3.4908255154848096,1.0700427223950624,-3.0544089054241774
1684201255018888700,12.339888671875,-4.171987578237056,0.29013211612105366,-1.9775377983137965
1684201255028915000,12.3499150390625,-3.98682331854403,0.3517781326949596,-0.4592649862065911
1684201255038942000,12.35994189453125,1.3024667459130286,0.18006664429306982,2.4425302222564813
1684201255048968000,12.369968017578126,25.950150905930993,-2.6706220617890355,10.76226145657301
1684201255058994700,12.37999462890625,11.413358051407336,-3.0255700566917656,8.330458672297
1684201255069020700,12.390020751953125,-1.8747645293205975,-2.0250416000276803,3.0574545567303892
1684201255079048000,12.4000478515625,-3.788567522087693,-1.5931109032094477,1.064849245405197
1684201255089074000,12.410073974609375,-1.4611755448788404,-1.16628132892251,0.01291734924018383
1684201255099100000,12.420099853515625,-0.9052215780287981,-0.9395996484488248,-0.12294950332045554
1684201255109127000,12.430126953125,-1.2005208676546812,-0.7333779876798391,-0.43489977575689553
1684201255119153000,12.44015283203125,-1.7597925807505845,-0.8101531843245029,-0.5410732085824013
1684201255129180200,12.45018017578125,-1.2728712335944175,-1.089281091350317,-0.007333996149897575
1684201255139206100,12.4602060546875,0.013429682676494121,-0.5780126539230346,0.378973013612628
1684201255149232000,12.470232177734376,0.38024814811497926,-0.6798176624059676,1.4472770756468176
1684201255159259100,12.480259033203126,0.44298546705693004,-0.42846857366561886,2.019111917717755
1684201255169285400,12.490285400390626,-0.13551467812210322,0.9879612360358238,0.9262789791047572
1684201255179312000,12.50031201171875,-0.6700871265083551,1.037038278415799,0.7547533686637878
1684201255189338000,12.510338134765625,0.41171617630720136,0.6385112540274858,0.573819293886423
1684201255199365000,12.520365234375,0.2980985649555921,0.47846273089051244,1.5876213658824563
1684201255209391000,12.53039111328125,0.14231383674293754,1.4378069442510604,1.9634087351962923
1684201255219417000,12.5404169921875,1.1124869026318192,2.339375260469317,1.1066671104371546
1684201255229444400,12.5504443359375,1.5124018742471932,2.5634751077562568,-0.053798810204863545
1684201255239470300,12.56047021484375,0.7040282668158412,1.9704782351911068,0.18515782995223998
1684201255249497000,12.5704970703125,0.00023556232154369353,1.1985463527113198,0.8277294652864337
1684201255259523000,12.580523193359374,-0.21286241395771502,0.9804495452314614,0.5152396791458129
1684201255269549000,12.590549072265626,0.020608488264679908,0.9092956955999135,-0.05419131665378809
1684201255279576300,12.600576416015626,-0.06079071491882205,0.5580921479225158,0.4807043723374605
1684201255289602300,12.610602294921875,-0.3939578167766332,0.28720073884427544,0.9908148719012737
