time,seconds_elapsed,z,y,x
1684200806996586200,0.032586181640625,6.4837909411698575,3.20888284329921,0.8939800530463456
1684200807006612200,0.0426123046875,6.610383769428729,3.72582465018779,0.22880963241308927
1684200807016638200,0.05263818359375,7.164306522712111,4.2746182238891715,-0.6237789643198252
1684200807026664200,0.062664306640625,7.34855249851644,4.96830103777945,-1.15655517693907
1684200807036690400,0.0726904296875,7.326329560792446,4.562501099778712,-0.8727879196748137
1684200807046716400,0.08271630859375,6.869346255782246,4.301059071569145,-0.8465238898664712
1684200807056742400,0.092742431640625,5.549694566312432,4.70499847639501,-0.3837280991852283
1684200807066768400,0.102768310546875,4.661811661097407,5.547558138805628,-1.7104308762103317
1684200807076794400,0.11279443359375,5.153821271303296,6.915727483206987,-3.880720905128121
1684200807086820400,0.1228203125,5.514709177649021,7.592799646297097,-4.591390217393636
1684200807096846300,0.132846435546875,4.947221424871683,7.234425184077024,-5.660288445928693
1684200807106872300,0.142872314453125,4.768009351581335,6.936350584518909,-6.056835110154748
1684200807116898300,0.152898193359375,4.889231592717766,7.257561144992708,-5.582222040429711
1684200807126924300,0.16292431640625,4.645360584773123,7.717479334411024,-4.382181065246463
1684200807136950300,0.1729501953125,3.8321982817605136,8.674396612885594,-2.2544190954566
1684200807146976500,0.1829765625,1.458259365171194,9.46718306734562,0.42153731309771536
1684200807157002500,0.19300244140625,-0.3824491652905941,9.210750391730665,1.8219278421461582
1684200807167028500,0.203028564453125,-0.6411461325757205,8.67102742871344,2.333622980552912
1684200807177054500,0.213054443359375,-1.45257415914163,8.222683357232809,3.6303754404723643
1684200807187080400,0.22308056640625,-3.057915744501352,8.237310433000326,4.618570485264063
1684200807197106400,0.2331064453125,-4.407258223357797,8.50347598260045,4.999053318917751
1684200807207132400,0.24313232421875,-5.359845363673568,8.61282015441656,6.452104594051837
1684200807217158400,0.253158447265625,-5.932786121159792,8.247761684387921,8.06322344763875
1684200807227184400,0.263184326171875,-5.313187072873116,7.352402744203806,9.465176403698324
1684200807237211400,0.27321142578125,-3.5606127529382703,6.872186447644233,10.746122807198763
1684200807247237400,0.2832373046875,-2.1393770042598246,6.345493646591901,11.253905156075954
1684200807257263400,0.293263427734375,-1.2918155880391597,5.45766101025939,12.26620120742321
1684200807267289300,0.303289306640625,-1.9239187285900115,4.2929701653987165,13.208266953724621
1684200807277315300,0.3133154296875,-2.440041035789251,3.2142420322448015,14.243265835267305
1684200807287341300,0.32334130859375,-2.6784125695347782,2.5135738895118234,14.95339329574108
1684200807297367300,0.3333671875,-2.6347265725433826,1.284421970656514,15.585761809229849
1684200807307393300,0.343393310546875,-1.9548446127295493,0.44405368081033225,16.307138977992533
1684200807317419300,0.353419189453125,-0.653328299409151,-0.09297989699244498,16.518142027819156
1684200807327445200,0.3634453125,0.8461351828098297,-0.9333592927545309,16.178623657238482
1684200807337471200,0.37347119140625,4.115279602587223,-1.6918565241217611,15.80596289551258
1684200807347497500,0.38349755859375,6.240333482462168,-2.089224441602826,15.017099167454242
1684200807357523500,0.3935234375,7.231386254772543,-2.5285703831136224,13.518284504532813
1684200807367549400,0.403549560546875,6.712856886431575,-2.5252163965106007,11.345296322572231
1684200807377575400,0.413575439453125,4.648670439973473,-1.792106704378128,8.97854673296511
1684200807387601400,0.423601318359375,2.38104378015846,-0.07373626734018325,6.528312804463505
1684200807397627400,0.43362744140625,1.8420155214071272,0.0634603725194931,4.634000109586119
1684200807407653400,0.4436533203125,2.734460619971156,-0.06018295828402042,3.846809867697954
1684200807417679400,0.453679443359375,-0.49028103284761304,2.594849320185184,5.066673149204254
1684200807427705300,0.463705322265625,-2.434520080410689,1.6892127316147088,5.113831790742278
1684200807437731300,0.4737314453125,-0.9806377612799405,-0.12312661345303058,5.386951397264004
1684200807447757300,0.48375732421875,1.0439235078848899,-0.757000270807743,4.994195357492566
1684200807457783600,0.493783447265625,0.8841074783295393,-0.05340834958255291,3.783972595512867
1684200807467809500,0.5038095703125,-1.2834569250166414,0.6021189211755991,3.1909879979074
1684200807477835500,0.51383544921875,-3.5807132916808126,0.07270049455165863,3.25301804536283
1684200807487862300,0.5238623046875,-1.4961688245877622,-0.5653460645735263,1.5327169325232506
1684200807497888300,0.53388818359375,-0.6213219265565276,0.3053016282021999,1.289459380301833
1684200807507914200,0.543914306640625,-2.495090722838044,0.8411416123062372,2.780376567971706
1684200807517940200,0.553940185546875,0.9344809902608394,0.13227262746095655,-0.9021627749800681
1684200807527966200,0.56396630859375,8.82134775404036,-1.0903694711089134,-5.583243200170993
1684200807537992400,0.573992431640625,9.259095612704753,-1.9223422730535267,-3.659100599697232
1684200807548018400,0.584018310546875,5.1079316267877815,-2.782467402771115,-0.9955325480729341
1684200807558044400,0.59404443359375,0.933821357308328,-4.769542552497983,0.18136720549762247
1684200807568071200,0.6040712890625,-1.7484575322657823,-6.209024736484885,1.2307459100484848
1684200807578097200,0.61409716796875,-3.5021167248278853,-6.29585078702271,2.4660230337858198
1684200807588123100,0.624123046875,2.721722718951106,-7.249802785950899,-0.551983894175291
1684200807598149000,0.634149169921875,7.33361270353794,-7.826873190587759,-2.9675054057359693
1684200807608175000,0.644175048828125,6.143299341642856,-6.051007426914572,-3.7222336399585005
1684200807618201000,0.654201171875,1.7439394703194497,-3.8321366147011515,-1.4277432308763265
1684200807628227000,0.66422705078125,0.8690446414932608,-3.401819782820344,-1.8039058632433413
1684200807638253000,0.674253173828125,1.6721750875741241,-2.099936389753222,-1.8130460320323705
1684200807648279000,0.684279052734375,2.0991861559078098,-1.25067284578979,-0.8918202446639537
1684200807658305000,0.694304931640625,1.9746359393924473,-1.7997627720892428,-0.13062544477581978
1684200807668331000,0.7043310546875,2.5515733652994035,-3.2350387365579603,1.7505010207921265
1684200807678357200,0.714357177734375,2.769632763378322,-4.726423541739583,1.9802385817050934
1684200807688383000,0.724383056640625,3.088983082938194,-4.705647880214452,1.4965695143431423
1684200807698409000,0.734408935546875,2.2690394492223858,-4.889117026427388,2.6615415142327548
1684200807708435000,0.74443505859375,1.6129612665832043,-3.7265386436760424,2.728218510711193
1684200807718461000,0.7544609375,-0.5929419275075197,-3.452049502366781,1.8984242218494414
1684200807728487000,0.76448681640625,-1.073546784993261,1.2756523887455462,-0.6230564952641725
1684200807738514000,0.774513916015625,-0.3495347376823425,3.261474323540926,-1.448585527896881
1684200807748540000,0.784539794921875,-1.3539770067892969,1.2703186265021562,-0.8591776197344064
1684200807758566100,0.794566162109375,-3.2233634963333606,0.9047720806956291,-4.776743277657031
1684200807768592100,0.804592041015625,-0.10985270586013793,-3.0150527543306347,-2.6128625312596556
1684200807778618000,0.8146181640625,-0.03989223073162138,-5.468902535241842,-0.9291203400105238
1684200807788644000,0.82464404296875,-0.19498137789554892,-4.0622266423135995,0.12429624175429344
1684200807798670000,0.834670166015625,-0.35273441050648685,-1.0579872506812213,1.6636872452139853
1684200807808696000,0.844696044921875,-1.6717361116349696,1.9822993136271834,0.7162135023891926
1684200807818722000,0.85472216796875,-0.266593437889684,0.8128589361518621,-1.861982789158821
1684200807828748000,0.864748046875,-0.06482588871903718,3.382933003781736,-0.8611047884047031
1684200807838774000,0.87477392578125,-6.373053853690624,6.343769891539216,-7.6913991367369885
1684200807848800000,0.884800048828125,-13.984936386120319,9.804767254993319,-14.344875613439083
1684200807858826000,0.894825927734375,-6.630926206719875,10.940042620277405,-5.855924415275454
1684200807868852200,0.904852294921875,-3.6598365127563475,8.974400719201565,1.019275827232003
1684200807878878200,0.914878173828125,-1.831730274236202,9.93490345494747,2.2562983333319426
1684200807888904200,0.924904296875,1.2495488101959227,8.786516679155826,1.5064000034838914
1684200807898930200,0.93493017578125,5.293713141596317,6.383184787082672,2.6720973950386044
1684200807908956200,0.9449560546875,9.708070383304356,4.956870712226629,3.5542829653948544
1684200807918982100,0.954982177734375,11.672156287109852,3.0120132405042646,3.0239176133096217
1684200807929008000,0.965008056640625,8.687485811561345,1.5235937148690222,1.3896598761975765
1684200807939034000,0.9750341796875,4.906128366982936,0.12861585851907728,-1.6962860310018062
1684200807949059800,0.985059814453125,3.4370892491221428,-0.7155740354418754,-4.7380970283985135
1684200807959085800,0.9950859375,2.0542975051283836,-0.017934300619363783,-5.4866597257286305
1684200807969111800,1.00511181640625,0.8793008817654102,-0.677657269501686,-5.007470434129238
1684200807979138000,1.015137939453125,-0.9926607920289039,-2.3310306259721516,-1.7472528326511383
1684200807989165000,1.0251650390625,-3.8754444260299206,-2.680047477260232,2.6961966480284927
1684200807999191000,1.03519091796875,-6.119878718566894,-1.6582839248657226,5.6333671212553975
1684200808009217000,1.045217041015625,-8.335236554223298,-0.6432651705563068,7.16807727342248
1684200808019243000,1.055242919921875,-8.274302485311031,0.8130255248904228,6.072362934154271
1684200808029269000,1.06526904296875,-4.185187251549959,2.296644956767559,2.035667038938403
1684200808039295000,1.075294921875,-1.2026572951614856,0.27786943139731884,1.3905132781565188
1684200808049321000,1.085321044921875,1.3073556869983671,-0.3804232124209404,0.23851474160850047
1684200808059347000,1.095346923828125,2.7482664424836636,-0.548272764697671,-0.2480418638885021
1684200808069373200,1.105373291015625,3.0995325340032576,-1.3883873720437288,0.5859305874407291
1684200808079399200,1.115399169921875,2.41400759986639,-2.328717672854662,2.2267454911112785
1684200808089425200,1.125425048828125,0.6639981619834899,-2.384898409759998,4.047145977559685
1684200808099451100,1.135451171875,-0.10752981587052345,-1.4862024341076612,4.747505492734909
1684200808109477000,1.14547705078125,-0.2577438312787562,-0.961947673857212,4.840377837699651
1684200808119503000,1.155503173828125,-0.29605339592881497,-1.1080150179147719,4.175302401873469
1684200808129529000,1.165529052734375,-0.2980781797546893,-1.742059355661273,3.360863795314729
1684200808139555000,1.17555517578125,-0.44238720890283584,-3.8946372022777793,3.589793254715204
1684200808149581000,1.1855810546875,0.35636904068179426,-4.397131381618976,3.1465456295907495
1684200808159607000,1.19560693359375,-0.09399930316805839,-3.780021812060475,2.499979079401493
1684200808169633000,1.205633056640625,-0.30308278310894965,-4.002207350158691,2.4885692121148106
1684200808179659000,1.215658935546875,-0.626647140167281,-3.136856010225415,1.9562936424940824
1684200808189685000,1.22568505859375,-0.9771090026319026,-1.3212024260431527,0.5239806194841862
1684200808199711000,1.2357109375,-1.637089161145687,0.025566987454891204,-1.2871820830196141
1684200808209737000,1.245737060546875,-1.1256325076699256,0.4596013785541057,-2.563596103787422
1684200808219764000,1.255763916015625,-0.4144095801096409,1.2880834157735108,-4.170094311836362
1684200808229790000,1.2657900390625,0.3495698089957237,1.7863877422094343,-5.664364317065477
1684200808239816000,1.27581591796875,1.622374407094717,2.566188458368182,-5.107348858463764
1684200808249842000,1.285842041015625,1.710702678889036,3.281914469501376,-3.2550051275268195
1684200808259868000,1.295867919921875,1.145704989361763,3.0095933198809623,-1.8126213768795132
1684200808269894100,1.30589404296875,0.7296458154141903,2.224154305574298,-1.0435673879235983
1684200808279920000,1.315920166015625,-0.1263596770901233,2.5688077009558676,0.1560980319455266
1684200808289946000,1.325946044921875,-1.1579214968562126,1.6084195315003393,1.2622595309481024
1684200808299972000,1.33597216796875,-1.5897884807884692,-0.18289689928293226,1.9656559296011924
1684200808309998000,1.345998046875,-1.5679168407201767,-1.8932190544217824,1.2490274166703224
1684200808320024000,1.356024169921875,-1.7627321413338184,-2.4388000958174465,-0.4955997436523437
1684200808330050000,1.366050048828125,-1.6275509329497813,-1.2240396904081106,-2.7593317341163752
1684200808340076000,1.376075927734375,-1.3188438802182674,-0.9870400295376777,-5.429675271224975
1684200808350102000,1.38610205078125,-0.9122270728766918,-2.728815307560563,-7.161615383931994
1684200808360128000,1.3961279296875,-0.9421347198843956,-1.3653905273377895,-5.238512647899985
1684200808370154200,1.406154296875,-1.0114601850450038,1.622020186829567,-2.146403249634802
1684200808380180200,1.41618017578125,-0.49319038095567375,4.4953924338847395,-0.4028153692319989
1684200808390206200,1.426206298828125,0.22762213966157285,6.364633815869689,-0.0026467151165008545
1684200808400232200,1.436232177734375,1.2069605453133583,7.300548638325929,-0.865875656068325
1684200808410258200,1.446258056640625,2.087806976020336,4.756349308925866,-1.7831275713697075
1684200808420284200,1.4562841796875,1.8195804022371769,0.754006934210658,0.53079000723809
1684200808430310000,1.466309814453125,2.2550340124845505,-1.7451333562791347,4.540214156907797
1684200808440336000,1.4763359375,2.3182629143357274,-2.0055553937911985,6.786895351588726
1684200808450363000,1.48636279296875,1.702573148447275,-0.5552724143266677,6.894343918916583
1684200808460389000,1.49638916015625,1.0084639258384704,-0.3286421717792749,4.7539065919488666
1684200808470415000,1.5064150390625,0.9293407047629356,-4.270070351326465,0.6394380134835839
1684200808480441000,1.516441162109375,0.5345382173230872,-8.138735492479801,-1.07001904925853
1684200808490467000,1.526467041015625,-0.36875147932767866,-3.297245309624076,0.555855767172575
1684200808500493000,1.5364931640625,0.23201076654195785,-1.3749948065072297,-0.9099585434228181
1684200808510519000,1.54651904296875,1.0409364548981188,2.7153321411311624,-0.15817892987281082
1684200808520545000,1.556544921875,1.0894037678819148,4.952022687673568,0.3703039694666862
1684200808530571000,1.566571044921875,0.7242762512050569,3.226260971340537,0.5943558859586715
1684200808540597000,1.576596923828125,0.41242827009931204,1.4204542429119347,1.5057842096731067
1684200808550623000,1.586623046875,0.36446474191918965,1.7914415184676646,2.1911726579487323
1684200808560649000,1.59664892578125,0.2264449491083622,2.6860183683633805,2.0305045416086913
1684200808570674400,1.60667431640625,-0.23790976145267484,3.408929322564602,1.1177619204252958
1684200808580700700,1.61670068359375,-0.27332506596595046,3.4105314970642326,0.7287257779598235
1684200808590726700,1.6267265625,-0.33018706313371654,1.8706763832241295,0.6007692601323127
1684200808600752600,1.636752685546875,0.17545009040832518,0.8298071483433246,0.1697308359786868
1684200808610778600,1.646778564453125,0.3592741875387728,-0.2337520572513342,-1.0951087745904922
1684200808620804600,1.6568046875,0.2649508400481194,-0.7889619277358054,-1.9383841840550302
1684200808630830600,1.66683056640625,-0.265048089877516,-0.4985024793565273,-2.6308769113779067
1684200808640856600,1.676856689453125,-0.6987574137408286,0.7131067685455084,-2.8830232879757878
1684200808650882600,1.686882568359375,-1.0333294139605016,1.3454197524547575,-3.553855095371604
1684200808660908500,1.696908447265625,-1.3951894532740114,0.5265384872734546,-4.577365783694386
1684200808670934500,1.7069345703125,-1.3420914848148822,0.22918168059587476,-3.6822219475656746
1684200808680960500,1.71696044921875,-1.3639303916573524,-0.8824602956444024,-2.1363053417295217
1684200808690987500,1.726987548828125,-1.1339327915687114,-2.468639353764057,-1.7429928371191024
1684200808701013500,1.737013427734375,-0.9957026439428329,-3.2067344330936667,-1.7207517792165279
1684200808711039500,1.74703955078125,-0.7053063239276409,-2.9558295809894797,-1.3420938229024408
1684200808721065500,1.7570654296875,-0.5597218680161983,-2.0727631361454724,-1.0937070910990239
1684200808731091500,1.767091552734375,-0.6617817280430346,-1.8600684799700975,-1.1447773531228302
1684200808741117400,1.777117431640625,-0.38105570163819935,-1.7538883251428603,-0.8023597539693117
1684200808751143400,1.787143310546875,-0.18735570532269774,-1.8458084839493034,-0.22632190725058315
1684200808761169400,1.79716943359375,-0.013266345340944825,-1.8566063568174838,0.793050950615108
1684200808771195400,1.8071953125,0.5726583968808874,-1.2279554025471209,1.9074238131240009
1684200808781221600,1.8172216796875,1.3901041128337381,-0.5811322472482919,2.8689398175656793
1684200808791247600,1.82724755859375,1.9494038829803466,-0.4500257409572601,3.218961461982131
1684200808801273600,1.837273681640625,1.6204676966905593,-0.3613292203724384,2.849995463120937
1684200808811299600,1.847299560546875,1.8282558761239052,0.6651093380957841,2.0255974803447723
1684200808821325600,1.85732568359375,1.3800059126675128,1.6743565232664346,1.8951216731727123
1684200808831351600,1.8673515625,0.22107790564987806,1.888111502149701,2.428373978871107
1684200808841377500,1.87737744140625,-0.9678016605824231,1.4489841718256473,3.0073212832957505
1684200808851403500,1.887403564453125,-1.4055331526339054,0.6801403184890746,3.2342128071278333
1684200808861429500,1.897429443359375,-0.7086597260087728,0.42026539346575736,2.9434219348371027
1684200808871455500,1.90745556640625,0.11834639343917369,0.2655576468348503,2.3378081572830673
1684200808881481500,1.9174814453125,0.33419571425318717,-0.4329378280341625,1.2306015331417322
1684200808891507700,1.9275078125,0.3999333840548992,-0.9096312111645937,0.3617956688404083
1684200808901533700,1.93753369140625,0.8551934454690665,-1.0973784730881453,-0.08666004632115364
1684200808911559700,1.9475595703125,1.3253823420763016,-1.1250322036892175,-0.3545522735834121
1684200808921586400,1.95758642578125,1.5641677173197268,-0.8612631938368082,-0.5121949046224356
1684200808931612400,1.9676123046875,1.4917892943292856,-0.45744858443439,-0.3079273005306721
1684200808941638400,1.977638427734375,1.215740137161687,-0.34421792657375333,0.0976934815108776
1684200808951664400,1.987664306640625,0.8832481580864637,-0.32059388988018034,0.360035673430562
1684200808961690400,1.9976904296875,0.486105866054818,-0.35962884619534013,0.6315092663109302
1684200808971716600,2.007716552734375,0.28117482961826024,-0.2227151149302721,0.7193243278861046
1684200808981742600,2.01774267578125,0.16708792025446892,0.23542729698717593,0.4919993810728192
1684200808991768600,2.0277685546875,0.044462315126135944,0.15881342838406562,0.3911138255223632
1684200809001794600,2.037794677734375,-0.11507409377023577,-0.11589783124327659,0.3175941235423088
1684200809011820500,2.047820556640625,-0.25590017617344857,-0.4158902471214533,0.22611001806557177
1684200809021846500,2.057846435546875,-0.3341056978821754,-0.6062713646799326,0.14771452674269675
1684200809031872500,2.06787255859375,-0.308565671499446,-0.6694698713928461,0.13054858014732598
1684200809041898500,2.0778984375,-0.2759966963279992,-0.6662865651816129,0.2187853742659092
1684200809051924500,2.087924560546875,-0.17360007862746715,-0.4588187037438154,0.4616954282239079
1684200809061950500,2.097950439453125,0.008189736196398735,-0.16091829170882702,0.6955348714977503
1684200809071976400,2.1079765625,0.2290752976119518,0.028762568625807762,0.7799035920113324
1684200809082002700,2.118002685546875,0.41515893717221913,-0.08006722392737865,0.6908160262823104
1684200809092028700,2.128028564453125,0.5770423475861549,-0.3509440199583769,0.47992228204905985
1684200809102054700,2.1380546875,0.598188084532693,-0.7144634438514709,0.4112032583490014
1684200809112080600,2.14808056640625,0.6275567292928695,-0.5703174232453108,0.18827976136505603
1684200809122106600,2.158106689453125,0.6648107204753905,-0.3389057916402817,-0.0924345380693674
1684200809132132600,2.168132568359375,0.4822784897863865,-0.5158902520090342,-0.018446341794729232
1684200809142158600,2.17815869140625,0.360740606829524,-0.48649230808913707,0.08671908303201198
1684200809152185300,2.188185302734375,0.25314810098633167,-0.435007035523653,0.20985446431338786
1684200809162211300,2.19821142578125,0.1517605872631073,-0.40125907970070834,0.3166647337377071
1684200809172237600,2.208237548828125,0.1188952594935894,-0.23958441666662691,0.5586135414481163
1684200809182263600,2.218263671875,0.09951251363158226,-0.15823182910382746,0.7768614478364586
1684200809192289500,2.22828955078125,0.18766601338088512,-0.20458675304353235,0.9163654878556727
1684200809202315500,2.2383154296875,0.3108189303189516,-0.3835685247093439,1.0756932955026626
1684200809212341500,2.248341552734375,0.4616553884744644,-0.48846916112005706,1.298176355242729
1684200809222367500,2.258367431640625,0.5600964734822511,-0.5819347958028316,1.4857152351126075
1684200809232393500,2.2683935546875,0.5889414596945047,-0.6780933228313922,1.666136684192717
1684200809242419500,2.27841943359375,0.5418531069137156,-0.721703331977129,1.88245303799659
1684200809252445400,2.288445556640625,0.48788770797029135,-0.7324263860434294,2.0111480992317197
1684200809262471400,2.298471435546875,0.4934418349660933,-0.7054992161512375,2.0687731897264716
1684200809272497400,2.308497314453125,0.526594747505337,-0.5945791733205318,2.094202522276342
1684200809282523600,2.318523681640625,0.5474592563576997,-0.41467444159090516,2.011886058117449
1684200809292549600,2.328549560546875,0.5627155699394643,-0.20775427716374395,1.8102520173996686
1684200809302575600,2.33857568359375,0.661670595818758,0.022695231410861015,1.4800342668667434
1684200809312601600,2.3486015625,0.8336182310640812,0.212998607558012,1.152756661438942
1684200809322627600,2.358627685546875,1.0120311168007552,0.3828220902562141,0.8736614876389504
1684200809332653600,2.368653564453125,1.1759539971530437,0.5772030911058187,0.6878171367272734
1684200809342679600,2.378679443359375,1.2854296863943337,0.8432622577220201,0.5852633557036518
1684200809352705500,2.38870556640625,1.3179771803863345,1.1067354994982481,0.5524246236801147
1684200809362731500,2.3987314453125,1.2594454964406787,1.2593278614103793,0.6079226390182971
1684200809372758500,2.408758544921875,1.132829871828109,1.2926345032066107,0.673125471290946
1684200809382784500,2.418784423828125,1.0134357229016722,1.1634300311446188,0.6609501725897192
1684200809392810500,2.428810546875,0.9177093036800622,0.9222071996212005,0.6310021935716271
1684200809402836500,2.43883642578125,0.8194237014949322,0.6063561203539372,0.6500929707497358
1684200809412862500,2.448862548828125,0.8103326325446367,0.2618856803238392,0.7002446566238999
1684200809422888400,2.458888427734375,0.9619028118021785,-0.05691022022366524,0.7183142740607261
1684200809432914400,2.46891455078125,1.3601158018052577,-0.2620622059345245,0.7236421910852193
1684200809442940400,2.4789404296875,2.021278448101878,-0.44342590430080886,0.8208125255048274
1684200809452966400,2.48896630859375,3.3376696744710204,-0.5609492909193039,1.3412737386912106
1684200809462992400,2.498992431640625,4.521944340723753,-0.5515764824181795,1.7653414470493793
1684200809473018400,2.509018310546875,3.9840766501843925,-0.4984259069889784,1.8934961177974938
1684200809483044600,2.519044677734375,2.132300782263279,-0.48538522363007064,1.7681611806452273
1684200809493070600,2.529070556640625,0.5520481915831565,-0.4002636389225721,1.692631015625596
1684200809503096600,2.5390966796875,-0.8377483896713703,-0.15624854633212087,1.4020938258349895
1684200809513122600,2.54912255859375,-2.150499286776781,0.15631050565242766,1.166119416359067
1684200809523148500,2.5591484375,-3.316911548602581,0.7844716305792331,1.0782581775546074
1684200809533174500,2.569174560546875,-3.7348072903275487,1.5069102910935879,1.2339005746871232
1684200809543200500,2.579200439453125,-3.27010069758892,2.035263718834519,1.8899702817589044
1684200809553226500,2.5892265625,-3.305267872560024,2.309496255034208,2.7395436223238705
1684200809563252700,2.599252685546875,-3.749807291060686,2.2020207996994254,3.632184535720944
1684200809573278700,2.60927880859375,-3.5582068608403206,1.9550719917446373,4.049003588125109
1684200809583304700,2.6193046875,-2.7647359312474724,1.366010705062747,3.441901617839932
1684200809593331700,2.629331787109375,-2.4000866265416145,0.8422738312065601,1.9504262117654083
1684200809603357700,2.639357666015625,-2.334198150092363,0.4832376902073621,0.2807148839563131
1684200809613383700,2.6493837890625,-1.9546061277985571,0.14754910704791546,-0.6527227347314357
1684200809623409700,2.65940966796875,-1.3173019114732742,0.05990238777697086,-1.476467222034931
1684200809633435600,2.669435546875,-1.0112868743047119,0.1067997480303049,-1.7004203543275593
1684200809643461600,2.679461669921875,-0.8705357568338513,0.3677665599435568,-1.8920044179350137
1684200809653487600,2.689487548828125,-0.7262114570513367,0.7022469363570213,-2.2797435063272715
1684200809663513600,2.699513671875,-0.7775134820044041,1.139740527999401,-2.417230653566122
1684200809673539600,2.70953955078125,-1.16906979059726,1.4874685085207222,-2.3158938471168278
1684200809683565600,2.719565673828125,-1.6650673013955353,1.6192781946450472,-2.14458860142827
1684200809693591800,2.729591796875,-1.7389993835687636,1.3578589627891777,-1.8704314685523509
1684200809703617800,2.73961767578125,-1.5257953165665268,0.855612620729208,-1.4383639936119317
1684200809713643800,2.749643798828125,-1.3370105282887816,0.3438882562279701,-1.0045260018676518
1684200809723669800,2.759669677734375,-1.0541209306418895,-0.16557926925718783,-0.8168015362977981
1684200809733695700,2.76969580078125,-0.7475310161948203,-0.5929167930662632,-1.1003975286483765
1684200809743721700,2.7797216796875,-0.663707070082426,-0.7048141564965248,-1.5400164418816567
1684200809753747700,2.789747802734375,-0.5881883032396436,-0.622787030673027,-1.9819880557209253
1684200809763773700,2.799773681640625,-0.5878314526259899,-0.4384995538145304,-2.3160253645420075
1684200809773799700,2.809799560546875,-0.7909659610345959,-0.23144202674329278,-2.686557882067561
1684200809783825700,2.81982568359375,-0.9637924249410629,-0.14828852723836897,-3.0959014840245245
1684200809793852000,2.829851806640625,-0.953006827032566,-0.12767594732046125,-3.257534646004438
1684200809803878000,2.8398779296875,-0.8107903131842613,-0.14791910940408706,-3.1366262931227684
1684200809813904000,2.84990380859375,-0.745019617895782,-0.2765641940176487,-2.792811102131009
1684200809823930600,2.8599306640625,-0.6881678498610854,-0.44532793852984903,-2.285402847263217
1684200809833956600,2.86995654296875,-0.622331980381906,-0.7074298919528722,-1.620734823194146
1684200809843982600,2.879982666015625,-0.5642389801144599,-0.9448644371092318,-0.8747410995692014
1684200809854008600,2.890008544921875,-0.5522948598206043,-1.1652023015141486,-0.24522856003344057
1684200809864034600,2.90003466796875,-0.48444881956279273,-1.368058285242319,0.06565466769337654
1684200809874060500,2.910060546875,-0.45108460236042736,-1.521238676175475,0.12909633551239966
1684200809884086800,2.920086669921875,-0.29398879154920576,-1.5644740067899225,-0.04042085771560669
1684200809894112800,2.93011279296875,-0.17799772906452416,-1.4944184737890958,-0.37005613218545913
1684200809904138800,2.940138671875,-0.13821926090568304,-1.323195645686984,-0.7181266425341367
1684200809914164700,2.950164794921875,-0.0968508932068944,-1.0316635996401309,-0.9918798707842826
1684200809924190700,2.960190673828125,0.012465221558511257,-0.6886240691959857,-1.0904127257287501
1684200809934216700,2.970216796875,0.21292145066857338,-0.3130027040988207,-0.894725318455696
1684200809944242700,2.98024267578125,0.42207609614953395,-0.13013912256360052,-0.521942391654849
1684200809954268700,2.9902685546875,0.6210882639311254,-0.18910569079518316,-0.09228490046560764
1684200809964294700,3.000294677734375,0.7633456943117082,-0.3108095779687166,0.38971827951073645
1684200809974320600,3.010320556640625,0.803483789563179,-0.4282978932738304,0.9993278487026691
1684200809984346600,3.0203466796875,0.5771702117495239,-0.5795721583247184,1.5272130744099617
1684200809994372900,3.030372802734375,0.12028627546057104,-0.8119728009670972,1.7266326539486645
1684200810004398800,3.04039892578125,-0.4794225158333778,-1.0443015474170445,1.5501017825663088
1684200810014424800,3.0504248046875,-0.8152059376694262,-1.1568921538084744,1.2138953130125998
1684200810024450800,3.060450927734375,-1.0429508634604514,-1.1955430792421102,0.8887824844032526
1684200810034476800,3.070476806640625,-1.195699000456184,-1.1675456497699022,0.4915665426135063
1684200810044503800,3.08050390625,-1.1773077498495579,-1.0058511129915713,0.12394786670804023
1684200810054529800,3.09052978515625,-1.2059657621223479,-0.7870265757590532,-0.2851969978064298
1684200810064555500,3.100555419921875,-1.000212960974127,-0.6059539692938327,-0.6749339820176362
1684200810074581500,3.11058154296875,-0.4347499189574271,-0.51134734788239,-0.9241343682914972
1684200810084607700,3.120607666015625,0.16193477527499198,-0.4663818324744701,-1.023097431346774
1684200810094633700,3.1306337890625,0.6361807652533054,-0.31373218741714953,-0.9935656319141387
1684200810104659700,3.14065966796875,1.060839425241947,-0.056660629376769064,-1.000856957966089
1684200810114685700,3.150685791015625,1.2723287972807884,0.38520401695668693,-0.9749825119972229
1684200810124711700,3.160711669921875,1.3010568791151047,0.939518984428048,-0.8661918824106455
1684200810134737700,3.170737548828125,1.2295371187806128,1.2645458883196115,-0.8944535157769918
1684200810144763600,3.180763671875,1.1872598195433617,1.5771791745841501,-0.9707032272428273
1684200810154789600,3.19078955078125,1.0248854838073254,2.2664982403069733,-0.7894494189918041
1684200810164815600,3.200815673828125,0.5860621048659086,3.3690795427352187,-0.36664018626213074
1684200810174841600,3.210841552734375,0.3471674240291118,4.4404275025099516,0.3270832518994808
1684200810184867600,3.22086767578125,0.8373486497640609,4.925453245177865,1.134537114137411
1684200810194893800,3.230893798828125,1.9466291575700043,4.629190078955888,1.971065095168352
1684200810204919800,3.240919921875,3.2396623047053814,4.067919300997257,2.942375640654564
1684200810214945800,3.25094580078125,4.068274105784297,3.1598394109278916,3.8176948323726654
1684200810224971800,3.2609716796875,3.2468869952619075,1.3815765229851007,3.803156019410491
1684200810234997800,3.270997802734375,1.027933180940151,-0.9256278217196464,2.5250626672536134
1684200810245023700,3.281023681640625,-1.3289321435123682,-3.0649218238711353,0.5116068756014108
1684200810255050800,3.29105078125,-2.6991905691474676,-4.391375010049343,-1.151301786455512
1684200810265076700,3.30107666015625,-2.8049311635136602,-4.735763032492995,-1.9004028284460306
1684200810275102700,3.311102783203125,-2.1968623940229413,-3.819067874291539,-1.7166408367663621
1684200810285128700,3.321128662109375,-1.762324145054817,-1.9984972919732331,-0.6234720903277396
1684200810295154700,3.33115478515625,-1.4454729488342999,-0.5260755459368228,0.6943418623208999
1684200810305180700,3.3411806640625,-1.056486490729451,0.3534305760771036,1.5047230101823805
1684200810315206700,3.35120654296875,-0.737123019427061,0.9142606245309114,1.9537901352405547
1684200810325232600,3.361232666015625,-0.43664252777099605,1.0139116698503494,2.2714731061100957
1684200810335258600,3.371258544921875,0.1338689384753816,0.6360194372117519,2.3944737550958988
1684200810345284600,3.38128466796875,0.8719120136231183,0.09760229609608649,1.877926792743802
1684200810355310600,3.391310546875,1.4876923804044722,-0.26778642880022524,0.9180351746335625
1684200810365336600,3.401336669921875,1.9370090963095425,-0.38000703283548354,0.22068711623400447
1684200810375362600,3.411362548828125,1.8818477655798196,-0.555816604205966,-0.2797068759575486
1684200810385388800,3.421388916015625,1.3595710274040698,-0.691312869888544,-0.5571463915050029
1684200810395414800,3.431414794921875,0.757222389125824,-0.7136193942427634,-0.6026484980076551
1684200810405440800,3.441440673828125,0.21067396400272845,-0.5551426504671574,-0.4371434630304575
1684200810415466800,3.451466796875,-0.23591420372128485,-0.25028058272600173,-0.09274930310696362
1684200810425492700,3.46149267578125,-0.3823848678827286,0.07827391076982021,0.1431032335549593
1684200810435518700,3.471518798828125,-0.3626291970551014,0.41651334745585916,0.2988651654139161
1684200810445544700,3.481544677734375,-0.5226876570641994,0.5989052198261022,0.5223801985502243
1684200810455570700,3.49157080078125,-0.8410498423695564,0.46194472680985926,0.6744274938002228
1684200810465596700,3.5015966796875,-1.2576000147044657,0.08168459599614143,0.5133171866506337
1684200810475624000,3.5116240234375,-1.9022528402268886,-0.3613701369047165,0.33496932897418735
1684200810485650000,3.52164990234375,-2.3725252503991126,-0.5793143841713666,0.25873393829464914
1684200810495676000,3.531676025390625,-1.453387959742546,-0.4363894297927618,-0.20388386547118423
1684200810505702000,3.541701904296875,-0.5168471143424511,-0.03267828076481819,-0.5026385562479496
1684200810515728000,3.551727783203125,-0.0468850761604961,0.3365986837416887,-0.44560061799138784
1684200810525753900,3.56175390625,-0.30372575718760486,0.349940395873785,-0.39218291605859995
1684200810535779800,3.57177978515625,-0.8323416352570057,0.22160393881797788,-0.30820348712354895
1684200810545805600,3.5818056640625,-0.9352081354916095,0.08661036196053028,-0.4781622866392135
1684200810555831600,3.59183154296875,-0.6593325082600117,0.03909048589468002,-0.5459522127956151
1684200810565857500,3.601857421875,-0.575733018553257,-0.03344634252786636,-0.6005863047808409
1684200810575883300,3.61188330078125,-0.48560036421809344,-0.02414893735051155,-0.6329667716428637
1684200810585909200,3.6219091796875,-0.43168932581041003,0.04029518550932407,-0.6212339560121297
1684200810595935200,3.631935302734375,-0.190402160346508,0.16725041733980178,-0.630454204300046
1684200810605961200,3.641961181640625,-0.06141922208070755,0.2543342420309782,-0.6511825195521116
1684200810615987200,3.6519873046875,-0.1943716484993696,0.27358956212103364,-0.6213114051625133
1684200810626013200,3.66201318359375,-0.09086575438268482,0.3301268573790788,-0.6535284981563687
1684200810636039200,3.6720390625,0.09746434893012046,0.3279728942155838,-0.8336699612513184
1684200810646065400,3.6820654296875,0.019414821500703693,0.2538847446978092,-0.8026087602943182
1684200810656091400,3.69209130859375,-0.19056414597518742,0.2204495080858469,-0.5981923953816294
1684200810666117400,3.702117431640625,-0.2647820593524724,0.1943143653541803,-0.45152620864808557
1684200810676143400,3.712143310546875,-0.2604712834812701,0.153943191999197,-0.29736148285269737
1684200810686170400,3.72217041015625,-0.39553427231311794,-0.04117722904086113,-0.06910860753953456
1684200810696196400,3.7321962890625,-0.49656836948879063,-0.23609189837574956,0.14618834008872508
1684200810706222300,3.742222412109375,-0.47156884319093073,-0.3116454442709684,0.28599837731719013
1684200810716248300,3.752248291015625,-0.19489662222154439,-0.2251724449545145,0.37324995979070663
1684200810726274300,3.7622744140625,0.19963344148509204,-0.09118950644433498,0.364936889475584
1684200810736300500,3.772300537109375,0.35511041892282663,-0.08936813623607158,0.3996194958001375
1684200810746326500,3.782326416015625,0.39050219643004236,-0.11011281810104846,0.42304888670444485
1684200810756352500,3.7923525390625,0.3477355793058872,-0.28884266083240506,0.4202580869421363
1684200810766378500,3.80237841796875,0.20039631561636922,-0.5075263282895088,0.3952285673648119
1684200810776404500,3.812404541015625,0.14161971699893475,-0.6332260071009397,0.3500201831117272
1684200810786430500,3.822430419921875,-0.041545550896599885,-0.7422977917164564,0.3338961467847228
1684200810796456400,3.83245654296875,-0.17885427282862365,-0.7078934178113937,0.2926224716320634
1684200810806482400,3.842482421875,-0.08601524561159313,-0.464481551811099,0.278562966619432
1684200810816508400,3.85250830078125,0.2340904954254627,-0.10120879615545272,0.374629431450367
1684200810826534100,3.8625341796875,0.5335755463033914,0.22997195419073105,0.492301871150732
1684200810836560100,3.87256005859375,0.7956630328096449,0.3546843755304813,0.3693398006096482
1684200810846586400,3.88258642578125,0.8576251295953988,0.38430502229034896,0.26907179243564605
1684200810856612400,3.8926123046875,0.6584463730752468,0.18016718205809593,0.13276216454356907
1684200810866638300,3.902638427734375,0.4528338571805507,-0.11301555380523204,-0.04434007698595523
1684200810876664300,3.912664306640625,0.2922464048612863,-0.2822445777416229,-0.14627660289406774
1684200810886690300,3.922690185546875,0.1591839421968907,-0.2507926239013672,0.00213233585357666
1684200810896717300,3.93271728515625,0.13831658380031586,-0.16679565930962562,0.10330752200037241
1684200810906743300,3.942743408203125,0.1703660651423037,-0.0635123949676752,0.185916831625998
1684200810916769300,3.952769287109375,0.24798165813386439,0.010484569135308265,0.2478603698417544
1684200810926795300,3.962795166015625,0.2748111398052424,-0.0011363105535507202,0.29542057791799303
1684200810936821500,3.972821533203125,0.18908114087581634,-0.08994856647253036,0.355710795968771
1684200810946847500,3.982847412109375,0.040890228793025014,-0.19165712884366512,0.5000508778423071
1684200810956873500,3.99287353515625,0.00713116705417633,-0.18955401908457278,0.4845990416884422
1684200810966899500,4.0028994140625,0.1069827033817768,-0.2023591401219368,0.37357232361286874
1684200810976925400,4.012925537109375,0.34448987538293,-0.26626374927759167,0.2686079743161797
1684200810986951400,4.022951416015625,0.571361379340291,-0.34993981135189534,0.20069296047538518
1684200810996977400,4.032977294921875,0.6734165631920099,-0.45631110483705994,0.19073416877985
1684200811007003400,4.04300341796875,0.6185913325488567,-0.6158546010613442,0.2562508893072605
1684200811017029400,4.053029296875,0.4642418978363275,-0.7325660867750644,0.35455694975852964
1684200811027055400,4.063055419921875,0.3134580466508865,-0.7666209165900946,0.46104543988257646
1684200811037081300,4.073081298828125,0.22560915587134658,-0.7449380770921706,0.612158376891911
1684200811047107600,4.083107666015625,0.15724690971970556,-0.6306885975778103,0.697827366349101
1684200811057133300,4.09313330078125,0.12124503749012946,-0.4877174659699201,0.7294947165057063
1684200811067159300,4.1031591796875,0.16841368896551429,-0.34741058513522144,0.6905524069100618
1684200811077185300,4.113185302734375,0.26321320260055364,-0.20469430507123468,0.6464347405031323
1684200811087211300,4.123211181640625,0.3484142092198133,-0.07863456077575683,0.5562269385725259
1684200811097238300,4.13323828125,0.4228277912996709,-0.053318333211541176,0.36322833199203014
1684200811107264300,4.14326416015625,0.4074747393451631,-0.0955365957379341,0.24837913301885126
1684200811117290200,4.153290283203125,0.31438107977993784,-0.09528875845670699,0.11928192072361707
1684200811127316500,4.16331640625,0.22233992494232951,-0.08055529970526695,0.10830869128853082
1684200811137342500,4.173342529296875,0.1665517675511539,-0.08172609705030917,0.23598083921670912
1684200811147368400,4.183368408203125,0.13359072432219982,-0.0974754548460245,0.45717795079946516
1684200811157394400,4.19339453125,0.18574688188657162,-0.1805260784983635,0.8170499581009149
1684200811167420400,4.20342041015625,0.3452291494429111,-0.35158231786191463,1.192445405487716
1684200811177446400,4.2134462890625,0.5862450602173805,-0.5241647438794375,1.4576198982238768
1684200811187472400,4.223472412109375,0.8677063786268234,-0.6481441747695207,1.5830793385386466
1684200811197498400,4.233498291015625,1.1609487357228994,-0.5958019931137561,1.6990201321408152
1684200811207524400,4.2435244140625,1.3632798187941313,-0.3813625390976667,1.7173787956520914
1684200811217550300,4.25355029296875,1.3121142797023058,-0.2388876665741205,1.6300658383801578
1684200811227576300,4.263576416015625,0.9663631522119045,-0.13192951311171053,1.6019900829747318
1684200811237602600,4.2736025390625,0.49291569220013914,0.015738836401700974,1.6602575630262493
1684200811247628500,4.283628662109375,0.20649521701335904,0.198071087539196,1.8604414049357174
1684200811257654500,4.293654541015625,0.1886211952138692,0.4051829751461744,2.0626886091157792
1684200811267680500,4.303680419921875,0.31459026555120945,0.6021189211755991,2.020588712272048
1684200811277706500,4.31370654296875,0.5644459739286453,0.6645137102901936,1.6306068133890628
1684200811287732500,4.323732421875,0.9925146615564823,0.5752122095495462,1.0520639981120825
1684200811297759200,4.33375927734375,1.4923556960403919,0.4592898283869028,0.6193456580474972
1684200811307785200,4.34378515625,1.9717823035269975,0.3730447926074266,0.38685529129505153
1684200811317811200,4.353811279296875,2.3854373389422894,0.21134148800075053,0.2578045484900474
1684200811327837400,4.36383740234375,2.686035319498181,0.01593114410340786,0.2030816091775894
1684200811337863400,4.373863525390625,2.8001567887187004,-0.18074819681644438,0.20726795495152472
1684200811347889400,4.383889404296875,2.642152338629961,-0.3597884206712246,0.26198738713264463
1684200811357915400,4.393915283203125,2.3406524407982823,-0.47164311400353903,0.3486827970281243
1684200811367941400,4.40394140625,2.1758476630449293,-0.5535089117854833,0.5019350841537118
1684200811377967400,4.41396728515625,1.8864321707606315,-0.6126905840724707,0.7236451136946678
1684200811387993300,4.423993408203125,1.016338604736328,-0.6114595809727906,1.0131780948787927
1684200811398019300,4.434019287109375,-0.26014957724623383,-0.5079577054440975,1.202852525472641
1684200811408045300,4.44404541015625,-1.365567052948475,-0.39155134015679355,1.3554109851151703
1684200811418071300,4.4540712890625,-1.9963151256285607,0.008494272100925446,1.1858996371060608
1684200811428097300,4.46409716796875,-2.600308754634857,0.8163157986074686,1.5805787538945675
1684200811438123500,4.47412353515625,-3.047940293931961,1.6224603318125008,2.090841813671589
1684200811448149500,4.4841494140625,-2.7697686647176742,2.2895032683193683,2.460024670153856
1684200811458175500,4.494175537109375,-2.3738509460449215,2.6569132699102163,2.700948810991645
1684200811468201500,4.504201416015625,-1.9357517897248266,2.508931616663933,2.9712253030419347
1684200811478227500,4.5142275390625,-1.6219629036843777,2.0116800141513345,2.843675612449646
1684200811488253400,4.52425341796875,-1.5132501616396008,1.2621850044071674,2.5416128200381993
1684200811498280200,4.5342802734375,-1.377082280305773,0.8436544719099998,2.0074106662690636
1684200811508306200,4.54430615234375,-1.1749170553207398,0.7178992635190486,1.1695429610669612
1684200811518332200,4.554332275390625,-1.9541024160601197,0.49054889000356194,0.15614976213276385
1684200811528358400,4.5643583984375,-1.7172974009789526,0.3842465701013803,-0.5937514903247356
1684200811538384400,4.57438427734375,-1.279354750394821,0.45555765612125393,-1.18079150031209
1684200811548410400,4.584410400390625,-1.1667046689011156,0.4947065942049026,-1.4097013782292604
1684200811558436400,4.594436279296875,-1.1511854665994643,0.5084264919996261,-1.5109247874319554
1684200811568462000,4.604462158203125,-1.2130571086227893,0.40083413228690623,-1.4581144037425517
1684200811578488000,4.614488037109375,-1.4618211493059992,0.4963660518497228,-1.4737772522985935
1684200811588514000,4.62451416015625,-1.6704589313060045,0.771038148510456,-1.3819056088089943
1684200811598540000,4.6345400390625,-1.5765408766806124,0.9709808751404285,-1.3327987558126448
1684200811608566000,4.64456591796875,-1.237752281679213,1.1047983939558268,-1.1904226674884557
1684200811618592000,4.654592041015625,-1.000633670604229,1.0367968708753585,-1.4501117145508526
1684200811628618000,4.664617919921875,-1.2046683427229523,0.895838832655549,-2.0222224509537217
1684200811638644200,4.674644287109375,-1.4587968330487608,0.8027437848508358,-2.30328220282495
1684200811648670200,4.684670166015625,-1.4168454047650099,0.8097545403957367,-2.569289931514859
1684200811658696200,4.6946962890625,-1.3163722294077276,0.8122253144234418,-2.802256975868344
1684200811668722200,4.70472216796875,-1.2638649203181267,0.7879682405233382,-2.821558473187685
1684200811678748200,4.714748046875,-1.103610060954094,0.7425117267280816,-2.5752427024394273
1684200811688774100,4.724774169921875,-0.8672694485142827,0.5762094038933515,-2.1955267615050076
1684200811698801200,4.73480126953125,-0.6466697183027863,0.4119213434904814,-1.8918968659073114
1684200811708827100,4.7448271484375,-0.5166983535215258,0.28605566046237946,-1.608582613107562
1684200811718853000,4.75485302734375,-0.6723404583930969,0.25271920804977416,-1.4390981531053781
1684200811728879000,4.764879150390625,-0.8596946293458342,0.19063421553671359,-1.4773971963614225
1684200811738905000,4.774905029296875,-0.8130947907343506,0.07425941443145274,-1.638111489930749
1684200811748931000,4.78493115234375,-0.7395277424812317,-0.0668459233045578,-1.6881845576107501
1684200811758957000,4.79495703125,-0.8031053116396069,-0.24540450112223625,-1.653508381026983
1684200811768983000,4.804983154296875,-0.8934557369112968,-0.4196867167949676,-1.7097873176097869
1684200811779009000,4.815009033203125,-0.8520318396329879,-0.5362579172551631,-1.8730542182713745
1684200811789035000,4.825034912109375,-0.6593944675803184,-0.5824877535104751,-2.063213802033663
1684200811799061000,4.83506103515625,-0.5441194444105029,-0.41533612037003037,-1.9601386274844408
1684200811809087000,4.8450869140625,-0.5144453138977289,-0.2762187415808439,-1.7730822704344986
1684200811819113000,4.855113037109375,-0.5038084768101573,-0.25725568243563174,-1.7033482244729994
1684200811829139000,4.865138916015625,-0.48356063855141396,-0.4052057714998722,-1.6726047111630438
1684200811839165200,4.875165283203125,-0.32441783208250996,-0.650098231446743,-1.7730501217305659
1684200811849191200,4.885191162109375,-0.14095979178547857,-0.8856143757611512,-1.9017945750653742
1684200811859217200,4.895217041015625,-0.00615998393446207,-1.033748589220643,-1.883670889353752
1684200811869243100,4.9052431640625,0.05449176090508699,-1.1040192262768744,-1.6855360889285802
1684200811879269000,4.91526904296875,0.06052841072082519,-1.1068857216238974,-1.4601216519117355
1684200811889295000,4.925295166015625,0.04334112907648086,-1.0440759219676257,-1.2297884631931781
1684200811899322000,4.935322021484375,0.01138794771581888,-0.8732961614578962,-0.9884843831270933
1684200811909348000,4.94534814453125,-0.037642186782509086,-0.6474059236228465,-0.6463707353562116
1684200811919374300,4.955374267578125,-0.18569792817831038,-0.4044178359925747,-0.1984323220670223
1684200811929400300,4.965400390625,-0.38597383228540416,-0.21057459528148173,0.22620821774303912
1684200811939426300,4.97542626953125,-0.4061658487036824,-0.0978501333773136,0.544274050450325
1684200811949452300,4.985452392578125,-0.31809798141121864,-0.09632862289845943,0.7702695022255182
1684200811959478000,4.99547802734375,-0.18889628582820295,-0.22372283066809176,1.0068208348065615
1684200811969504000,5.00550390625,-0.007816226708889007,-0.2780751831024885,1.119962060818076
1684200811979530000,5.015530029296875,0.1943148037455976,-0.26186989823281764,1.1403975306034086
1684200811989556000,5.025555908203125,0.3940096930943429,-0.2926572506844997,1.0718418807715178
1684200811999582000,5.03558203125,0.5479716628592461,-0.32610826938748355,0.8503747200757265
1684200812009608000,5.04560791015625,0.800727184331417,-0.3757248254716396,0.44803719748854637
1684200812019634000,5.055634033203125,0.9328816653054207,-0.4184223959475755,0.06346621773838997
1684200812029660200,5.06566015625,0.9592226328074932,-0.3674386431634426,-0.2299135020017624
1684200812039686100,5.07568603515625,0.915075959501788,-0.1236661271572113,-0.4273042060613632
1684200812049712000,5.085712158203125,0.8466365564607083,0.39747780759632584,-0.4368208069473505
1684200812059738000,5.095738037109375,0.875161370807886,1.1463865418851376,-0.15872575010061263
1684200812069764000,5.10576416015625,0.8418832975190133,1.869552932152152,0.3060609221369028
1684200812079790000,5.1157900390625,0.6712520786345004,2.3525468767315147,0.8805833958566188
1684200812089816000,5.125816162109375,0.38947387629561125,2.531627432596683,1.4594506207823752
1684200812099843000,5.135843017578125,0.11096676804926246,2.4092525142937897,2.0335680208325386
1684200812109869000,5.145869140625,-0.14611995102763176,2.017903418710828,2.417002690029144
1684200812119895300,5.155895263671875,-0.1702560654291883,1.3183055355578661,2.5058301435172554
1684200812129921300,5.16592138671875,0.03497892239000648,0.5917524254620075,2.4448896448642015
1684200812139947300,5.175947265625,0.3271370644459501,0.07872983784377574,2.361401214316487
1684200812149973200,5.18597314453125,0.5333306681642308,-0.12663842096626757,2.412342297002673
1684200812159999200,5.195999267578125,0.49129766254425045,-0.10572188966572284,2.383828150179982
1684200812170025200,5.206025146484375,0.15992633979571982,-0.033581367084383966,2.1361171256810425
1684200812180051200,5.21605126953125,-0.09829902792228386,-0.0914887816518545,1.7750953638225793
1684200812190077200,5.2260771484375,-0.02966097877025604,-0.3437105615735054,1.3618705365180968
1684200812200103200,5.236103271484375,0.2904921816051006,-0.7379816820830106,0.7197755787849426
1684200812210129000,5.24612890625,0.5731213747501372,-0.8684890534371137,-0.2868143698751926
1684200812220155000,5.25615478515625,0.8376783201098441,-0.6234440332770347,-1.191259702834487
1684200812230181000,5.26618115234375,1.1777332817852497,-0.4599433238595724,-1.7530203101366757
1684200812240207000,5.27620703125,1.4147230057835578,-0.262701088359952,-2.0312498070180416
1684200812250233000,5.286233154296875,1.3234265318334102,0.03224105839133262,-1.9470488442867993
1684200812260259000,5.296259033203125,0.9699427642643451,0.24624387455582616,-1.5639590430051087
1684200812270285000,5.30628515625,0.48823944401741026,0.2116694047808647,-1.0124410127758978
1684200812280311000,5.31631103515625,0.07379471952915191,0.10157236877083778,-0.5000538004517555
1684200812290338000,5.326338134765625,-0.2677414206147194,0.06952186451554299,0.026487901692092416
1684200812300364000,5.336364013671875,-0.43806876118183136,0.015024550652503967,0.536181637148559
1684200812310390000,5.34639013671875,-0.4832125557661056,-0.05588263074159622,0.9463321715742349
1684200812320416300,5.356416259765625,-0.4330886346817016,-0.21099720460772514,1.2554466360628604
1684200812330442200,5.366442138671875,-0.34007951159477234,-0.547338114196062,1.4400105917751789
1684200812340468200,5.37646826171875,-0.27029110509753224,-1.0164145925819874,1.4898261775627732
1684200812350494200,5.386494140625,-0.16269348468780517,-1.3913982442975044,1.3616282521948218
1684200812360520200,5.396520263671875,-0.04829437670283951,-1.599481022763252,1.197708440582454
1684200812370546200,5.406546142578125,-0.051503392744064326,-1.7480898679971695,1.0044035445317625
1684200812380572200,5.416572265625,-0.11827449724674224,-1.7461054161816834,0.7375903446778654
1684200812390598100,5.42659814453125,-0.35974165892004967,-1.3813356999665498,0.482969394659996
1684200812400624000,5.4366240234375,-0.5257248328030109,-0.8323778756141662,0.32583179053366185
1684200812410650000,5.446650146484375,-0.6534428656995296,-0.28555940137803554,0.3603270575925708
1684200812420676000,5.456676025390625,-0.7775684270620346,0.15341829134225846,0.5251946714490652
1684200812430702300,5.466702392578125,-0.962768342590332,0.36257425199747084,0.6345984644979238
1684200812440728000,5.47672802734375,-1.3948001616954802,0.3036421705573797,0.6874632087230682
1684200812450754000,5.486754150390625,-1.9553256742447613,-0.009750994163751601,0.8490802963510156
1684200812460780000,5.496780029296875,-2.9957857438027857,-0.3457295001804828,1.0344956081956624
1684200812470806000,5.506805908203125,-1.8095324709534644,0.0982166286021471,0.534775569742918
1684200812480833000,5.5168330078125,0.5004629657745361,1.0288853670984506,0.2832721672236919
1684200812490859000,5.52685888671875,1.5341478421092032,1.6533943992584943,0.14590660053789614
1684200812500885000,5.536885009765625,1.6506769569933413,1.7281868976533412,-0.09414221877008676
1684200812510911200,5.5469111328125,1.5196283183693884,1.3105261337280272,-0.34097967530488965
1684200812520937200,5.556937255859375,1.1949527121335268,0.619098113027215,-0.8207657637536525
1684200812530963200,5.566963134765625,0.7840683104753494,0.14924012887477875,-1.2524004002347588
1684200812540989200,5.5769892578125,0.27367901223646474,-0.09263561359941959,-1.4833730559006333
1684200812551015200,5.58701513671875,-0.4177227232456207,-0.1625268959492445,-1.4586974643275141
1684200812561041200,5.597041259765625,-1.1466098292469977,-0.1964899558275938,-1.2862772431343794
1684200812571067100,5.607067138671875,-1.5086135878801346,-0.22271160779893398,-1.1142185487300156
1684200812581093000,5.617093017578125,-1.602920349562168,-0.21032441991269588,-0.8665025557950139
1684200812591119000,5.627119140625,-1.7672060718774794,-0.13923486768901347,-0.6238251415491104
1684200812601145000,5.63714501953125,-1.709850445973873,-0.041916649231314655,-0.37916999748945235
1684200812611171000,5.647171142578125,-1.3518039005339144,0.12705810768306255,-0.3690945936769247
1684200812621197000,5.657197021484375,-0.8792343193352222,0.09667582890093326,-0.4416355137526989
1684200812631223000,5.66722314453125,-0.3370832523882389,-0.05902735850811004,-0.4087710627660155
1684200812641249000,5.6772490234375,0.15674948159158228,-0.12051672321557998,-0.3428735262274742
1684200812651275000,5.68727490234375,0.6246785435080527,-0.06388356636762618,-0.1998115014657378
1684200812661301000,5.697301025390625,0.7365933695297687,0.04047171112000942,-0.17909867604374885
1684200812671328000,5.707327880859375,0.643924438182637,0.20069208369255065,-0.14516338095515965
1684200812681354000,5.71735400390625,0.6946826385825872,0.3372749755680561,-0.1300660573273897
1684200812691380000,5.7273798828125,0.492990511002019,0.40757834585011005,-0.11918372104614973
1684200812701406000,5.737406005859375,0.29862938389666377,0.35645255424678324,0.0294426598444581
1684200812711432000,5.747431884765625,0.009067688074707984,0.24319910003244877,0.21082126351892946
1684200812721458000,5.7574580078125,-0.2417324615459889,0.1375309863805771,0.3362111457288265
1684200812731484000,5.76748388671875,-0.32590375979132946,0.09125731098353862,0.4360743724942207
1684200812741510000,5.777510009765625,-0.15194405407123265,0.053173956304788585,0.4436608821004629
1684200812751535900,5.787535888671875,0.0230704944640398,-0.06069499945938587,0.37497546840906143
1684200812761561900,5.797561767578125,0.0037901129979640243,-0.26379706690311433,0.3572524724528193
1684200812771588000,5.807588134765625,-0.13010573175065218,-0.446178417879343,0.3529325634270906
1684200812781614000,5.817614013671875,-0.15449848779439926,-0.5535433985769749,0.254563959133625
1684200812791640000,5.82764013671875,-0.08863339222073555,-0.5648451293140649,0.23025836991667747
1684200812801666000,5.837666015625,-0.11627309429645538,-0.4598381099194288,0.28639439089745283
1684200812811692000,5.847692138671875,0.0005804302364587784,-0.23029928644895553,0.224776139113307
1684200812821718000,5.857718017578125,0.26642500425390897,-0.0026028759747743603,0.07930033120810985
1684200812831744000,5.867743896484375,0.5403231939326971,0.19145429974794387,-0.03531827387958765
1684200812841770000,5.87777001953125,0.7179571311861276,0.3124865712702274,-0.05048866274356842
1684200812851797000,5.887796875,0.6593570581793785,0.22453356252908704,-0.27788696705400945
1684200812861823000,5.897822998046875,0.4648725238900631,0.08007190010249614,-0.5023556476533413
1684200812871849000,5.907848876953125,0.2790461470264941,0.01253390288054943,-0.5601812291562557
1684200812881875000,5.917875,0.05495565208978951,0.02688859144747257,-0.4900096685603261
1684200812891901000,5.92790087890625,-0.06570252542309463,0.02487082188427448,-0.44402854636907574
1684200812901927000,5.937927001953125,-0.0595516015779227,-0.03452829254567623,-0.37458413100391624
1684200812911953000,5.947952880859375,-0.011298735062405467,-0.10123568416237831,-0.30762831758409737
1684200812921979000,5.957978759765625,0.010868673082068563,-0.12470248446762561,-0.1892255177825689
1684200812932004900,5.9680048828125,0.046285950356721874,-0.09359949019551277,-0.017870295472443103
1684200812942030800,5.97803076171875,0.10614216090440749,-0.020750527083873746,0.18478285916000603
1684200812952056800,5.988056884765625,0.17152670641951262,0.03553074758648872,0.38097061717063185
1684200812962083000,5.9980830078125,0.2119623233128339,-0.008803484180569648,0.5151727513894439
1684200812972109000,6.008109130859375,0.24330840562582015,-0.21832009484171866,0.6164578276515007
1684200812982135000,6.018135009765625,0.29899997077472507,-0.5357464606016874,0.577609041558206
1684200812992161000,6.0281611328125,0.3932002764075994,-0.7912152596205473,0.4675181430280208
1684200813002187000,6.03818701171875,0.5442811377782374,-0.901926043614745,0.34618981116861103
1684200813012213000,6.048212890625,0.6668097853381186,-0.8808633818417787,0.3229118114337325
1684200813022239000,6.058239013671875,0.7318676561821251,-0.846459007936716,0.4434560071781277
1684200813032266000,6.068265869140625,0.6943337520796805,-0.8750859674841165,0.6928656522884965
1684200813042291000,6.078291015625,0.5675087955653667,-0.9248644361317158,0.9516676873832941
1684200813052318200,6.088318115234375,0.429812974011898,-0.9334142378121614,1.1086328575521707
1684200813062344200,6.09834423828125,0.3428244263887405,-0.8926064266055822,1.1427440937295554
1684200813072370200,6.1083701171875,0.32315994097590445,-0.7330874803006648,1.1062819105118513
1684200813082396000,6.11839599609375,0.358295551764965,-0.39325112981200216,1.0879375677868723
1684200813092422000,6.128421875,0.42308388495258986,-0.014887772530317306,1.0787757716879247
1684200813102447900,6.13844775390625,0.47614385948888954,0.30880408336520193,1.056443528370559
1684200813112473900,6.148473876953125,0.5418541298270225,0.5518611445784568,1.0005226114451884
1684200813122499800,6.158499755859375,0.6311118644911795,0.6625777737915516,0.9019897565007209
1684200813132525800,6.16852587890625,0.7845400196403265,0.5881798276722431,0.8112193522512913
1684200813142551800,6.1785517578125,0.9266841258395463,0.24013737437427043,0.7771253594696521
1684200813152577800,6.188577880859375,0.9200980985127389,-0.39002982967793937,0.9241004660218953
1684200813162604000,6.19860400390625,0.5892623622119426,-0.8246540033638476,1.4074644129574299
1684200813172630000,6.208630126953125,0.08977554799318313,-0.8267465917289256,1.9081448208749294
1684200813182656000,6.218656005859375,-0.278001533344388,-0.61353112654984,2.2808248718231914
1684200813192682000,6.228681884765625,-0.42222712199278173,-0.24931319899857043,2.6928157734185456
1684200813202708000,6.2387080078125,-0.4875812723696232,0.19178981531262396,3.002075491596758
1684200813212734000,6.24873388671875,-0.4963678054153919,0.5574228703588247,2.652225696615875
1684200813222760000,6.258760009765625,-0.2092207695197314,0.6566688420087099,1.7731965444639324
1684200813232787000,6.268786865234375,0.5635545780468731,0.5946744503885507,0.9356284067302941
1684200813242813000,6.27881298828125,1.7056775442034005,0.5027449392318726,0.18358546606898307
1684200813252839200,6.288839111328125,2.8603806635349986,0.3656085051268339,-0.4727928685605526
1684200813262865200,6.298865234375,3.63554962823987,0.17740823873877523,-0.9723960026353597
1684200813272891100,6.30889111328125,3.891635682374239,-0.029959669455885886,-1.0905495038509367
1684200813282917000,6.318917236328125,3.7502071040332314,-0.21745032626986502,-0.8128270797088741
1684200813292943000,6.328943115234375,3.3103719177007673,-0.36048283267617226,-0.32747985000163315
1684200813302969000,6.338968994140625,2.156326970016956,-0.4492062412679195,0.20903496462404728
1684200813312995000,6.3489951171875,0.5328419713318348,-0.49182080963551994,0.5886380928337573
1684200813323021000,6.35902099609375,-0.9086182347297668,-0.3785527423739433,0.8482204646512865
1684200813333047000,6.369047119140625,-1.9142086509585379,-0.10210019203722476,1.175817511291802
1684200813343072800,6.37907275390625,-2.652042156742513,0.31530396677851674,1.6367849175021052
1684200813353098800,6.3890986328125,-3.4321523772418496,0.5688216317296028,2.3711937095344067
1684200813363125000,6.399125,-4.099478806865215,0.7035989354878663,2.7212887114480138
1684200813373151000,6.40915087890625,-4.011079223400354,0.9523772969573736,2.9623879165917635
1684200813383177000,6.419177001953125,-3.2997394645273683,1.0373170953571795,3.422662956623733
1684200813393203000,6.429202880859375,-2.410045856628567,0.6977934640794992,3.7674078296810385
1684200813403229000,6.43922900390625,-1.9479121831178663,0.11781973921656608,3.761581023223698
1684200813413256000,6.449255859375,-2.119903072983026,-0.5883130986630917,3.541107257479429
1684200813423282000,6.459281982421875,-2.2166401305519043,-1.1010194599390029,3.276244607171416
1684200813433308000,6.469307861328125,-2.1394949315510687,-1.3166671207010745,2.8683757539421317
1684200813443334100,6.479334228515625,-2.4117678581155837,-1.3277759592145681,2.209856607891619
1684200813453360000,6.489360107421875,-2.805788072603941,-1.0930518420606852,1.3698609507501125
1684200813463386000,6.49938623046875,-2.8189854078292846,-0.8155664415448903,0.8468336864680052
1684200813473412000,6.509412109375,-2.8882363464489575,-0.5566501324206591,0.5941746841728687
1684200813483438000,6.51943798828125,-2.820302920168638,-0.30995208435654636,0.32624913916289805
1684200813493464000,6.529464111328125,-2.7492250583827493,-0.12259177592396736,-0.04173135579228401
1684200813503490000,6.539489990234375,-2.9103613767564296,0.02192073990702629,-0.4500438611358404
1684200813513516000,6.54951611328125,-2.994582797753811,0.09456453583538532,-0.6464432160705328
1684200813523542000,6.5595419921875,-3.1191730540186167,0.053503042128682135,-0.6967506770282983
1684200813533568000,6.569568115234375,-3.2915351152837276,-0.08280161732733249,-0.6229051040947436
1684200813543594000,6.579593994140625,-3.0209307064533233,-0.1264104574292898,-0.5472744013100862
1684200813553620200,6.5896201171875,-2.687427066117525,-0.10262275460660457,-0.35498774239122866
1684200813563646000,6.59964599609375,-2.4540987872362137,-0.10516834743618965,-0.35365853961408134
1684200813573672700,6.609672607421875,-2.371648613695055,-0.05106500132679939,-0.29135844304561614
1684200813583698700,6.61969873046875,-2.300385896861553,-0.06304536197781563,-0.3471411205440759
1684200813593724700,6.629724609375,-2.2950188168704506,0.016936521753668783,-0.5641407804369926
1684200813603751700,6.639751708984375,-2.247274192138016,0.12034896543323993,-0.7706155391842127
1684200813613777700,6.649777587890625,-2.2279355776786804,0.20902678131759164,-0.7794079174488783
1684200813623803600,6.6598037109375,-1.8974926400877534,0.26275077272057534,-0.7443821967750788
1684200813633830000,6.669829833984375,-1.5263469590999186,0.2558680274695158,-0.6730319477885961
1684200813643856000,6.67985595703125,-1.3895780431330202,0.24076222827434537,-0.42488311639428133
1684200813653881900,6.6898818359375,-1.3423615339279173,0.21343758349716663,-0.1606973424345255
1684200813663907800,6.699907958984375,-1.3633398784182964,0.15982114412188528,0.02212473804652691
1684200813673933800,6.709933837890625,-1.3853300302997231,0.07970072870254516,0.17309914336800575
1684200813683959800,6.719959716796875,-1.369786278078705,-0.006665887629985809,0.22992051626443863
1684200813693985800,6.72998583984375,-1.3013631685853004,-0.0012128829210996627,0.28941899941563604
1684200813704011800,6.74001171875,-1.0738730943381787,0.09398352107703685,0.3661912734508514
1684200813714037800,6.750037841796875,-0.8082790610156952,0.2791922044336796,0.45911680990755555
1684200813724063700,6.760063720703125,-0.6120433722101152,0.4749707971215248,0.5613379979759454
1684200813734089700,6.77008984375,-0.478281675235182,0.5858329722851514,0.6709580641239881
1684200813744115700,6.78011572265625,-0.3479731874540448,0.6109703361511231,0.8449860127747059
1684200813754141700,6.7901416015625,-0.22305822927951813,0.6312620135515928,0.9932757090568541
1684200813764167700,6.800167724609375,-0.25337621065378185,0.5545920308470725,0.9809960731983184
1684200813774193700,6.810193603515625,-0.3212931241907179,0.45553544428944587,0.9573036474436522
1684200813784220700,6.820220703125,-0.5047286603949964,0.4780903904467821,0.8325877189725637
1684200813794246700,6.83024658203125,-0.757368665728718,0.550799652826786,0.6091735158622265
1684200813804272600,6.840272705078125,-1.1284008033394812,0.5301420647233724,0.32746552921533584
1684200813814298600,6.850298583984375,-1.4058897109866142,0.3437012092232704,0.1260153206318617
1684200813824324900,6.860324951171875,-1.6077601908087729,0.06901683760285376,0.06462123299241065
1684200813834350800,6.870350830078125,-1.8817969121754168,-0.17161796489953993,0.16724924829602242
1684200813844376800,6.880376953125,-2.2072740440525114,-0.2819412108808756,0.2479845807433128
1684200813854402800,6.89040283203125,-2.5470447819590567,-0.3919125746846199,0.25090426758229734
1684200813864428800,6.9004287109375,-2.9387399145007134,-0.4831751463651657,0.05788812534511089
1684200813874454800,6.910454833984375,-3.3615281044423577,-0.5741156464844942,-0.3709375911951065
1684200813884480800,6.920480712890625,-3.530962295562029,-0.6847142022758722,-0.5563876820921898
1684200813894506800,6.9305068359375,-3.4796506259977815,-0.7373679340988397,-0.8401987784981727
1684200813904532700,6.94053271484375,-3.3247043944358823,-0.8218722636908292,-1.223615327516198
1684200813914558700,6.950558837890625,-3.0097172385215756,-0.852856015497446,-1.4530939452320337
1684200813924584700,6.960584716796875,-2.7236463804900644,-0.7444172680884599,-1.6224369509369134
1684200813934611000,6.97061083984375,-2.421552754548937,-0.5375917962074279,-1.6098557017832993
1684200813944637000,6.980636962890625,-2.064273101828247,-0.33735096341371534,-1.435634860908985
1684200813954663000,6.990662841796875,-1.7872798687435685,-0.029687866777181625,-1.2717489515662193
1684200813964689700,7.000689697265625,-1.5466848137296736,0.2824848162382841,-0.9794459211468696
1684200813974715600,7.010715576171875,-1.267303078073263,0.562625699698925,-0.8046528333425521
1684200813984741600,7.02074169921875,-0.9934230085730552,0.6425146444499492,-0.8193851230502128
1684200813994767600,7.030767578125,-0.6817607592977583,0.6899690540641545,-1.2205348971575498
1684200814004793600,7.040793701171875,-0.4124608571946621,0.7005693585336208,-1.601831385281682
1684200814014819600,7.050819580078125,-0.38461657245755193,0.5628343740135431,-1.8788263719320295
1684200814024845800,7.060845703125,-0.46022447888851165,0.32719957175552844,-2.2868688281625507
1684200814034871800,7.070871826171875,-0.6664684976197779,0.0910579890191555,-2.606403564378619
1684200814044897800,7.080897705078125,-1.2232698750793933,-0.16296937901973724,-2.806014867097139
1684200814054923800,7.090923828125,-2.010562408298254,-0.3467985907167196,-2.9664217021524903
1684200814064949800,7.10094970703125,-2.6440157944142815,-0.39816695890426634,-3.121716308760643
1684200814074975700,7.110975830078125,-3.063939827096462,-0.1997837366759777,-3.1750100920528173
1684200814085001700,7.121001708984375,-3.4518975266754626,0.3295119403511286,-3.00303323071301
1684200814095027700,7.13102783203125,-3.4872844818770883,1.11641109033823,-2.796429292628169
1684200814105053700,7.1410537109375,-2.7693875564455985,2.2729987082421776,-2.602773683443665
1684200814115079700,7.15107958984375,-1.2843395530700683,3.7942023131042717,-2.414643559682369
1684200814125105700,7.161105712890625,1.5001964726686476,5.6134214808136225,-2.208739878821373
1684200814135132000,7.1711318359375,3.361835562956333,6.5567264135211705,-1.5511036530852318
1684200814145158700,7.18115869140625,3.4706560031592844,5.9698798802793025,-0.13822598290741442
1684200814155184600,7.1911845703125,2.991028904664516,4.682242454707622,1.4315963991731404
1684200814165210600,7.201210693359375,1.8027450027704237,2.8424083689928055,2.2358190244048832
1684200814175236600,7.211236572265625,0.14100998760275543,0.6075228260457516,2.0445830435827372
1684200814185262600,7.2212626953125,-1.349894852042198,-1.3035937041163443,1.4436831428080796
1684200814195288600,7.23128857421875,-1.9410884745776653,-2.7052514766216276,0.7580076942846179
1684200814205314600,7.241314453125,-1.7704396469712256,-3.458042020779848,-0.15194325035363435
1684200814215340500,7.251340576171875,-1.4933400309026241,-3.3248183762043713,-0.7645686602354049
1684200814225366800,7.26136669921875,-1.175561125377938,-2.624747614842653,-0.6632356531783938
1684200814235392800,7.271392822265625,-1.09362058185935,-1.4660148016035557,-0.015903379313647745
1684200814245418800,7.281418701171875,-1.2584944793261588,-0.18109774090647696,0.7687664041861891
1684200814255444700,7.29144482421875,-1.1909422343831508,0.6801590231895447,1.3072148172229527
1684200814265470700,7.301470703125,-0.9700434481598437,0.8790174617141485,1.6330562523677945
1684200814275496700,7.31149658203125,-0.8376888415038585,0.5110854820758104,1.799122720620036
1684200814285522700,7.321522705078125,-0.6488566338878125,-0.17189970445036887,1.8456018554612994
1684200814295548700,7.331548583984375,-0.4286497023861855,-0.773171653407812,1.9109245147213338
1684200814305574700,7.34157470703125,-0.29406477939486503,-1.1501812579929829,2.0941440700873732
1684200814315600600,7.3516005859375,-0.41563835471961647,-1.3898399089395999,2.3522025933384896
1684200814325628000,7.3616279296875,-0.554668091757968,-1.5566548574715853,2.4273586643487213
1684200814335654000,7.37165380859375,-1.0864660339295864,-1.589317356145382,2.4465046788454052
1684200814345680000,7.381679931640625,-1.5522341184198856,-1.420312204092741,2.2805209204405545
1684200814355705900,7.391705810546875,-1.8378864587783812,-1.1940706686019897,2.0418910280197857
1684200814365731800,7.40173193359375,-1.9263807347893713,-1.035347256588936,1.7315259789481758
1684200814375757600,7.411757568359375,-1.842368572628498,-0.9509300207585096,1.2850088306337595
1684200814385783600,7.421783447265625,-1.7296657380342482,-0.849226719084382,0.859290432459116
1684200814395809500,7.4318095703125,-1.7032114463508128,-0.6574298895090818,0.5522399147629737
1684200814405835500,7.44183544921875,-1.5203040256738662,-0.3916752587974071,0.24429186370521783
1684200814415861800,7.45186181640625,-1.3413912275910376,-0.12523732199668883,0.06358546020388603
1684200814425887700,7.4618876953125,-1.3068296172976492,0.13961889857053755,-0.04536357481479644
1684200814435913700,7.471913818359375,-1.2137608729779719,0.4866723408311605,-0.08294862458258867
1684200814445939700,7.481939697265625,-0.9918868850469589,0.7869570176541805,-0.1394429574817419
1684200814455965700,7.491965576171875,-0.7376794842660427,0.9682318686932325,-0.16137714139223097
1684200814465991700,7.50199169921875,-0.4696972406327724,0.9346528396964072,-0.10993716927319765
1684200814476017700,7.512017578125,-0.3103863841205835,0.7010562652677297,-0.0006797989577054977
1684200814486043600,7.522043701171875,-0.4467144244521856,0.2685726107418537,0.22448387816846369
1684200814496069600,7.532069580078125,-0.7009902142941952,-0.20286942773163316,0.44915977177768945
1684200814506097000,7.542096923828125,-0.7686684967696666,-0.570587472358346,0.5992454115658998
1684200814516123000,7.552122802734375,-0.9050310238927602,-0.5538526106566191,0.6192945123821496
1684200814526148900,7.56214892578125,-1.0946008250683545,-0.3789665838718414,0.3395785763353109
1684200814536174800,7.5721748046875,-1.1676204685717821,-0.33302783951759335,0.0019064181432127951
1684200814546200800,7.582200927734375,-1.0886258423119783,-0.300597980555892,-0.34457857657968993
1684200814556226800,7.592226806640625,-0.8639999253243208,-0.2944184151381254,-0.5781880104899406
1684200814566252800,7.602252685546875,-0.7275806995779276,-0.25893326025903224,-0.5744532078757881
1684200814576278300,7.6122783203125,-0.7163374210298061,-0.1245160219848156,-0.46903614637553687
1684200814586304300,7.62230419921875,-0.7940776633143425,0.09151450061500072,-0.326418942771852
1684200814596330200,7.632330322265625,-0.9018360272437334,0.2830465417742729,-0.24814678556770084
1684200814606356200,7.642356201171875,-0.8955155920505523,0.44790509554147717,-0.3571639173865318
1684200814616382200,7.65238232421875,-0.7871276980459689,0.5487251846402883,-0.5789975733071565
1684200814626408400,7.662408447265625,-0.6209925484716892,0.5732493850439787,-0.7682391654416918
1684200814636434400,7.672434326171875,-0.42361119676232334,0.5652993028223514,-0.8515884797796607
1684200814646460400,7.68246044921875,-0.18447803099453447,0.5387403817206621,-0.8124374958693981
1684200814656486400,7.692486328125,0.06433949344158173,0.48430502717792984,-0.6178507433146238
1684200814666512100,7.70251220703125,0.2106278233060613,0.41699323992729187,-0.2973050764903426
1684200814676539100,7.7125390625,0.3077373309165239,0.4483259513020515,0.07179594692736864
1684200814686565000,7.722565185546875,0.3240694570362568,0.42570320060551164,0.36560149086415766
1684200814696591000,7.732591064453125,0.2629892759178765,0.25410569397211075,0.5718213980674743
1684200814706617000,7.7426171875,0.1678571693276055,0.034842180800437925,0.7722519082143903
1684200814716643300,7.752643310546875,0.0602320581227541,-0.10279401952028273,1.0625134959340095
1684200814726669300,7.76266943359375,0.06595160481333733,-0.17126432915627957,1.27891840480417
1684200814736695300,7.7726953125,0.3167892369002104,-0.2640484113156795,1.3260741237327456
1684200814746721300,7.78272119140625,0.7459715117931366,-0.35576340293884273,1.1994681437313557
1684200814756747300,7.792747314453125,1.2460709049522876,-0.49493748035132884,0.9228732623144984
1684200814766773200,7.802773193359375,1.7525789961099623,-0.773533472457528,0.575253710603714
1684200814776799200,7.81279931640625,2.141021848857403,-1.0928127726078032,0.4644751220703125
1684200814786825200,7.8228251953125,2.300434996700287,-1.3277514092952012,0.6749421653240919
1684200814796851200,7.832851318359375,2.1997546083331105,-1.4023954391300677,1.0497300022065639
1684200814806877200,7.842877197265625,1.7914286589860915,-1.366482414227724,1.2929559902459382
1684200814816903200,7.852903076171875,1.1920282760541885,-1.2077356213390826,1.41147364859879
1684200814826929400,7.862929443359375,0.6671580873191356,-0.8721949222177267,1.524526611804962
1684200814836955400,7.872955322265625,0.02406118600182235,-0.3161830877006054,1.6115195433422922
1684200814846982100,7.882982177734375,-0.9140450090188532,0.5206067591369152,1.7676526466012
1684200814857008000,7.893008056640625,-1.735456158003956,1.5771692377120254,1.7552569831475615
1684200814867034000,7.9030341796875,-2.144074222165346,2.343103341081738,1.2010668110996483
1684200814877060000,7.91306005859375,-1.5828842543579638,3.1128041035085916,0.8348433889448642
1684200814887086000,7.923086181640625,-0.719886637943983,3.635515141448378,0.11783552130758762
1684200814897112000,7.933112060546875,-0.10813654959201813,3.716220663279295,-1.0224813452750443
1684200814907138300,7.94313818359375,0.5317744882307947,3.4370237826704977,-1.8783394651979206
1684200814917164300,7.953164306640625,0.5142458458028734,2.9227158314168453,-1.9822277096956966
1684200814927190300,7.963190185546875,0.16075521010160446,2.3863036003828046,-1.8136229551374912
1684200814937216300,7.97321630859375,-0.34975451791286466,1.7315701103508472,-1.6137322509557008
1684200814947242200,7.9832421875,-0.47655718953013415,1.0439753842025994,-1.4227695341169833
1684200814957268200,7.993268310546875,-0.5323297840259968,0.3382721699118614,-1.3205442543953656
1684200814967294200,8.003294189453126,-0.9350487071461975,-0.33992695138156415,-1.2942962989389895
1684200814977320200,8.0133203125,-1.3436170869469641,-0.9107330349266528,-1.2075824766039847
1684200814987346200,8.02334619140625,-1.3727940815925597,-1.1762860055863857,-0.96463705907166
1684200814997372200,8.0333720703125,-1.2758183929622173,-1.0766595101863146,-0.7129290738910437
1684200815007398100,8.043398193359375,-1.2958427977286278,-0.6271627615392208,-0.35584114435017106
1684200815017425400,8.05342529296875,-0.9517183946572244,-0.21509294948875904,-0.23409634064435958
1684200815027451400,8.063451416015624,-0.5962266482666134,-0.003186228820681572,-0.30860826853215695
1684200815037477400,8.073477294921876,-0.24788769624009727,-0.012775894942879677,-0.5175310049533843
1684200815047503400,8.08350341796875,0.11454495532959699,-0.13049918804764746,-1.0719728136748075
1684200815057529000,8.093529052734375,0.28828239660114047,-0.3687824589878321,-1.616092550346255
1684200815067555000,8.10355517578125,0.35357612202763555,-0.5662596722871065,-1.8949252738177775
1684200815077581000,8.1135810546875,0.397285499894619,-0.71901570032835,-1.9636784920483827
1684200815087607000,8.12360693359375,0.4061038893833756,-0.8101835794627666,-1.8493284747689962
1684200815097633000,8.133633056640624,0.3336297509334981,-0.8597019358694553,-1.6541870109409094
1684200815107659300,8.1436591796875,0.44223508708104486,-0.8477163145214319,-1.3407973533511162
1684200815117685200,8.153685302734376,0.5186342900201678,-0.8386351824432611,-0.7488736629754305
1684200815127711200,8.163711181640625,0.3226150204442441,-0.8332365382701158,0.11043079800903796
1684200815137737200,8.1737373046875,-0.027504385258257387,-0.8573135794281959,1.0789555121690033
1684200815147763200,8.18376318359375,-0.3685599022783339,-0.9231365894258021,1.7873644782871008
1684200815157789200,8.1937890625,-0.6879030614450573,-0.9574398410439491,1.8767595025300978
1684200815167815200,8.203815185546874,-1.1188288190044462,-0.9302695100456476,1.3810586365908384
1684200815177841200,8.213841064453124,-1.575845149501413,-0.7991758632361888,0.5875380226373672
1684200815187868200,8.2238681640625,-1.8230559693932533,-0.6356944430410861,-0.2662970670253038
1684200815197894400,8.233894287109376,-1.686531383576244,-0.5094651873975992,-1.0386790313601493
1684200815207920400,8.24392041015625,-1.3634792868889867,-0.4995704008489847,-1.6020406441181898
1684200815217946400,8.2539462890625,-0.8304981993474065,-0.5369879850953817,-1.935046271803975
1684200815227972400,8.263972412109375,-0.23438626350164413,-0.5911182192116975,-2.037867763853073
1684200815237998300,8.273998291015625,0.26250527352690695,-0.6891314341962337,-1.986203043067455
1684200815248024300,8.2840244140625,0.5707600524462759,-0.7889420539915561,-1.8974393024653196
1684200815258050300,8.29405029296875,0.7672152292214334,-0.8246697854548692,-1.8213059108555316
1684200815268076300,8.304076171875,0.9991698816619813,-0.8247621399134397,-1.6409966899782418
1684200815278102300,8.314102294921875,1.2493500727534292,-0.707579529556632,-1.4025193577706814
1684200815288128300,8.324128173828125,1.370259302417934,-0.5270668950617313,-1.1803460946321487
1684200815298154200,8.334154296875,1.2883598946273327,-0.36885260161459443,-0.9977209980279207
1684200815308180200,8.34418017578125,1.0610064523719251,-0.290317994081974,-0.8550573249340057
1684200815318206200,8.354206298828124,0.7307271078448743,-0.16606266885995863,-0.6342489204078913
1684200815328232200,8.364232177734374,0.5305131630580872,0.08234861286282538,-0.3895592895567417
1684200815338258200,8.374258056640626,0.24451478574089705,0.3523410272747278,-0.07663491139113902
1684200815348284200,8.3842841796875,0.027647812316939233,0.6185071613967418,0.2178261738449335
1684200815358311200,8.394311279296875,-0.12059278412647545,1.0056377625018358,0.4988333187460899
1684200815368337200,8.404337158203125,-0.12404376483056694,1.5481436342358588,0.9018295975029468
1684200815378363100,8.414363037109375,0.009341828840970992,2.351317042675614,1.4244120406270027
1684200815388389400,8.424389404296875,0.3064870385944843,3.060032882785797,2.0279852522641417
1684200815398415400,8.434415283203125,0.8954431113362312,3.058258858850598,2.539916537514329
1684200815408441300,8.44444140625,1.5561691197812557,2.2065625347822904,2.634850491183996
1684200815418467300,8.45446728515625,2.300842992979288,1.2203414204120635,2.5795021134495735
1684200815428493300,8.464493408203126,3.0941806515812873,0.6808832458108663,2.522207862344384
1684200815438519300,8.474519287109375,3.46512525703907,0.2782236516624689,2.281470768511295
1684200815448545300,8.484545166015625,3.0476854423880577,-0.31980946150422096,1.6844477091699839
1684200815458571300,8.4945712890625,2.1797347336113453,-1.0636591588377953,0.7289876437664031
1684200815468597200,8.50459716796875,1.3102256894767284,-1.6988450678348541,-0.2616144621670246
1684200815478623200,8.514623291015624,0.33901100558042524,-1.9475310748457908,-1.0900801327735186
1684200815488649200,8.524649169921876,-0.6915700595200062,-1.6638713696092367,-1.7984172026991843
1684200815498675500,8.534675537109376,-1.45048990021348,-0.8904267444789409,-2.291687626621127
1684200815508701400,8.544701416015625,-1.770519141948223,0.09006956250369548,-2.345718492016196
1684200815518727400,8.5547275390625,-1.7755144660174846,0.946785176038742,-1.9889707542151212
1684200815528754200,8.564754150390625,-1.7398375879585741,1.4682505978316067,-1.5802373931109905
1684200815538780200,8.5747802734375,-1.6739222235023974,1.4145283599942922,-1.2361448464825748
1684200815548806100,8.58480615234375,-1.206339783066511,0.9347644833773374,-0.7528370136484503
1684200815558832000,8.59483203125,-0.42095396025180815,0.4257879562795162,-0.07724281415641307
1684200815568858600,8.604858642578124,0.3195066791653633,0.039970775860548015,0.4552817617893219
1684200815578884600,8.614884521484376,0.8715794206678866,-0.33320202704071994,0.7293836573466658
1684200815588910600,8.62491064453125,1.1610597948819399,-0.7360942609012127,0.46635494446754455
1684200815598936600,8.6349365234375,1.1678653832435608,-0.8463380119055509,-0.3111579530149698
1684200815608962600,8.644962646484375,0.9331950421035289,-0.6082248368352651,-1.0704875435531138
1684200815618988500,8.654988525390625,0.7493740137130022,-0.20623802738189695,-1.5234221576943994
1684200815629014500,8.6650146484375,0.43316696061491966,0.0922691183745861,-1.6356091517210005
1684200815639040500,8.67504052734375,-0.0533493083051173,0.31327801390886306,-1.5937757968589663
1684200815649066500,8.68506640625,-0.48409284573197364,0.44293899756669997,-1.2865367708534001
1684200815659092500,8.695092529296875,-0.8528291274905204,0.47659635249674315,-0.7396122058942913
1684200815669118700,8.70511865234375,-1.1755880864500998,0.4276262776225805,-0.25242080962508917
1684200815679144700,8.715144775390625,-1.5399065517663955,0.28640286646485325,-0.03277677270323038
1684200815689170700,8.725170654296875,-1.5996335829764603,0.07326689626276493,-0.03880903860479593
1684200815699197400,8.735197509765625,-1.3491612770706414,0.005865677163004875,-0.0180883221372962
1684200815709223400,8.745223388671874,-1.0757938332676886,0.15582359891831873,0.0929226138472557
1684200815719249400,8.75524951171875,-1.0293068073809146,0.4289934743225574,0.17690321182608604
1684200815729275400,8.765275390625,-0.8174076854974031,0.6002063655525446,0.21794921570271253
1684200815739301400,8.77530126953125,-0.230841138240695,0.7482716054290532,-0.050686523403227324
1684200815749327400,8.785327392578125,0.41823008824586866,0.9766875623494387,-0.39112873083055016
1684200815759353600,8.795353515625,1.0192267273932696,1.0676017589837312,-0.5491098000437021
1684200815769379600,8.805379638671875,0.5179249727070331,0.7926648739069699,-0.4978668118014931
1684200815779405600,8.815405517578125,-0.4701116666525602,0.3585626782685518,-0.4688306869313121
1684200815789431600,8.825431640625,-1.0697867018073797,0.14152443993091582,-0.38738194551765914
1684200815799457500,8.83545751953125,-1.2834148394405842,0.05750818611681461,-0.2679027486562729
1684200815809483500,8.8454833984375,-1.4331921439319848,0.06074117668867111,-0.19782354251891374
1684200815819509500,8.855509521484375,-1.409213302451372,0.10773849018514156,-0.21164894651472568
1684200815829535500,8.865535400390625,-1.130213990241289,0.13164660451710222,-0.18434505226463077
1684200815839561500,8.8755615234375,-0.7733540242373943,-0.01917231798171997,-0.22613018407076596
1684200815849587500,8.88558740234375,-0.43573648230936374,-0.22445874372720717,-0.40223581577837464
1684200815859613400,8.895613525390624,-0.34209377402663227,-0.39052141258716583,-0.5209235700011253
1684200815869640700,8.905640625,-0.5112152094027027,-0.40004736582338807,-0.47146220447868104
1684200815879666700,8.915666748046876,-0.42324174239542334,-0.2682937938004732,-0.5820809262752532
1684200815889692700,8.925692626953126,-0.34884438079800456,-0.0456400536686182,-0.673477937990427
1684200815899718400,8.935718505859375,-0.5488321156134829,0.19732406856417656,-0.5291343489855528
1684200815909744400,8.945744384765625,-0.4289946068337187,0.43666123247146604,-0.5793690369680523
1684200815919770400,8.955770263671875,-0.2801437330048531,0.5291016157597304,-0.5783955157607793
1684200815929796400,8.96579638671875,-0.3699029509177431,0.48916357312500475,-0.4928603818163275
1684200815939822300,8.975822265625,-0.5322773231863975,0.4770440962642431,-0.40063510258346796
1684200815949848300,8.985848388671876,-0.5888274413933977,0.5301759669929742,-0.3668716569304466
1684200815959874600,8.99587451171875,-0.5978367138117552,0.5744868178844451,-0.28075433918386694
1684200815969900500,9.005900634765625,-0.5617084752561524,0.4487584975004196,-0.20077713162750005
1684200815979926500,9.015926513671875,-0.44759771009273824,0.1968646343588829,-0.17012188112288712
1684200815989952500,9.025952392578125,-0.3101163350075483,-0.12007424014508723,-0.20401333706974983
1684200815999978500,9.035978515625,-0.15881101723127067,-0.46346506824493405,-0.25123218436241146
1684200816010004500,9.04600439453125,-0.08493618167061358,-0.6416396151810884,-0.2196706326678395
1684200816020030500,9.056030517578124,-0.21606851652264594,-0.41641397873461244,0.052450025944411754
1684200816030057500,9.066057373046876,-0.3007236527621746,-0.16877192781865596,0.30345979972779746
1684200816040083500,9.07608349609375,-0.24909283424615858,0.00390869787633419,0.47372635001838204
1684200816050109700,9.086109619140625,-0.20063187793791293,0.10400105722248554,0.40108167730718847
1684200816060135700,9.0961357421875,-0.07294248661398887,0.16992285141944885,0.20030717602819204
1684200816070161700,9.10616162109375,0.15856456818953155,0.0658259326070547,0.0021601006433367726
1684200816080187600,9.116187744140625,0.34773324121832844,0.023189736929535864,0.051663551741838454
1684200816090213600,9.126213623046874,0.42315936134159565,-0.020805472141504286,0.10263269147872925
1684200816100239600,9.136239501953124,0.49651517799682915,-0.07783201222121715,-0.0030158406898379325
1684200816110265600,9.146265625,0.4740419187735766,-0.10233224722743034,0.03275076147913933
1684200816120291600,9.15629150390625,0.39034956315159797,-0.10382628517746925,0.177455292750895
1684200816130317600,9.166317626953125,0.32180450777895747,-0.20978023003339766,0.22806232117712497
1684200816140343600,9.176343505859375,0.235097042119503,-0.4356833273500204,0.2548714176476002
1684200816150369500,9.18636962890625,0.1363070706088096,-0.6074409929811954,0.3377273955106735
1684200816160395500,9.1963955078125,0.18027363810725508,-0.6714315268546343,0.33335809438526626
1684200816170421500,9.20642138671875,0.2985217588037252,-0.6273813727259635,0.35805735909491776
1684200816180447500,9.216447509765626,0.39082010327279565,-0.5258294622212648,0.4412544054806232
1684200816190474500,9.226474609375,0.4675304179877042,-0.37973698372244835,0.4762155364856124
1684200816200500500,9.23650048828125,0.5226052394777536,-0.20176994205713272,0.5168772172197699
1684200816210526500,9.2465263671875,0.5704560279984027,-0.030808395239710806,0.4992313781529665
1684200816220552400,9.256552490234375,0.5977928746700286,0.0678653294801712,0.4134694497153163
1684200816230578400,9.266578369140625,0.5800052890449762,0.08477788583636284,0.2309802544504404
1684200816240604700,9.276604736328125,0.6071850454587489,0.1284931089222431,0.007786123831570148
1684200816250630700,9.286630615234374,0.6643974634993821,0.23190146094858646,-0.21581015784740445
1684200816260656600,9.29665673828125,0.7144213582754134,0.2705108853280544,-0.39210868177860975
1684200816270682600,9.3066826171875,0.6858510242860764,0.19826982498168944,-0.43821255356669425
1684200816280708600,9.31670849609375,0.5677502031058073,0.040303368815779686,-0.41817865031957624
1684200816290734600,9.326734619140625,0.4401344615399837,-0.14973171178400516,-0.29935265666991473
1684200816300760600,9.336760498046875,0.2631143453359604,-0.29829087265729903,-0.21201135008633135
1684200816310786600,9.34678662109375,0.1090701041150838,-0.40482700131535526,-0.10182985066324472
1684200816320812500,9.3568125,0.010343626294657588,-0.4901975923478603,0.010512333925068378
1684200816330838500,9.366838623046876,-0.09386661669909954,-0.5092506678640842,0.15333996540904044
1684200816340864500,9.376864501953126,-0.18866605726890265,-0.4861217212110758,0.33198797507584094
1684200816350890800,9.386890869140625,-0.22655301259271798,-0.4983937582850456,0.5402902415111661
1684200816360917500,9.39691748046875,-0.2984310848455876,-0.569973724374175,0.7463990895554423
1684200816370943500,9.406943603515625,-0.39145131384842097,-0.6047481006354093,0.944274946783483
1684200816380969500,9.416969482421875,-0.4836134647171944,-0.5219762939244509,1.1745181191310285
1684200816390995500,9.426995361328125,-0.5184907898962497,-0.3298129691243171,1.4120719067528844
1684200816401021400,9.437021484375,-0.520185976441577,-0.06488192975521087,1.6618109299480914
1684200816411047400,9.44704736328125,-0.46867608089148993,0.23516893831193444,1.8618103552013634
1684200816421073400,9.457073486328126,-0.3077799279492348,0.5014630827277898,2.039195505325496
1684200816431099400,9.467099365234375,-0.029389103026315568,0.5968868657410145,2.060465964630246
1684200816441125600,9.477125732421875,0.3267221635021269,0.5476520024508238,1.8909151613935826
1684200816451151600,9.487151611328125,0.7040157726604491,0.3809089501112699,1.5342387352630495
1684200816461177600,9.497177490234375,1.0835406480021774,0.22469372152686118,1.1734954980850218
1684200816471203600,9.50720361328125,1.4400743046611546,0.18728899676203728,0.907983736218512
1684200816481229600,9.5172294921875,1.8611990914352237,0.2751701093107462,0.7699898085013032
1684200816491255600,9.527255615234376,2.280520335918665,0.3730447926074266,0.6213251414269209
1684200816501281500,9.537281494140625,2.624322667428851,0.4206248744279146,0.5037149533078075
1684200816511307500,9.5473076171875,2.769163100039959,0.41781215509474273,0.4382698367118835
1684200816521334500,9.55733447265625,2.775490549495816,0.37153321900069713,0.3667988839551806
1684200816531360500,9.567360595703125,2.6243366959542036,0.2419593291044235,0.2699585121423006
1684200816541386500,9.577386474609375,2.4395868622809647,0.11237842494547366,0.11004501356184482
1684200816551412500,9.58741259765625,2.522097972229123,0.095367084389925,-0.023943770167231558
1684200816561438500,9.5974384765625,3.310762378323078,0.1594891356885433,-0.18156623520106077
1684200816571464000,9.6074638671875,4.887492640095949,0.13232406538724897,-0.23879092820137737
1684200816581490000,9.617489990234375,5.851636947214603,-0.038325931262969966,-0.1558434726625681
1684200816591516000,9.627515869140625,4.058784392905235,-0.23329145400226114,0.14302227727323769
1684200816601542000,9.6375419921875,0.9214239402890205,-0.25720775164067744,0.29421558604240416
1684200816611567900,9.64756787109375,-2.0198352635562418,-0.13218670274317265,0.2691442731499672
1684200816621593900,9.65759375,-4.410405873733759,-0.029179332733154296,0.2648164730787277
1684200816631619800,9.667619873046876,-5.824372508192062,0.5286398434668779,-0.011175766269862651
1684200816641645800,9.677645751953126,-4.900953010171651,1.4743652813196182,0.05866144780516624
1684200816651671800,9.687671875,-2.9257930469051003,2.7544688042551275,0.9581336685270071
1684200816661697800,9.69769775390625,-1.7275649663627146,3.8968653997212646,2.1995611315876245
1684200816671725000,9.70772509765625,-2.347431433413923,4.139994357126951,3.525191310945153
1684200816681751000,9.7177509765625,-2.57534060985595,3.1469787603110073,4.266535747459531
1684200816691777000,9.727777099609375,-2.0858497044727207,1.8511071748793124,4.431460936722159
1684200816701803000,9.737802978515624,-2.0772680463492867,0.8631517840623855,4.302786041492223
1684200816711829000,9.7478291015625,-2.5953075853466987,0.10439093332290648,4.141479042726755
1684200816721855000,9.75785498046875,-2.910198587410152,-0.5211211383998394,3.37819691517055
1684200816731881000,9.767880859375,-3.109502431614697,-0.8581687349528073,2.2355460526823996
1684200816741907000,9.777906982421875,-2.170336060016602,-0.968902315300703,1.190714928433299
1684200816751933200,9.78793310546875,-1.1304784863963722,-0.8410942660331726,-0.4072048363626003
1684200816761959200,9.797959228515625,-0.8136828197553754,-0.47059915790855883,-1.9166957915991543
1684200816771985200,9.807985107421874,-0.9591963293224572,0.17265081507861613,-2.4197417596042157
1684200816782011100,9.81801123046875,-0.6968374785289168,0.7885919253796339,-2.8343939893633125
1684200816792037000,9.828037109375,-0.6574997398748994,1.2708780139505862,-3.1761417264312506
1684200816802063000,9.83806298828125,-0.8159495956435799,1.5609879182398319,-3.454915413191914
1684200816812089000,9.848089111328125,-0.9469742688700556,1.611340971904993,-3.596548574194312
1684200816822115000,9.858114990234375,-0.9170563927292823,1.4593892459839581,-3.5511990279048677
1684200816832140800,9.868140869140625,-0.8239493622258305,1.17620358799994,-3.1941625362902877
1684200816842168000,9.87816796875,-0.927571941524744,0.7527572264105081,-2.6205636071562766
1684200816852194000,9.888194091796874,-1.0176590396851302,0.4080255050957203,-2.0677707346856593
1684200816862220000,9.898219970703124,-1.1479565676808356,0.19407295781373976,-1.6252853261053561
1684200816872246000,9.90824609375,-1.1908017299339175,0.205613173481822,-1.2829431302756071
1684200816882272000,9.91827197265625,-1.1030848680362104,0.20537644211649894,-0.9568465513259172
1684200816892298000,9.928298095703125,-1.0892147481158374,0.14472060562372208,-0.7987590991288424
1684200816902324000,9.938323974609375,-1.0735820024371145,0.09205518336296081,-0.9397095385640859
1684200816912350000,9.948349853515625,-0.9425698964312672,0.04480068023502826,-1.1733207260400056
1684200816922376000,9.9583759765625,-0.8496908294647931,0.14333587326705455,-1.3673743946313857
1684200816932402000,9.96840185546875,-0.818224847099185,0.08882160826921462,-1.9427941094517707
1684200816942428000,9.978427978515626,-0.8739140010952949,-0.10224339990019797,-2.628960848623514
1684200816952454100,9.9884541015625,-0.8397676936045289,-0.2631792272657156,-2.870682277318835
1684200816962480000,9.998480224609375,-0.7013996718779206,-0.4692068267673254,-2.8018168308854103
1684200816972506000,10.008506103515625,-0.7228595162749291,-0.5532803637266158,-2.7360470123797653
1684200816982532000,10.018531982421875,-0.7887588063791394,-0.7043547222912311,-2.395752396729588
1684200816992558800,10.028558837890625,-0.7532453021883964,-0.8796107514321804,-2.0704273866742846
1684200817002584800,10.038584716796874,-0.6557461742058396,-0.9926216290622949,-1.9643997920602558
1684200817012610800,10.04861083984375,-0.5338707298576831,-1.0782266133725642,-1.9802432578802107
1684200817022636800,10.05863671875,-0.46739890056252476,-1.2323545142889023,-2.024403886646032
1684200817032662800,10.068662841796876,-0.4256184449315071,-1.3419342484265564,-2.076066853865981
1684200817042689000,10.07868896484375,-0.3561184999868274,-1.2650666973233222,-2.139095264708996
1684200817052715000,10.088715087890625,-0.3728568688198924,-0.9953156904518604,-2.079019273930788
1684200817062741000,10.098740966796875,-0.45245033775568005,-0.5690145239531994,-1.8950281496703623
1684200817072767000,10.10876708984375,-0.5569441469311713,-0.0517529835909605,-1.6229098291456698
1684200817082793000,10.11879296875,-0.6792308024287224,0.4523100525021553,-1.2477508208632468
1684200817092819000,10.12881884765625,-0.8189303650200367,0.7421762111634016,-0.8487655313134193
1684200817102845000,10.138844970703126,-0.838434837565571,0.7849614599227904,-0.47423897571563717
1684200817112871000,10.148870849609375,-0.6136814948059618,0.6022200434625148,-0.10851590429842471
1684200817122897000,10.15889697265625,-0.5537172938391566,0.12005319735705852,0.26622692439854145
1684200817132923000,10.1689228515625,-0.6112649351835251,-0.3286298968195915,0.7488935367196798
1684200817142948900,10.178948974609375,-0.5237643463850021,-0.5336988804221153,1.207490706667304
1684200817152976100,10.18897607421875,-0.44649391356930135,-0.5127127910166979,1.6061276211708784
1684200817163002000,10.199002197265624,-0.35728549793958664,-0.31957915987968444,1.959707250329852
1684200817173028000,10.209028076171874,-0.19170681320428848,-0.10752046352028846,2.2107827828258273
1684200817183054000,10.21905419921875,0.07852459759525954,0.0937415290147066,2.5552982310414314
1684200817193080000,10.229080078125,0.1850783349752426,0.45767070275247096,3.0782044992923736
1684200817203106000,10.23910595703125,0.1907457130871713,0.6582721855521202,3.132320120361447
1684200817213132000,10.249132080078125,0.2284440139710903,0.8898679415524006,2.877879495346546
1684200817223157800,10.25915771484375,0.15515775542072952,1.6343582748770713,2.6574381705671546
1684200817233184000,10.26918408203125,0.2769253554802388,3.048973144111037,2.3179145392894744
1684200817243210000,10.2792099609375,0.532423380593583,4.294834790226817,1.9227292265444993
1684200817253236000,10.289236083984376,1.512374401718378,3.9830549059212204,1.1786615025460718
1684200817263262000,10.299261962890625,2.886457938599586,2.18699917165637,-0.1675192974090576
1684200817273288000,10.309287841796875,3.7985821356236933,0.515565842360258,-1.3300509184092282
1684200817283314000,10.31931396484375,3.842227216082811,0.055446577411890026,-1.674734124407172
1684200817293340000,10.32933984375,3.4899534088253974,0.4380950646668672,-1.3809236120343207
1684200817303366000,10.339365966796874,2.865163806158304,0.6125298405528068,-1.1186878030985594
1684200817313393000,10.349392822265624,1.8047500589825212,0.12714403240084649,-1.1812819141775368
1684200817323419100,10.359419189453124,0.5064402866184711,-0.5404419249415398,-1.374132636719942
1684200817333445000,10.369445068359376,-0.7928548435211181,-1.1748930899232626,-1.6287644003927706
1684200817343471000,10.37947119140625,-1.676765337973833,-1.5903466991931199,-1.760821339276433
1684200817353497000,10.3894970703125,-1.9373241536080836,-1.5901351022690533,-1.544683849170804
1684200817363523000,10.399523193359375,-2.022504336635023,-1.2415163103878497,-0.8560475050151347
1684200817373549000,10.409549072265625,-1.9950142721630633,-0.6313292335689068,-0.0904611921697855
1684200817383575000,10.419574951171874,-1.9536019191920757,-0.11092354996204376,0.5070598798215389
1684200817393601000,10.42960107421875,-1.7394623249053953,0.1369341895312071,1.0234826312720775
1684200817403627000,10.439626953125,-1.2348679584145545,0.08877952269315718,1.5972282754004001
1684200817413653000,10.449653076171876,-0.5048492180347443,-0.19197160162031648,2.117113734525442
1684200817423679000,10.459678955078125,0.25653142328169193,-0.5245487747609615,2.480282445284724
1684200817433705200,10.469705322265625,0.8424807519555091,-0.7747697362542152,2.4422405916601417
1684200817443731000,10.47973095703125,1.02782329082489,-0.8074152837932109,1.8953841235011815
1684200817453757000,10.4897568359375,1.4866040006458758,-0.603644523307681,1.302234690722823
1684200817463783000,10.499782958984374,1.7159809115529059,-0.17849720301926136,0.35847266189754007
1684200817473810000,10.509809814453124,1.6439350815176963,0.06822305687665939,-0.2736731487512588
1684200817483836000,10.5198359375,1.386409934490919,0.16291268039643764,-0.7221072366029023
1684200817493862000,10.52986181640625,1.0139946719586848,0.16992402046322821,-1.0217466012597083
1684200817503888000,10.539887939453125,0.5701648630321026,0.1543658013254404,-1.203565057656169
1684200817513913900,10.549913818359375,0.10048048188090324,0.22561142089366912,-1.2289976050764322
1684200817523940000,10.559940185546875,-0.26942835078835486,0.3709931207746267,-1.0502250922471283
1684200817533966000,10.569966064453125,-0.5665665462791919,0.42568449590504165,-0.9683084410607814
1684200817543992000,10.579991943359374,-0.6354828461170197,0.4214256694167852,-0.9586889643222093
1684200817554018000,10.59001806640625,-0.7404898655116557,0.3475456096917391,-0.9518138178557157
1684200817564044000,10.6000439453125,-0.9121791420817374,0.28861586633920666,-0.9014040655672549
1684200817574070000,10.610070068359375,-1.0790133798360824,0.2462023735016584,-0.89629388294667
1684200817584096000,10.620095947265625,-1.249464639043808,0.23448913935422896,-0.8330228955194353
1684200817594122000,10.6301220703125,-1.4782137734413145,0.3134931179642677,-0.6721943279206752
1684200817604148000,10.64014794921875,-1.5312977133750914,0.43266544083356856,-0.6307856282114982
1684200817614174000,10.650174072265624,-1.4539537769317625,0.45678865922093387,-0.544628270715475
1684200817624201000,10.660200927734374,-1.3480723127901553,0.4688146125793457,-0.5697361162260174
1684200817634227000,10.67022705078125,-1.2264753931224346,0.4654156177908182,-0.5314645454987883
1684200817644253000,10.6802529296875,-1.0247335081160067,0.33978608160614965,-0.5263350736558438
1684200817654279000,10.69027880859375,-0.45614510062038893,0.4574462463468313,-0.38614100554585457
1684200817664305000,10.700304931640625,0.34349779560565946,0.47846682254374023,-0.2268272264242172
1684200817674331000,10.710330810546875,0.9734031338512897,0.3777390879034996,-0.1964966778293252
1684200817684356900,10.72035693359375,1.2510580457150935,0.23833353982269762,-0.21969255223870277
1684200817694382800,10.7303828125,1.128110295960307,0.07921382196843624,-0.4601122506856918
1684200817704408800,10.740408935546874,0.7298094815433025,0.028610592934489247,-0.527457355684042
1684200817714435000,10.75043505859375,0.19757543124305083,-0.07747896099984646,-0.5146168710723519
1684200817724461000,10.7604609375,-0.2858779658079147,-0.044348260292410846,-0.6663765815526247
1684200817734487000,10.770487060546875,-0.7732137389838695,-0.07141746900379657,-0.6524596998810768
1684200817744513000,10.780512939453125,-1.212546821013093,-0.16041151123046873,-0.5493585141077637
1684200817754539000,10.7905390625,-1.32818278644979,-0.20728549060821533,-0.49976270855069155
1684200817764565000,10.80056494140625,-1.183207913804054,-0.10796236206889152,-0.3135422178030014
1684200817774592000,10.810592041015624,-0.992830303376913,-0.0704097532659769,-0.16485767698436973
1684200817784618000,10.820617919921874,-0.6513513733129948,-0.011385901889204979,-0.10079173978716134
1684200817794644000,10.83064404296875,-0.4199462445139885,0.01853402007818222,0.020768355001509187
1684200817804670200,10.840670166015625,-0.2944400059154257,0.07115384963154793,0.09246697903424501
1684200817814696200,10.8506962890625,-0.2293500229001045,0.08144026584625244,0.07227057870179414
1684200817824722200,10.86072216796875,-0.11855448323190211,-0.0031236849784851074,0.21142127523869275
1684200817834748000,10.870747802734375,-0.12080956868231296,-0.12296177828013896,0.2599456521719694
1684200817844774000,10.88077392578125,-0.2397328486939892,-0.24330489849448203,0.35108898138701916
1684200817854800000,10.8907998046875,-0.1830044147780165,-0.20640870777368545,0.47067105410099025
1684200817864825900,10.900825927734376,-0.2074245702853426,-0.24556992081701753,0.408751481282711
1684200817874851800,10.910851806640625,-0.20651677125804124,-0.2883329577445984,0.3067904054552317
1684200817884877800,10.9208779296875,-0.21561485447101295,-0.3103068891435861,0.22940905961096286
1684200817894903800,10.93090380859375,-0.20114917981028554,-0.28031740907132624,0.10158055207729338
1684200817904929800,10.9409296875,-0.1434516086012125,-0.15133096367418766,-0.050402153503894806
1684200817914956000,10.9509560546875,-0.03864734523706138,-0.055556467527151106,-0.11353490150421858
1684200817924982000,10.96098193359375,0.1618389867503196,-0.011040449452400207,-0.14060644830316305
1684200817935009000,10.971009033203124,0.2759720733433962,0.09406243153214454,-0.20155016182661056
1684200817945035000,10.981034912109376,0.35356384706795213,0.22562895655035972,-0.0023617606952786446
1684200817955061000,10.99106103515625,0.4262181643903255,0.13630056780278682,0.05872574521303177
1684200817965087000,11.0010869140625,0.43165363344252106,-0.005559387692809104,-0.13160042728781698
1684200817975113000,11.011113037109375,0.38597624343819914,-0.1035930609434843,-0.2477507719874382
1684200817985139000,11.021138916015625,0.323470322099328,-0.2100964563757181,-0.22842823188006878
1684200817995165000,11.0311650390625,0.28450083223581313,-0.36659576259851456,-0.33116613729894157
1684200818005191200,11.041191162109374,0.3077507749199867,-0.38087270975410936,-0.4619894427344203
1684200818015217200,11.051217041015626,0.3620300621181726,-0.2344002920269966,-0.4380690534427762
1684200818025243100,11.0612431640625,0.4261463412631303,-0.0974625953644514,-0.438317475245893
1684200818035269000,11.07126904296875,0.5029664730280637,-0.061038113808631896,-0.33414223050028086
1684200818045295000,11.081295166015625,0.5179828403741121,-0.01341886902153492,-0.1729153112336993
1684200818055321000,11.091321044921875,0.36672311530523,0.07815525282621383,0.01132832648307085
1684200818065347000,11.10134716796875,0.13333989136628807,0.11834756248295307,0.20608254455924033
1684200818075373000,11.111373046875,-0.04176635404042899,0.010742927810549736,0.3379007062509656
1684200818085399800,11.12139990234375,-0.17410101388692856,-0.16945815651714802,0.36922201944887634
1684200818095426000,11.131426025390626,-0.23683716378509997,-0.31705051818490027,0.3312126067891717
1684200818105452000,11.1414521484375,-0.19642156676650047,-0.36966800965070723,0.27612317225188016
1684200818115478000,11.15147802734375,-0.10985972012281417,-0.3671241703867912,0.2470581135481596
1684200818125504000,11.16150390625,0.15100195091553031,-0.3444897292524576,0.16810440382063388
1684200818135530000,11.171530029296875,0.4710744472701102,-0.29411095662415027,0.10795388650149107
1684200818145556000,11.181555908203125,0.7459499575484544,-0.18441022645533084,0.02099018105864525
1684200818155582000,11.19158203125,0.8931710747510194,-0.01175882685482502,0.012281097163259983
1684200818165608000,11.20160791015625,0.8620798439819365,0.07522679815888404,0.10504004488140344
1684200818175634000,11.211634033203126,0.6570488543022424,0.014399696752429008,0.27277766121625896
1684200818185660000,11.221659912109375,0.4348164813876152,-0.06548983252048492,0.4368991328805685
1684200818195686100,11.23168603515625,0.28338848707973957,-0.167188458019495,0.541573559319973
1684200818205712100,11.241712158203125,0.22527122915387152,-0.3193652248680591,0.6302420228540897
1684200818215738000,11.251738037109375,0.20149287868142127,-0.49863458130359645,0.8192091819614171
1684200818225764000,11.26176416015625,0.1312426998913288,-0.5862433066517114,1.0822241585761307
1684200818235790800,11.271790771484374,-0.0232399327468127,-0.4341775989621877,1.3694029778495431
1684200818245816800,11.28181689453125,-0.15719313370585442,-0.02239829429090023,1.753655685430765
1684200818255842800,11.2918427734375,-0.16270415221229195,0.44304304246306414,2.077470583184063
1684200818265868800,11.301868896484375,0.02084565802142024,0.7643740144461393,2.156899216946959
1684200818275894800,11.311894775390625,0.2984790887057781,0.8538970489829778,2.1079425860762595
1684200818285921000,11.321921142578125,0.5050001708127558,0.7852484601706265,2.031118289592862
1684200818295947000,11.331947021484375,0.5926952592700719,0.7557756974488496,2.0100635188654064
1684200818305973000,11.341972900390624,0.5366869563221931,0.9198907393723725,2.17623753914535
1684200818315999000,11.3519990234375,0.41556466842889783,0.9639853171646594,2.2483739700734615
1684200818326025000,11.36202490234375,0.2998819412410259,0.8503805652946234,2.0915461625486613
1684200818336051000,11.372051025390626,0.3107229225985706,0.6457511421531439,1.8070885849326848
1684200818346077000,11.382076904296875,0.5378128916122019,0.3721101421058178,1.3442226516246796
1684200818356103000,11.39210302734375,1.0683271506488323,0.20425006843507287,0.7628811455398797
1684200818366129000,11.40212890625,1.9774716012097895,0.15659107615947723,0.207066002638638
1684200818376155000,11.41215478515625,2.7984569990634918,0.11344751548171043,-0.2418722353428602
1684200818386180900,11.422180908203124,3.1002246079206466,-0.0010772738426923752,-0.43279695825874803
1684200818396208000,11.4322080078125,2.842000957235694,-0.15360533834695816,-0.5134022345855832
1684200818406234000,11.442234130859376,2.1539356909662484,-0.32418753045797344,-0.5534878689974546
1684200818416260000,11.452260009765626,1.3439631239056586,-0.5142103360980749,-0.6301499606564641
1684200818426286000,11.4622861328125,0.6345499491810799,-0.6389093134343624,-0.6745780081868171
1684200818436312000,11.47231201171875,0.3157014416635036,-0.8096727073311806,-0.48987318269908425
1684200818446338000,11.482338134765625,0.7140075167775154,-1.0901292326122523,-0.34263299546986814
1684200818456364000,11.492364013671875,1.8950825102061033,-1.0460253024697304,-0.1482832665413618
1684200818466390000,11.50239013671875,3.6659213856279846,-0.5879512796133757,0.28758009355068204
1684200818476416000,11.512416015625,4.199607991090416,0.3867787189275026,0.3575704523608088
1684200818486442000,11.52244189453125,2.6981927902817726,1.4334820667892694,0.07951631204634904
1684200818496468000,11.532468017578125,0.478972397445701,2.278576216113567,-0.0880883255586028
1684200818506494000,11.542493896484375,-1.8599580053329468,2.6248873155742882,-0.28502281028330323
1684200818516520000,11.55252001953125,-3.837399065274,2.625305248725414,-0.39643618958890436
1684200818526546000,11.5625458984375,-4.022040177875757,2.2787468965053557,-0.07224573652148246
1684200818536572000,11.572572021484374,-3.9275884547650812,1.9228987378925084,-0.04809095395207405
1684200818546599000,11.582598876953124,-3.975300638532638,1.8747715435832737,-0.009025017976760863
1684200818556625000,11.592625,-3.1932620803192258,1.723175791493058,0.5540659611463546
1684200818566651000,11.60265087890625,-1.695370669722557,1.3554179993778466,1.2154121473163366
1684200818576678000,11.612677978515626,-1.2774117996335028,1.0309703566789628,1.2117103701889513
1684200818586704000,11.622703857421875,-1.7615794641673563,0.774568660724163,1.2660522012293338
1684200818596729900,11.632729736328125,-2.2853481944665313,0.5627542945146561,1.4887959577322005
1684200818606756000,11.642756103515625,-2.427442104848474,0.2508557522654533,1.479908302399516
1684200818616781800,11.65278173828125,-1.6438872968532143,0.0850450123399496,1.5322463924020528
1684200818626807800,11.662807861328124,-1.4190100354529915,0.14926234070658684,1.3953916978478431
1684200818636833800,11.672833740234376,-1.0936053842902183,0.25374153683483597,0.5560697021842003
1684200818646859800,11.68285986328125,-1.065187099057436,0.521248564171791,-0.5302887797176837
1684200818656885800,11.6928857421875,-1.1338029546439647,0.7558359032034874,-1.2512293106287717
1684200818666911700,11.702911865234375,-1.1656871624216436,0.6356465122461319,-1.890916622698307
1684200818676937700,11.712937744140625,-1.14720253444314,0.5487953272670507,-2.186172657704353
1684200818686963700,11.722963623046875,-1.1261870728127659,0.5481786566734314,-2.2806349022090435
1684200818696991000,11.732990966796875,-1.1104117037929593,0.5514455495148897,-2.332072243979573
1684200818707017000,11.743016845703124,-0.7256453476011753,0.5778922424137592,-2.610191850745678
1684200818717043000,11.75304296875,-0.9535983631849289,0.7107324406296014,-2.8003309762418267
1684200818727069000,11.76306884765625,-1.5894192090846597,0.3658697864115238,-2.715475348994136
1684200818737095000,11.773094970703125,-1.1087465470597146,0.20761223834455012,-2.9094162048608063
1684200818747121000,11.783120849609375,-1.0861267189726234,-0.10458791719973087,-2.959394579994678
1684200818757147000,11.79314697265625,-1.0486451295793056,-0.29937574528455735,-2.71033798610568
1684200818767172900,11.8031728515625,-0.692299542838335,-0.225206931746006,-2.3622563698410985
1684200818777198800,11.81319873046875,-0.44708325776457786,-0.28423429025411606,-1.9428350259840488
1684200818787224800,11.823224853515624,-0.4022758555278182,-0.29833880345225333,-1.703271067583561
1684200818797250800,11.833250732421876,-0.2742379430271685,-0.13750702098309994,-1.6326035401642323
1684200818807277000,11.843277099609375,-0.28338293412178756,0.03204465903639793,-1.4645271933943032
1684200818817303000,11.853302978515625,-0.6548927722468972,0.3147451638519764,-1.1611591636031866
1684200818827329000,11.8633291015625,-0.945766938906908,0.2084194630742073,-0.7617430814206599
1684200818837355000,11.87335498046875,-0.986852982532978,0.02833937477767467,-0.6087631814956664
1684200818847381800,11.8833818359375,-1.1674131094314157,0.05583294638097286,-0.4307067079812288
1684200818857407700,11.89340771484375,-1.1402492081739009,0.08890870203077793,-0.6330243470489978
1684200818867433700,11.903433837890624,-1.0256497461780905,0.02457330024242401,-0.9560942716538906
1684200818877459700,11.913459716796876,-0.9439104973852633,-0.12142097857892513,-1.1695026290565729
1684200818887485700,11.923485595703125,-0.715860158906877,-0.20777531995177267,-1.2495751136809587
1684200818897512000,11.933511962890625,-0.35853140634745356,-0.19083762915432453,-1.11227092179358
1684200818907538000,11.943537841796875,0.11342632656320929,-0.0712158089518547,-0.8166630046099423
1684200818917564000,11.95356396484375,0.4336170424699783,0.06424187828600406,-0.47725978484153747
1684200818927590000,11.96358984375,0.4361467070780694,0.11262392413914203,-0.10827098962664604
1684200818937616000,11.973615966796874,0.4776091828010976,0.2177875954002142,0.314391528108716
1684200818947641900,11.983641845703126,0.6492378152251244,0.2995546089828014,0.1721633238226175
1684200818957667800,11.993667724609375,0.6375219507291913,0.27218670958578584,-0.26092414181530477
1684200818967693800,12.00369384765625,0.6371712375953793,0.1901239279270172,-0.6532055498123168
1684200818977719800,12.0137197265625,0.4380043176434934,-0.20456161860227584,-0.8222165470838546
1684200818987745800,12.023745849609375,0.3559355446353554,-0.449044913226366,-1.055563530665636
1684200818997773000,12.03377294921875,0.1632163395181298,-0.4763298105150461,-1.292215985533595
1684200819007798800,12.043798828125,-0.0007924655519425868,-0.7447767490506172,-1.2774036163270472
1684200819017824800,12.05382470703125,-0.14546572490260004,-0.7306015087038278,-1.3471359087228774
1684200819027850800,12.063850830078126,-0.5984605447985232,0.5025841957122087,-2.2401748815268276
1684200819037876700,12.073876708984375,-0.9767886846363544,-0.07523556598722934,-1.6925889300495385
1684200819047902700,12.08390283203125,-0.4050855061210692,-1.138916352134943,-0.16752572714984415
1684200819057928700,12.0939287109375,-0.10394348181635141,-2.022789437186718,1.338475632405281
1684200819067954700,12.10395458984375,-0.20008841871097682,-2.1312030501544474,1.8802905992656944
1684200819077980700,12.113980712890625,-0.47273587767630815,-1.861605772539973,2.2009774281263352
1684200819088007000,12.1240068359375,-0.4352325148425996,-1.0694535243302583,1.6990367910146713
1684200819098033000,12.134032958984376,-0.40019641890525814,-0.9035773179531097,1.037769515299797
1684200819108059000,12.144058837890626,-0.29838892620429397,-1.3206155660659074,0.7482368263766169
1684200819118084900,12.1540849609375,-0.10700491521358489,-1.755619678980112,0.45821226228326556
1684200819128110800,12.16411083984375,-0.03779036308154463,-1.9509540350317953,-0.07524228798896074
1684200819138137900,12.174137939453125,0.18491598402038215,-1.4511457337737084,-0.5287710686311126
1684200819148163800,12.184163818359375,0.4164377980016172,-0.2532593062758446,-0.7902771019876003
1684200819158189800,12.19418994140625,0.5749706558786333,0.8250999935656785,-0.9838216520130634
1684200819168215800,12.2042158203125,0.6169627084337175,1.4873621255367993,-0.44524172155112024
1684200819178242000,12.214241943359376,0.7332102298974991,2.21779003123939,0.7903723790556192
1684200819188268000,12.22426806640625,0.44905653059892353,3.4938585995703932,1.8108526136413217
1684200819198294000,12.2342939453125,0.8739969301383942,4.287950291410088,2.049452695445716
1684200819208320000,12.244320068359375,1.7495500036776064,3.939422684943676,1.705229215914011
1684200819218346000,12.254345947265625,2.410069091373682,2.883341852405667,1.416533562336862
1684200819228372000,12.2643720703125,2.8102725245416162,1.768260549366474,1.274286068828404
1684200819238398000,12.27439794921875,3.3277462463498115,0.8652215760737657,1.5203271142885089
1684200819248424000,12.284423828125,3.159388744550943,0.08981354191601276,2.2005215010523793
1684200819258450000,12.294449951171876,1.8318705594897269,-0.9107780431121587,2.7696222419843077
1684200819268475600,12.3044755859375,0.42825573463253674,-1.7648036869108676,2.6361361470803617
1684200819278501600,12.314501708984375,-0.4449626123487949,-2.1511475215524434,1.8284785789638756
1684200819288529000,12.32452880859375,-0.8788802452005445,-1.9038269576758144,0.7190159925892948
1684200819298555000,12.334554931640625,-0.9908815073966979,-1.0867740769654513,-0.45642771695405243
1684200819308580900,12.344580810546875,-0.9730793817896395,-0.38442952545285225,-1.5673314420476554
1684200819318606800,12.35460693359375,-0.9460838228363543,-0.04468786751031875,-2.673922856900096
1684200819328632800,12.3646328125,-0.9618976241704076,0.39054946963787074,-3.424577558073401
1684200819338658800,12.374658935546876,-1.0544237129807472,1.016098366239667,-3.703165366873145
1684200819348684800,12.384684814453125,-1.4029028041303158,1.3046288923829794,-3.614859306910634
1684200819358710800,12.394710693359375,-1.789507773926109,0.8227081299930811,-2.961104891043901
1684200819368736800,12.40473681640625,-1.8326807068288324,0.21549685411453245,-1.7566347012415526
1684200819378763000,12.414762939453125,-1.6406149971842765,-0.012617489510774611,-0.6183338506564497
1684200819388789000,12.4247890625,-1.422505330222845,0.0532996285110712,0.3622825755745172
1684200819398815000,12.43481494140625,-1.0749778407096862,0.34665012215673924,1.1558341691881417
1684200819408841000,12.444841064453126,-0.8085900266610085,0.7543903805702924,1.3018515366241334
1684200819418867000,12.454866943359375,-0.5951964284360408,1.1137076765984295,0.9439262794762849
1684200819428893000,12.464892822265625,-0.5093044438779354,1.3394821790993212,0.17318828295618294
1684200819438919700,12.474919677734375,-0.4230431876160204,1.5742261699974536,-0.8823121193453669
1684200819448945700,12.484945556640625,-0.2710335209626704,1.5051859515190125,-1.602675727151334
1684200819458972000,12.494971923828125,-0.1228992344379425,1.4510101246953009,-1.9116089898541568
1684200819468998000,12.504997802734374,-0.028004297604411837,1.5430477724015712,-1.7925179155275224
1684200819479023900,12.51502392578125,-0.353738472982496,1.1570429604560135,-1.5474650043219327
1684200819489049900,12.5250498046875,-1.2046632281564176,0.6915887642204761,-1.0805492111012338
1684200819499075800,12.535075927734376,-2.0177413600169123,0.9725473938047885,-0.6189698104724287
1684200819509101800,12.545101806640625,-2.2312194216549397,1.3244839319318533,-0.6013873920306563
