time,seconds_elapsed,z,y,x
1684200669094108200,0.030108154296875,3.8886815087437627,2.7316566684663295,-1.7801526472121476
1684200669104134100,0.040134033203125,5.873073702996969,0.8940864360302686,-1.7679688729435203
1684200669114160400,0.050160400390625,6.677036215987801,1.2144278124541044,-0.963390127750486
1684200669124186400,0.060186279296875,6.004623861402273,0.7849673051416873,-0.10965835233181714
1684200669134212400,0.07021240234375,3.1993887465059756,-1.042318264645338,-0.6408125167071819
1684200669144238300,0.08023828125,0.24668577310442924,-3.2499457983106375,-2.800011827290058
1684200669154264300,0.090264404296875,-0.4018880252540111,-3.97818817666769,-4.437510446019471
1684200669164289300,0.100289306640625,1.4089151962876318,-2.8131331746697423,-4.587119115945697
1684200669174315300,0.110315185546875,-0.5858908399522305,-4.264415686565638,-9.609477907127141
1684200669184341200,0.12034130859375,-2.402308978766203,-4.288195206081867,-12.073390816891193
1684200669194367200,0.1303671875,5.152504343485832,3.44095527690053,-0.4564302011720836
1684200669204393200,0.140393310546875,3.7519285209983586,6.762358291703462,0.29630693229846655
1684200669214419200,0.150419189453125,1.4557570269614457,6.898332111769914,-1.0257730802968144
1684200669224445200,0.160445068359375,2.008063577219844,5.656598359239101,-0.8761864760719239
1684200669234471200,0.17047119140625,3.7365129252016542,4.7495916513592,0.44143677631020545
1684200669244497400,0.180497314453125,4.852487377688289,3.9712919874131676,1.1724188087642191
1684200669254523400,0.1905234375,6.323188291281461,3.761187347730994,0.9623629766598343
1684200669264549400,0.20054931640625,7.856633538079262,4.487926920309662,-0.9243506413906812
1684200669274575400,0.210575439453125,8.77746418865025,5.442081163811683,-2.766844301703572
1684200669284600300,0.220600341796875,8.754910411536693,7.201715923652053,-3.6734757465302943
1684200669294626300,0.230626220703125,8.095237127014995,9.043211805099249,-4.809060908415914
1684200669304652300,0.24065234375,7.409428699761628,10.580687914848326,-5.019505155315995
1684200669314678300,0.25067822265625,7.04455610769391,12.229582080078124,-6.4341375602066515
1684200669324704300,0.260704345703125,5.2445484209328885,12.858532309556006,-6.6691469240427015
1684200669334730200,0.270730224609375,4.07849885493964,12.994580948424339,-5.089772285240889
1684200669344756200,0.280756103515625,3.608931670427322,13.139859187930822,-3.1040742690861225
1684200669354782200,0.2907822265625,3.5858313653469085,13.432082723373174,-2.035387052953243
1684200669364808200,0.30080810546875,2.853128500449657,13.684548248922823,-2.1265122619897125
1684200669374834200,0.310834228515625,1.4848141946196556,13.406452607554197,-2.1521511456370352
1684200669384860200,0.320860107421875,0.443233596599102,13.013552190876005,-1.089558739247918
1684200669394886100,0.33088623046875,-0.027428141684271393,13.298832775312661,0.427630953797698
1684200669404911400,0.340911376953125,-0.26013079948052764,13.570271881401538,2.0729683033287523
1684200669414937300,0.350937255859375,-0.22490882558226585,13.373298525971174,4.546365665274858
1684200669424963300,0.36096337890625,-0.06936886591091751,13.07235041680336,8.07297736441195
1684200669434989000,0.370989013671875,-1.1772411143541335,12.075612000072002,12.690242612296343
1684200669445015000,0.38101513671875,-3.136988696694374,10.124246461629866,15.40278424592614
1684200669455041300,0.391041259765625,-4.182508972251415,8.290579081851243,16.885754858505724
1684200669465067300,0.4010673828125,-5.929864680755138,6.785284993782639,18.26256460548043
1684200669475093200,0.41109326171875,-3.034202860480547,6.1436336881637565,18.35876171095371
1684200669485119200,0.421119140625,-1.0197077889084816,6.1863569776028395,18.89467592933774
1684200669495145000,0.43114501953125,0.3876596664804965,5.738886766347289,19.551158308863638
1684200669505171000,0.4411708984375,1.8109668876707552,5.205926137071848,19.824974080955982
1684200669515196200,0.451196044921875,2.1052456020772454,4.7497412889629596,20.19658270328045
1684200669525222100,0.46122216796875,0.945181247973442,3.6986265543997288,20.383260290145873
1684200669535248100,0.471248046875,0.7502747619450092,1.773202681943774,19.925792416489124
1684200669545274000,0.481274169921875,1.7353075433135032,-0.19063596910238265,20.447225689578055
1684200669555300000,0.491300048828125,1.6902648710161448,-0.6005629239052533,19.499051689529416
1684200669565326000,0.501326171875,1.0797083763629198,-2.47769768948853,17.826983569461106
1684200669575352000,0.51135205078125,2.6285721415668726,-3.049416796225309,16.65771416463852
1684200669585378000,0.5213779296875,3.8029420843988655,-3.2840432982236143,15.58572556887269
1684200669595404000,0.531404052734375,4.470247471234202,-3.9071535695016384,13.991693459165095
1684200669605430000,0.541429931640625,5.190038832110166,-4.661754962474108,12.16756196949482
1684200669615456000,0.5514560546875,4.791020809334516,-5.4243713195979595,10.248120678579806
1684200669625481200,0.561481201171875,4.552416928137839,-5.897274078273773,9.55114320705831
1684200669635507200,0.571507080078125,5.182003994214535,-5.960450373154878,9.075681996071339
1684200669645533200,0.581533203125,5.711234789311885,-6.246993524873257,7.926075907617807
1684200669655559200,0.59155908203125,5.985658464169502,-6.366734587541222,6.397073027181625
1684200669665585200,0.601585205078125,6.497548832887411,-6.307708398076891,5.2909278947919605
1684200669675611100,0.611611083984375,6.290995163685083,-5.749295347636938,4.666759638893604
1684200669685637000,0.62163720703125,5.739041664648056,-4.558358885407448,1.9601257680028676
1684200669695662800,0.631662841796875,7.040389051142334,-3.9925627389788625,-2.3325977291584015
1684200669705688800,0.641688720703125,7.161576220965385,-0.33013971686065197,0.9914303734511136
1684200669715715000,0.651715087890625,5.487784345844387,1.3889812462836504,-1.9484031815052032
1684200669725741000,0.661740966796875,-0.5303481086894869,-0.5317547606170178,-0.48180794966518875
1684200669735767000,0.67176708984375,-2.3870047343894836,-1.835854076167941,-1.6568050844848154
1684200669745792300,0.681792236328125,1.8215613469213245,-1.6045961738198995,-2.0907301699906586
1684200669755818200,0.691818359375,0.14160978012681005,-4.926646254354715,2.6609704363465307
1684200669765844200,0.70184423828125,-2.652214298439026,-3.62131944283545,-7.198816695079207
1684200669775870200,0.7118701171875,0.3374734207496047,-0.8685551044106483,-3.8173645775049923
1684200669785896000,0.72189599609375,-5.099885098454356,-3.8287317746937273,7.769213613301515
1684200669795922000,0.731921875,-6.16423691573143,-4.0305955325141545,3.9677953774690624
1684200669805948000,0.741947998046875,-1.3764011661738156,2.4120728324115275,-4.914238023680448
1684200669815974000,0.751973876953125,-3.150783413290977,6.727277625972032,-10.113940171670913
1684200669826000000,0.761999755859375,-6.1214136730492115,7.648754173231125,-6.638454264137149
1684200669836025900,0.77202587890625,-2.7425223458737134,7.611744585263729,-7.2989154841661446
1684200669846052000,0.782052001953125,-1.3387000888109206,6.113307523483037,-7.771071223866939
1684200669856078000,0.792078125,0.11547858291789889,6.917794352608919,-9.650497315257788
1684200669866103300,0.802103271484375,2.257648140505701,7.725641013556718,-9.458329314282535
1684200669876129000,0.81212890625,3.8490859959363934,4.977592013216018,-6.501394986921548
1684200669886155000,0.822155029296875,5.064990895205736,2.164845207515359,-4.160706305766105
1684200669896181000,0.832180908203125,4.156505931466818,1.4853341268405318,-4.3461622418820856
1684200669906207000,0.84220703125,2.016326963174343,1.517408304232359,-4.110022412711381
1684200669916233000,0.85223291015625,-2.2968179752469062,3.460992687278986,-2.4257915611624714
1684200669926259000,0.862259033203125,-3.04544263189733,4.072023521445692,-2.0302461829334497
1684200669936285000,0.872284912109375,0.9204851981341838,1.1111755277723074,-4.470455561026931
1684200669946311000,0.882310791015625,0.5362380435109139,-1.4135761738359927,-6.056987670367956
1684200669956337000,0.8923369140625,0.5096534034460782,-2.503693716010451,-3.1375989375472066
1684200669966363000,0.90236279296875,0.5624667097449302,-1.7278735939204692,-0.06859773540794849
1684200669976388000,0.91238818359375,2.011151606363058,-0.7869371439099312,1.8665981739997863
1684200669986414000,0.9224140625,3.321410029065609,-2.2366385240942237,3.6259833429932593
1684200669996440000,0.932440185546875,2.35563256778717,-0.9049000909894704,4.89745055500865
1684200670006466000,0.942466064453125,1.6199964259169994,0.8657891468286514,3.494590420976281
1684200670016492000,0.952491943359375,1.3654663690529762,0.9758096104711294,2.3968431145757436
1684200670026518000,0.96251806640625,0.40707755672112106,0.6838087778687477,2.844570515462756
1684200670036544000,0.9725439453125,-1.9408252935968338,-0.036030513802170754,3.256664292910695
1684200670046570000,0.982570068359375,-5.51249033255577,0.8985872545808553,4.201652648660541
1684200670056596000,0.992595947265625,-4.982352359485626,2.387992284122109,6.748668789047002
1684200670066622000,1.0026220703125,-3.403764779408276,3.7663539367139336,7.9396099274516105
1684200670076648000,1.01264794921875,-1.532895942351967,3.5229707122862335,7.584715124040842
1684200670086674000,1.022673828125,0.47302784636020656,2.6438369307160374,6.40312516682744
1684200670096699000,1.032698974609375,1.5476080660544336,2.5612673685789105,4.775353869125246
1684200670106724900,1.042724853515625,1.3907703216575085,3.5422874071747064,2.569566410368681
1684200670116750800,1.052750732421875,1.3738520662128924,3.967902929496765,0.290625744856894
1684200670126777000,1.062777099609375,1.3363245918512343,3.135872844406962,-1.1608847305759786
1684200670136803000,1.072802978515625,0.8847031061351299,1.5075596949130297,-2.4500389904513953
1684200670146829000,1.0828291015625,0.16485621567964553,-0.3076525752425194,-3.5994583241611715
1684200670156855000,1.09285498046875,-0.2497983521670103,-2.0022662891179324,-4.660227899037301
1684200670166881000,1.102881103515625,-0.45892099507451056,-3.3052953450888394,-5.2311774827063084
1684200670176907000,1.112906982421875,-0.15242869578301907,-4.856874798992276,-5.153874462795257
1684200670186933000,1.12293310546875,0.4747920064885169,-4.881341131728887,-3.803199858552217
1684200670196959000,1.132958984375,0.9562064998567104,-4.400115365865826,-2.9876217265695333
1684200670206984000,1.14298388671875,1.234731180292368,-4.326296680939198,-2.544498896868527
1684200670217010000,1.153010009765625,0.7947749979287385,-3.181474319630861,-2.553670922100544
1684200670227036000,1.163035888671875,0.5432265872240066,0.890986131927371,-3.096967067429423
1684200670237062000,1.173061767578125,0.40734556000754235,-0.9893962372750044,-0.2090513312369585
1684200670247087900,1.183087890625,0.5031956056088209,-1.866235185906291,1.4442857848763464
1684200670257114000,1.193114013671875,0.6521206771850585,-2.5252520523458717,3.068822922962904
1684200670267140000,1.20314013671875,0.6918132936913519,-3.2143449080973863,4.0631493101164695
1684200670277166000,1.213166015625,0.311090769530274,-3.386500048613548,4.117372483213246
1684200670287192000,1.223192138671875,-0.22249182756841182,-2.2365198661506174,3.9119533709987997
1684200670297218000,1.233218017578125,-0.9608125323474407,-1.2004799511224031,3.2963673577457664
1684200670307244000,1.243244140625,-1.422997497653961,-2.119644714307785,3.274156110459566
1684200670317270000,1.25327001953125,-0.9007505700945854,-1.8578671705335377,4.285864717307686
1684200670327295000,1.263294921875,0.27426117777228354,0.9111772715628147,3.8802544566601513
1684200670337321000,1.273321044921875,1.5293746363580225,2.694334361287951,1.5301378758154809
1684200670347347000,1.283346923828125,2.4768928028464314,6.015885260128974,0.33315278107151386
1684200670357373000,1.293373046875,1.9725942044317721,7.980351103162765,-0.5246912519715726
1684200670367399000,1.30339892578125,0.4049637063723057,7.0602399990379805,-0.18580504181459545
1684200670377425000,1.3134248046875,-1.2583049481034279,3.591225333344936,-0.33706732416674495
1684200670387451100,1.323451171875,-2.4931729065179824,0.2916951276540756,-0.7288106797643006
1684200670397477000,1.33347705078125,-2.372282089293003,-0.36689153067469593,-2.470010057595372
1684200670407503000,1.343503173828125,-2.020900408569723,-0.5178378789454698,-3.802077284263074
1684200670417529000,1.353529052734375,-1.952807992335409,-0.8235591938644647,-4.516165172800421
1684200670427555000,1.36355517578125,-1.7345174158491192,-0.6966080536872148,-4.592403778350353
1684200670437580500,1.37358056640625,-1.441755974137783,-0.567948356026411,-3.6485339052364227
1684200670447605200,1.383605224609375,-1.1461832013327629,-0.6692214495897293,-1.8780083335474131
1684200670457631500,1.393631591796875,-1.0146832387447358,-0.9762252055346965,-0.26527707632780073
1684200670467657500,1.403657470703125,-0.8466017043430357,-1.037967083698511,0.5690434577867388
1684200670477683500,1.413683349609375,-0.5600339661726728,-1.0335662183910608,1.6697618889525532
1684200670487709400,1.42370947265625,-0.02465984601471573,-1.2502438067227601,3.531898115107417
1684200670497735400,1.4337353515625,0.8381482757091522,-1.032226494219899,4.839771688500046
1684200670507761400,1.443761474609375,1.664484533071518,-0.33921500371992586,4.812992402645945
1684200670517787400,1.453787353515625,2.240644252604246,0.10409224263727665,4.14210389662683
1684200670527813400,1.4638134765625,2.745996159464121,0.425987862765789,3.029435792209208
1684200670537839400,1.47383935546875,2.7501240530490874,1.6843097620040177,1.4412053545176982
1684200670547865300,1.483865234375,2.5478531757324934,2.63189631755352,-0.43693062399737537
1684200670557890300,1.493890380859375,1.7692518984913825,2.443379240301251,-1.4951090864017604
1684200670567916300,1.503916259765625,1.0750362928986548,1.3694856876969337,-1.3586292165093123
1684200670577942300,1.5139423828125,-0.4998409979512915,-9.906346053504944,-4.405178786735236
1684200670587968500,1.523968505859375,-1.1658838540375231,-4.0693133857041595,1.769886981524527
1684200670597994500,1.533994384765625,-0.7747703207761049,-3.4945331378310915,1.8133052674904464
1684200670608020500,1.5440205078125,-2.003380387839675,-4.343049078297615,-0.020928952390700577
1684200670618046500,1.55404638671875,-3.6621722622275352,-0.0631119974732399,0.29648849941045047
1684200670628072400,1.564072509765625,-3.1647698530673978,2.567707046237588,-0.10312281308323144
1684200670638098400,1.574098388671875,-1.160410391062498,3.0587375822782517,-2.403199351734668
1684200670648124400,1.58412451171875,0.3231302034247666,0.1912567313492298,-3.4091695610612627
1684200670658150400,1.594150390625,1.2771489109136163,-5.167769132634997,-3.5299811755701898
1684200670668176400,1.60417626953125,1.6504776350289583,-7.054509930953383,-3.665249769976735
1684200670678201300,1.614201416015625,2.457076341742277,-5.757419032859802,-4.129903171223401
1684200670688227300,1.624227294921875,3.4408845497518774,-1.9528373645603656,-5.873257242870331
1684200670698253300,1.63425341796875,3.7019133209854362,4.0822207980722185,-8.516003455740213
1684200670708279300,1.644279296875,2.5520161406308413,8.089285525134205,-9.52937970353961
1684200670718305500,1.654305419921875,0.995068437692523,7.407362414881587,-7.589367918282747
1684200670728331500,1.66433154296875,-0.48377311225831504,6.074830785572528,-4.020347987005114
1684200670738357500,1.674357421875,-1.460488877788931,4.65718224773109,-0.7175985270068049
1684200670748383500,1.684383544921875,-1.8990344627022742,3.664557696059346,2.1764736859887837
1684200670758409500,1.694409423828125,-1.8335137966521082,3.019834143388271,4.439798264695704
1684200670768435500,1.704435546875,-1.6826017890423535,1.9014152203589676,6.554743130749464
1684200670778461400,1.71446142578125,-1.5890934842616318,2.953753359237313,8.023691647717357
1684200670788487400,1.7244873046875,-1.5436553829059003,7.079417577716708,11.35701131028533
1684200670798512400,1.734512451171875,-0.5622372849032282,7.969881147074699,12.710937025278806
1684200670808538400,1.744538330078125,1.7308996637433767,5.205497098004818,8.993037030610441
1684200670818564400,1.754564453125,5.4161780762702225,1.5225801539123058,4.718405654978752
1684200670828590300,1.76459033203125,5.608849350592494,0.12906126419901848,1.9168182489350436
1684200670838616300,1.7746162109375,1.4921826775610445,0.5064525615781545,1.3666305905267595
1684200670848642600,1.784642578125,0.07881225543022155,0.4515115956008434,1.2419944492936135
1684200670858668500,1.79466845703125,0.34231063164770603,0.6439017148941755,0.6450213665738701
1684200670868694500,1.804694580078125,0.9355550492331385,1.2081418640524149,0.14974778613597153
1684200670878720500,1.814720458984375,1.6007482662200927,1.5093465783298015,-0.44249680675715203
1684200670888746500,1.82474658203125,2.31028565184623,1.4047826265275478,-1.2944479823693633
1684200670898772500,1.8347724609375,2.706332842117548,1.1872773552000522,-1.9597771006956695
1684200670908797400,1.84479736328125,2.3427866763480005,0.610962737366557,-1.9823538202933966
1684200670918823400,1.854823486328125,1.5943419063091278,-0.27518413783609863,-1.4991035628654061
1684200670928849400,1.864849365234375,0.8956365880817174,-0.696102442252636,-1.4314391627848146
1684200670938875400,1.87487548828125,0.432418480335176,-0.47384968413710593,-1.6929386202700436
1684200670948901400,1.8849013671875,0.2708652517236769,-0.15855623875260352,-1.654578494476527
1684200670958927400,1.89492724609375,0.10794833354353904,0.13693652761876582,-1.5695739602774381
1684200670968953300,1.904953369140625,0.012524550530314444,0.3052776628047228,-1.3262573713451624
1684200670978979600,1.9149794921875,-0.018991700717806814,0.243646259278059,-1.0308853087440133
1684200670989005600,1.925005615234375,0.048196898544579744,-0.02698796016871929,-0.6974694928221404
1684200670999031600,1.935031494140625,0.10446633664667605,-0.2603390354037285,-0.44446255387216804
1684200671009057500,1.9450576171875,0.13412205471992492,-0.42002573949098587,-0.18916268167942762
1684200671019083500,1.95508349609375,0.11018062264025211,-0.2583691966354847,0.1179866202160716
1684200671029108500,1.9651083984375,0.04741290856003761,0.1200625497072935,0.3928179990917444
1684200671039134500,1.975134521484375,-0.02274929968565702,0.4460837253332138,0.6624003713980317
1684200671049160400,1.985160400390625,-0.041636517115682364,0.6263450154155492,0.9266811301648616
1684200671059186400,1.9951865234375,-0.063721653804183,0.7263374215185642,1.1833604740172623
1684200671069212400,2.00521240234375,-0.020303660099208354,0.75430153324306,1.4598831669807433
1684200671079238400,2.01523828125,0.11132803910970687,0.7230296121448277,1.7922136718839405
1684200671089264400,2.025264404296875,0.3074111677020788,0.6974211236357688,2.1503359129086137
1684200671099290400,2.035290283203125,0.49230742410868406,0.6928735433340072,2.4587626873940227
1684200671109316600,2.045316650390625,0.7173312543727457,0.705632487142086,2.777204367676377
1684200671119342600,2.055342529296875,0.9888289587810635,0.7437970903635025,3.102503951029479
1684200671129368600,2.06536865234375,1.7769073816806078,0.7616822911441326,3.495362866653502
1684200671139394600,2.07539453125,3.3763653158292173,0.8688006036043167,3.95244203325361
1684200671149419500,2.08541943359375,3.530905889199674,1.0751678103238345,3.860267607425153
1684200671159445500,2.095445556640625,1.663836152165383,1.0062497569203377,2.9338100568830967
1684200671169471500,2.105471435546875,0.6342094651803374,0.9358622154861688,2.0684104938939214
1684200671179497500,2.11549755859375,0.2574590960532427,0.8743699281692504,1.3759629208870232
1684200671189523500,2.1255234375,0.290004690349102,0.8391372867465019,0.9621684770010411
1684200671199549400,2.135549560546875,0.7263350834310054,0.8541893099278212,0.7234931380033492
1684200671209575400,2.145575439453125,1.5501865382403135,0.8619535141885281,0.5224611548319459
1684200671219601400,2.155601318359375,2.9691894133001564,0.9693062199264765,0.2657289117485285
1684200671229627400,2.16562744140625,4.832916415777802,1.2858400207608938,0.05293722493946552
1684200671239653600,2.175653564453125,5.876556284415722,1.6920084998130798,-0.02758081149533391
1684200671249679600,2.1856796875,5.677580356991291,1.9394845465123651,0.029021219561994074
1684200671259705600,2.19570556640625,5.1901744411885735,2.1937007151216266,0.45321781499683855
1684200671269730600,2.20573046875,4.722431257233024,2.3212539128452536,1.1903665533870458
1684200671279756500,2.215756591796875,4.130575371396541,2.397752630636096,1.8077245447486638
1684200671289782500,2.225782470703125,3.0355799940526484,2.2935212717890736,2.3100737626612187
1684200671299808500,2.23580859375,1.1124036813277751,1.8265023104548452,2.9585718654349447
1684200671309834500,2.24583447265625,-0.7310499100584537,1.512536898803711,2.729264804893732
1684200671319860500,2.255860595703125,-2.2298729754820465,1.7024889772951601,2.493200379046798
1684200671329886500,2.265886474609375,-3.6110371182739733,1.857730392411351,3.444659976637363
1684200671339912400,2.275912353515625,-4.990504101759195,2.1498960601866246,3.6965339660346506
1684200671349938400,2.2859384765625,-5.99750321574211,3.484993156069517,3.1849799896642565
1684200671359964400,2.29596435546875,-7.383086636281013,4.734585805407166,2.747571445956826
1684200671369990700,2.30599072265625,-9.77363854175806,7.649520481428503,2.4163383809015153
1684200671380015400,2.316015380859375,-7.798153292059898,7.550612363430857,1.3189483635060488
1684200671390041600,2.32604150390625,-3.75286755541414,5.001642166367173,0.2590341450839303
1684200671400067600,2.336067626953125,-0.10750424303784965,2.781817998951673,-0.4509782924417406
1684200671410093600,2.346093505859375,1.4645939750202,1.6772423078358172,-1.3856838121734558
1684200671420119600,2.35611962890625,0.10637699257358908,1.2559370499283076,-1.0018233918454498
1684200671430145500,2.3661455078125,-2.606300688526034,1.078437625774741,-0.7413703016079962
1684200671440172000,2.376172119140625,-4.668019868087768,0.35895664602220057,-1.296407007482648
1684200671450198300,2.3861982421875,-4.653768639895319,-0.7600444608092307,-2.286575398173928
1684200671460224300,2.396224365234375,-4.406470287850499,-1.5026625705212353,-2.9086548650994897
1684200671470250200,2.406250244140625,-4.266743544991314,-1.829727117720246,-3.3248663069993256
1684200671480276200,2.416276123046875,-3.478960013385117,-1.791646101129055,-3.8812241784751413
1684200671490302200,2.42630224609375,-2.590351716504991,-1.247785892176628,-4.365076785710453
1684200671500327200,2.4363271484375,-2.3251237400159237,-0.3501180905282497,-4.4114165120810265
1684200671510353200,2.446353271484375,-2.2115213262334463,0.24252748438119887,-3.8112785355895755
1684200671520379100,2.456379150390625,-1.8387053739458321,0.22457389453947543,-3.2247119883328677
1684200671530405000,2.466405029296875,-1.5468948032185434,-0.17735446272492408,-2.910353193449974
1684200671540431000,2.47643115234375,-1.421367850625515,-0.7889771253049374,-2.8177570350781083
1684200671550457000,2.48645703125,-1.4380033436059951,-1.4128566273897885,-2.698132584527135
1684200671560483000,2.496483154296875,-1.6235814447969197,-1.8378578172057867,-2.4779279911130665
1684200671570509000,2.506509033203125,-1.8340452731803059,-2.0734967111170293,-2.2855881407022474
1684200671580535300,2.516535400390625,-2.0224170967429873,-2.155620283052325,-2.381028874850273
1684200671590561000,2.52656103515625,-2.0869442217111587,-2.1049621089607475,-2.632437292562425
1684200671600587000,2.5365869140625,-2.050579361388087,-2.0059937852084637,-2.882320108142495
1684200671610613000,2.546613037109375,-1.9370967745929955,-2.0237112282067535,-3.027528205022216
1684200671620638200,2.55663818359375,-1.6967472187727688,-2.0934142945080993,-2.902891771528125
1684200671630664200,2.566664306640625,-1.2831766467705368,-2.035059136173129,-2.7020629097133875
1684200671640690200,2.576690185546875,-0.778468298511207,-2.0132319197684527,-2.370194761624932
1684200671650716200,2.586716064453125,-0.49812487821578977,-1.9482348392009734,-1.7391154111638665
1684200671660742100,2.5967421875,-0.47209582620710133,-1.8200877672374247,-0.977007588084042
1684200671670768000,2.60676806640625,-0.5518830641493201,-1.6569138055562973,-0.4054366576462984
1684200671680794000,2.616794189453125,-0.5577306211337447,-1.4808230791568755,-0.1303035193450749
1684200671690820000,2.626820068359375,-0.5708966844379901,-1.369587394505739,-0.13727745001092553
1684200671700846000,2.63684619140625,-0.6351391472458839,-1.4252590128451585,-0.340572555808723
1684200671710872000,2.6468720703125,-0.6389163276970387,-1.631001950186491,-0.6477995991155505
1684200671720898000,2.65689794921875,-0.6625006169021129,-1.745339692506194,-0.8805762354634702
1684200671730923300,2.66692333984375,-0.6576034925103187,-1.644978453090787,-0.9174250799112021
1684200671740949200,2.67694921875,-0.5164917250335216,-1.3410130419284105,-0.8085071706831455
1684200671750975200,2.686975341796875,-0.2612269241541624,-0.8779168069958686,-0.6524724132321774
1684200671761001200,2.697001220703125,0.01285159052759409,-0.22020985411107538,-0.384428064148128
1684200671771027200,2.707027099609375,0.2366726208731532,0.29133330860435963,-0.22537074400559065
1684200671781053200,2.71705322265625,0.4025190166339278,0.6148948161184787,0.009110358172655104
1684200671791079200,2.7270791015625,0.45135450534299015,0.772330526408553,0.4017519047189504
1684200671801105000,2.73710498046875,0.3444496895030141,0.756019443076849,0.8606171510182321
1684200671811131000,2.747130859375,0.13505845878720282,0.7601350617021322,1.222652912224829
1684200671821156900,2.757156982421875,-0.0716121147930622,0.8455179276943207,1.6602631159842014
1684200671831182800,2.767182861328125,-0.2791583021640777,0.8549731537818909,1.768257042235136
1684200671841209000,2.777208984375,-0.5214698057070374,0.5818401032567024,1.4633502585694194
1684200671851234000,2.787234130859375,-0.8077261033080517,0.07036708316802978,0.9202197521310299
1684200671861260300,2.79726025390625,-0.8960288022696972,-0.52009413343966,0.5082563961297273
1684200671871286300,2.807286376953125,-0.7567747184235603,-1.0008552044004202,0.16306122202165424
1684200671881312300,2.817312255859375,-0.44269349837303157,-1.214549977529049,-0.06599851269498468
1684200671891338000,2.827337890625,-0.09126732092089951,-1.0148071573853492,-0.26534141026828434
1684200671901364000,2.837364013671875,0.2636778244376182,-0.4943360073268413,-0.23618512961715457
1684200671911390000,2.847389892578125,0.7162053921479732,0.09944295552670955,-0.09992003498654813
1684200671921416000,2.857416015625,0.9696938310045748,0.6405600032508373,-0.1434401738917455
1684200671931442000,2.86744189453125,1.0950164201319217,1.0247329235941172,-0.23275619634808972
1684200671941468000,2.877468017578125,1.313717623245716,1.1463695907503366,-0.3844726339422166
1684200671951494000,2.887493896484375,1.4613082313477992,1.0576327381551265,-0.641427725996077
1684200671961519900,2.897519775390625,1.3482698811888694,0.9440209720224142,-1.136078644490987
1684200671971545000,2.907545166015625,1.359787300503254,1.0979068808764219,-1.538846229058504
1684200671981571000,2.917571044921875,1.5980413453489541,1.1519792473256587,-1.7043948109164833
1684200671991597000,2.92759716796875,1.805508622264862,0.9710416654169559,-1.5666509124375878
1684200672001623000,2.937623046875,1.6330857707232236,0.6329033510178327,-1.1898583116039634
1684200672011649000,2.94764892578125,1.354654613789916,0.49731063922345636,-0.5591428260192275
1684200672021675000,2.957675048828125,1.2835188843369483,0.8691302739500999,0.29744872274473305
1684200672031701000,2.967700927734375,1.3681038779497146,1.8932120401591062,1.2318521177247166
1684200672041727000,2.97772705078125,1.4475994394689797,3.2245851470828053,2.1070620038494465
1684200672051753000,2.9877529296875,1.3866180242836474,4.109631952089071,2.774109032009542
1684200672061779000,2.997779052734375,1.2574743424981831,4.134060290902853,3.190834560911357
1684200672071805000,3.007804931640625,1.005237876464054,3.3466257188647983,3.484207558649778
1684200672081831000,3.017830810546875,0.6001139380287379,1.964002317175269,3.7596398260280486
1684200672091856100,3.027856201171875,0.23038521116673946,0.3742956694513559,3.856008196415007
1684200672101881900,3.0378818359375,0.043217210435867306,-1.0490794293433428,3.479606786856055
1684200672111907800,3.047907958984375,0.08102985841445624,-2.1836223886996504,2.5510122242853046
1684200672121934000,3.05793408203125,0.27756957166790963,-2.623379249098897,1.6166044453911483
1684200672131960000,3.0679599609375,0.452849566206336,-2.2147797435075045,0.7949193748354911
1684200672141986000,3.077986083984375,0.28148126521892847,-1.1489993547320365,-0.0655788259781897
1684200672152012000,3.088011962890625,-0.12433540472090243,-0.2781459102511406,-0.6611274288527668
1684200672162038000,3.0980380859375,-0.5571767866432666,0.24843700068593025,-0.8642394331686198
1684200672172064000,3.10806396484375,-0.8364841418892145,0.5590636233031749,-0.9533157468512654
1684200672182090000,3.118090087890625,-0.8676572057228535,0.6046580842643976,-0.9621471419520675
1684200672192116000,3.128115966796875,-0.7236744128543883,0.34361879163682457,-0.8815161466620862
1684200672202141000,3.138140869140625,-0.549576248511672,-0.11257014812529087,-0.7715978282198309
1684200672212167000,3.1481669921875,-0.42474389058668166,-0.5538888510137796,-0.6810910433426499
1684200672222193000,3.15819287109375,-0.3035585839271545,-0.8900111494153737,-0.5832045234777034
1684200672232219000,3.168218994140625,-0.2812643345326185,-1.0516893195807933,-0.4090421347923577
1684200672242244900,3.178244873046875,-0.32565935657620426,-1.057214220482111,-0.3362254665151238
1684200672252271000,3.18827099609375,-0.3229214195122942,-0.9459504787802696,-0.3365907926961779
1684200672262297000,3.198297119140625,-0.280877381041646,-0.7852110507696867,-0.28436346959173675
1684200672272323000,3.208322998046875,-0.24344291872568427,-0.503074025055766,-0.21128771198689936
1684200672282349000,3.21834912109375,-0.2408493220359087,-0.13892097943425177,-0.08085574395656585
1684200672292375000,3.228375,-0.21450313036944715,0.21239362740218637,0.05151800579130649
1684200672302401000,3.238401123046875,-0.014271101936697958,0.5351864886313676,-0.044407297003269196
1684200672312427000,3.248427001953125,0.188272820167616,0.5497761549979449,-0.07914353321120142
1684200672322453000,3.258452880859375,0.3095920919377357,0.7295254039049148,0.14228475677892566
1684200672332478000,3.26847802734375,0.35981998485326766,0.975966846859455,0.5589822286300361
1684200672342504000,3.27850390625,0.5100732362933457,1.114833465757966,0.619319208431989
1684200672352530000,3.288530029296875,0.6455840419579297,0.863214327904582,0.32941111032515763
1684200672362556000,3.298555908203125,0.513374469795823,0.667647916662693,0.28724983868300913
1684200672372582000,3.308581787109375,0.20918759790249167,0.4371078071951866,0.14982903467863798
1684200672382608100,3.318608154296875,-0.23444639619104563,0.27473230241537094,0.03093143709748983
1684200672392634000,3.328634033203125,-0.572981600953266,0.22154840923845767,0.10014642762094736
1684200672402660000,3.33866015625,-0.7712946805547922,0.036840661141276355,0.12548778962641954
1684200672412686000,3.34868603515625,-0.9019150107640772,-0.19948796859979628,0.1758857053466141
1684200672422712000,3.358712158203125,-1.0479716872971505,-0.32537820154726504,0.4935587393440306
1684200672432738000,3.368738037109375,-1.203285802323371,-0.5153846405744552,0.5109288302093744
1684200672442763300,3.37876318359375,-1.2294722368508577,-0.6433025799572467,0.2890856758080423
1684200672452788500,3.38878857421875,-1.1441406626544892,-0.6583095949530601,0.1390953130878508
1684200672462814200,3.398814208984375,-1.053120229166746,-0.6986988884866238,-0.02815992655754089
1684200672472840400,3.40884033203125,-0.9410936863988637,-0.6956330711752176,-0.11846841238364576
1684200672482866400,3.418866455078125,-0.8587397397737949,-0.6692436614215374,-0.14433482117652893
1684200672492892400,3.428892333984375,-0.7850549103599042,-0.6272825885266066,-0.24300664620026943
1684200672502918400,3.43891845703125,-0.8035415841650217,-0.4261106123626232,-0.36843291489779945
1684200672512944400,3.4489443359375,-0.8186263405721634,-0.2590039874076843,-0.4714550440855324
1684200672522970400,3.458970458984375,-0.8317224804453551,-0.1599643519848585,-0.45455447042807934
1684200672532996400,3.468996337890625,-0.7939300715371966,-0.04395253897309303,-0.4558500631965697
1684200672543022300,3.479022216796875,-0.7108864621475338,0.0979465794891119,-0.5770500925011932
1684200672553048300,3.48904833984375,-0.5341529077999293,0.20217852285802362,-0.784248050956428
1684200672563073300,3.4990732421875,-0.1811702216207981,0.22207740154862401,-0.8901276154018938
1684200672573099300,3.509099365234375,0.3448929032258689,0.08128770563304424,-0.8627164613850414
1684200672583125200,3.519125244140625,1.0088923803836107,-0.14007482564449308,-0.860782424582541
1684200672593151200,3.529151123046875,1.5788697580195963,-0.2309627187937498,-0.8323283373840152
1684200672603177500,3.539177490234375,1.7537667445898055,-0.1530669936865568,-0.5770468776308
1684200672613203500,3.549203369140625,1.3614391593635082,0.025606150421500204,-0.20055282135233282
1684200672623229400,3.5592294921875,0.71886664724648,0.19908874014914035,0.11148498323708772
1684200672633255400,3.56925537109375,0.21065365186706184,0.16158815379440783,0.1965272190980613
1684200672643281400,3.579281494140625,-0.08843757738769054,0.015436638584733008,0.26708587931543587
1684200672653307400,3.589307373046875,-0.20263956449851392,-0.03583762157857418,0.3378947149015963
1684200672663333400,3.59933349609375,-0.1728774634413421,0.030747020441293713,0.29661797100901605
1684200672673359400,3.609359375,-0.07813114129826426,0.16307459295988083,0.2700647489957511
1684200672683384300,3.61938427734375,0.022766543081402777,0.2916816836506128,0.2921130608052015
1684200672693410300,3.629410400390625,0.0849592337526381,0.2936556140720844,0.4003666609056294
1684200672703436300,3.639436279296875,0.0822184106118977,0.23716391152143476,0.545390341129154
1684200672713462300,3.649462158203125,0.10540917045474052,0.16458558204472065,0.6318909591048956
1684200672723488300,3.65948828125,0.19920345256999133,0.02595803259909153,0.6759041422240436
1684200672733514500,3.669514404296875,0.31601664509251715,-0.11697452056407928,0.6495198470368981
1684200672743540500,3.67954052734375,0.39330914360955355,-0.21998598222732543,0.5673391380868852
1684200672753566500,3.68956640625,0.44271337211728096,-0.2359463524252176,0.5156218103311956
1684200672763592400,3.699592529296875,0.4661459778919816,-0.17203648257255552,0.5498230628795922
1684200672773618400,3.709618408203125,0.4982881059534847,-0.13449205707609652,0.6529365236125886
1684200672783644400,3.71964453125,0.5221145333513617,-0.18057225572764873,0.7039174999177455
1684200672793670400,3.72967041015625,0.5405852789349853,-0.19072656999528406,0.7139153084494173
1684200672803695400,3.7396953125,0.5493985538572073,-0.1083767880886793,0.6929609293565153
1684200672813721300,3.749721435546875,0.6132338971689343,0.07198445523679256,0.6392853071399033
1684200672823747300,3.759747314453125,0.7581862657219172,0.27335399979948993,0.5648986130669713
1684200672833773300,3.769773193359375,0.9772978032022714,0.35094928065538405,0.4630462583109736
1684200672843799300,3.77979931640625,1.2034233110979198,0.2740969271212816,0.34221111679598687
1684200672853825300,3.7898251953125,1.407872409236431,0.11909925763309001,0.24161416892856358
1684200672863851500,3.7998515625,1.5289888519108294,0.005610825619101524,0.18160452138483524
1684200672873877500,3.80987744140625,1.5070326022990046,-0.05386427665650844,0.17548896111398934
1684200672883903500,3.819903564453125,1.3092917696274817,-0.05278408020436764,0.2772204659692943
1684200672893929500,3.829929443359375,1.0734810262806713,0.011681085443496704,0.4215722382806241
1684200672903955500,3.83995556640625,0.9128029730685054,0.09707447282969951,0.5366511543564498
1684200672913981400,3.8499814453125,0.7814689416319132,0.16996552151739597,0.5799599885985255
1684200672924006400,3.86000634765625,0.7184921148456632,0.18091420103311537,0.560004265154153
1684200672934032400,3.870032470703125,0.6890567615248262,0.313140066742897,0.5138134457349777
1684200672944058400,3.880058349609375,0.6941770271480083,0.4254682228058576,0.4483864493176341
1684200672954084400,3.89008447265625,0.723719347974658,0.45576399234831333,0.42863457788228987
1684200672964110300,3.9001103515625,0.7751192803442478,0.3744441380113363,0.4975768889442086
1684200672974136300,3.91013623046875,0.804552295577526,0.25631051054000853,0.6198379716090857
1684200672984162300,3.920162353515625,0.7938622669979929,0.23204525333344936,0.7435241186410189
1684200672994188500,3.9301884765625,0.7302735919237137,0.40389585794508454,0.8174179146304726
1684200673004214500,3.940214599609375,0.6268420051522553,0.7434130594819783,0.8628964941270649
1684200673014240500,3.950240478515625,0.5522349463269114,0.985668741184473,0.9395914651423692
1684200673024266500,3.9602666015625,0.486285387340188,1.2197843710511922,1.044250401751697
1684200673034292500,3.97029248046875,0.4296744423240423,1.526746041420102,1.108436458197236
1684200673044317400,3.9803173828125,0.3761988727241754,1.8795389041155575,1.1667971694901584
1684200673054343400,3.990343505859375,0.31413784560859204,2.183228420946002,1.2289235169269144
1684200673064369400,4.000369384765625,0.29169936543777586,2.2577806808441876,1.3387458276487887
1684200673074395400,4.0103955078125,0.302985167953372,2.0272458320736884,1.4819358627043664
1684200673084421400,4.02042138671875,0.372253349968791,1.5318372270792722,1.5827236569687724
1684200673094447400,4.030447265625,0.6202315009713173,0.8603150993317366,1.66849990619272
1684200673104473300,4.040473388671875,1.6663925586499273,0.15199673410654066,1.768008182040602
1684200673114499300,4.050499267578125,4.326837655948102,-0.3398661611050367,1.6496968599148094
1684200673124525600,4.060525634765625,6.923897930181026,-0.4748088845580816,1.352429338955879
1684200673134551600,4.070551513671875,6.364717402499914,-0.5219020596444607,0.7417693839281797
1684200673144577500,4.08057763671875,4.5114872441172595,-0.5010626852333545,-0.16365400028303265
1684200673154603500,4.090603515625,3.37594066067636,-0.49917643309533594,-0.9175251792848109
1684200673164628500,4.10062841796875,2.697522343674302,-0.4463718946248293,-1.2148971835315228
1684200673174654500,4.110654541015625,1.9479618674784898,-0.2545160283386707,-1.157200781366229
1684200673184680400,4.120680419921875,1.0480635302990675,0.4567185165941715,-0.881526814186573
1684200673194706400,4.13070654296875,-0.1312000297933817,1.2257961786866187,-0.9414283251807093
1684200673204732400,4.140732421875,-1.0124667317390441,1.9951351220637559,-1.2086831313222646
1684200673214758400,4.15075830078125,-1.7314555440604686,2.7622295013844966,-0.5957122690036892
1684200673224784400,4.160784423828125,-2.9743489880204197,2.9041309579342602,0.07464103416018188
1684200673234810400,4.170810302734375,-4.866605334889888,2.841245170432329,-0.3705535603135824
1684200673244836400,4.18083642578125,-6.117852765697241,3.1474270886003968,-0.4929059014584869
1684200673254862600,4.190862548828125,-5.691006824797392,3.4066607931107282,0.12409786963798106
1684200673264888600,4.200888671875,-4.8904713636457915,3.2933290129631754,0.825169113279134
1684200673274913500,4.21091357421875,-4.115693444085121,3.117120797663927,1.3422402456358073
1684200673284939500,4.220939453125,-3.125716776573658,3.284419145798683,2.548309102806449
1684200673294965500,4.230965576171875,-1.6172059184156358,3.272423587578535,3.3153120044514535
1684200673304991500,4.240991455078125,-0.4377005123913288,2.3990251347899436,2.727388781888783
1684200673315017500,4.251017578125,-0.22738617548123,1.202604103669524,1.931978408665955
1684200673325043500,4.26104345703125,-0.4172176963329315,0.2701800459384918,1.363054485605657
1684200673335069400,4.2710693359375,-0.055213791569322344,-0.37223698335587974,0.26936277473885567
1684200673345095400,4.281095458984375,0.07554697002395987,-0.5504512777805328,-1.0523284942671656
1684200673355121400,4.291121337890625,-0.8527977094389497,-0.32881811286807056,-1.6658701422110198
1684200673365147400,4.3011474609375,-1.4965467179894447,-0.06275719268620014,-1.9039030916519462
1684200673375173400,4.31117333984375,-1.7989324587449431,0.28943887315988537,-1.9923343854293225
1684200673385199600,4.32119970703125,-2.282935288105905,0.6603443156510591,-1.9528848569639026
1684200673395224300,4.331224365234375,-2.6194071305975317,0.8259510574370622,-1.8348522056490182
1684200673405250600,4.34125048828125,-2.5138684885442255,0.6735732150584459,-1.6842407884210346
1684200673415276500,4.351276611328125,-2.251383381022513,0.34089667319655415,-1.9227467622011898
1684200673425302500,4.361302490234375,-1.9173852351680396,-0.17606500743627548,-2.165306541416794
1684200673435328500,4.37132861328125,-1.7202493826523422,-0.8009890501379966,-2.0499746734932063
1684200673445355500,4.38135546875,-1.6438155467912554,-1.3212141164809466,-1.9826282533206045
1684200673455381500,4.391381591796875,-1.6173174159660935,-1.6074445489883422,-1.9798054509848355
1684200673465407500,4.401407470703125,-1.6526476725444197,-1.6161580167979002,-1.9407807238027452
1684200673475433500,4.41143359375,-1.7003323837831616,-1.3381295954465866,-1.8617631550587712
1684200673485459500,4.42145947265625,-1.9725155862376094,-1.0645160679280756,-2.0730420992173255
1684200673495485400,4.4314853515625,-2.503802144820988,-1.0963292562961577,-2.3122426311329005
1684200673505511400,4.441511474609375,-2.6908514876082537,-1.4297931491434572,-2.598330148038268
1684200673515537400,4.451537353515625,-2.2230653412938115,-1.8638766400814055,-2.8139646570578214
1684200673525562600,4.461562744140625,-1.7373957477644084,-2.127742680567503,-2.686878784584999
1684200673535588600,4.471588623046875,-1.4792787723243235,-2.2892566000819206,-2.2990184079006313
1684200673545614600,4.481614501953125,-1.3625517967805265,-2.3555875596016644,-1.7188552979454397
1684200673555640600,4.491640625,-1.4398279286846518,-2.370508065357804,-1.079432920422405
1684200673565666600,4.50166650390625,-1.5493953878626225,-2.4790678087979554,-0.7874089992053807
1684200673575692300,4.5116923828125,-1.7565189659073948,-2.607361011233926,-0.8964391366362571
1684200673585718300,4.52171826171875,-1.932175977064669,-2.6954145577400923,-1.0811832712210714
1684200673595744300,4.531744140625,-1.8687597359478472,-2.8433517873227596,-1.2282887261547148
1684200673605770500,4.5417705078125,-1.710725182981789,-2.9587492678284644,-1.2096753572300076
1684200673615796500,4.55179638671875,-1.513284210039675,-2.963759204944968,-1.0524920873310417
1684200673625822500,4.561822509765625,-1.294767423582077,-2.7826573723852635,-0.9102022890508175
1684200673635848400,4.571848388671875,-1.0951605047777295,-2.405810849407315,-0.8764676311008631
1684200673645873700,4.581873779296875,-0.9013869683019816,-1.878478581407666,-1.0039034860551357
1684200673655899600,4.591899658203125,-0.6782847537502646,-1.1877449727118015,-1.09513639324978
1684200673665925400,4.60192529296875,-0.28285248050689693,-0.48851300026178357,-1.0233917381182311
1684200673675951400,4.611951416015625,0.27285467197522517,0.1235918928772211,-0.789157231112197
1684200673685977300,4.621977294921875,0.6630303398646414,0.5709457842767238,-0.39236068377830086
1684200673696003300,4.63200341796875,0.8801743766643106,0.7370096221804618,0.19050014082826672
1684200673706029300,4.642029296875,0.8504631290115415,0.6282376972943544,0.6928202787768095
1684200673716055300,4.65205517578125,0.5564613318502902,0.2760463076233864,1.0455072699449957
1684200673726081300,4.662081298828125,0.1421346807837486,-0.12462182044684886,1.2655246702238916
1684200673736107500,4.672107421875,-0.2904022382993251,-0.3368693173766136,1.2196000274602323
1684200673746133500,4.682133544921875,-0.5698048706132919,-0.4555506418585777,1.076085801951587
1684200673756159500,4.692159423828125,-0.6138251410603522,-0.43218204123079773,0.9244203456260264
1684200673766184400,4.702184326171875,-0.37188338414523747,-0.20097557680904865,0.7269575992435217
1684200673776210400,4.71221044921875,-0.15420854667080566,0.14950959346592427,0.620387714446336
1684200673786236400,4.722236328125,-0.09032499856948852,0.482529249677062,0.6997879988975823
1684200673796262400,4.732262451171875,-0.05311666402644478,0.7158674654304981,0.771028065507859
1684200673806288400,4.742288330078125,0.0028156602089293298,0.9044880030572414,0.786462658265978
1684200673816314400,4.752314453125,0.15394205948803574,1.2829267636626958,0.6248799112990499
1684200673826340400,4.76234033203125,0.4879290628939867,2.0821745230913162,0.4010454369500279
1684200673836366300,4.772366455078125,0.8853512678455561,3.439523782792687,0.20183493358474225
1684200673846392300,4.782392333984375,1.4559528417944907,5.415160423660278,-0.1120268715614453
1684200673856418300,4.792418212890625,3.2400667938530443,7.73020729855895,-0.09792904383242129
1684200673866444500,4.802444580078125,8.085390855783224,9.579572598206996,1.7565803407058118
1684200673876469200,4.81246923828125,9.55123614603877,8.925799477639794,4.002596641737222
1684200673886495500,4.82249560546875,5.460057550007105,5.4648827782064675,4.819290918268263
1684200673896521500,4.832521484375,2.391480126237869,1.8378297601550817,4.588165117867291
1684200673906547500,4.84254736328125,1.576196593287587,-1.2664280488044022,2.9157477459698913
1684200673916573400,4.852573486328125,0.7987076612025499,-3.541920327427983,1.233363691331446
1684200673926599400,4.862599365234375,-0.0342810032537207,-4.88161585701704,-0.20998959846775977
1684200673936625400,4.87262548828125,-0.7752981440424919,-5.368703208389878,-1.4959320932224391
1684200673946651400,4.8826513671875,-1.5409347257703543,-5.065344530948996,-2.122353973266482
1684200673956677400,4.892677490234375,-2.396685293665528,-4.094198820635676,-1.9575874816969037
1684200673966703400,4.902703369140625,-3.253701351451874,-2.7488486262857914,-1.6320988055124879
1684200673976729300,4.912729248046875,-3.6809015126168725,-1.2163222478985787,-1.6621443996861576
1684200673986755300,4.92275537109375,-3.3892385336667297,0.38921149903237817,-1.777516453489661
1684200673996780300,4.9327802734375,-2.7761797008037568,1.7548317434728145,-1.6837977208286523
1684200674006806300,4.94280615234375,-2.129972631576657,2.3897733223199844,-1.354983553483337
1684200674016832500,4.95283251953125,-1.6047674387335777,2.227449839988351,-0.833727682787925
1684200674026858500,4.9628583984375,-1.2940291724354027,1.4964327362209557,-0.18761033767089247
1684200674036884500,4.972884521484375,-0.940332711963728,0.43307051450312134,0.1984559952035546
1684200674046910500,4.982910400390625,-0.2015343066703528,-0.5021200853317975,0.4183928775921464
1684200674056936400,4.9929365234375,1.0703555146712809,-0.9818991595178842,0.6860571413174271
1684200674066962400,5.00296240234375,2.399399813321233,-1.0531009399443865,0.6888282134659588
1684200674076988400,5.012988525390625,2.8794284783542157,-0.7499994521349668,0.4951728965424001
1684200674087014400,5.023014404296875,2.275851759585738,-0.30984453232884407,0.3739978555485606
1684200674097040400,5.033040283203125,1.1961778700143098,0.140414432862401,0.1969903065651655
1684200674107066400,5.04306640625,0.2729226957101375,0.5960270340412854,0.068607964541018
1684200674117092400,5.05309228515625,-0.3394440632354468,1.0117670590370893,0.02280307569950819
1684200674127117300,5.063117431640625,-0.6639496466666459,1.1121195306241511,-0.0713588706843555
1684200674137143300,5.073143310546875,-0.7544312971025705,0.973100351512432,-0.07584463779628277
1684200674147169500,5.08316943359375,-0.6902304084140807,0.7432546540498733,0.0470800233438611
1684200674157195500,5.093195556640625,-0.6072632983267306,0.42091479728519915,0.22428718655258414
1684200674167221500,5.103221435546875,-0.5909983922243118,0.06574936023950577,0.33544264557436104
1684200674177247500,5.11324755859375,-0.6658318802166729,-0.10988368552029132,0.3764962482355535
1684200674187273500,5.1232734375,-0.8602497059453278,-0.08485679629147053,0.49251010707393283
1684200674197299500,5.133299560546875,-1.0801390959303825,-0.0051864627271890635,0.6035454468473792
1684200674207325400,5.143325439453125,-1.0279372725933789,-0.04002162926495075,0.39502909926995633
1684200674217351400,5.153351318359375,-0.9976396033547819,0.023419454032182693,0.3723252461612224
1684200674227377400,5.16337744140625,-0.9659586630642414,0.003919803792238235,0.4068446247480809
1684200674237403400,5.1734033203125,-0.8843089922510087,-0.0010147300004959105,0.37379663388803597
1684200674247428400,5.183428466796875,-0.7578023809708655,-0.000436053329706192,0.35935002925395965
1684200674257454300,5.193454345703125,-0.6319986572630704,-0.10982990950644016,0.2899709342099726
1684200674267480300,5.203480224609375,-0.4847422495514154,-0.31713001316189765,0.33453210660070176
1684200674277506600,5.213506591796875,-0.3766765732385218,-0.4947539404779672,0.36389965538233515
1684200674287532500,5.223532470703125,-0.3413141679562628,-0.6365174498617648,0.36896205333843823
1684200674297558500,5.23355859375,-0.30275545085072514,-0.76968790294528,0.2854290529966354
1684200674307584500,5.24358447265625,-0.26293124385401606,-0.8264379641711711,0.12651143358573316
1684200674317610500,5.253610595703125,-0.24109292153343556,-0.741876935955882,0.02169891384989023
1684200674327636500,5.263636474609375,-0.19407354233562946,-0.428013231113553,-0.06689604605659842
1684200674337662500,5.273662353515625,-0.1108124908030033,-0.13982698836326599,-0.3060508391343057
1684200674347688400,5.2836884765625,0.049637014350295064,0.07025134783387184,-0.6290051745355129
1684200674357714400,5.29371435546875,0.3084767511069774,0.2184311540007591,-0.8045959885887801
1684200674367739400,5.303739501953125,0.5769817034400999,0.16288754595518112,-0.8696716873504221
1684200674377765400,5.313765380859375,0.7840981210917234,0.001550152051448822,-1.0710518994376064
1684200674387791400,5.323791259765625,0.8627735983997583,-0.12010872693657874,-1.175616874153167
1684200674397817300,5.3338173828125,0.7903267863482236,-0.13734101676642893,-1.0554019103631376
1684200674407843600,5.343843505859375,0.5616701525397598,-0.08001578600108623,-0.849775000616908
1684200674417869600,5.35386962890625,0.27207068199068307,0.05763794997632503,-0.6692090284995734
1684200674427895600,5.3638955078125,-0.007450754397362471,0.2102320654541254,-0.5345126810230314
1684200674437921500,5.373921630859375,-0.21865224940553307,0.2775701561897993,-0.32485987676158545
1684200674447947000,5.383947021484375,-0.37911256821379063,0.22878069857954977,-0.09274623436704277
1684200674457973000,5.393972900390625,-0.46004313097223637,0.1037935519516468,0.059322980453819035
1684200674467999000,5.4039990234375,-0.5245043510973453,0.043318917244672774,0.1729781473368406
1684200674478025000,5.41402490234375,-0.5507476303786039,0.05873685112893581,0.2851163337856531
1684200674488050000,5.4240498046875,-0.5726775765053927,0.0829576846718788,0.40579774604365226
1684200674498076000,5.434075927734375,-0.5689638166792691,0.08595102126896381,0.471818470570445
1684200674508102000,5.444101806640625,-0.5128524917483329,0.05505962392091751,0.46362961115688084
1684200674518127900,5.4541279296875,-0.41676308443322774,-0.07453004806637764,0.46089740971401333
1684200674528153900,5.46415380859375,-0.3142155870199203,-0.19665654456615447,0.47162499382495876
1684200674538179800,5.474179931640625,-0.22332579417452214,-0.30890345208644865,0.4414809077128768
1684200674548205800,5.484205810546875,-0.12122808635532856,-0.3844201731026172,0.3598218845494091
1684200674558231800,5.494231689453125,0.005856178682297468,-0.34526246719062326,0.2499969434790313
1684200674568258000,5.504258056640625,0.12350363007187842,-0.2612391991138458,0.15010814388096333
1684200674578284000,5.514283935546875,0.22000234884023664,-0.15809037480652333,0.05815320602208376
1684200674588310000,5.52431005859375,0.3061548840306699,-0.07749708117842674,-0.045907618563622236
1684200674598336000,5.5343359375,0.3739087159603834,-0.09152794461846352,-0.16132906446680426
1684200674608361000,5.54436083984375,0.421293567469716,-0.15001052872538564,-0.20026742853969334
1684200674618387000,5.554386962890625,0.4175181405842304,-0.0983820482969284,-0.18421265805661677
1684200674628413000,5.564412841796875,0.3210857650503516,0.10290215606987475,-0.1964785576507449
1684200674638439000,5.57443896484375,0.22081907205060122,0.3622627018302679,-0.21082491678074
1684200674648465000,5.58446484375,0.1592377912759781,0.543509495818615,-0.15924495166912675
1684200674658491000,5.594490966796875,0.1542442207723856,0.5594102447837591,-0.045774785964190955
1684200674668516900,5.604516845703125,0.21413024193644523,0.41957273502647874,0.06113572896420955
1684200674678542800,5.61454296875,0.35895796119645235,0.04954875154495239,0.19089374325573444
1684200674688568800,5.62456884765625,0.5195857455261051,-0.2901251018583774,0.3173383952155709
1684200674698595000,5.634594970703125,0.6539467235684394,-0.45913551460802554,0.4267391195245087
1684200674708621000,5.64462109375,0.7633984474122524,-0.49139469317793844,0.4615953288502991
1684200674718647000,5.65464697265625,0.8528051620930432,-0.3773948045104742,0.43689547961875796
1684200674728672000,5.664672119140625,0.8979808131203055,-0.09656769235134124,0.3714237672768533
1684200674738698000,5.674697998046875,0.9448926402904093,0.19445523512959478,0.29185996282696725
1684200674748724000,5.684723876953125,0.9960106869786978,0.32604455650150777,0.24251842429190873
1684200674758750000,5.69475,1.030773957324028,0.27487843288779257,0.2492442254155874
1684200674768776000,5.70477587890625,1.0726393147595226,0.14309037407338618,0.27380422778502106
1684200674778802000,5.714802001953125,1.079832879525423,0.06872457665801047,0.32688568350076674
1684200674788828000,5.724827880859375,1.0417167916208505,0.017646715849637985,0.35279783113151786
1684200674798854000,5.73485400390625,1.0110098109290002,0.006090133568644523,0.306744082095474
1684200674808879900,5.7448798828125,0.9840589679002761,-0.025704934620857236,0.330470702380687
1684200674818905900,5.75490576171875,0.952273836582899,0.128323597574234,0.35611499285548925
1684200674828932000,5.76493212890625,0.8738649012565612,0.3979758202463388,0.41725379055961964
1684200674838958000,5.7749580078125,0.8052578134983778,0.6054857672601938,0.5107990663498639
1684200674848983000,5.784983154296875,0.7752320930689572,0.7010767235338687,0.5861582587167621
1684200674859009000,5.795009033203125,0.8103608357258141,0.5676455736875534,0.6619875528134406
1684200674869035000,5.805034912109375,0.9369897582113742,0.18036475045681,0.8230364851646125
1684200674879061000,5.81506103515625,1.1064257028967142,-0.3641524610996246,1.0791693010501562
1684200674889087000,5.8250869140625,1.2273480843037365,-0.6026034898221493,1.4130932126246392
1684200674899113000,5.835113037109375,1.223192864320427,-0.26884499794244765,1.7674572701595723
1684200674909139000,5.845138916015625,1.0340807437844575,0.5834095445305109,2.061747236612439
1684200674919165000,5.8551650390625,0.728230687919259,1.5860300050377845,2.2323751675613224
1684200674929191000,5.86519091796875,0.47518707022070883,2.3086989671766758,2.441783787803352
1684200674939217000,5.875216796875,0.25764263592660425,2.8971143571704623,2.69963305221796
1684200674949243000,5.885242919921875,0.1255287061586976,3.1169127078711987,2.7485499356001615
1684200674959269000,5.89526904296875,0.28292817609161136,2.7636323539197445,2.500963414263725
1684200674969295000,5.905295166015625,1.0710003153808414,1.999219176506996,2.0410219901002944
1684200674979320000,5.915320068359375,2.765498147791624,1.2868775471150875,1.314281540738791
1684200674989346000,5.925345947265625,5.05910885142982,0.871431536629796,0.3555485911443829
1684200674999372000,5.9353720703125,6.98062402600944,0.6688882721126079,-0.6566708878353238
1684200675009398000,5.94539794921875,6.990999289551377,0.5359171409934759,-1.4053519508481025
1684200675019424000,5.955424072265625,6.015468496021628,0.2534825936377048,-1.8944116252072154
1684200675029450000,5.965449951171875,4.547721756058931,-0.0655564680159092,-2.2225790190815924
1684200675039476000,5.97547607421875,2.495497550073266,-0.25563071158230305,-2.2793058455623685
1684200675049502000,5.985501953125,-0.20741408542394638,-0.1708399662643671,-1.9987113731153308
1684200675059528000,5.99552783203125,-1.9939982269883154,0.1630921286165714,-1.1924134029142557
1684200675069554000,6.005553955078125,-3.1118636077880857,0.27760990367829796,-0.44526159529536957
1684200675079580000,6.015579833984375,-4.518727132242918,0.6209849496871233,0.0890361278027296
1684200675089606100,6.025606201171875,-5.819837787371873,1.15029816237092,0.10408639741837977
1684200675099630800,6.035630859375,-6.953536697119474,1.769638851982355,0.04718801376298069
1684200675109657000,6.045656982421875,-7.394632112646103,2.6623715353161095,0.6658813453815877
1684200675119683000,6.05568310546875,-6.39432226716876,3.3209739757359027,1.351522014852613
1684200675129709000,6.065708984375,-3.818361187326908,3.3111586841642855,3.2534830325260757
1684200675139735000,6.075735107421875,-0.791910402277857,2.908404397469759,5.418856940090656
1684200675149761000,6.085760986328125,-1.0090510780766606,2.4180127438545225,6.291813494330644
1684200675159787000,6.095787109375,-2.659730080896616,1.6492793651551008,5.992102818003296
1684200675169813000,6.10581298828125,-3.3210137232244015,0.830354845353961,4.965139943400025
1684200675179839000,6.1158388671875,-2.6308114449262616,0.012844284003973007,3.4034856702059506
1684200675189865000,6.125864990234375,-1.7430362378694115,-0.3848679168701172,1.7223215127512812
1684200675199891000,6.135890869140625,-1.391502435324341,-0.395858681961894,0.4638834032548591
1684200675209917000,6.1459169921875,-1.7658431129612027,-0.3180973968893289,-0.2593867396475747
1684200675219942000,6.15594189453125,-2.3022191036380826,-0.48055239664614197,-0.8534332308635115
1684200675229968000,6.1659677734375,-2.795828111864626,-0.6864385418504476,-1.5419981172181665
1684200675239994000,6.175994140625,-2.979083615326881,-0.9747563020259141,-1.7163382005579768
1684200675250020000,6.18602001953125,-2.824052043569088,-1.202650865420699,-1.4122224211394785
1684200675260046000,6.196046142578125,-2.5359388660550115,-1.0936959851831196,-1.1678960706427692
1684200675270072000,6.206072021484375,-2.23840334180966,-0.8765238913327456,-0.8446269702039658
1684200675280098000,6.21609814453125,-2.042501853394508,-0.7444406489640474,-0.6057312664538621
1684200675290124000,6.2261240234375,-1.9435436126448213,-0.7489853066563605,-0.5841577325493097
1684200675300150000,6.23614990234375,-1.8711014767684042,-0.8676333133906126,-0.6361607453785836
1684200675310176000,6.246176025390625,-1.7734641093589365,-0.9897831907659769,-0.5540839351944625
1684200675320202000,6.256201904296875,-1.5789771639168262,-0.9472451947659254,-0.35336540188640353
1684200675330228000,6.26622802734375,-1.4085678441546856,-0.738909902843833,-0.15841301262332125
1684200675340253000,6.2762529296875,-1.317072778892517,-0.4739671730369329,0.07364332835972309
1684200675350279000,6.28627880859375,-1.237010961792618,-0.16766951953470707,0.2832917304406874
1684200675360305000,6.296304931640625,-1.1028853268761187,0.06977203988432884,0.3072135993033647
1684200675370331100,6.3063310546875,-0.9798105166755616,0.20021277574300764,0.2394202025482431
1684200675380357000,6.316357177734375,-0.9253377527318895,0.2526864748239517,0.1771797272125259
1684200675390383000,6.326383056640625,-0.7854735741633921,0.2738128494828939,-0.02975042888568714
1684200675400409000,6.3364091796875,-0.5980173310756683,0.22813363284766672,-0.18189502876400945
1684200675410435000,6.34643505859375,-0.38096097255945205,0.18335867157578467,-0.44249680675715203
1684200675420461000,6.3564609375,-0.1668881598986685,0.10064122540056705,-0.6521607169345021
1684200675430487000,6.366487060546875,-0.01613163511157036,0.007588847693800926,-0.8068862914830446
1684200675440512800,6.3765126953125,0.11015212719812989,0.004520692294836044,-0.9721472885712981
1684200675450538800,6.386538818359375,0.25673735764995215,0.11419745706617832,-1.060082469394803
1684200675460564700,6.396564697265625,0.3324154067076742,0.27187866654992104,-1.0722530919209121
1684200675470589700,6.406589599609375,0.3533155713953078,0.46900750480294223,-1.091060083721578
1684200675480615700,6.41661572265625,0.42064533269405363,0.5979448503613471,-1.1281968051999807
1684200675490641700,6.4266416015625,0.4413279091082513,0.6811293295264244,-1.105202590842545
1684200675500668000,6.43666796875,0.3660663318969309,0.678604779484868,-0.9949655618399381
1684200675510694000,6.44669384765625,0.24366277202144263,0.4545487713396549,-0.7573708576858044
1684200675520720000,6.456719970703125,0.07071794243231415,0.12019640522003174,-0.42148909004181623
1684200675530745900,6.466745849609375,-0.18132088213786482,-0.2753945657163858,-0.12391250313371419
1684200675540771800,6.476771728515625,-0.5210533338606357,-0.6305027196168899,0.15694208155423403
1684200675550797800,6.4867978515625,-0.9551508533239365,-0.8741752823799848,0.44712563560158014
1684200675560823600,6.496823486328125,-1.376068573218584,-1.0785802491158247,0.5015349789202213
1684200675570849500,6.506849609375,-1.6750956511959432,-1.2921744844794272,0.3811217160791158
1684200675580875500,6.51687548828125,-1.8453006805576384,-1.4491244570791721,0.2248389752164483
1684200675590900700,6.526900634765625,-1.9094215628124773,-1.5666045890778302,0.03198533463117201
1684200675600926700,6.5369267578125,-1.8991572122991085,-1.6792811201870441,-0.18421704197078942
1684200675610952700,6.54695263671875,-1.872538377703726,-1.7581196791023015,-0.39801439869105815
1684200675620978700,6.556978759765625,-1.6988919757165013,-1.8459464311152696,-0.5327826423600316
1684200675631005000,6.5670048828125,-1.4174892556264995,-2.0340110884249207,-0.5350262931009754
1684200675641031000,6.577031005859375,-1.268524728822708,-2.2272826667279,-0.4549360170915723
1684200675651056600,6.587056640625,-1.2505075722254813,-2.369313302615285,-0.4426490381767973
1684200675661082600,6.59708251953125,-1.1110603769600391,-2.4843618235528466,-0.5686994666546583
1684200675671108600,6.607108642578125,-0.92247388773337,-2.4418203204214572,-0.6247276433467864
1684200675681134600,6.617134521484375,-0.9123276106417179,-2.190904946923256,-0.8189151674509048
1684200675691160600,6.62716064453125,-1.0655027408778668,-2.025810246312618,-1.2084542910024523
1684200675701186600,6.6371865234375,-1.278978318297863,-2.241515190219879,-1.5825348563984036
1684200675711211800,6.647211669921875,-1.4549018714368342,-2.4272727396309373,-1.955807320281863
1684200675721237800,6.65723779296875,-1.5245032309293747,-1.9915701230585574,-2.4773624661847946
1684200675731263700,6.667263671875,-1.5422341179311274,-0.5768021090894937,-3.263867940679192
1684200675741289700,6.677289794921875,-1.2462228806436062,2.895613889479637,-4.577635248285532
1684200675751315700,6.687315673828125,0.43624746403880416,8.470014442503452,-6.503709109082818
1684200675761341700,6.697341796875,4.525498233813047,13.786378976368903,-7.038157931089401
1684200675771367700,6.70736767578125,7.249710431492328,12.462934908878802,-2.340748156257719
1684200675781393700,6.7173935546875,6.273182443618774,5.368265401494503,1.1665512319050728
1684200675791419600,6.727419677734375,3.262010914635658,0.18793197084069252,1.5624071373879909
1684200675801445600,6.737445556640625,0.1523615488309413,-3.0024814420491457,1.9627699989013372
1684200675811471600,6.7474716796875,-1.3002666055202483,-4.6733331720650195,2.459817749404907
1684200675821497600,6.75749755859375,-1.674594423675537,-4.971474407118558,2.6607754982963203
1684200675831523600,6.767523681640625,-2.322428217321634,-4.032209689712524,2.5351293032377957
1684200675841548800,6.777548828125,-3.216125946295261,-2.068230168890953,2.527077221946418
1684200675851574800,6.78757470703125,-3.695743692439794,-0.12193126618862152,2.719771584883332
1684200675861600500,6.7976005859375,-3.8740824900269506,1.5085679951727389,3.0085113698631525
1684200675871626500,6.80762646484375,-3.658330784368515,2.7525410510629413,3.603603168880939
1684200675881652500,6.817652587890625,-2.4488825138926504,3.1291426593691107,4.283097006160021
1684200675891678700,6.8276787109375,0.0017319383591413496,2.1806068402707575,4.268425214467943
1684200675901704700,6.83770458984375,1.4156120635777711,0.47263212504088875,3.2711019835859534
1684200675911730700,6.847730712890625,1.2870248466312884,-0.7115151154398918,2.6837264580339193
1684200675921756700,6.857756591796875,0.8574737384259701,-1.4217384375035762,2.4276152694582938
1684200675931782700,6.86778271484375,0.04438919509099796,-1.4705705652117729,1.9079304474718868
1684200675941808600,6.87780859375,-0.8526923493683337,-0.9117460113614797,1.4094994259163736
1684200675951834600,6.887834716796875,-1.319665133473277,-0.1834925270885229,1.3087458261825144
1684200675961859600,6.897859619140625,-1.4053122033596037,0.337448578569293,1.3866000502355396
1684200675971885600,6.907885498046875,-1.2978279801964758,0.7430962486177682,1.131548307584971
1684200675981911600,6.91791162109375,-1.0984043090045452,0.8733686421722173,0.6932229412935674
1684200675991937500,6.9279375,-0.875198780208826,0.6858873377084732,0.36111835410073395
1684200676001963500,6.937963623046875,-0.774434220689535,0.24511224017739294,0.30210765446648
1684200676011989500,6.947989501953125,-0.9452741869539022,-0.0546504585981369,0.32126696683615447
1684200676022015700,6.958015625,-1.2951175521939993,-0.11433014353513717,0.35592750745937224
1684200676032041700,6.968041748046875,-1.516072671714425,-0.0823041891992092,0.40211876526996493
1684200676042067700,6.978067626953125,-1.4823007504940031,-0.018360417076945305,0.3967974241167307
1684200676052093700,6.98809375,-1.290240886068344,-0.019690204375982283,0.2780995868913829
1684200676062119700,6.99811962890625,-1.0643197416383772,-0.18248071969747542,0.16867007487937807
1684200676072145700,7.008145751953125,-0.7962795572727918,-0.4507049553930759,0.1762486934401095
1684200676082171600,7.018171630859375,-0.6674732176829129,-0.6182295134991407,0.19201997080668806
1684200676092196600,7.028196533203125,-0.7179951981741934,-0.659324324953556,0.2936117749303579
1684200676102222600,7.03822265625,-0.8223135777175427,-0.555741785404086,0.39470644318684933
1684200676112248600,7.04824853515625,-0.9841471576403826,-0.38839842908382416,0.4710770045533776
1684200676122274600,7.058274658203125,-1.028998106757924,-0.21961948700249193,0.5401696838714182
1684200676132300500,7.068300537109375,-0.85073427410312,0.06018880350291728,0.49592386104017494
1684200676142326500,7.078326416015625,-0.47598662310056383,0.3765916714340448,0.36447555557414885
1684200676152352800,7.088352783203125,-0.006893778101727366,0.6544710397034883,0.2847558299101889
1684200676162378800,7.098378662109375,0.41837629178352653,0.7868880440711975,0.2255208200007677
1684200676172404700,7.10840478515625,0.7410663502253592,0.7023609181255102,0.2868506102323532
1684200676182430700,7.1184306640625,0.925267244778946,0.5640092630118131,0.46758989308997984
1684200676192456700,7.128456787109375,0.7310195879854261,0.3922288010269403,0.7283524146027862
1684200676202482700,7.138482666015625,0.3480980559427291,0.125016957244277,1.1396946430310606
1684200676212507600,7.148507568359375,-0.04662307335659861,-0.004008651119470596,1.5886565541490911
1684200676222533600,7.15853369140625,-0.355173620352149,0.08000468008518219,1.777399256850779
1684200676232559600,7.1685595703125,-0.5200923798739909,0.2696346870154142,1.8179830500431358
1684200676242585600,7.178585693359375,-0.5764766765274107,0.4614794473856687,1.8153472947120666
1684200676252611600,7.188611572265625,-0.5972977846294641,0.5563993725299835,1.6538779449917376
1684200676262637600,7.198637451171875,-0.5093592428050935,0.5291162288069725,1.4650038709953426
1684200676272663600,7.20866357421875,-0.3588782470237464,0.3515308799356222,1.343071874154359
1684200676282689800,7.218689697265625,-0.19723229862749575,0.1179804827362299,1.2279394743256271
1684200676292715800,7.2287158203125,-0.04342047792300582,-0.05710545053482055,1.1052782864272594
1684200676302741800,7.23874169921875,0.033771409763768315,-0.1800549538552761,1.0631154073499143
1684200676312767700,7.248767822265625,0.03015913755074143,-0.23309622369110583,1.142155041795224
1684200676322793700,7.258793701171875,-0.030944004318118095,-0.18704934278726576,1.1298290825769304
1684200676332818700,7.268818603515625,-0.0527595302850008,-0.054120881766080854,0.9790455236524342
1684200676342844700,7.2788447265625,-0.05646941765360534,0.09734159933328627,0.8120539033792913
1684200676352870700,7.28887060546875,0.012539309708029031,0.14575988554358482,0.7075153782792389
1684200676362896600,7.298896728515625,0.030879122388362882,0.13111585864126682,0.5436822220370173
1684200676372922600,7.308922607421875,-0.10113500026687978,0.14546353294551373,0.40887335409671066
1684200676382948600,7.318948486328125,-0.2957178072988987,0.2014437788426876,0.3732657418817282
1684200676392974600,7.328974609375,-0.37747247285656627,0.32736732953786846,0.3476202823631465
1684200676403000600,7.33900048828125,-0.28136479923240837,0.45137774008810516,0.28511005017533897
1684200676413026800,7.34902685546875,-0.08270334458462894,0.4958797296375036,0.28140155104622244
1684200676423052800,7.359052734375,0.1923153004914522,0.4054413338214159,0.3507645717382431
1684200676433078800,7.369078857421875,0.46023565786965187,0.2379693826854229,0.3474462409704923
1684200676443104500,7.3791044921875,0.7929922061651945,0.15049159024059772,0.1831017742052674
1684200676453130800,7.389130859375,1.3447118964463471,0.05934007771909237,-0.01148366317525506
1684200676463155500,7.399155517578125,2.0204437508434054,0.05268237339556217,-0.08483546124249697
1684200676473181700,7.409181640625,2.977451630210876,0.19368600432276725,0.2012824508011341
1684200676483207700,7.419207763671875,3.994664095172286,0.5291957237839698,0.6889826733753085
1684200676493233700,7.429233642578125,3.7023265779614447,0.9831494518399237,0.9184121912524104
1684200676503259600,7.439259765625,2.0179560256808995,1.430280640399456,0.9035865241728722
1684200676513285600,7.44928564453125,0.31973814983367915,1.9855951403021812,0.9695981886103748
1684200676523311600,7.4593115234375,-0.5980956570088863,2.816809817355871,1.2298413624241948
1684200676533337600,7.469337646484375,-0.6428231989424675,3.7978205036014314,1.424478383861482
1684200676543363600,7.479363525390625,-0.239175835865736,4.55009199232161,1.4959445143125951
1684200676553389600,7.4893896484375,0.24750534585900602,4.582203871375322,1.6284521195732056
1684200676563415600,7.49941552734375,0.8796317942202091,3.9114351923435926,1.4794536904998123
1684200676573441500,7.509441650390625,1.0103146682716906,2.8738486323952674,1.101330717845261
1684200676583466500,7.519466552734375,-0.07805953736677765,1.8830787686794994,0.810885151860863
1684200676593492500,7.529492431640625,-2.0488836633861065,1.0154197363257407,0.6045438102349638
1684200676603518700,7.539518798828125,-3.903957403808832,0.3137427088111639,0.1637454779587686
1684200676613544700,7.549544677734375,-4.587723219318687,-0.22341128050088882,-0.21610782561972736
1684200676623570700,7.55957080078125,-4.688908926859498,-0.42532735303044317,-0.2275717611812055
1684200676633596700,7.5695966796875,-5.3247652824640275,-0.2278951479166746,0.04828092356622219
1684200676643622700,7.57962255859375,-5.1439656477212905,0.14485679922401903,0.46980596170425415
1684200676653648600,7.589648681640625,-4.17722138723731,0.6568839460641145,1.3067409161008894
1684200676663674600,7.599674560546875,-3.4669407820284364,1.1691010625183582,2.482962478148937
1684200676673700600,7.60970068359375,-2.8113290478572246,1.559464069673419,3.1831241326645014
1684200676683726600,7.6197265625,-2.477727500104904,1.9176070612251757,3.11676073217988
1684200676693752600,7.629752685546875,-2.4796798032164573,1.9193050973147152,2.1968299530580637
1684200676703778600,7.639778564453125,-2.618994165882468,1.682283809134364,1.1012696353077889
1684200676713803500,7.649803466796875,-2.5533710623711348,1.325299339967966,-0.13697444847635923
1684200676723829500,7.65982958984375,-2.4732410023406146,0.973762614813447,-1.5337049206472932
1684200676733855700,7.669855712890625,-2.5105080722004174,0.40649698035418985,-2.656050223340094
1684200676743881700,7.6798818359375,-2.643567758385837,-0.10536240870356559,-3.1529388377591965
1684200676753907700,7.68990771484375,-2.522661159069836,-0.5079764101445675,-3.0812597952097653
1684200676763933700,7.69993359375,-2.3657141090795397,-0.8372352525174618,-2.7628017483144998
1684200676773959700,7.709959716796875,-2.211238417638838,-1.0270131434857845,-2.3730578959710895
1684200676783985700,7.719985595703125,-1.8700597126305103,-0.972483096396923,-2.078258226430416
1684200676794011600,7.73001171875,-1.345133628989756,-0.7345230660617351,-2.088493496979773
1684200676804037600,7.74003759765625,-0.7945546331763267,-0.475975590249896,-2.514429045036435
1684200676814063600,7.750063720703125,-0.3679463004246354,-0.35160102256238457,-3.1175609426468607
1684200676824089600,7.760089599609375,-0.1605126335173845,-0.54747255423069,-3.4282071467474102
1684200676834115600,7.770115478515625,-0.15035393533557653,-0.887554403913021,-3.1307059631630776
1684200676844140500,7.780140625,-0.5226563851431012,-1.0841589260309934,-2.513233697772026
1684200676854166500,7.79016650390625,-1.186951191985607,-1.0739677868843078,-1.9069016889460384
1684200676864192800,7.80019287109375,-1.7920210719212888,-0.8682201733678578,-1.3460647723600268
1684200676874218800,7.81021875,-2.066644653265178,-0.7580424733370542,-0.940710459234938
1684200676884244700,7.82024462890625,-2.2597855909258127,-0.6766729346394539,-0.41627617769911884
1684200676894270700,7.830270751953125,-2.182087141956389,-0.5954051027506589,0.13254640290103853
1684200676904296700,7.840296630859375,-2.065827783924341,-0.6819698720037937,0.4405851279169321
1684200676914322700,7.85032275390625,-1.9661969046100973,-0.972289035129547,0.18170790869407355
1684200676924348700,7.8603486328125,-1.850210810561478,-1.5198784937381744,-0.3395371483463794
1684200676934374700,7.870374755859375,-1.7584128168299793,-2.0842770483285187,-0.8035194453984499
1684200676944400600,7.880400634765625,-1.6014295264825225,-2.4996961708068848,-1.0972530931428075
1684200676954426600,7.890426513671875,-1.404748724257946,-2.7388053711771962,-1.2688637515187262
1684200676964451600,7.90045166015625,-1.2440046200722454,-2.7760207108497617,-1.3425782454185187
1684200676974477600,7.9104775390625,-1.1022376035571098,-2.5714953326046466,-1.364941906787455
1684200676984503600,7.920503662109375,-0.88666125446558,-2.115265476310253,-1.3504624227970838
1684200676994529800,7.93052978515625,-0.5826160560652613,-1.4019149621367453,-1.308102121451497
1684200677004555800,7.9405556640625,-0.21756606160402298,-0.5576303756296634,-1.3096303539320826
1684200677014581800,7.950581787109375,0.13427636849880217,0.1775660596489906,-1.2743600108474493
1684200677024607700,7.960607666015625,0.4251458589836955,0.7347200499385594,-1.2094875065077095
1684200677034633700,7.9706337890625,0.48176264921873807,1.0796738895714282,-1.1891569584015755
1684200677044659700,7.98065966796875,0.4910334586501121,1.1333131253004074,-1.0477060951635242
1684200677054685700,7.990685791015625,0.8056745776057243,1.0738783550351858,-0.7718357286289333
1684200677064711700,8.000711669921875,0.9702467156469822,1.071363741865754,-0.4561559142753482
1684200677074737700,8.010737548828125,1.0070973136603831,1.089439496782422,-0.10146306317746638
1684200677084763600,8.020763671875,0.9637303194902836,1.0991519125014544,0.46965303616486487
1684200677094788600,8.03078857421875,0.901898278824985,1.003766707932949,0.950813043315336
1684200677104814600,8.040814697265626,0.3486345739722252,0.4885726214945316,0.9799030172646045
1684200677114840600,8.050840576171876,-0.4098059587717056,-0.276847102612257,0.5645686504602432
1684200677124866800,8.06086669921875,-0.7743415739700198,-0.7992039202868938,0.06006758827604353
1684200677134892800,8.070892822265625,-0.9140157098591327,-1.0605816510885953,-0.36598143009245393
1684200677144918800,8.080918701171875,-0.722684159708023,-1.2225737095087765,-0.6010007308006287
1684200677154944800,8.09094482421875,-0.2547904613658786,-1.3767296674758196,-0.8801575716599822
1684200677164970800,8.100970703125,0.0010382570065557955,-1.4665274273008106,-1.229643209503591
1684200677174996700,8.110996826171874,0.11099383871927856,-1.519927593576908,-1.662026326264441
1684200677185022700,8.121022705078126,-0.00355272404551506,-1.5716846688210964,-2.090846782107651
1684200677195048400,8.13104833984375,-0.2527953420259058,-1.6358271783858536,-2.4180165432468055
1684200677205074400,8.141074462890625,-0.2774890537776053,-1.5883499724179506,-2.5227277945652604
1684200677215099600,8.151099609375,-0.06178403680510819,-1.4673434198588131,-2.4774188725471493
1684200677225125600,8.161125732421874,0.24425277380384502,-1.2269622998565435,-2.319655537737906
1684200677235151600,8.171151611328124,0.7143067919850349,-0.814147806918621,-2.0529551506087182
1684200677245177600,8.181177490234376,1.1902736144065855,-0.12289864991605282,-1.755060291531682
1684200677255203800,8.191203857421876,1.5454209312736986,0.9861404503494501,-1.4889648845583199
1684200677265229800,8.201229736328125,1.8740823922753334,2.517362760400772,-1.2162605808392166
1684200677275255800,8.211255859375,2.2109598929584027,4.089052105396986,-0.3721101055731997
1684200677285281500,8.221281494140625,2.636557295101881,5.204566539156437,0.9156485717579722
1684200677295307500,8.2313076171875,3.260550778955221,5.288139725378155,2.380243277430534
1684200677305333500,8.24133349609375,3.476833230489492,4.671701186949014,3.5260245468989013
1684200677315359500,8.251359375,3.157209062424302,4.126956596377492,4.2117032102927565
1684200677325385500,8.261385498046875,3.3469331773787734,3.48204015148282,4.258155457127094
1684200677335411500,8.271411376953125,3.5107238096535203,2.3877906240701674,3.6720024591073392
1684200677345436700,8.281436767578125,2.365966914796829,0.8122001799821853,2.8982933378219604
1684200677355462700,8.291462646484375,0.8497194710373878,-0.7870201460182666,1.8510744416534899
1684200677365488600,8.301488525390624,-0.5563783297419548,-2.187032489404082,0.6577738806411624
1684200677375514600,8.3115146484375,-1.56252053463459,-3.080629680612683,-0.23660974823739378
1684200677385540600,8.32154052734375,-2.057256354933977,-3.2520226045846936,-0.8668754076953977
1684200677395566600,8.331566650390625,-2.2513725673675538,-2.8573148462235927,-1.1264324258759617
1684200677405592600,8.341592529296875,-2.36853881111145,-2.1274200244843957,-1.1771923067763448
1684200677415618600,8.35161865234375,-2.536754858613014,-1.2002093174874782,-1.193846577522531
1684200677425644500,8.36164453125,-2.485750647562742,-0.3299684519469738,-1.2186366623207927
1684200677435670500,8.37167041015625,-2.037297270488739,0.29327450580000874,-1.2462374936908482
1684200677445696500,8.381696533203124,-1.3326233992457388,0.7537713718891144,-1.1998457448720932
1684200677455722500,8.391722412109376,-0.2991501198351383,1.0976204651504755,-0.9318070948764682
1684200677465748500,8.40174853515625,1.0032803857207298,1.1177549061626195,-0.5046835791442543
1684200677475773700,8.411773681640625,2.110247940409183,0.7002408572316169,-0.18537037672437726
1684200677485799400,8.42179931640625,2.604647076100111,-0.06678162589669227,-0.03545680556744337
1684200677495825400,8.431825439453124,2.4403297896027563,-0.7249532736837864,-0.0757517718810588
1684200677505851400,8.441851318359374,1.5838082373350857,-1.0007891534268856,-0.10181253420226276
1684200677515877600,8.451877685546876,0.5114957799097523,-0.8661462897032499,-0.3810622409768402
1684200677525903600,8.461903564453126,-0.345257169960998,-0.490130956852436,-0.6099518067583442
1684200677535929600,8.4719296875,-0.8864245231002569,-0.14001228180229663,-0.7866548198372125
1684200677545955600,8.48195556640625,-1.2652327015399931,0.17362930472195148,-0.9516231175892055
1684200677555981600,8.491981689453125,-1.4683429522901772,0.562968814048171,-1.0072294156074524
1684200677566007600,8.502007568359375,-1.565834773749113,1.0745037934571504,-0.6786267721209674
1684200677576033500,8.512033447265624,-1.6283786159455775,1.3750865764439104,-0.21293153367117046
1684200677586059500,8.5220595703125,-1.4651041164994238,1.2467425206035374,0.32287790916413067
1684200677596084500,8.53208447265625,-1.086912608653307,0.6881453457683324,0.9425278108552098
1684200677606110500,8.5421103515625,-0.7480331204980611,0.011188918012380599,1.3612018434762954
1684200677616136400,8.552136474609375,-0.6280570800304413,-0.24784254192411898,1.2947716613657771
1684200677626162400,8.562162353515625,-0.6986836909174918,-0.08208440896868706,0.7789848697312176
1684200677636188400,8.5721884765625,-0.7778203559964895,0.1330295833081007,0.22201763418540357
1684200677646214700,8.582214599609374,-0.8653986862063408,0.2828261770218611,-0.1400479376375675
1684200677656240600,8.59224072265625,-1.0290139619141816,0.20692776321172712,-0.20483999715223908
1684200677666266600,8.6022666015625,-1.1341126781802624,0.1914835258424282,-0.13403496095836162
1684200677676292600,8.612292724609375,-1.146333350393176,0.10496376477479934,-0.10722893322780727
1684200677686318600,8.622318603515625,-1.0816489890366792,-0.12238017899990081,-0.09641133274585008
1684200677696344600,8.632344482421875,-1.1589607767760752,-0.21718612237572668,0.041634763550013304
1684200677706370600,8.64237060546875,-1.2105115157932043,-0.30643793875575065,0.09429244089573621
1684200677716396500,8.652396484375,-1.2857102569013834,-0.41750703466832634,0.08844378793276846
1684200677726421500,8.66242138671875,-1.2540372076563537,-0.389019775852561,-0.030703692756220695
1684200677736447500,8.672447509765625,-1.0223012394677846,-0.2349059034615755,0.006051920450106263
1684200677746473500,8.682473388671875,-0.6838765093427152,-0.1717109038800001,0.12704196026585995
1684200677756499500,8.69249951171875,-0.30005788232982156,-0.19565408952534197,-0.08727540174052119
1684200677766525400,8.702525390625,-0.017249825486540794,-0.042479543811082834,-0.042171354644745584
1684200677776551700,8.7125517578125,0.1596820279121399,0.1474070682287216,0.16881722826510667
1684200677786577700,8.72257763671875,0.41377961164303123,0.2593143685311079,-0.07597703200429677
1684200677796603600,8.732603759765626,0.6902228096295148,0.3059779200285673,-0.30527232904247936
1684200677806629600,8.742629638671875,0.8179735026866197,0.1257961249232292,-0.35868235912546514
1684200677816655600,8.752655517578125,0.7398176653385162,-0.10904197399914264,-0.29362025049775836
1684200677826681600,8.762681640625,0.5323229158937931,-0.22187281888723373,-0.19400193840414284
1684200677836707600,8.77270751953125,0.2781942794375121,-0.24406126981973647,-0.12047259181290865
1684200677846733600,8.782733642578124,-0.02630275438353419,-0.1742430527061224,-0.007392813665047288
1684200677856758500,8.792758544921876,-0.36257819752022624,-0.08680793035924435,0.2301788749396801
1684200677866784500,8.802784423828125,-0.6352173270486294,-0.11611644243001937,0.49293257026970383
1684200677876810500,8.812810546875,-0.7267465868413447,-0.15586977614760397,0.5894619764372706
1684200677886836500,8.82283642578125,-0.7040069317668676,-0.23572131149768827,0.5940487197056412
1684200677896862500,8.832862548828125,-0.6215769972961396,-0.324936302998662,0.5078134016025811
1684200677906888700,8.842888671875,-0.4995463623862713,-0.3821551507800817,0.3757476948905736
1684200677916914700,8.852914794921874,-0.373642758500576,-0.43843700997233387,0.2226457029558718
1684200677926940700,8.862940673828126,-0.2732067002832889,-0.34624797109663485,0.1661076770454645
1684200677936966700,8.872966552734376,-0.21971067241728304,-0.1601478918582201,0.14135595149621366
1684200677946992600,8.88299267578125,-0.24950784478783605,-0.02160100643336773,0.1961503486096859
1684200677957018600,8.8930185546875,-0.3054050885766744,0.03159749979078769,0.28207725835070013
1684200677967044600,8.903044677734375,-0.22878712832033632,0.056854106122255325,0.334413302526623
1684200677977070600,8.913070556640625,0.011937836683541536,-0.03164367702007294,0.37147323244176805
1684200677987095600,8.923095458984376,0.3928064547844231,-0.17065408830344675,0.4134647004749626
1684200677997121500,8.93312158203125,0.9337970996499061,-0.2598585584104061,0.4241407735943794
1684200678007147500,8.9431474609375,1.4828993009090423,-0.27418577444851394,0.44479996913298964
1684200678017173500,8.953173583984375,1.859635495380312,-0.2119885537326336,0.4673172866936773
1684200678027199500,8.963199462890625,1.978371180398017,-0.061544894286990164,0.45107495774924755
1684200678037225700,8.973225830078125,1.8732412652760744,0.10306465315520763,0.4000760073959827
1684200678047251700,8.983251708984374,1.5566415595985947,0.20900807661712167,0.3359370780277997
1684200678057277700,8.993277587890624,1.1482967594206333,0.2745148602724075,0.34578546815142036
1684200678067303700,9.0033037109375,0.783341749766469,0.3030810295432806,0.42804727951362725
1684200678077329700,9.01332958984375,0.5276105004191398,0.30117081200778484,0.5098541867151856
1684200678087355600,9.023355712890625,0.3932634047716856,0.25099837560653687,0.5186889428168535
1684200678097381600,9.033381591796875,0.35351825436055656,0.15915595821142195,0.4758808977037668
1684200678107407600,9.04340771484375,0.4065297135800123,0.1446761819601059,0.3699380587637424
1684200678117432600,9.0534326171875,0.5327735822707415,0.21706395730078218,0.14727160528078675
1684200678127458600,9.06345849609375,0.732699357765913,0.18826573283970355,-0.08788155094012617
1684200678137484500,9.073484619140626,0.9681010819204151,0.006522095245122909,-0.2982124005936086
1684200678147510500,9.083510498046875,1.1515410020388661,-0.29043840559124945,-0.45353813299238677
1684200678157536500,9.09353662109375,1.2182250127799807,-0.5429103608816862,-0.6346710913427174
1684200678167562800,9.103562744140625,1.147441019374132,-0.6663152067542075,-0.8211397116325795
1684200678177588700,9.113588623046875,1.0477075564682483,-0.7025590710461139,-0.9796553261138499
1684200678187614700,9.12361474609375,0.9182464792966842,-0.5101245280891656,-1.0757236906409262
1684200678197640700,9.133640625,0.7191705986291169,-0.13951134654283523,-1.0509069370314479
1684200678207666700,9.143666748046876,0.5525020728304982,0.10403612853586673,-0.6976280443847179
1684200678217692700,9.153692626953125,0.4032154744654894,0.25117256312966346,-0.31288316937237975
1684200678227718700,9.16371875,0.2858921404637396,0.41752924650013445,-0.047982963532954455
1684200678237743600,9.17374365234375,0.21603476038351654,0.6479267326265573,0.15588833471760152
1684200678247769600,9.18376953125,0.19498963426724075,1.0598352166354656,0.3582493745356798
1684200678257795600,9.193795654296874,0.1983114721663296,1.6767425416201351,0.6603434388682246
1684200678267821600,9.203821533203126,0.14625979788973928,2.3168881188511845,1.0089232139132915
1684200678277847600,9.21384765625,0.038394466454535724,2.8372604847103355,1.3258997900791465
1684200678287873500,9.22387353515625,-0.036949966734647746,2.825277201449871,1.5185875771448016
1684200678297899800,9.233899658203125,-0.08744023691341281,2.457572016304731,1.5779688636571167
1684200678307925800,9.24392578125,-0.012585194676369428,1.6848247257888316,1.6121704084664583
1684200678317951700,9.25395166015625,0.4108091444648802,0.7770330050110816,1.62741810035035
1684200678327977700,9.263977783203124,1.8026152389109134,0.07537409767508506,1.447343418881297
1684200678338003700,9.274003662109376,5.021299637517333,-0.12778583743572233,1.0410277864433823
1684200678348029700,9.28402978515625,8.610960205763577,0.27502631692588325,0.6697621323376893
1684200678358055700,9.2940556640625,10.507081411367654,0.7767588642448187,0.12288885917440057
1684200678368080600,9.30408056640625,9.404135367280244,1.0897247434645891,-0.7310502753846347
1684200678378106600,9.314106689453125,6.545983485710621,1.2443494879871606,-1.7984015667386353
1684200678388132600,9.324132568359374,3.4119770196974275,1.3455056771725415,-2.3100549118302762
1684200678398158600,9.33415869140625,1.3237199618220328,1.5435317565262316,-1.763802254783362
1684200678408184600,9.3441845703125,-0.5819875489033758,1.4193062419205904,-0.2597396082058549
1684200678418210600,9.35421044921875,-3.0089363172769543,1.2777058141440152,0.013376198923587799
1684200678428236800,9.36423681640625,-4.362468064516783,1.170994328919053,-0.6000737521488219
1684200678438262800,9.3742626953125,-5.808613798046112,1.5066718061625957,-0.13302666069865227
1684200678448289300,9.384289306640625,-7.109076802921295,2.2827514559715985,0.3494443559851497
1684200678458315000,9.39431494140625,-8.370378010231256,2.909198178195953,1.004864659237489
1684200678468341000,9.404341064453124,-8.68160318326354,3.8408646955579515,2.550999949325621
1684200678478367000,9.414366943359376,-6.4966369787395,5.3418216312050815,5.447490913900733
1684200678488393000,9.42439306640625,-1.9203519760191439,6.024403497627377,7.017284069886803
1684200678498418200,9.434418212890625,-0.32591654620766636,5.196027843391895,6.164195999199151
1684200678508444200,9.444444091796875,-1.0831859893456102,3.891284384718537,3.7732679538860916
1684200678518470100,9.45447021484375,-1.4530525903083382,2.6229472874224182,1.8287234936356545
1684200678528496000,9.46449609375,-1.5688567519187926,1.319441261589527,0.7526352074660361
1684200678538522000,9.474522216796874,-1.6864935357838868,0.025234979021549222,0.20218867892585693
1684200678548548000,9.484548095703126,-2.261444464048743,-0.9233639684408903,-0.8495146691802888
1684200678558574000,9.494573974609375,-3.1586592612326143,-1.554331382960081,-1.5179492792412639
1684200678568600000,9.50460009765625,-3.2865614185243843,-1.512117212086916,-2.370502512399852
1684200678578626000,9.5146259765625,-3.0907150212973353,-1.046589366093278,-2.999873305377364
1684200678588652000,9.524652099609375,-3.0539202451243996,-0.5471265172719955,-3.465184293749928
1684200678598678000,9.534677978515624,-2.6193516010180113,0.027865327525138855,-4.06123704675436
1684200678608704000,9.5447041015625,-1.9125237666115165,0.4834557168722152,-4.636973572438955
1684200678618730000,9.55472998046875,-1.5657970720872283,0.35493104376792906,-4.4363940092101695
1684200678628755200,9.564755126953125,-1.9586118563085793,-0.2414016952216625,-4.335539725580811
1684200678638781200,9.57478125,-1.8515002658501267,-1.0459890621125698,-4.037520655602217
1684200678648807200,9.58480712890625,-1.4178215563207863,-1.5250842456877232,-3.4444156464874744
1684200678658833200,9.594833251953125,-1.4895388850539921,-1.7134680519491432,-2.709736805342138
1684200678668859000,9.60485888671875,-1.6430945390403269,-1.6623486900866031,-1.9217576050333678
1684200678678885000,9.614885009765626,-1.6333026283442973,-1.4582178641170263,-1.4794025448344648
1684200678688911000,9.6249111328125,-1.592959219779074,-1.240861061349511,-1.431238233385235
1684200678698937000,9.63493701171875,-1.752917434284091,-1.1862848370313643,-1.6497925753742455
1684200678708963000,9.644963134765625,-1.939518741042912,-1.3535329162836074,-1.8667406512103975
1684200678718989000,9.654989013671875,-2.0847902585476636,-1.6404963392406702,-1.9475825127720832
1684200678729015000,9.66501513671875,-2.1219722804725167,-1.9142372925311326,-1.9961182878822088
1684200678739041000,9.675041015625,-1.9780998161107302,-2.133798327344656,-2.083659939343482
1684200678749067000,9.68506689453125,-1.7443673403427005,-2.2080600798636674,-2.0812822504267094
1684200678759092000,9.695092041015625,-1.4905600447952747,-2.2279110277593133,-1.9654605531595646
1684200678769118000,9.705117919921875,-1.3175357202291489,-2.286272031313181,-1.6937817930959165
1684200678779144000,9.71514404296875,-1.2760972099035977,-2.4336212318748234,-1.443744955997914
1684200678789170000,9.725169921875,-1.2898486718803643,-2.595077283722162,-1.2887449484221636
1684200678799196000,9.73519580078125,-1.2752642662107945,-2.6748540002703667,-1.1960950140364468
1684200678809222100,9.74522216796875,-1.2563377396836877,-2.6534435479730365,-1.047997552390769
1684200678819248000,9.755248046875,-1.1923960133880376,-2.4457529836952685,-0.8702863851826638
1684200678829274000,9.765274169921875,-0.9811509714990854,-2.0848148084670304,-0.5351842236090452
1684200678839300000,9.775300048828125,-0.742604373447597,-1.6234662939846514,-0.07945537563934922
1684200678849326000,9.785326171875,-0.5514484721243381,-1.1224813501626252,0.3198847186975181
1684200678859352000,9.79535205078125,-0.2865466588497162,-0.6123603292047977,0.5110813904225826
1684200678869378000,9.8053779296875,0.03791530463546514,-0.13203414252996443,0.5772706033840775
1684200678879404000,9.815404052734374,0.2184250165209174,0.2897515923708677,0.7269214319515973
1684200678889430000,9.825429931640626,0.05157148954421281,0.5057148949533701,0.8932876868680119
1684200678899455000,9.835455078125,-0.2609540985621512,0.49869712514579295,0.9941766764845699
1684200678909481000,9.84548095703125,-0.4051142938241362,0.3724199387073517,0.9612632717896252
1684200678919507000,9.8555068359375,-0.603896452242136,0.22289456315040587,0.7243235974781215
1684200678929533000,9.865532958984375,-0.7435314251646399,-0.0022445640563964844,0.28826332657448944
1684200678939559200,9.87555908203125,-0.7917210171855986,-0.3544242632895708,-0.18618052406348287
1684200678949585200,9.885585205078126,-1.0213200464107095,-0.8594768949419259,-0.6389539562936872
1684200678959611100,9.895611083984376,-1.2260989610254764,-1.381958215779066,-1.0359190651275216
1684200678969637000,9.90563720703125,-0.8924024284660815,-1.7818103512912988,-1.526485052396357
1684200678979663000,9.9156630859375,-0.6058616879004984,-1.8533394639760254,-1.8202660464137792
1684200678989689000,9.925689208984375,-0.6662134999454021,-1.5770669463813305,-1.6810995677858591
1684200678999715000,9.935715087890625,-0.8712673590440303,-0.9757938283801079,-1.389585934178531
1684200679009741000,9.945740966796874,-0.9622668228089809,-0.14835457821190356,-1.1996899697884917
1684200679019766000,9.95576611328125,-0.7682710218846798,0.8807511536389588,-1.1514219057038426
1684200679029792000,9.9657919921875,-0.5811164651572704,2.162051192882657,-1.222966508218646
1684200679039818000,9.97581787109375,-0.38165187743306156,3.7265591019421813,-0.9943350088514387
1684200679049844000,9.985843994140625,0.14433482117652893,5.782899511075019,-0.6724823510818183
1684200679059870000,9.995869873046875,0.7443091315388679,8.43199070905745,-0.3744277713984251
1684200679069896200,10.005896240234375,2.6084762789994476,10.359186851882933,0.9447323351621627
1684200679079922200,10.015922119140624,6.371462785106897,9.381573406860232,3.5786785709828135
1684200679089948200,10.0259482421875,8.78438200521469,6.099509884276986,5.269415151163935
1684200679099974100,10.03597412109375,9.029866585835814,2.7915760073781013,4.589520331868529
1684200679110000000,10.046000244140625,8.149454454892874,0.4136427604556083,2.4035921504445374
1684200679120026000,10.056026123046875,5.610559077119827,-1.2755617878526448,0.5803192503649741
1684200679130052000,10.066052001953125,2.01946584572196,-2.7017028442293403,-0.5978955313269049
1684200679140078000,10.076078125,-1.3349497963666914,-3.766837920838594,-1.2262202493175864
1684200679150103000,10.08610302734375,-3.791729200989008,-4.044615582299232,-0.9965855642572045
1684200679160129000,10.09612890625,-5.026981774806976,-3.5912042905569073,-0.6224291571460664
1684200679170155000,10.106155029296875,-5.190360319149494,-2.9345804567337033,-0.3914376506492495
1684200679180181000,10.116180908203125,-4.792810615360737,-1.8374924910247326,-0.253248711816594
1684200679190207000,10.12620703125,-4.069106464955211,-0.4665840770483017,-0.1289250705987215
1684200679200233200,10.136233154296875,-3.3443642036736008,0.490002362036705,0.03873736160807311
1684200679210259200,10.14625927734375,-2.6852818707823753,0.9226479291260242,0.3657771396920085
1684200679220285200,10.15628515625,-2.1790958511859175,0.9860404971063137,0.6999230234540998
1684200679230311200,10.166311279296876,-1.6204752954751251,0.8422638943344354,0.8623864987783133
1684200679240337200,10.176337158203125,-0.9296534239739179,0.6235515853047371,0.9406102867960929
1684200679250363100,10.186363037109375,-0.040718306292220945,0.574248332953453,1.0096918601982294
1684200679260389000,10.19638916015625,2.1904472662836314,0.6826999398440122,1.1098102307684719
1684200679270415000,10.2064150390625,5.082805368837714,0.7569763054102658,0.8104800781913101
1684200679280440000,10.216440185546874,5.726572059175372,0.35403847884237766,0.3948239320866763
1684200679290466000,10.226466064453126,4.891265728893876,-0.15113748692870138,0.1811101619966328
1684200679300492000,10.236491943359376,3.290812646228075,-0.26934651772379875,-0.02774535440728068
1684200679310518000,10.24651806640625,1.2857786459624767,-0.16706980007588862,0.062170917230844495
1684200679320544000,10.2565439453125,-0.28968086522221564,0.20763678826391696,0.30970015542209145
1684200679330570200,10.2665703125,-1.123397880485654,0.6605816315382719,0.6311287425607442
1684200679340596200,10.27659619140625,-1.3499685018002987,0.9789794726788997,1.1244795382425188
1684200679350622200,10.286622314453124,-1.3342653212338684,1.1241016448408365,1.6076220975123345
1684200679360648200,10.296648193359376,-0.9969318934768437,1.0973352184683083,1.885712916575372
1684200679370674200,10.306674072265626,-0.6876297974616289,0.868947318598628,1.9095801143750548
1684200679380700200,10.3167001953125,-0.6954255659043789,0.5625204857587814,1.7380479280628263
1684200679390726100,10.32672607421875,-0.8675310220599174,0.26055998467803,1.2960558559574187
1684200679400752000,10.336752197265625,-0.9607231004983187,0.10312895056307315,0.9289349004410207
1684200679410777000,10.346777099609374,-1.0539268693745136,-0.14861352140903472,0.4031570222765207
1684200679420803000,10.356802978515624,-1.2465502129018307,-0.3410620928913355,0.17177827002778648
1684200679430829000,10.3668291015625,-1.4742811101675033,-0.4865829089820385,0.19424276142269373
1684200679440855000,10.37685498046875,-1.5940853011995553,-0.5823223338156939,0.22533158103898165
1684200679450881300,10.38688134765625,-1.6766519407272338,-0.5768938790261745,0.1127655245669186
1684200679460907300,10.3969072265625,-1.6651859593391418,-0.41569793941974637,-0.056349225340038535
1684200679470933200,10.406933349609375,-1.6101321806371212,-0.20074469066262243,-0.38262992868497964
1684200679480959200,10.416959228515625,-1.373853235256672,-0.11078151114284991,-0.561643849054724
1684200679490985200,10.426985107421874,-1.047825629889965,-0.2875169651865959,-0.7647162520125508
1684200679501011200,10.43701123046875,-0.7268097152054309,-0.4438251327514648,-1.199172667916119
1684200679511037200,10.447037109375,-0.4263496087502688,-0.5408487521767616,-1.4208856200665234
1684200679521063200,10.457063232421875,-0.13505546311251818,-0.6804460234373807,-1.469318811585009
1684200679531088100,10.467088134765625,0.11913849366493523,-0.7934820355087518,-1.4358222001746297
1684200679541114000,10.477114013671875,0.22308161015510558,-0.7291349432826042,-1.433767167340964
1684200679551140400,10.487140380859374,0.14661737915575504,-0.5294914918601512,-1.4702357802994548
1684200679561166300,10.497166259765624,-0.03752038703374565,-0.3663911799371242,-1.4495567110165952
1684200679571192300,10.5071923828125,-0.2291974626868963,-0.23682605786919592,-1.309099900317192
1684200679581218300,10.51721826171875,-0.3902222835101187,-0.17830957149267196,-1.241182986780256
1684200679591244300,10.527244384765625,-0.48164662162363525,-0.18615327073037624,-1.18997156272009
1684200679601270300,10.537270263671875,-0.4612140013825148,-0.25056758297383785,-1.105712074734643
1684200679611296300,10.547296142578125,-0.36323987629935145,-0.3059066083580255,-1.0439275995381176
1684200679621322200,10.557322265625,-0.21178155991844833,-0.3919377091258764,-0.8412457302678376
1684200679631348200,10.56734814453125,-0.08724456821084021,-0.4549252034366131,-0.7110077504396438
1684200679641374200,10.577374267578126,0.016966916891932485,-0.2987134819835424,-0.5471224256187677
1684200679651400200,10.587400146484375,0.12549334258437156,-0.011221651238203048,-0.30200141761302945
1684200679661426400,10.597426513671875,0.2639706699043512,0.3032470337599516,-0.06926379810124635
1684200679671451100,10.607451171875,0.4305671533800661,0.46570904777944083,0.29685565222240984
1684200679681477400,10.617477294921875,0.5236848514080047,0.4627046052664518,0.6181155317306518
1684200679691503400,10.62750341796875,0.5546404000334442,0.3728542384713888,0.8703593773536383
1684200679701529300,10.637529296875,0.5387772065997123,0.2065197669327259,1.0164977408207951
1684200679711555300,10.647555419921876,0.5421902299135923,-0.003262801188230514,1.0224844140149651
1684200679721581300,10.657581298828125,0.5667163300134241,-0.12212708102166651,0.8989324147567153
1684200679731607300,10.667607177734375,0.5436036038428544,-0.09099953683018684,0.6592692337654531
1684200679741633300,10.67763330078125,0.479672106680274,-0.00220423204600811,0.3999592491485178
1684200679751659300,10.6876591796875,0.3970310867421329,0.0014238953232765196,0.19464885800555348
1684200679761685200,10.697685302734374,0.3000836012929678,-0.1162502979427576,0.07773907324075699
1684200679771711200,10.707711181640626,0.24550386984348296,-0.29170272643864154,-0.08436302142515778
1684200679781737200,10.7177373046875,0.20737068467363715,-0.4254565323680639,-0.23992972297295925
1684200679791763200,10.72776318359375,0.170953948032856,-0.4588800785422325,-0.38515389420464635
1684200679801788200,10.7377880859375,0.14733458751440048,-0.3556365616887808,-0.5218285560168325
1684200679811814400,10.747814453125,0.1570148545295,-0.22553075687289237,-0.6756731099471449
1684200679821840400,10.75784033203125,0.21648308867290614,-0.21473931374549865,-0.728021721343696
1684200679831866400,10.767866455078124,0.27544717268645763,-0.23886370117664335,-0.7028887413918972
1684200679841892400,10.777892333984376,0.35013796427249905,-0.23045418474972246,-0.6536116463951767
1684200679851918300,10.78791845703125,0.4557625310435891,-0.23092180226147174,-0.5436624944232404
1684200679861944300,10.7979443359375,0.5664975726962089,-0.21410569201707838,-0.33241073053255676
1684200679871970300,10.80797021484375,0.674973729506135,-0.1600947003662586,-0.0522897208161652
1684200679881996000,10.81799609375,0.7285884153157473,0.005838789156079292,0.3797879832573235
1684200679892022000,10.82802197265625,0.7538587579116225,0.18421791875362395,0.7021369001112878
1684200679902048000,10.838048095703124,0.8184162780180573,0.35974575057327746,0.9290599881254136
1684200679912074000,10.848073974609376,0.9166513190597295,0.6220248141288757,1.2171078453183173
1684200679922100200,10.858100341796876,1.0441636002510786,0.7240992872029542,1.3949120976373552
1684200679932125200,10.868125244140625,1.191244505265355,0.5697738178879023,1.4277062598668038
1684200679942151400,10.8781513671875,1.2742425219476223,0.2396288403302431,1.3033765542343259
1684200679952177400,10.888177490234375,1.2098042443066834,-0.017985738545656202,1.0205912937447428
1684200679962203400,10.898203369140624,1.0449456905394792,-0.055882046219706535,0.7054084691278636
1684200679972229000,10.90822900390625,0.8860779016196727,0.016789806759357453,0.3814784205622971
1684200679982255000,10.918255126953126,0.7909190531529485,0.07232756958603859,0.19941621853783725
1684200679992281000,10.928281005859375,0.7717857520073652,0.10411796160042286,0.17052461670488117
1684200680002307000,10.93830712890625,0.7658984475344419,0.17037644040584562,0.19968553699851035
1684200680012333000,10.9483330078125,0.6945125427126884,0.46276773363053797,0.23303835602402687
1684200680022359000,10.958359130859375,0.5605675981253385,0.9369570249855518,0.2569048231713474
1684200680032385000,10.968385009765624,0.457217406027019,1.3620564144790173,0.3322824279777705
1684200680042411000,10.978410888671876,0.39230245078504083,1.6444775178313253,0.49829234373718495
1684200680052437200,10.988437255859376,0.3025200346596539,1.7567267634391783,0.6569511660814285
1684200680062462200,10.998462158203125,0.21551497429311275,1.8802929373532533,0.7611553446605801
1684200680072488200,11.00848828125,0.04689268407821655,2.13337980967164,1.0215653994739056
1684200680082514200,11.01851416015625,-0.21374854914247987,2.423427754640579,1.369389826107025
1684200680092540200,11.0285400390625,-0.5311567947238683,2.63118787702322,1.683762649515271
1684200680102566100,11.038566162109374,-0.7883703915834427,2.396191372668743,1.903339174158871
1684200680112592100,11.048592041015626,-0.879305631005764,1.5940683500647543,1.908084030598402
1684200680122618000,11.0586181640625,-0.5858022848859429,0.6159668292641639,1.4561201611854135
1684200680132644000,11.06864404296875,0.06854001387134194,-0.09590484452843666,0.7238039575181902
1684200680142670000,11.078670166015625,0.9675286888599395,-0.48331250900924205,0.18304098392874002
1684200680152696000,11.088696044921875,3.5902789924055334,-0.6898387056827545,-0.268252146615833
1684200680162722000,11.09872216796875,7.667828291535377,-0.40721126610338687,-0.49278541688397526
1684200680172748000,11.108748046875,9.141621325924993,-0.04323357704877853,-0.2756616922199726
1684200680182774300,11.118774169921876,8.447454235649108,0.08188976317942143,-0.20692454834133386
1684200680192800300,11.12880029296875,6.454691103413701,0.11238017851114272,-0.34870983116552234
1684200680202825200,11.1388251953125,3.7959927036523817,0.05113572847545147,-0.361458691971004
1684200680212851200,11.148851318359375,1.5521552079647778,0.12243220144808292,-0.03182210232689976
1684200680222877200,11.158877197265625,-0.10592241720650344,0.41473230925798416,0.5376080166898668
1684200680232903200,11.168903076171874,-1.12174485258162,0.7850392013341188,0.7400538121819495
1684200680242929200,11.17892919921875,-2.059000568252802,1.1376216361492872,0.7786483312532305
1684200680252955100,11.188955078125,-2.8436650910556316,1.508092194354534,0.3288353562638163
1684200680262981000,11.198981201171875,-3.6419232549250125,1.9515064082175493,-0.07212123335897921
1684200680273007000,11.209007080078125,-4.2895980586171145,2.423328385919332,-0.04943973821252584
1684200680283033000,11.219033203125,-4.935419927918911,2.7508307400137184,-0.0022810966745018956
1684200680293059000,11.22905908203125,-5.293376456987858,2.9768752916276453,0.4595902726382017
1684200680303085000,11.2390849609375,-4.446363322299718,3.1422973244965076,0.7209531711969525
1684200680313111300,11.249111328125,-3.0322447121500966,3.1270301972597836,1.617262178647518
1684200680323137300,11.25913720703125,-0.9771255153752862,2.9259383005946873,2.142747649736702
1684200680333162200,11.269162353515625,-0.09714987615346908,2.592380884245038,2.0853423394724726
1684200680343188200,11.279188232421875,-0.41540684751868245,2.2118436900556087,1.8229671220660209
1684200680353214200,11.289214111328125,-0.7975145058952271,1.9087989008694886,1.3020736549422145
1684200680363240200,11.299240234375,-0.8888144869767128,1.646775857901573,0.5981622194390743
1684200680373266200,11.30926611328125,-0.8381120353519916,1.6236492493361234,-0.23721286522969603
1684200680383292200,11.319292236328126,-0.48369274049848315,1.4586182616114616,-1.2033964230909944
1684200680393318100,11.329318115234376,-1.2473846178993582,1.1834048976808786,-1.597693700955063
1684200680403344100,11.33934423828125,-2.529565531630814,0.5561246472418307,-1.9221851827956735
1684200680413370000,11.3493701171875,-3.0436639317870138,0.019498481196165082,-2.0903246579296884
1684200680423396000,11.35939599609375,-2.8371374428525566,-0.3624158465653658,-2.108501827394217
1684200680433422000,11.369422119140625,-2.3559847422257065,-0.6301935075372457,-1.9273009183742105
1684200680443448300,11.3794482421875,-1.944305975319445,-0.672677727523446,-1.6634838315963745
1684200680453474600,11.389474609375,-1.5762255271211265,-0.7808429186880588,-1.8037448274627328
1684200680463499500,11.39949951171875,-1.554204541710019,-0.8104337548315524,-1.9066525364905595
1684200680473525500,11.409525390625,-1.7489239807337522,-0.8057569951921701,-1.8948150914415716
1684200680483551500,11.419551513671875,-2.1668147540226577,-0.8938473665773868,-1.8171371007382868
1684200680493577500,11.429577392578125,-2.5274103994235393,-0.9983592959314584,-1.8872455329701303
1684200680503603500,11.439603515625,-2.6641362069010732,-1.1103367388606071,-2.0055505714856086
1684200680513629700,11.449629638671874,-2.4415447183504697,-1.0807920799463986,-1.9063770805500446
1684200680523655700,11.45965576171875,-2.226080305200815,-0.8976362374663353,-1.4769965066060422
1684200680533681700,11.469681640625,-2.0702040993124244,-0.7121358776867389,-0.8631504688881337
1684200680543707600,11.479707763671875,-1.9918314043432472,-0.6552040301531553,-0.2341296583920717
1684200680553733600,11.489733642578125,-2.103883666074276,-0.8170785996735096,-0.03671381989121437
1684200680563759600,11.499759521484375,-2.078170548146963,-1.1119102717876435,-0.29388211630433797
1684200680573785600,11.50978564453125,-2.0346146072760223,-1.3690198237508535,-0.6495032612282783
1684200680583811600,11.5198115234375,-1.9901529497370123,-1.6072662698119877,-1.1360022182539105
1684200680593836500,11.52983642578125,-1.9881191058218477,-1.8881185164123773,-1.703769518624991
1684200680603862500,11.539862548828125,-1.9763129326939581,-2.1021476360619067,-2.1374499817200006
1684200680613888500,11.549888427734375,-1.8479884583368897,-2.21659702206254,-2.3272506690420207
1684200680623914500,11.55991455078125,-1.6761504209458826,-2.2661761687457562,-2.3798988479070364
1684200680633940500,11.5699404296875,-1.4454066055998205,-2.3323639204025266,-2.2410170314393936
1684200680643966700,11.579966796875,-1.1322151009306312,-2.372267476245761,-2.073183699645102
1684200680653992700,11.58999267578125,-0.8868374878153205,-2.359602055940032,-1.8354986868590115
1684200680664018700,11.600018798828126,-0.7558303502455354,-2.2459382673591373,-1.5756401284486055
1684200680674044700,11.610044677734376,-0.7113119940832257,-2.0378075580984354,-1.3388441734567285
1684200680684070700,11.620070556640625,-0.7284659579798579,-1.7431050653219222,-1.1108370165329426
1684200680694096600,11.6300966796875,-0.8584741476401686,-1.4375059154778718,-0.8928157585073262
1684200680704122600,11.64012255859375,-0.9378805695712565,-1.128873097026348,-0.733134680443257
1684200680714148600,11.650148681640625,-0.9215507815390824,-0.7926829940855502,-0.5979376899681985
1684200680724174600,11.660174560546874,-0.7878080815255641,-0.4887333650141954,-0.44926776219680903
1684200680734199600,11.670199462890626,-0.6344178472340106,-0.33654958390295503,-0.30189810336902734
1684200680744225500,11.6802255859375,-0.551916966418922,-0.3630465456843376,-0.17426109981946647
1684200680754251500,11.69025146484375,-0.4875321725308895,-0.5175245752125979,-0.10457038154304027
1684200680764277500,11.700277587890625,-0.4952124979004264,-0.7396393861621617,-0.11572094030641018
1684200680774303700,11.7103037109375,-0.48509354720711706,-0.9578741408079862,-0.16763415596038103
1684200680784329700,11.720329833984374,-0.42800797041654587,-1.1152467227339744,-0.1650692739084363
1684200680794355700,11.730355712890624,-0.3437202061846852,-1.1627087311327458,-0.19230529055409132
1684200680804381700,11.740381591796876,-0.2677415667451918,-1.1358867751806974,-0.27115871824491766
1684200680814407700,11.75040771484375,-0.2250374203979969,-1.0467524477005004,-0.31713074381425976
1684200680824433700,11.76043359375,-0.24344532987847922,-0.8611170633643865,-0.43430590151697396
1684200680834459600,11.770459716796875,-0.21969722841382025,-0.46857203599512576,-0.45884413044601674
1684200680844485600,11.780485595703125,-0.09216142021641134,0.07405132463872433,-0.39157092164009805
1684200680854511600,11.79051171875,0.20644261004328726,0.7785235358297824,-0.3885711553022265
1684200680864536600,11.80053662109375,0.572471459474042,1.7088742944180964,-0.25059242515414953
1684200680874562600,11.8105625,0.6979775884747504,2.8214328009814023,-0.025400106455385683
1684200680884588500,11.820588623046875,0.5719686610510573,4.2207630073219535,-0.5434057066505774
1684200680894614500,11.830614501953125,0.4583948888411745,5.837351232230663,-1.1783164885006845
1684200680904640800,11.840640869140625,0.29883562879217784,7.094189614912867,-1.3388016494892536
1684200680914666800,11.850666748046875,0.9737690445542335,7.276465167427062,-0.3792277190260589
1684200680924692700,11.860692626953124,3.5438404818356033,5.359059181731939,1.5906949281089007
1684200680934718700,11.87071875,5.521066437721252,2.6056425168782473,2.8957138427227735
1684200680944744700,11.88074462890625,5.033488672482967,1.0202063860803843,3.1112799626812335
1684200680954770700,11.890770751953125,3.9145103620052337,0.42200025443434713,3.063113897666335
1684200680964796400,11.90079638671875,2.633983060699701,0.6739385412395,2.2917536775946616
1684200680974822400,11.910822509765625,1.617847869580984,0.7507657603323459,1.3285399293243885
1684200680984848400,11.920848388671875,0.710835901004076,-0.5001157597720622,0.9137325820688158
1684200680994873600,11.93087353515625,-0.7313362527191638,-1.3618307890295982,-0.3635611441429704
1684200681004899600,11.940899658203126,-2.117335852843523,-1.6591735671818255,-1.402424665224552
1684200681014925600,11.950925537109375,-2.8226854313910006,-1.7129770535618065,-1.113881425730139
1684200681024951600,11.96095166015625,-2.538767952001095,-2.0853665971308946,-0.3355813964579254
1684200681034977800,11.970977783203125,-2.133597251814604,-2.3816040443897246,-0.13238339435905216
1684200681045003800,11.981003662109375,-1.6012930406212806,-2.610458392727375,0.14113704804852603
1684200681055029500,11.991029541015624,-1.2134487382888792,-2.288708903071284,0.1086899456910789
1684200681065055500,12.001055419921874,-1.0370903008639811,-1.3110761688262222,0.1970509507112205
1684200681075081500,12.01108154296875,-1.4957190349936484,0.33347266067564485,-0.1483041631989181
1684200681085107500,12.021107421875,-1.9786030894577502,2.211902726766467,-0.3594545125417411
1684200681095133400,12.031133544921875,-1.7635574862420558,3.9779257263392207,-1.1985168343558907
1684200681105159400,12.041159423828125,-0.9667863460600375,4.391002669605612,-0.6959769161768257
1684200681115185400,12.051185302734375,-0.07423197843525559,3.0256331850558515,0.3534948734849691
1684200681125211400,12.06121142578125,0.37737434624433513,2.3205489794462917,0.1051383906893432
1684200681135236600,12.071236572265626,1.0715431900858878,1.8742612559735774,-0.7855256696768105
1684200681145262600,12.0812626953125,2.4042039987325667,1.5764935304075478,-1.4320292376324533
1684200681155288600,12.09128857421875,2.9398914226233956,2.768105115419626,-2.4870593920737503
1684200681165314600,12.101314453125,3.3431378767490383,4.542784884178638,-3.226532481758296
1684200681175340500,12.111340576171875,2.318151855176687,3.639011166870594,-0.4321837947964668
1684200681185366500,12.121366455078125,1.1883926229655741,1.456107155573368,3.1894106655880807
1684200681195392500,12.131392578125,1.0418833803594112,-1.5580214696496724,5.526752666664123
1684200681205418500,12.14141845703125,0.5715875893115997,-4.152960221683979,6.463966881281137
1684200681215444500,12.151444580078126,0.10719893994834273,-5.455027154624462,6.466136626535654
1684200681225470500,12.161470458984375,-0.32905773031022395,-5.84507802709043,5.619312876939773
1684200681235496400,12.171496337890625,-0.8135714683353901,-5.134668242543936,4.137795093517005
1684200681245522400,12.1815224609375,-0.9081178839921951,-4.082196832674741,3.018072102151811
1684200681255547600,12.191547607421874,-1.8461200341165065,-3.5441105309486387,2.9886706511005756
1684200681265573400,12.201573486328124,-2.483140172803402,-3.0471453441619873,3.5305335487559435
1684200681275599400,12.211599365234376,-2.439564065927267,-2.3740584513157605,3.9621161627888677
1684200681285625300,12.221625244140625,-2.631758370387554,-1.8033248484849929,3.9065775231793523
1684200681295651600,12.231651611328125,-2.533580904752016,-1.3497025443404913,3.2117972694411874
1684200681305677600,12.241677490234375,-2.5882863084077834,-0.6879588832855225,1.955084266704321
1684200681315703600,12.25170361328125,-3.2133015365242956,1.035436688438058,0.2035088946789503
1684200681325729500,12.2617294921875,-4.22069461826086,3.6093092715680597,-1.7919737256482242
1684200681335755500,12.271755615234374,-5.066410114353895,4.473611979231238,-3.3320147174492476
1684200681345781500,12.281781494140626,-4.508675693827867,3.848881413275003,-3.140545220132172
1684200681355807500,12.291807373046876,-3.632630525922775,2.2523978187620637,-1.612042105911672
1684200681365833500,12.30183349609375,-2.927128971683979,0.7741045503437518,-0.11682707491740583
1684200681375859500,12.311859375,-2.3843606496214864,-0.2628998258024454,0.707444358869642
1684200681385885400,12.321885498046875,-2.2695383386552335,-0.8534142339020967,0.7867718703456222
1684200681395910400,12.331910400390624,-2.395035188370943,-0.8191682654291391,0.15600860009640455
1684200681405936400,12.341936279296876,-2.6328373977959156,-0.08477320966124534,-0.8185705917969346
1684200681415962400,12.35196240234375,-2.6302877133131024,0.7682090625643729,-1.5998716295160351
1684200681425988600,12.361988525390625,-2.2589725209772586,1.4256839602589606,-2.2026826246090234
1684200681436014600,12.3720146484375,-1.7026175721108912,1.563908189600706,-2.5396467806622383
1684200681446040000,12.3820400390625,-1.1107529184460638,1.1148644454181194,-2.476295421475172
1684200681456066000,12.392066162109375,-0.41635318845808506,0.776211751756072,-2.5526535617515442
1684200681466092000,12.402092041015624,0.15637831019163131,0.2046364374041557,-2.3507331053078175
1684200681476118000,12.412117919921876,0.6966840415328741,0.33513153379857535,-1.9970963391341268
1684200681486144300,12.422144287109376,1.5554980886518954,2.408421908688545,-2.9176877741217613
1684200681496170200,12.432170166015625,3.618029169118404,3.4709389117538927,-4.8315182394176714
1684200681506196200,12.4421962890625,5.81132130343914,2.510613286140561,-5.558722506898642
1684200681516222200,12.45222216796875,6.546840394800901,-0.32448972827494144,-3.6055747612148523
1684200681526247200,12.4622470703125,6.787988992044329,-1.3425088334441184,-2.2248259212255475
1684200681536273200,12.472273193359374,6.6657672184765335,-0.1429898363083601,-2.2890622465535997
1684200681546299100,12.482299072265626,5.420529841738939,1.700626106032729,-2.7989205249220133
1684200681556325000,12.4923251953125,3.6216000133424995,1.1474164694547653,-1.1074749196887015
1684200681566351000,12.50235107421875,2.5221266138017175,-0.7396715348660945,2.6078476257070897
1684200681576377000,12.512377197265625,1.857594198811054,-1.2001847675681114,4.003100499606132
1684200681586403000,12.522403076171875,1.2124246559381484,-0.912985782289505,3.393661903066933
1684200681596429000,12.532428955078124,0.3042391135372221,-0.9054103785991668,2.5159797816097735
1684200681606455000,12.542455078125,-0.9885031608927994,-0.48996027646064755,2.1633982235774396
1684200681616481300,12.552481201171876,-1.9457751710891722,0.5213900184690952,2.2183657853007315
1684200681626507300,12.56250732421875,-2.014497409659624,1.7417022127866744,1.9392890239402651
1684200681636533200,12.572533203125,-1.0852461367458104,2.8222563923239705,0.48876668276190754
1684200681646559200,12.582559326171875,-0.27454759349823,2.3628256941616534,-0.685525810919702
1684200681656585200,12.592585205078125,-0.5824362425189465,0.5891887124538421,-1.1537880503132938
