time,seconds_elapsed,z,y,x
1684201170554179300,0.038179443359375,2.2388398335307835,2.9355612844645975,0.1192301905363798
1684201170564204500,0.04820458984375,1.6126514699816703,1.6163608458936214,-0.9374395478054881
1684201170574230500,0.05823046875,0.34606443122327324,-1.1233891126573086,-0.8708810631401837
1684201170584256500,0.068256591796875,0.6845885300695895,1.7091028424769639,0.026319120996445417
1684201170594281500,0.078281494140625,0.024357027143239972,1.6212059478372334,0.7540884750142693
1684201170604307500,0.088307373046875,-0.11991349662542343,1.103359885585308,1.296796299061179
1684201170614333400,0.09833349609375,0.5889765310078859,0.32294717500805853,1.122022792740166
1684201170624359400,0.108359375,1.4469400987774133,-0.5939093112349509,0.1580064959153533
1684201170634384400,0.11838427734375,1.2046201196670532,-1.3060077795207499,-0.5522280781947077
1684201170644410400,0.128410400390625,-0.2598930452018976,-3.0485861906200644,-2.798398546874523
1684201170654436400,0.138436279296875,-0.6142541801273822,-3.150457250076532,-4.490098419129848
1684201170664462300,0.14846240234375,0.5211708227604628,-0.06166764388382435,-1.5695336282670498
1684201170674487300,0.1584873046875,0.3375830186039209,1.4610042799651621,-1.1822766973685472
1684201170684513300,0.16851318359375,-1.1890846968829631,1.4665969854056835,-4.160278435742855
1684201170694539300,0.178539306640625,-1.9758119974344968,2.0059709888547657,-4.284939126895368
1684201170704565200,0.188565185546875,0.18455460336208343,3.8227784192472694,-0.24516075549423694
1684201170714590200,0.198590087890625,2.3036562968343497,4.828883214738965,2.5790923636049032
1684201170724616200,0.2086162109375,2.912856116181612,3.7918706552863117,2.5342981131106614
1684201170734642400,0.218642333984375,3.3056998342365023,3.225962865176797,2.2314017924845215
1684201170744667400,0.22866748046875,5.53877043671608,5.288773347106575,2.2866107617482543
1684201170754693600,0.238693603515625,7.070972989976406,3.4477047511607406,-4.519400209198892
1684201170764719400,0.24871923828125,7.048496954274177,2.841203669378161,-10.063456185102462
1684201170774745300,0.258745361328125,8.194619292265177,7.349457922923564,-4.124776037468016
1684201170784770600,0.2687705078125,8.284773610442876,8.535614165139197,-0.06839110691994428
1684201170794796500,0.278796630859375,6.641515989795327,7.261751582419872,0.5172726462781428
1684201170804822500,0.288822509765625,6.665843206322193,6.154410518243909,-0.5162620079308748
1684201170814848500,0.2988486328125,7.338417473471164,6.749874657705425,-1.8661112672656774
1684201170824873500,0.30887353515625,7.885294399896264,7.944666626319289,-3.602581424617767
1684201170834899500,0.3188994140625,7.955128399100899,8.88770384800136,-4.594539036813378
1684201170844925400,0.328925537109375,7.451058348745107,9.40707142073214,-5.552041421699523
1684201170854951400,0.338951416015625,7.254837857508659,9.791893160372972,-6.538515634047985
1684201170864976400,0.348976318359375,6.864095495647192,10.288091454440355,-6.249750714626908
1684201170875002400,0.35900244140625,4.480787277688086,11.045878491711616,-2.9489859987050293
1684201170885028400,0.3690283203125,0.11692658976912498,10.463612856519221,-0.566441458594799
1684201170895054300,0.379054443359375,-2.4860265418946743,9.472393495470286,-0.8107301074296236
1684201170905079300,0.389079345703125,-2.403257657793164,10.775345394551753,-1.7270727989315986
1684201170915105300,0.399105224609375,-2.4890157868385314,13.25614631075263,-2.9419775812476874
1684201170925131300,0.40913134765625,-3.4177497578799723,14.182357485318184,-3.0071453422069547
1684201170935156200,0.41915625,-5.262948585498333,11.97846796913743,0.6907984906256198
1684201170945182200,0.42918212890625,-3.9352491986513134,10.979247672462463,3.6801597543388604
1684201170955208200,0.439208251953125,-0.267809225153923,12.429160065048933,7.779192571002245
1684201170965234200,0.449234130859375,1.0711198501072823,12.670713735961913,12.648727529603242
1684201170975259400,0.45925927734375,0.42666926915869113,9.849438171368837,13.557973540842532
1684201170985285400,0.469285400390625,0.19094445052966474,7.147391043746471,13.806855947208403
1684201170995311600,0.4793115234375,-0.052944896789267656,6.955291431832313,16.36322034617662
1684201171005337600,0.489337646484375,-0.07655008265189826,6.431126687952876,19.159977555584906
1684201171015362600,0.499362548828125,0.13732640371918678,5.301776621064543,20.865958466649055
1684201171025388500,0.509388427734375,-0.001143324816226959,4.477510155713558,21.99323464987278
1684201171035414500,0.51941455078125,0.07575404603653586,3.151513481131196,22.59548391942978
1684201171045440500,0.5294404296875,1.0436766935169697,1.6475503494054078,21.711827107477188
1684201171055465700,0.5394658203125,2.609734754627943,0.4092524165421724,20.622930631530284
1684201171065491700,0.54949169921875,2.998315554541349,0.22721359539330005,19.845079295873642
1684201171075517700,0.559517578125,2.349016072256863,0.47525896641314025,18.236058875870704
1684201171085543700,0.569543701171875,2.975625583827495,-0.3261643834888935,16.75245814869404
1684201171095568600,0.579568603515625,2.9938129824250934,-1.5114444273918866,14.30288239184022
1684201171105594600,0.5895947265625,2.527424720209837,-2.365329201415181,12.241249136996268
1684201171115620600,0.59962060546875,1.9542378790080546,-2.6886101384222507,11.679960823380947
1684201171125645600,0.6096455078125,1.3250561788618564,-2.375556580919027,11.225295147663354
1684201171135671600,0.619671630859375,0.670144994175434,-2.610941792330146,10.777696341592073
1684201171145697800,0.62969775390625,0.4269209058322012,-3.5910026305049656,10.423921482121944
1684201171155723800,0.639723876953125,0.9978767731115221,-4.7219437659770245,10.264420655995607
1684201171165748700,0.649748779296875,1.677502127815783,-5.361064676335453,10.057554852104186
1684201171175774700,0.659774658203125,2.624160754865408,-6.257136148703098,9.94436335721016
1684201171185800700,0.66980078125,3.683103114314377,-6.6523822517246005,8.676015153998136
1684201171195826700,0.67982666015625,5.025684136211872,-6.456726993155479,5.988169570207596
1684201171205852000,0.689851806640625,5.374086070472002,-5.666423003160953,5.559890381634235
1684201171215878000,0.6998779296875,5.736714098483324,-5.235123589983583,4.314897919568419
1684201171225903900,0.70990380859375,6.7764125360190866,-4.509937092065811,0.5566103849321603
1684201171235929600,0.7199296875,8.961441284385323,-1.04981183527112,-2.7937387383699415
1684201171245954800,0.729954833984375,10.075404981571435,2.4867630394756794,-8.72337954724133
1684201171255980800,0.739980712890625,-0.05348112255781889,0.765784465765953,-7.992660549637675
1684201171266006800,0.7500068359375,-2.366371696205437,-0.22188567836880682,-7.523088981211185
1684201171276031700,0.76003173828125,-2.133055984544754,0.140483406445384,-5.157789005890488
1684201171286057700,0.7700576171875,-0.434380428057909,-1.222144378180802,-4.378708420699835
1684201171296083700,0.780083740234375,1.5572440555363893,-2.0156588546544314,-5.543235014909506
1684201171306109700,0.790109619140625,2.505316933298111,-1.7868764025092123,-5.751359294429421
1684201171316134700,0.800134765625,0.9148515761613846,-1.0330351802542805,-5.309121138608456
1684201171326160600,0.81016064453125,-0.04782558101415634,0.6767515528336167,-2.826834367763996
1684201171336186600,0.8201865234375,-1.5221464386701582,1.3476876973867415,-1.8090718677043913
1684201171346212600,0.830212646484375,-2.8877064773559566,2.869309819921851,-3.492363977098465
1684201171356237600,0.840237548828125,-3.525571834695339,4.331875357854366,-2.9681518869459627
1684201171366263600,0.850263671875,-3.430776997235417,5.469831925046444,-3.785106567978859
1684201171376289500,0.86028955078125,-2.8167823448270557,4.77393844936937,-6.95546620387733
1684201171386315800,0.870315673828125,-1.5404503032542765,3.673114219741523,-6.314466055643559
1684201171396340700,0.8803408203125,0.4277379943687469,2.698706585022807,-5.037214999529719
1684201171406366700,0.89036669921875,1.7206515337124466,2.657661457929015,-3.4490497360289094
1684201171416392700,0.900392822265625,2.76466578862071,2.5630033985912797,-2.1588380760550496
1684201171426418000,0.91041796875,3.091174455502629,1.6437997647002338,-1.693524165073037
1684201171436444000,0.92044384765625,3.5007986279666423,2.2213550302445886,-2.4767554402023553
1684201171446470000,0.930469970703125,1.7706226023226976,5.882157757684588,-0.4951736271947622
1684201171456495900,0.940495849609375,-1.1710919440746306,8.459626319479941,0.7052940489679574
1684201171466520800,0.950520751953125,-3.1001842759102582,5.197469858893752,-3.2562609728068113
1684201171476546800,0.960546875,-2.5123054770112034,3.0618688660413027,-4.2925154073685405
1684201171486572800,0.97057275390625,-1.76726101693511,2.2842712128847835,1.8637609047472476
1684201171496598800,0.980598876953125,0.8518938924670219,2.0144243444234133,6.875124254661798
1684201171506623700,0.990623779296875,1.5936322967350482,1.88022454829216,6.726240684139728
1684201171516649700,1.000649658203125,1.4381424598157404,-1.2428221322894095,8.493712713477015
1684201171526675700,1.01067578125,1.431338771150261,-3.969751187711954,8.809531059518456
1684201171536701700,1.02070166015625,0.8633424843288957,-3.8336213003009556,6.86036916860044
1684201171546726700,1.0307265625,-2.377919364527613,-2.87438463896811,3.610090192812681
1684201171556752600,1.040752685546875,-3.72188964882642,-0.6366501363307238,4.6188294284611935
1684201171566778600,1.050778564453125,-1.7686606545999646,2.6557933259695767,5.072044320848584
1684201171576803600,1.060803466796875,1.4357944353848695,3.4957734932810065,3.57189694801867
1684201171586829600,1.07082958984375,4.0277182235121725,2.954335543039441,2.2215917616099117
1684201171596855600,1.08085546875,5.264517442250251,2.374490412992239,1.7870289627224205
1684201171606881500,1.090881591796875,5.0615597517132755,2.147545113146305,1.4238117366462946
1684201171616906800,1.10090673828125,3.7017128299772737,1.9984253957808016,0.7225415363669395
1684201171626932700,1.1109326171875,1.9925661483585833,1.1699199776858091,0.6598381196945905
1684201171636958700,1.120958740234375,0.24535664339251814,-0.8516858026742935,0.8518860014215112
1684201171646984700,1.130984619140625,-2.2654268116831777,-3.184076611083746,0.3005366057574749
1684201171657010000,1.141010009765625,-4.898732996034622,-5.767616017225384,-2.4820722513109446
1684201171667036000,1.151035888671875,-5.0835085486710065,-7.582135628941654,-5.930404778981209
1684201171677062000,1.161061767578125,-2.603928114175796,-7.797742957693338,-7.333824300462007
1684201171687087900,1.171087890625,-0.23948329437971114,-7.97868229316771,-6.896743381273746
1684201171697112800,1.18111279296875,0.5096271364936604,-6.8613920819073915,-7.273046883416176
1684201171707138800,1.191138916015625,-0.14045184226334095,-5.259864063486456,-10.018771824723482
1684201171717164800,1.201164794921875,1.2153005036354063,-5.873415648302435,-7.496588512298464
1684201171727190800,1.211190673828125,2.1823153977543113,-4.8601492906183,-4.804040449905395
1684201171737215700,1.2212158203125,2.2298580701738593,-2.967438770240545,-5.409919015875459
1684201171747241700,1.23124169921875,1.5394015248537063,0.38476270292997355,-4.739679913675785
1684201171757267700,1.241267822265625,0.5729308206140995,0.7783721446603536,-0.8000538151144981
1684201171767292700,1.251292724609375,0.803718767362833,1.052120696735382,5.407525398737191
1684201171777318700,1.261318603515625,1.7768354854881763,3.8399844055920838,12.19529402602911
1684201171787344600,1.2713447265625,3.6891982163190837,6.602762188509106,16.884630238389967
1684201171797370600,1.28137060546875,4.985595286929607,7.844014295002817,19.82779381455183
1684201171807395600,1.2913955078125,5.552039083611965,7.73406689659655,18.27036095844507
1684201171817421600,1.301421630859375,5.291742133784294,6.635417088398337,13.699778551280497
1684201171827447600,1.311447509765625,4.030404686117172,5.047087574246525,9.270128463372588
1684201171837473500,1.3214736328125,2.0325038987323643,3.3101550600796936,5.6996144941449165
1684201171847498800,1.331498779296875,-0.5533263948254287,1.5718220314651727,2.6667653863608836
1684201171857524700,1.341524658203125,-3.6065842305183407,-0.631366058447957,-1.2233666134521364
1684201171867550700,1.35155078125,-5.599968709522486,-3.24069047870934,-6.344653104114532
1684201171877576700,1.36157666015625,-5.470981095081568,-5.493637163525819,-10.092248564344644
1684201171887601700,1.3716015625,-3.4829113813593984,-7.202014614337682,-12.091529700171947
1684201171897628000,1.3816279296875,-0.33567572367787357,-7.841976067173481,-12.706515701705216
1684201171907654000,1.39165380859375,1.885081779064983,-7.26214555017352,-12.135438984525203
1684201171917678800,1.401678955078125,2.5176748950898644,-6.235239374193549,-11.027670634847878
1684201171927704800,1.411704833984375,1.9923639037847518,-5.373892593726516,-9.741603235071898
1684201171937730800,1.421730712890625,1.3005987600840627,-4.769855271708965,-8.525809979483485
1684201171947756800,1.4317568359375,0.31674232901856303,-3.5586575272172687,-7.036117949694395
1684201171957781800,1.44178173828125,-0.6400444549441338,-2.057674288085103,-4.625712465973198
1684201171967807700,1.451807861328125,-0.7697010546877979,0.18638766400814055,-2.1850451149791477
1684201171977833700,1.461833740234375,0.08518822020292281,7.394215348538756,-0.5118222719177603
1684201171987859700,1.471859619140625,-0.5596013834416866,12.201420984476805,5.54065376624465
1684201171997884700,1.481884765625,-0.17579145119190215,11.70992575353384,11.918175705260039
1684201172007910700,1.49191064453125,2.7694793263822794,13.443028480279445,14.626615164268015
1684201172017936600,1.5019365234375,5.21203906699419,12.648388506907224,13.54313369910717
1684201172027962600,1.511962646484375,6.400580158519745,9.213472510170936,11.21163253301382
1684201172037987600,1.521987548828125,6.489577123355865,6.5757105154544115,9.18454101471901
1684201172048013600,1.532013671875,4.925782331001758,4.41825366462469,7.2155965649664395
1684201172058039600,1.54203955078125,1.6515174994707107,1.9060428801596163,5.640310072261094
1684201172068064800,1.552064697265625,-2.9430197837769985,-1.4804975004643202,3.220699245560169
1684201172078090800,1.5620908203125,-6.502871489214897,-5.368555324351787,-1.7812287520110606
1684201172088116700,1.57211669921875,-6.0051323954463,-8.786035617640614,-5.512862672999501
1684201172098142700,1.582142822265625,-3.799755855578184,-10.717323413693904,-8.869788836604357
1684201172108167700,1.592167724609375,-1.3407821557819843,-11.046949335813522,-11.327529195213318
1684201172118193700,1.602193603515625,0.9592238018512725,-11.823926226723193,-10.41018287962675
1684201172128220000,1.612219970703125,2.213456824340671,-12.348953140389918,-9.733343940770625
1684201172138246000,1.622245849609375,1.8203217221237717,-10.673668980884552,-10.567681133759022
1684201172148270600,1.6322705078125,0.8577309280574321,-8.550593707606195,-10.745464635550976
1684201172158296800,1.642296875,-0.6093231534659862,-6.161110892665386,-10.058394225537777
1684201172168322800,1.65232275390625,-2.281453378985077,-3.4175369919121263,-9.375369876044989
1684201172178348800,1.662348876953125,-3.808271170467138,-0.005070142871141433,-7.138464225447177
1684201172188373800,1.672373779296875,-4.882360537904501,5.65193855073452,-0.6098346101194619
1684201172198399700,1.682399658203125,-4.371803463616967,11.841715565913915,8.80980169315338
1684201172208425700,1.69242578125,-1.782557662527263,17.77557837639451,17.339494651550055
1684201172218450700,1.70245068359375,3.538466387581825,23.199823439264296,20.595797125411032
1684201172228476700,1.7124765625,9.802743055689334,19.133560673302412,12.59861763704419
1684201172238502700,1.722502685546875,14.08073835479617,11.743061130416393,7.436483879947662
1684201172248528600,1.732528564453125,14.707145914053916,6.661319006896019,6.121818162196874
1684201172258553900,1.742553955078125,11.09338843090534,2.888155390167236,4.104735996741057
1684201172268579800,1.752579833984375,5.43147559864521,0.016051555612683295,2.9690023662954568
1684201172278605800,1.762605712890625,1.1233106405936182,-1.9917747057199477,3.676301909866929
1684201172288631600,1.772631591796875,-2.105900266593695,-4.051958346277475,1.442510153505951
1684201172298656800,1.78265673828125,-3.7720237990438936,-5.504945324003696,-2.433836335930228
1684201172308682800,1.792682861328125,-4.83320107793808,-6.464452034449577,-5.822068907424807
1684201172318708700,1.802708740234375,-6.598086597913503,-7.403450209873914,-8.168388287943602
1684201172328734700,1.812734619140625,-7.258623221266269,-8.017467658635974,-9.082353728920221
1684201172338759700,1.822759765625,-5.2486476729452605,-8.133331587609648,-8.984401888734102
1684201172348785700,1.83278564453125,-2.81431273984313,-7.768125818064808,-7.788541998627782
1684201172358811600,1.842811767578125,-1.3511447059728205,-6.789305335339903,-5.702948607003688
1684201172368838000,1.852837890625,-0.3776479024887085,-5.2389142144382,-3.776243170304596
1684201172378862600,1.862862548828125,0.3639852878391743,-3.063656333979964,-2.527304893222451
1684201172388888800,1.872888916015625,0.9323965121369808,-0.6122200439512729,-1.8286339156560598
1684201172398914800,1.882914794921875,0.8793383642315864,1.45140350792706,-0.5330709577821194
1684201172408939800,1.892939697265625,0.12223755565881729,3.127451053020358,1.8339460505895315
1684201172418965800,1.9029658203125,-0.5692541779279708,4.553614905750751,4.212402882994711
1684201172428991700,1.91299169921875,-0.3464928857684135,5.846966032794118,5.9322208884924645
1684201172439017700,1.923017822265625,0.659306643166393,6.784819129836559,6.459304150167108
1684201172449042700,1.933042724609375,2.0503002521857616,6.664397683688998,5.9321139209866525
1684201172459068700,1.943068603515625,3.698715401726961,5.3878240884453055,4.155744299444556
1684201172469094700,1.9530947265625,4.929271926683187,3.384223335853219,1.6040324024572967
1684201172479120600,1.96312060546875,4.80419943985939,1.4950421586453915,-0.05235219159312546
1684201172489145900,1.973145751953125,3.640653673380613,0.19503624988794327,-0.7797723668470978
1684201172499171800,1.983171875,2.0769452441357075,-0.7036930435121059,-1.1874603836167603
1684201172509197800,1.99319775390625,0.7700446074284613,-1.3099638236701487,-1.1967202332627027
1684201172519223800,2.003223876953125,-0.5605028623260557,-2.0076205096274613,-0.9461770540777593
1684201172529248800,2.013248779296875,-1.9287305127859113,-2.501577162247896,-0.327640593521297
1684201172539274800,2.023274658203125,-2.6279391043603417,-1.5055974549293518,0.1420306358873844
1684201172549300700,2.03330078125,-2.6323767945468424,1.9322750535249709,0.578297316083312
1684201172559325700,2.04332568359375,-1.8463269548654555,5.787429555720091,2.397444295339286
1684201172569351700,2.0533515625,-0.375599153265357,4.835581835594773,6.059414605253934
1684201172579377700,2.063377685546875,1.7730547979056834,0.3647919280469417,8.137497475117444
1684201172589403600,2.073403564453125,3.7756852441608904,-4.543032136937976,7.345795893284678
1684201172599428600,2.0834287109375,5.092910583266615,-10.168486585372685,5.7236593865990635
1684201172609454600,2.09345458984375,4.199128683140874,-10.191180063217878,3.282788621987402
1684201172619480600,2.10348046875,4.020519836440682,-7.5386343408674,1.6562585565179586
1684201172629506800,2.1135068359375,4.122917550119757,-6.136922792348265,1.6976755856640635
1684201172639531500,2.123531494140625,3.71028016731441,-6.037934594851732,1.995329913983494
1684201172649557800,2.133557861328125,3.227692465448379,-5.692391557154059,1.8535069294974207
1684201172659583700,2.143583740234375,2.9997938104003667,-4.062612426760793,1.2611107993043957
1684201172669609700,2.153609619140625,2.4774784937798975,-2.063304402926564,0.20909356294348835
1684201172679634700,2.163634765625,1.4020283593833445,-0.9513590598255396,-0.9397685752749443
1684201172689660700,2.17366064453125,0.029443518360983578,-0.44996202807128427,-1.5540867605492472
1684201172699686700,2.183686767578125,-0.9634896426022053,0.39275019455254073,-0.3471950792210176
1684201172709712600,2.193712646484375,-2.279096440595388,2.5619354770988223,0.8245852489765733
1684201172719737900,2.20373779296875,-3.2607004165589806,7.584125925976037,0.7990546480093151
1684201172729763800,2.213763916015625,-2.27569919937253,11.141893226355313,0.9640972531065344
1684201172739789800,2.223789794921875,-1.7058815423429012,12.145102300405501,0.4845930503390729
1684201172749814800,2.233814697265625,-0.8988836071789265,9.943135861241817,-0.783359431553632
1684201172759840800,2.2438408203125,0.7587678650021552,6.732476363658905,-2.4361413980022073
1684201172769866800,2.25386669921875,2.23905201497674,4.102819933986663,-3.6355355997145176
1684201172779892700,2.263892822265625,3.1366309692978858,2.758239554965496,-4.007175786221027
1684201172789917700,2.273917724609375,3.775255036050081,2.454298693722486,-3.227093038250506
1684201172799943700,2.283943603515625,3.6745009979248047,2.459716627117991,-1.8013114628359674
1684201172809969700,2.2939697265625,2.2569547514140607,1.0401152016431092,0.2522119891799986
1684201172819995600,2.30399560546875,0.6368611487329006,-0.09094108464121818,2.169125076791644
1684201172830020600,2.3140205078125,-0.6105249304711818,-0.7850906392604112,3.573496784430742
1684201172840046600,2.324046630859375,-1.1324070433061568,-1.8737012840032576,2.97005918187201
1684201172850072600,2.334072509765625,-1.0324001702863723,-3.1473791578054424,1.486305309960246
1684201172860098800,2.344098876953125,-0.9966459892075509,-4.562098656457662,0.36557511431388556
1684201172870123500,2.35412353515625,-1.0593909799993038,-5.595042359036207,0.23083427010849117
1684201172880149800,2.364149658203125,-0.9667255557835102,-6.480134756749868,0.8364517009243368
1684201172890175700,2.37417578125,-0.17640870630741118,-6.118784493589401,0.9642147420063615
1684201172900201700,2.38420166015625,0.5187841468196362,-4.645808620801568,1.3969059018030763
1684201172910227000,2.39422705078125,0.6994330479800701,-3.684140348407626,1.7904374559916554
1684201172920252700,2.404252685546875,0.4043675671100616,-2.789910704514384,2.056417273761332
1684201172930278700,2.414278564453125,0.2571943076372146,-0.6913327436327934,2.225965592779964
1684201172940304000,2.424303955078125,-0.17685995720624922,1.9345880066424608,2.339218608602881
1684201172950329900,2.434329833984375,-0.6952830156285316,3.9464433773607013,2.5120798515617846
1684201172960355800,2.44435595703125,-1.0238698039587586,4.88258557883203,2.8819886842310427
1684201172970381800,2.4543818359375,-1.047142908322811,4.920694652473927,2.994403934055567
1684201172980406800,2.46440673828125,-0.5927529808066785,3.4950258897840976,2.437734220151603
1684201172990432800,2.474432861328125,0.2199649394392967,1.4598106862664222,1.0228066317066549
1684201173000458800,2.484458740234375,1.0841361296772956,-0.10915770933330059,-0.2711857158496976
1684201173010484700,2.494484619140625,2.206193555339426,-0.9962924265295267,-0.7449231717839837
1684201173020509700,2.504509765625,4.657352343600988,-1.3165198211848734,-0.8086307970628142
1684201173030535700,2.51453564453125,7.439130595064163,-1.1016782161086798,-0.3625564240798354
1684201173040561700,2.524561767578125,5.529039316296577,-0.27095746005177496,-0.12332096698135137
1684201173050587100,2.534587158203125,0.41265944850668307,0.4517512495756149,0.07335749715566635
1684201173060612000,2.544612060546875,-2.781896324884891,1.1379437077105046,1.2137594116732477
1684201173070638000,2.55463818359375,-3.171634478139877,1.8060452133595943,2.637824830819666
1684201173080664000,2.5646640625,-1.8116098617494105,2.301120640876889,3.335762379544973
1684201173090689300,2.574689208984375,-1.1002655728317796,2.4123434660464524,3.76761971886605
1684201173100715300,2.58471533203125,-1.2030196987330912,1.97793205832839,3.839735691528022
1684201173110741200,2.5947412109375,-1.3626681166365742,1.5419173070669174,4.131851674942672
1684201173120767200,2.604767333984375,-1.4201673887945712,1.1373486644268036,2.707863120424747
1684201173130792200,2.614792236328125,-1.6060476878024637,0.8967553629785776,0.5023778594851493
1684201173140818200,2.624818115234375,-1.5729764621973037,1.0565051954299212,-0.4642079955667257
1684201173150844400,2.634844482421875,-1.2834125013530253,1.2171107679277657,-0.9107844728529453
1684201173160870400,2.644870361328125,-0.7186229016184806,1.1061503930866718,-1.5087521195679903
1684201173170895400,2.654895263671875,-0.2130688963152468,1.009148985493183,-1.948996471223235
1684201173180921300,2.66492138671875,0.04682371049523353,0.9779442844122648,-2.3248148201972243
1684201173190947300,2.674947265625,-0.16147899433150886,0.964521323737502,-2.5367390765219926
1684201173200973300,2.684973388671875,-0.42571065325960517,1.0278525169193744,-2.5531512821406124
1684201173210998300,2.694998291015625,-0.6169628545641899,1.042926167410612,-2.377821018719673
1684201173221024300,2.705024169921875,-0.44884734482765193,0.974779098379612,-2.130941184347868
1684201173231050200,2.71505029296875,-0.2702874518357217,0.9666098204493522,-1.802524638018012
1684201173241076200,2.725076171875,-0.22724939735904334,0.8947522064626217,-1.7902672139912843
1684201173251101200,2.73510107421875,-0.30196298529878257,0.6842436621546745,-1.974707251062989
1684201173261127200,2.745127197265625,-0.45067003021016716,0.41341538144052026,-2.14477506391108
1684201173271153200,2.755153076171875,-0.24482611671239135,0.15657763215601445,-1.9742104074567555
1684201173281178000,2.76517822265625,-0.24440350738614797,0.18085457980036734,-2.0526175892174243
1684201173291204000,2.7752041015625,-0.4367684922382235,0.1592629257172346,-2.065561826464534
1684201173301230000,2.78522998046875,-0.5315047313787042,0.04765490062236786,-2.016957662293315
1684201173311256000,2.795256103515625,-0.5924480065107345,-0.05945113687813282,-2.0206734679460525
1684201173321281300,2.80528125,-0.5650424054518342,-0.14876491257846355,-2.0726865637779235
1684201173331307300,2.815307373046875,-0.4503963278353214,-0.2631348036020994,-2.1133225255489347
1684201173341333200,2.825333251953125,-0.24789105724096297,-0.4959709150522947,-2.1470389171898363
1684201173351359200,2.835359130859375,-0.07923194214701652,-0.8059896349042653,-2.048910551393032
1684201173361384200,2.84538427734375,0.11094693083763121,-1.2685498632639647,-1.8161106802999971
1684201173371410200,2.85541015625,0.22905308578014372,-1.4862135400235652,-1.3583166434288023
1684201173381436200,2.865436279296875,0.047753977082669735,-1.4583499660640955,-0.8956769200921059
1684201173391462400,2.87546240234375,-0.259305746833235,-1.3289713064789772,-0.6114420453161001
1684201173401487000,2.885487060546875,-0.5448679246902466,-1.2518810525357722,-0.6481774925172329
1684201173411513300,2.895513427734375,-0.8240026998482644,-1.2692875298887492,-0.8172264837116002
1684201173421539300,2.905539306640625,-1.0801016134642063,-1.3470534911364316,-0.9471241987347603
1684201173431565300,2.9155654296875,-1.0839198565781116,-1.3677958349138497,-0.9475257652729749
1684201173441590300,2.92559033203125,-0.9240018279530108,-1.2289181100994349,-0.8085556859999895
1684201173451616300,2.9356162109375,-0.580262040285021,-0.8261088783472776,-0.5047562790542841
1684201173461642200,2.945642333984375,-0.317421251193434,-0.7273346158623695,-0.6370253993839025
1684201173471668200,2.955668212890625,0.0009928104296326637,-0.6241501357197761,-0.2832908719241619
1684201173481693200,2.965693115234375,0.2531003163218498,-0.5083960968613624,-0.14879472319483755
1684201173491719200,2.97571923828125,0.3361234674453735,-0.5169944138586521,-0.1997837366759777
1684201173501745200,2.9857451171875,0.24835049144625662,-0.6227922913700342,-0.18025719842910765
1684201173511770400,2.995770263671875,-0.041702129697799684,-0.7540875982314348,-0.18495558537840842
1684201173521796400,3.00579638671875,-0.31559973485469817,-0.8738906202197074,-0.31051556345820425
1684201173531822000,3.015822021484375,-0.42384741667099296,-0.9527128125220536,-0.4276262776225805
1684201173541848000,3.02584814453125,-0.3693068481881171,-0.875970933625102,-0.4953174195796251
1684201173551873300,3.035873291015625,-0.15846271525025366,-0.7060738011687994,-0.5087234291195869
1684201173561899300,3.045899169921875,0.11050276726670563,-0.5398603256613016,-0.4028255983650684
1684201173571925200,3.05592529296875,0.36136779881715775,-0.4535328722953796,-0.24512977583408355
1684201173581951200,3.065951171875,0.5156066858273,-0.48119829333424563,-0.14213351173996924
1684201173591976200,3.07597607421875,0.4766739843102172,-0.5417179362267256,-0.03474515016674995
1684201173602002200,3.086002197265625,0.46362172011137004,-0.5053787948668003,0.1012450365126133
1684201173612028200,3.096028076171875,0.5251859036207199,-0.3308645240038633,0.31957915987968444
1684201173622054400,3.106054443359375,0.4001729649644345,-0.12812369108796118,0.6411953785449266
1684201173632079000,3.1160791015625,0.31174302289392797,0.02602291452884674,0.9640992989331483
1684201173642105300,3.126105224609375,0.24776480051279068,0.008225976553559302,1.2220651754647494
1684201173652131300,3.13613134765625,0.044610692354571074,0.016138649374246597,1.3985451934427022
1684201173662156000,3.146156005859375,-0.10751341272499412,0.28790274963378903,1.5146306562125682
1684201173672182300,3.156182373046875,-0.08241409758077933,0.801275465863943,1.6207511898070572
1684201173682208300,3.166208251953125,0.019002797500556334,1.195737140509486,1.6612828144207596
1684201173692234200,3.176234130859375,0.08681436923318542,1.403103295138478,1.5403449431836604
1684201173702259200,3.18625927734375,0.16815291913747787,1.696588813340664,1.2306816126406193
1684201173712285200,3.19628515625,0.6864110693216323,2.070775761720538,1.0142471854150295
1684201173722311200,3.206311279296875,1.6394436153173446,2.113023834863305,1.0960159525632858
1684201173732337200,3.216337158203125,2.343075868552923,1.672371486929059,1.560929758311808
1684201173742362400,3.2263623046875,1.9573627330303192,1.120674593001604,2.286482751454413
1684201173752388400,3.236388427734375,1.1136159066617488,0.8738508727312088,2.900880139444768
1684201173762414300,3.246414306640625,0.6815221282362938,0.7347159582853316,3.15807970777899
1684201173772440300,3.2564404296875,0.4331330583453178,0.31957799083590505,2.873697533486783
1684201173782465300,3.26646533203125,0.2838847461640835,-0.551730211675167,2.030335030260682
1684201173792491300,3.2764912109375,0.23312015255596488,-1.6575690545946358,0.9038502896755933
1684201173802517200,3.286517333984375,0.15395252608312293,-2.564171857848763,-0.24604309128671883
1684201173812543200,3.296543212890625,-0.038876569149363785,-2.9950135903865096,-1.1804551079645753
1684201173822568200,3.306568115234375,-0.2972808188319206,-2.8109692746341226,-1.6542407869547604
1684201173832594200,3.31659423828125,-0.45930915414188056,-1.8650743254333733,-1.5997525331810116
1684201173842620200,3.3266201171875,-0.4769008884012699,-0.31909926740825173,-0.994773546399176
1684201173852645000,3.33664501953125,-0.4626795073578134,1.2497434559851883,0.0015180033475160597
1684201173862671000,3.346671142578125,-0.5007225665587931,2.3577386001557112,1.0941700324356556
1684201173872697000,3.356697021484375,-0.6477846938073635,2.67380302991271,2.056679431828856
1684201173882723300,3.366723388671875,-0.9209002817410975,2.018960234287381,2.554959500606358
1684201173892748000,3.376748046875,-0.9639175126254558,0.6694581809550524,2.2270646400630474
1684201173902774300,3.386774169921875,-0.6895955445766448,-0.6353244406849146,1.2730983203485606
1684201173912800300,3.39680029296875,-0.31554826039578765,-1.2371896793603896,0.36247283744961023
1684201173922826200,3.406826171875,0.06354808733556419,-1.3933359343618155,-0.23326894990950822
1684201173932851200,3.416851318359375,0.3365373089432716,-1.392579563036561,-0.6789554926186799
1684201173942877200,3.426877197265625,0.45262569432258604,-1.2770698543280363,-0.88321082175076
1684201173952903200,3.436903076171875,0.4130044260194525,-1.123108542150259,-0.8721227337643503
1684201173962929200,3.44692919921875,0.3051754080066457,-0.8774299002617597,-0.7761454085215925
1684201173972954400,3.456954345703125,0.23295882451441138,-0.5484112963855267,-0.6175991066411137
1684201173982980400,3.46698046875,0.1524479850053787,-0.180277072173357,-0.3771633338421583
1684201173993006300,3.47700634765625,0.014373429800011217,0.15245499926805495,-0.06455839688926934
1684201174003032300,3.4870322265625,-0.19966679576542226,0.4334679893881082,0.4025789301276207
1684201174013057300,3.497057373046875,-0.5441069137224928,0.6105810445725918,0.866860283191502
1684201174023083300,3.507083251953125,-0.8868015397191047,0.586633767274022,1.103566806334257
1684201174033109200,3.517109130859375,-1.3622715185344219,0.40140287208557124,1.2240849908545612
1684201174043134200,3.52713427734375,-1.23819622605443,0.11797756012678146,0.7506047245517372
1684201174053160400,3.537160400390625,-0.3499193165531382,-0.05139700976014137,0.9741457689121364
1684201174063186400,3.5471865234375,0.40042668399717657,-0.18236556888520716,0.7225003275737166
1684201174073212400,3.55721240234375,0.7395452781379223,-0.27409458903372286,-0.14058832812458275
1684201174083237400,3.5672373046875,0.49107558075878766,-0.08218786934316158,-0.37397798180431124
1684201174093263400,3.577263427734375,-0.08537409816384316,0.11983049451708792,-0.37086920213401314
1684201174103289300,3.587289306640625,-0.54025140733812,0.20200959603190421,-0.31345220143198965
1684201174113315300,3.5973154296875,-0.6809586491346359,0.2523164724677801,-0.3653445934936404
1684201174123340300,3.60734033203125,-0.6352946300685406,0.2393488543450832,-0.558807894976437
1684201174133366300,3.6173662109375,-0.5405331468889489,0.06313713191449642,-0.47432519269436596
1684201174143392300,3.627392333984375,-0.427444491314888,-0.16593407404422758,-0.47427580059468744
1684201174153418200,3.637418212890625,-0.3651169222176075,-0.2478320205301046,-0.5048509716004133
1684201174163443200,3.647443115234375,-0.4703460964629426,-0.23875848723649978,-0.48498219578713175
1684201174173469200,3.65746923828125,-0.6925356896817684,-0.2256418160319328,-0.3285308203592896
1684201174183495200,3.6674951171875,-1.0851450144588948,-0.2443248891919851,-0.1008285646662116
1684201174193521400,3.677521484375,-1.2526187191605567,-0.27325521560013294,-0.14369593875110148
1684201174203546400,3.68754638671875,-1.4041104263544082,-0.25433248846530915,0.0816384187668562
1684201174213572600,3.697572509765625,-1.2513432923972605,-0.30356559818983075,0.2523249480351806
1684201174223598600,3.7075986328125,-0.7211983050644397,-0.33223113618195055,-0.052549979187548154
1684201174233623600,3.71762353515625,-0.5011959562242031,-0.3007897037357092,-0.12333294968008994
1684201174243649500,3.7276494140625,-0.242286661362648,-0.2922235354423523,-0.08461100483685731
1684201174253675500,3.737675537109375,0.032473693536850624,-0.4090034102171659,-0.1592649715438485
1684201174263701500,3.747701416015625,0.3445417517006397,-0.5042372236162423,-0.22283786452710627
1684201174273726500,3.7577265625,0.1864426090657711,-0.4495680603176355,-0.28206162239015103
1684201174283752400,3.76775244140625,0.014195116374327335,-0.2342828031271696,-0.07248276014775037
1684201174293778400,3.7777783203125,0.2838964366018772,0.18715046507418154,-0.003143558722734451
1684201174303804400,3.787804443359375,0.622014877256751,0.6511077007502317,0.014656009601056575
1684201174313829400,3.797829345703125,0.6073334409534931,0.8650210850656032,0.1308665600553155
1684201174323855400,3.80785546875,0.45580140174925327,0.8410147710561752,0.15646277360469102
1684201174333881300,3.81788134765625,0.36757195068690923,0.4883680388331413,0.033384383207559584
1684201174343907300,3.8279072265625,0.468373883074522,0.013361585876345634,-0.1574184668943286
1684201174353932300,3.837932373046875,0.5962830911615863,-0.3040080812603235,-0.2974839401885867
1684201174363958300,3.847958251953125,0.5658832401901484,-0.47243572568595404,-0.30190438697934147
1684201174373984300,3.857984375,0.44306934594810005,-0.5405605828851461,-0.2189616076156497
1684201174384010200,3.86801025390625,0.31442367681264877,-0.44812370672821994,0.04595189609676599
1684201174394035500,3.878035400390625,0.19613807365000246,-0.19672902528047562,0.4512017989993095
1684201174404061400,3.8880615234375,0.12388649190962314,-0.013605916026234626,0.7278823128730059
1684201174414087200,3.898087158203125,0.18758419858263806,0.025090602114796638,0.8195388523072004
1684201174424112400,3.9081123046875,0.3087140669941902,-0.055741176444292065,0.7882803752124309
1684201174434138400,3.918138427734375,0.4010603422582149,-0.0708370387673378,0.6537634759560227
1684201174444164400,3.928164306640625,0.5180623353511095,-0.12347323493361473,0.37649171819090843
1684201174454189300,3.938189208984375,0.6574187835931777,-0.1781149257034063,0.04983458274900913
1684201174464215300,3.94821533203125,0.7498650121003388,-0.22896365393102167,-0.22800094637870788
1684201174474241500,3.958241455078125,0.6926917570263147,-0.25325989079773426,-0.3758592655062675
1684201174484267500,3.968267578125,0.6206582019507885,-0.22131810761392115,-0.44668724418431516
1684201174494292500,3.97829248046875,0.4184060293346643,-0.09377309319674969,-0.43173780459463595
1684201174504318500,3.988318359375,0.21457621387196704,0.10518003787398338,-0.40496524074226614
1684201174514344400,3.998344482421875,0.1736567589844577,0.2950806784391403,-0.41777211534529923
1684201174524370400,4.008370361328125,0.197563704272639,0.24830022256374357,-0.5065104292452335
1684201174534395400,4.0183955078125,0.2402209610044956,0.05423427901268005,-0.6348328577756881
1684201174544421400,4.02842138671875,0.27013854488432404,-0.24851883375048636,-0.6501096296235919
1684201174554447400,4.038447265625,0.19482872635079546,-0.5249567710399627,-0.35574411371648307
1684201174564473300,4.048473388671875,0.029458149674534796,-0.5608510912418365,0.25091829610764976
1684201174574498300,4.058498291015625,-0.15221180162932724,-0.4599292953342199,0.846207371263206
1684201174584524300,4.068524169921875,-0.2842430398161523,-0.32491526021063327,1.3340019941225647
1684201174594550300,4.07855029296875,-0.28153204555809497,-0.25293255853950974,1.6004519136220217
1684201174604576300,4.088576171875,-0.24996081271972506,-0.29277766219377516,1.6202286272376776
1684201174614601500,4.0986015625,-0.13095394607782362,-0.36906010688543317,1.3369903622835875
1684201174624627500,4.10862744140625,0.09847498727738857,-0.4305278442829847,0.8834712262526154
1684201174634653400,4.1186533203125,0.3181984826436266,-0.3440636127948761,0.464735234311223
1684201174644678400,4.128678466796875,0.519674410190247,-0.11713818669319152,0.059930444827675816
1684201174654704400,4.138704345703125,0.6261708278924226,0.10629939729273319,-0.3241533359274268
1684201174664730400,4.14873046875,0.7133002452909946,0.20948037030398844,-0.7037775069251656
1684201174674756400,4.15875634765625,0.754642894026637,0.16512977192401884,-0.9881590966954826
1684201174684781300,4.16878125,0.7077104624599218,0.16863222708702086,-0.9742308168470859
1684201174694807300,4.178807373046875,0.5452742039361969,0.16273381669819353,-0.785255182172358
1684201174704833500,4.18883349609375,0.320185857068561,0.03826923263967037,-0.40431992857605215
1684201174714859500,4.198859619140625,0.02577975342273712,-0.07807634237110614,0.2650447288766503
1684201174724884200,4.20888427734375,-0.309249452512525,-0.019942717832326887,1.0502318142488598
1684201174734910500,4.218910400390625,-0.6180068106591701,0.2275467728704214,1.7644047507211564
1684201174744936400,4.2289365234375,-0.8607382931798696,0.5979892740249634,2.385143324431777
1684201174754962400,4.23896240234375,-1.0454203223139047,0.8546008133381605,2.855861724805832
1684201174764987400,4.2489873046875,-1.2403706474840641,0.9886848741352557,3.1730107349291443
1684201174775013400,4.259013427734375,-1.332087977194786,1.01948683963418,3.2252941721349955
1684201174785039400,4.269039306640625,-1.0052648375362156,0.7751718873143195,2.5028204403072594
1684201174795065300,4.2790654296875,-0.34813363871276376,0.4268319123744964,1.3614181165754795
1684201174805090300,4.28909033203125,0.503801791341044,0.27039047381877895,0.46477848893105983
1684201174815116300,4.2991162109375,1.3598007445067166,0.2029430774897337,-0.1850251434832811
1684201174825142300,4.309142333984375,2.0842297020554543,0.10124211390316486,-0.48176001887023445
1684201174835167500,4.31916748046875,2.434936406126618,0.012848960179090499,-0.3246197843953967
1684201174845193500,4.329193359375,2.2967530933171507,-0.03281155175566673,0.05480827950835228
1684201174855219500,4.339219482421875,2.035363087555766,-0.08935995292961597,0.3748310915023088
1684201174865245400,4.349245361328125,1.7499802117884158,-0.17720365607738495,0.634971097202599
1684201174875270400,4.3592705078125,1.3911930771142242,-0.3424778049081564,0.8768395331531763
1684201174885296400,4.36929638671875,1.0230606064677237,-0.41138007622063155,0.9895789003655314
1684201174895322400,4.379322265625,0.6843441999197006,-0.46454117304384707,1.1783028983667492
1684201174905348400,4.389348388671875,0.3382476199924946,-0.6030676002025603,1.2220476398080586
1684201174915374300,4.399374267578125,0.2420247955560684,-0.6385562622129917,1.3456377791196108
1684201174925399300,4.4093994140625,0.48765605463888495,-0.6626075844079256,1.484893689596653
1684201174935425300,4.41942529296875,0.8756032693564891,-0.8229308328330517,1.5001277913466096
1684201174945451500,4.429451416015625,1.4633926364064216,-0.8345102114677428,1.7638418561413882
1684201174955477500,4.4394775390625,2.3769664477169514,-0.8743868793040513,2.3097861778914925
1684201174965502500,4.44950244140625,2.802016737371683,-0.8238578845500946,2.6738801868021485
1684201174975528400,4.459528564453125,1.8705121325731275,-0.6839198370277881,2.7643440093204377
1684201174985554400,4.469554443359375,-0.4069091413516551,-0.4497159443557262,2.261331359063089
1684201174995580400,4.479580322265625,-2.548668583768606,-0.0032236382216215133,1.4812892353639007
1684201175005605400,4.48960546875,-2.840154452586174,1.0142413401961325,0.9804574362769722
1684201175015631400,4.49963134765625,-2.2739035481274126,2.1981787373185155,0.952195510649681
1684201175025657300,4.5096572265625,-1.9950361917339263,3.112047732183337,0.9085577367141843
1684201175035682600,4.5196826171875,-2.177028397262096,3.4860078860700128,0.8424111938506365
1684201175045708500,4.52970849609375,-2.3939257658243176,3.0052766257256267,1.2823223680287599
1684201175055734300,4.539734375,-1.713877947924286,2.098648688030243,2.2722791617959737
1684201175065760300,4.54976025390625,-1.4607180103696882,1.1981190672099589,2.8066145865559577
1684201175075785200,4.55978515625,-0.956117652529478,0.510879145848751,2.400947627285123
1684201175085811200,4.569811279296875,-0.6208724292233586,0.2647124281823635,1.519948051843047
1684201175095837200,4.579837158203125,-0.5540029789127409,0.17781974214911458,0.5701636939883232
1684201175105863200,4.58986328125,-0.4116602083362639,0.3701145843744278,-0.20563246270418165
1684201175115888000,4.59988818359375,-0.2264977022089064,0.6916887174636125,-0.8886270015805959
1684201175125914000,4.6099140625,-0.35832580077275633,0.7732207532465457,-1.673969569775462
1684201175135940000,4.619940185546875,-0.5862720943547785,0.713251145452261,-2.4194676188379525
1684201175145966000,4.629966064453125,-0.6736543174706399,0.8431231415122747,-2.720939459618926
1684201175155991000,4.639990966796875,-0.8419953065261244,0.9127098879575729,-2.6481583010464904
1684201175166017000,4.65001708984375,-0.8726447118118404,0.969998878365755,-2.3454870213478802
1684201175176043000,4.66004296875,-0.8259507651761173,1.0071551813274622,-2.1452274838536978
1684201175186069200,4.6700693359375,-0.7077931723073124,0.9299877704948186,-2.07627377461493
1684201175196094000,4.680093994140625,-0.524963785302639,0.7525070510417222,-2.008849759161472
1684201175206120200,4.6901201171875,-0.5088802271164954,0.49283904676735396,-2.1612539050251245
1684201175216146200,4.700146240234375,-0.7082230881571769,0.08627718448340892,-2.260769341266155
1684201175226172200,4.710172119140625,-0.753663819861412,-0.14332476735115052,-2.276968780916929
1684201175236197000,4.720197021484375,-0.6986626481294631,-0.1955313399285078,-2.4542893413722515
1684201175246223000,4.73022314453125,-0.5946588144280016,-0.32755145393311974,-2.541687638840079
1684201175256249000,4.7402490234375,-0.5632512842513621,-0.38962650957405565,-2.5475012935549017
1684201175266274300,4.7502744140625,-0.5131752939619124,-0.3858259482473135,-2.4266385333806273
1684201175276300300,4.76030029296875,-0.42961657465696335,-0.37955695098042486,-2.1858511706650257
1684201175286326300,4.770326171875,-0.4393348355948925,-0.37598143058121203,-1.883027330753207
1684201175296352300,4.780352294921875,-0.6080465576589107,-0.44318858841359615,-1.5408546462714672
1684201175306377200,4.790377197265625,-0.7919967653870582,-0.6028975043326615,-1.3456301803350448
1684201175316403200,4.8004033203125,-0.8877098867356776,-0.848883604735136,-1.3905086019814015
1684201175326429200,4.81042919921875,-0.9428142265811562,-1.1166671109259128,-1.6106109040647745
1684201175336455200,4.820455078125,-0.9574059387743472,-1.368707104539871,-1.9260890583664179
1684201175346480000,4.830480224609375,-0.932016353712976,-1.5425474216639994,-2.190982688334584
1684201175356506000,4.840506103515625,-0.78637044993788,-1.512413564684987,-2.29791103118062
1684201175366532000,4.850531982421875,-0.6189794550836086,-1.365876265028119,-2.2065759787857533
1684201175376558000,4.86055810546875,-0.4949661219239235,-1.2349234879940747,-1.9695289716422557
1684201175386583000,4.8705830078125,-0.2695209975078702,-1.0610843399137257,-1.7250474305838346
1684201175396609000,4.880609130859375,-0.10975026839897035,-0.7755249385356903,-1.5712141286998986
1684201175406635000,4.890635009765625,0.04723170677423477,-0.4453986656785011,-1.4138742799997328
1684201175416661000,4.900660888671875,0.055388125222921365,-0.17871464516222477,-1.2437082674741744
1684201175426686000,4.91068603515625,-0.08706921164393425,0.014414309799671171,-1.0304746821165085
1684201175436712000,4.9207119140625,-0.1956698716163635,0.026713819402456283,-0.8177005309641361
1684201175446738200,4.93073828125,-0.18996756832152603,-0.13201602235138415,-0.6430833842486142
1684201175456763100,4.94076318359375,-0.23661782194599507,-0.31308687525093554,-0.44508711551129815
1684201175466789000,4.9507890625,-0.26476503515243527,-0.47965515554547306,-0.280271231842041
1684201175476815000,4.960815185546875,-0.23627543824911115,-0.5570639739185571,-0.11453238810896872
1684201175486841000,4.970841064453125,-0.17532514885440467,-0.4951993461579084,0.06786474495828151
1684201175496866300,4.9808662109375,-0.07928338007330894,-0.2882411878079176,0.30566052464246746
1684201175506892300,4.990892333984375,0.172216515314579,-0.10175123246908187,0.6235726280927658
1684201175516918300,5.000918212890625,0.4269979165911674,0.013826280778646468,1.0572072062194346
1684201175526944300,5.0109443359375,0.5074035786926746,0.08700374519228934,1.393584940686822
1684201175536969200,5.02096923828125,0.2740261269073933,0.008456278178095817,1.5491063417881725
1684201175546995200,5.0309951171875,-0.0026209961533546445,-0.14919687425494194,1.6333096426069735
1684201175557021200,5.041021240234375,-0.1697451567649841,-0.28585458493232724,1.7417670947164297
1684201175567047200,5.051047119140625,-0.24523035013172775,-0.3222784819662571,1.9988550193697212
1684201175577072000,5.061072021484375,-0.2700140417218208,-0.2444692660987377,2.3323116056933997
1684201175587098000,5.07109814453125,-0.1983714587252587,-0.10927578275501727,2.6060779856860634
1684201175597124000,5.0811240234375,0.07528762496802956,0.17881226031780242,2.9019910232961177
1684201175607150000,5.091150146484375,0.47598439461085945,0.8570341779649258,3.085264646936953
1684201175617175000,5.101175048828125,0.8719523456335068,2.054868583014607,3.125423346585035
1684201175627201000,5.111200927734375,1.3239035016953944,2.985065027824044,3.207853500251472
1684201175637227000,5.12122705078125,1.9165829788744448,2.414704934480786,3.284506824082136
1684201175647253000,5.1312529296875,1.9820307258188723,0.5468155516266823,2.9106413627415892
1684201175657278000,5.14127783203125,1.841156274229288,-0.8372633095681666,2.454375266090035
1684201175667304000,5.151303955078125,2.3277672402620313,-0.8425678457170724,2.0616735868543383
1684201175677330200,5.161330078125,2.4503227758288384,0.13428338276147841,1.6629375958904622
1684201175687355100,5.171355224609375,1.7948223930776117,0.7783534399598836,1.5093264123246073
1684201175697381400,5.18138134765625,0.7906056032896042,0.5865466735124588,1.2792702869817614
1684201175707407400,5.191407470703125,-0.36096451524589207,-0.18743395819067954,0.7026777289897203
1684201175717433000,5.20143310546875,-1.3043980062365532,-1.102464982572198,-0.23184534684717653
1684201175727458300,5.211458251953125,-1.8354536786735056,-1.7290835542321203,-1.1069207929372786
1684201175737484300,5.221484375,-1.8703905520200728,-1.8661884241551159,-1.664545907869935
1684201175747510300,5.23151025390625,-1.4920377161324023,-1.5010171414017677,-1.8911486778885125
1684201175757536300,5.241536376953125,-1.0162626168906688,-0.7731488570541143,-1.5824492239415644
1684201175767561200,5.251561279296875,-0.8039701117753982,-0.034033787027001376,-0.7506485636934638
1684201175777587200,5.261587158203125,-0.8609550777357071,0.43461189872622485,-0.0022238135293126105
1684201175787613200,5.27161328125,-0.8791315165478736,0.5673603270053863,0.3687538174152374
1684201175797639200,5.28163916015625,-0.6011386779665947,0.4918325000733137,0.39027942052483555
1684201175807664000,5.2916640625,-0.028690708965994415,0.16994447872936724,0.06679243955165147
1684201175817690000,5.301690185546875,0.6406511886656284,-0.1837672523766756,-0.4831067573040724
1684201175827716000,5.311716064453125,1.2011036359786986,-0.25346388893723487,-0.9149421770542859
1684201175837742000,5.3217421875,1.550164910930395,-0.08263619763255119,-1.1295225008457899
1684201175847767000,5.33176708984375,1.6378268277704715,0.2199567561328411,-1.1119190396159886
1684201175857793000,5.34179296875,1.1974211480736732,0.5717074162989855,-0.9359501860305667
1684201175867819000,5.351819091796875,0.44567456001043315,0.8401847499728202,-0.7451350609689951
1684201175877845000,5.361844970703125,-0.060675746769644316,0.9858622179299592,-0.6550844954267144
1684201175887870000,5.371869873046875,-0.7168015314102173,0.7592150242477655,-0.3602583762705326
1684201175897896000,5.38189599609375,-1.2492284922003745,0.28079204084575177,-0.14613164146542548
1684201175907922000,5.391921875,-1.6775567806124687,-0.008209025418758393,0.6270607624694705
1684201175917948200,5.4019482421875,-1.9634499439895152,-0.33024434627890586,0.8730322498247027
1684201175927973000,5.41197314453125,-1.4553753341674804,-0.4103168309032917,0.8558677645340561
1684201175937999400,5.421999267578125,-0.6854605636637657,-0.33813071561455726,0.6170423495411872
1684201175948025300,5.432025390625,-0.034978958922624585,-0.24187457343041896,0.2787818700671196
1684201175958050300,5.44205029296875,0.2394283493220806,-0.17237842787802218,0.0399085242792964
1684201175968076300,5.452076171875,0.1223018165340647,-0.055421442970633505,0.1022813938230276
1684201175978102300,5.462102294921875,-0.040799664432741696,0.07482172448933123,0.054925476147234434
1684201175988128300,5.472128173828125,-0.10602993270158767,0.11308160477876662,-0.12383973015844821
1684201175998153200,5.4821533203125,-0.4297685868808999,0.00898117883503437,-0.32760406090319155
1684201176008179200,5.49217919921875,-0.7749895164847374,-0.15611352177560328,-0.4762678511947393
1684201176018205200,5.502205078125,-0.8298854742765426,-0.3299479936808348,-0.43143268416821956
1684201176028231200,5.512231201171875,-1.0461994899928568,-0.4535106604635715,-0.4452729934722185
1684201176038256000,5.522256103515625,-1.3464543561995028,-0.4773135608553886,-0.5966007422760129
1684201176048282000,5.5322822265625,-1.3754688537597655,-0.39468963818252084,-0.5679410495027899
1684201176058307800,5.542307861328125,-1.1775824751377104,-0.2693032631039619,-0.5270788777604699
1684201176068333800,5.552333740234375,-0.9479799387812614,-0.054307344248890874,-0.5509352619051933
1684201176078358800,5.56235888671875,-0.6982195805370808,0.0593517681568861,-0.4024512120947242
1684201176088384800,5.572384765625,-0.37313422445654865,0.1868780778735876,-0.23413930300325153
1684201176098410800,5.58241064453125,-0.18768997877836227,0.13386544961035252,-0.1170218668371439
1684201176108436700,5.592436767578125,-0.1097568351370748,0.016948796713352202,0.07082417928576469
1684201176118462000,5.6024619140625,0.21222586961984632,-0.12373217813074588,0.06712824737727642
1684201176128488000,5.612488037109375,0.5595639740407466,-0.20466624802052974,0.10564590182006359
1684201176138514000,5.622513916015625,0.6292962664365768,-0.2030862853527069,0.184684074960649
1684201176148540000,5.632539794921875,0.42338498679101466,-0.07769815670847892,0.2951402996718883
1684201176158564900,5.64256494140625,0.2191016006082296,-0.02331540913581848,0.4169941167101264
1684201176168590800,5.6525908203125,0.24384032054543495,0.010458265650272369,0.3009226824656129
1684201176178617000,5.6626171875,0.2528431266903877,0.02200140392780304,0.23269407263100145
1684201176188643000,5.67264306640625,0.22392449072003362,-0.08824526968598365,0.13496668885052204
1684201176198668000,5.68266796875,0.23742460828423498,-0.287412335768342,-0.005894903257489204
1684201176208694000,5.692694091796875,-0.02151450632684864,-0.35446576434373855,0.05929623857736587
1684201176218720000,5.702719970703125,-0.25295009419620035,-0.3750532098203897,0.33150340642929077
1684201176228745000,5.712744873046875,-0.3280231630980968,-0.5023287596464157,0.5977534194424748
1684201176238771000,5.72277099609375,-0.34166824209094043,-0.6632417906582355,0.7742550647303461
1684201176248797000,5.732796875,-0.36250995458960533,-0.7277765144109726,0.7962351336091756
1684201176258823000,5.742822998046875,-0.29146190342009065,-0.6361743355125189,0.6121446406275034
1684201176268847900,5.752847900390625,-0.06747135259336791,-0.4101730385184288,0.2337602405577898
1684201176278873900,5.762873779296875,0.2275947036653757,-0.16559037517309189,-0.20519845520108937
1684201176288899800,5.77289990234375,0.5676812660554423,0.126660048276186,-0.4307409025117755
1684201176298925800,5.78292578125,0.9097714964181184,0.304346519434452,-0.4984761758714914
1684201176308950800,5.79295068359375,1.0521423240453005,0.2138040787220001,-0.40190497638881206
1684201176318976800,5.802976806640625,0.9454308388203382,-0.043134208327531814,-0.17990473172962665
1684201176329002800,5.813002685546875,0.6015472587674856,-0.26134207496643064,0.2183162954494357
1684201176339028700,5.82302880859375,0.2404910101175308,-0.4014759373217821,0.6096157066717743
1684201176349054000,5.833053955078125,-0.005963876840472221,-0.43412440747022624,0.9798433960318564
1684201176359080000,5.843079833984375,-0.178673144108057,-0.3948316770017147,1.3000105849325656
1684201176369106000,5.85310595703125,-0.21062895581722257,-0.4080804501533508,1.4649176540166138
1684201176379132000,5.8631318359375,-0.004030899483896792,-0.5412725305467844,1.3669266508638858
1684201176389156900,5.873156982421875,0.37368952025175095,-0.6510252831637859,1.038905533592403
1684201176399182800,5.883182861328125,0.8315496080964804,-0.6934849532306194,0.5873793249443173
1684201176409208800,5.893208740234375,1.27469435736835,-0.6219155085355043,0.1521852424159646
1684201176419235000,5.903235107421875,1.4377952538132666,-0.3769973296254873,-0.0021364275068044662
1684201176429259800,5.913259765625,1.3839450056821108,-0.17523440183103084,-0.008534311850368976
1684201176439286000,5.9232861328125,1.1873013205975294,-0.12707096716463565,0.1082552075356245
1684201176449312000,5.93331201171875,0.8367828325748443,-0.17551146520674227,0.380989029610157
1684201176459338000,5.943337890625,0.5403121976146474,-0.3262321880280971,0.5721718189403414
1684201176469363000,5.953363037109375,0.3820055497089401,-0.5209060343444347,0.6547624238654971
1684201176479389000,5.963388916015625,0.2897352622905746,-0.6454927834779024,0.734776748561859
1684201176489415000,5.973414794921875,0.1908382502088323,-0.6628191813319921,0.880070185637474
1684201176499439900,5.98343994140625,0.09257485985551028,-0.6176765557914972,1.072398637871444
1684201176509465900,5.9934658203125,0.03880640825629234,-0.5720715734362601,1.1847843693405389
1684201176519491800,6.003491943359375,-0.06360880454685539,-0.4672621224403381,1.3363409584641457
1684201176529517800,6.013517822265625,-0.23189904979579148,-0.2684720729768276,1.6411542186275123
1684201176539543000,6.02354296875,-0.3836099526982754,-0.055122167763113974,1.9993398802772162
1684201176549568800,6.03356884765625,-0.51991114155557,0.15201017811000347,2.2887366678610443
1684201176559594800,6.0435947265625,-0.6865420022249221,0.4011147027939558,2.5536191919133064
1684201176569620700,6.053620849609375,-1.037590651601553,0.8180570893168448,2.887853484611213
1684201176579646000,6.06364599609375,-1.4818763876020908,1.4331734392315147,3.233980167415738
1684201176589672000,6.073671875,-1.7457418435662984,2.2065268789470194,3.3881568759098646
1684201176599698000,6.083697998046875,-1.4560001880675553,2.8086551524728534,2.9126372127339244
1684201176609724000,6.093723876953125,-0.4370931941479444,2.9450036510705946,1.631438003516197
1684201176619748900,6.103748779296875,0.8995265812575817,2.7520389467597006,0.2804731841549277
1684201176629774800,6.11377490234375,2.099334916728735,2.2530630046725273,-0.7252832362905144
1684201176639800800,6.12380078125,3.021270313671231,1.4949860445439815,-1.323857616727054
1684201176649827000,6.1338271484375,3.212638688701391,0.6786871970713139,-1.4618147195652127
1684201176659851800,6.143851806640625,2.7872078752964735,-0.07415303144752979,-1.4584014039903879
1684201176669878000,6.1538779296875,2.371519288226962,-0.6370546254783869,-1.2747040019795297
1684201176679904000,6.163904052734375,2.0052046806573864,-1.110549504828453,-1.3198930970102547
1684201176689930000,6.173929931640625,1.8268378260195255,-1.5713889007449149,-1.2373629901006817
1684201176699955000,6.183954833984375,1.775769317561388,-1.77915954452157,-0.8837579342395067
1684201176709981000,6.19398095703125,1.6081167491614818,-1.6780992169260978,-0.6624310587972402
1684201176720007000,6.2040068359375,1.3133400221049785,-1.2235212194919585,-0.434850383657217
1684201176730033000,6.214032958984375,0.7073685171544551,-0.4512409619659185,0.17913520866185426
1684201176740057900,6.224057861328125,-0.20258352346234024,0.3967611837595701,0.6020759588167071
1684201176750083800,6.234083740234375,-1.3033365144848823,1.2951006010591983,0.6218921276599169
1684201176760109800,6.24410986328125,-1.8774048146963118,2.1920447646081445,0.7431313199311494
1684201176770135800,6.2541357421875,-1.925887398314476,2.9043595059931278,0.5375982259482145
1684201176780161000,6.2641611328125,-2.1791654092907904,3.144576959866285,0.6667845778316259
1684201176790187000,6.27418701171875,-2.691397138792276,2.81811797734499,0.11799071186929941
1684201176800212700,6.284212646484375,-2.5728327186882494,2.3259558069258928,-0.11154665029644965
1684201176810238000,6.294238037109375,-2.195779859483242,1.8017390405982732,0.2700140417218208
1684201176820264000,6.304263916015625,-1.4917407790124415,1.2354764457017182,0.3887345291703939
1684201176830290000,6.3142900390625,-1.2986486489295959,0.7008101815521717,0.4955383688539266
1684201176840316000,6.32431591796875,-1.0405144300937652,0.191448454529047,1.0240519555926322
1684201176850340900,6.3343408203125,0.08878427193351089,-0.21727555422484873,1.2774854493916035
1684201176860366800,6.344366943359375,0.15209025760889053,-0.47606151496767996,1.3823457537919281
1684201176870392800,6.354392822265625,0.16629413952827451,-0.492145219284296,1.4710989730000494
1684201176880418800,6.364418701171875,-0.17488661130666733,-0.3788064248740673,0.6832564046829939
1684201176890443800,6.37444384765625,-0.8355121550519019,-0.43061376900076864,-0.09063187256157397
1684201176900469800,6.3844697265625,-0.9530220246016978,-0.5593219819784164,-0.8112287046015262
1684201176910496000,6.39449609375,-1.0830045683640985,-0.6219932499468326,-1.3737100273936986
1684201176920522000,6.40452197265625,-1.0834006550095974,-0.6379834307610989,-1.882376757889986
1684201176930547000,6.414546875,-0.8025228355765343,-0.6311380949109793,-2.287265718525648
1684201176940573000,6.424572998046875,-0.5866096557460725,-0.5485328769385814,-2.3937737901329994
1684201176950599000,6.434598876953125,-0.3011306991931051,-0.635306905028224,-2.254601466286182
1684201176960625000,6.444625,-0.04237082273960113,-0.6944061597287654,-2.153742798742652
1684201176970649900,6.45464990234375,0.05297273464426398,-0.7367623694211244,-2.0658494112342596
1684201176980675800,6.46467578125,-0.14019881735034287,-0.8058779912233353,-1.6780846038788555
1684201176990701800,6.474701904296875,-0.4625556252498179,-0.7358528533607721,-1.4285188914239406
1684201177000727800,6.484727783203125,-0.486435463335365,-0.6852373493671416,-1.4475041624009608
1684201177010753000,6.4947529296875,-0.45035190417170523,-0.7323118197530507,-1.49707746386528
1684201177020779000,6.504779052734375,-0.556272019823268,-0.8413608080148697,-1.3296394149988888
1684201177030805000,6.514804931640625,-0.5557844555020331,-1.001840123784542,-0.8761451211482286
1684201177040831000,6.5248310546875,-0.4046469685733318,-1.052709894800186,-0.27674890293478965
1684201177050856000,6.53485595703125,-0.29776239180378616,-0.9362918390750884,0.28852994162142276
1684201177060882400,6.54488232421875,-0.2808078960020095,-0.7568582319885492,0.5811094508945942
1684201177070908400,6.554908447265625,-0.3761936850924045,-0.616641952046752,0.7161836917728185
1684201177080933400,6.564933349609375,-0.30719431008100506,-0.4721574932664633,0.5911170501679182
1684201177090959400,6.57495947265625,-0.0134065940618515,-0.37250001820623874,0.3285422185361385
1684201177100985300,6.5849853515625,0.2187164737481624,-0.31933073807656764,-0.12941139281094075
1684201177111011300,6.59501123046875,0.36220841435976325,-0.28536650915443895,-0.5746896469801664
1684201177121036300,6.605036376953125,0.5674141030192374,-0.24874445919990537,-0.8011398567855358
1684201177131062300,6.615062255859375,0.8494400695741177,-0.167697576585412,-0.8844552688539028
1684201177141088300,6.625088134765625,1.0510287367802114,-0.08992284750938415,-0.8876876749038696
1684201177151114500,6.635114501953125,1.27129521644935,-0.1083119061589241,-0.8140823404669761
1684201177161139200,6.64513916015625,1.246292877139896,-0.2204091760754585,-0.7945698307454585
1684201177171165400,6.65516552734375,0.6362275270044804,-0.42761926335990424,-1.0210337768152355
1684201177181191400,6.66519140625,0.00654079994559288,-0.7786492080360651,-1.3601444433778525
1684201177191217400,6.675217529296875,-0.16487141324877738,-1.0879413671791553,-1.7180854826167224
1684201177201242400,6.685242431640625,0.01923909960761666,-1.284375208905339,-1.9513027023389935
1684201177211268400,6.695268310546875,0.1608406964279711,-1.2775415634930134,-1.8743544872149824
1684201177221294300,6.70529443359375,0.14146131156682967,-0.9550286882489919,-1.4817185666918753
1684201177231320300,6.7153203125,0.179710085940361,-0.3303220876902342,-0.7962912477105856
1684201177241345300,6.72534521484375,-0.05879837205782532,0.29127894806861876,0.4515945977091789
1684201177251371300,6.735371337890625,-0.1072385778389871,0.7313485276788473,1.978458128029108
1684201177261397200,6.745397216796875,0.1307498018078506,0.8444359776765108,3.0435259846210476
1684201177271423200,6.75542333984375,-0.2596833479739725,0.30903321594595906,3.349539560484886
1684201177281448400,6.765448486328125,-0.6394478042252362,-0.5065034149825572,2.7397037813216447
1684201177291474400,6.775474365234375,-1.5193302122056482,-1.4522113171786069,1.7681851460427045
1684201177301500400,6.78550048828125,-2.016387607320398,-2.3886703295141456,0.500429648026824
1684201177311526400,6.7955263671875,-1.969313867586851,-3.00929872084856,-0.9463906237632036
1684201177321551400,6.80555126953125,-1.6939831608869134,-3.2016444164782762,-2.165754723575711
1684201177331577300,6.815577392578125,-1.2804349468469618,-2.6933734073013067,-2.681716287255287
1684201177341603300,6.825603271484375,-0.2927028433918953,-1.0045862076222896,-2.6960589931234717
1684201177351629300,6.83562939453125,1.7967257424809038,2.04895146792531,-2.39604816480577
1684201177361654300,6.845654296875,4.993883807325363,6.019449674612283,-1.451127321334183
1684201177371680300,6.85568017578125,8.899533986526727,10.030419007897377,0.4962611301705241
1684201177381706200,6.865706298828125,7.001637003421783,10.42571713336706,4.46747333034575
1684201177391731200,6.875731201171875,0.2100188610948622,5.132267026621103,6.665128920572996
1684201177401757200,6.885757080078125,-1.8963982689797878,-0.33270226082503795,4.875406188721954
1684201177411783400,6.895783447265625,-1.7282956187248228,-4.072623533165455,1.3592770128935574
1684201177421809400,6.905809326171875,-2.840708579337597,-6.240367969253659,-1.0530284592300654
1684201177431834400,6.91583447265625,-3.3987247394144533,-6.850393133509159,-1.3827213091060517
1684201177441860400,6.9258603515625,-3.8616485403895378,-6.105034200656414,-0.605293167297542
1684201177451886300,6.93588623046875,-4.624031088757515,-3.851675427907705,0.6607859219387173
1684201177461912300,6.945912353515625,-5.402069471418857,-0.8551526020020246,2.524084469871223
1684201177471937500,6.9559375,-5.639351456362009,1.5079443103164434,3.8908024464204907
1684201177481963500,6.965963623046875,-4.6129041300654405,2.78493876132071,3.9821687707364557
1684201177491989200,6.9759892578125,-2.968931639146805,2.961313565358519,3.1831910604208704
1684201177502015200,6.98601513671875,-0.915050313603878,2.028327782091498,1.5650228728443383
1684201177512040400,6.99604052734375,1.5369804351866245,1.125234448263049,-0.16590806282013654
1684201177522066400,7.00606640625,3.5477088477015495,0.6956324866533279,-1.4598831669807433
1684201177532092400,7.016092529296875,3.458683825814724,0.5529810885190963,-2.559476393508911
1684201177542118400,7.026118408203125,1.5753753400325774,0.5433189416825771,-3.0582994831219312
1684201177552143400,7.036143310546875,-0.16646255489774048,0.43371465762555594,-2.7089018158227205
1684201177562169300,7.04616943359375,-0.9940544383443891,0.13881693453788757,-1.7922940436437724
1684201177572195300,7.0561953125,-1.1163584833681583,-0.17901275132596492,-1.0102738978698849
1684201177582221300,7.06622119140625,-0.8189759577274323,-0.35413726304173465,-0.3428472227424383
1684201177592246300,7.076246337890625,-0.6364835475921631,-0.4225625644922256,0.2930217000827193
1684201177602272300,7.086272216796875,-0.40244098296165465,-0.43638767622709274,0.9292524419575929
1684201177612298200,7.09629833984375,-0.06966565690040588,-0.3546586565673351,1.4474989017039537
1684201177622324500,7.106324462890625,0.12339954864289611,-0.3294149097174406,1.880841511146724
1684201177632349200,7.11634912109375,0.0303553542425856,-0.45423371404111385,2.173606898380816
1684201177642375200,7.126375244140625,-0.29719544210340826,-0.6737555858880281,2.3466131027683614
1684201177652401400,7.1364013671875,-0.5945429329633712,-0.85075992000103,2.4397364998847246
1684201177662426000,7.146426025390625,-0.6176689570069313,-0.876655408757925,2.411048165538907
1684201177672452400,7.156452392578125,-0.5342413532683625,-0.8220920439213514,2.305256133246422
1684201177682478300,7.166478271484375,-0.5548586093613878,-0.8263292430996895,2.115766996091604
1684201177692504300,7.17650439453125,-0.6321300285577773,-0.8837398140609264,1.8757491564437745
1684201177702529500,7.186529541015625,-0.7664274398446083,-0.8441010466337203,1.6781483167648314
1684201177712555500,7.196555419921875,-1.0017769954204558,-0.6946095733463764,1.6821183894395828
1684201177722581500,7.20658154296875,-1.0730746374368667,-0.5541933869183063,1.666974304060638
1684201177732607500,7.216607421875,-1.095819553208351,-0.40820086166262626,1.7263889083206652
1684201177742632400,7.226632568359375,-0.8650853824734688,-0.3058879036575556,1.7731331238389014
1684201177752658400,7.236658447265625,-0.7956231391906737,-0.31298575296401976,1.9363380651801823
1684201177762684400,7.246684326171875,-1.0842214698731898,-0.47577919089496135,2.16850752941519
1684201177772710400,7.25671044921875,-1.3171288929939269,-0.5458125120639801,2.3585452403634783
1684201177782735400,7.2667353515625,-1.448018541663885,-0.5459498747080564,2.3939991233214735
1684201177792761300,7.27676123046875,-1.7747089948534964,-0.6329354997217654,2.3756714394703504
1684201177802787300,7.286787353515625,-2.07232065307498,-0.7082353631168603,2.167192355163395
1684201177812813300,7.296813232421875,-2.0707085417032243,-0.6088835930049419,1.4892457473263143
1684201177822838300,7.30683837890625,-2.1924644513249394,-0.37263971893787384,0.7447694425269961
1684201177832864300,7.3168642578125,-2.489375852322578,-0.11429331865608691,0.2831976406827569
1684201177842890200,7.32689013671875,-2.54123814150691,0.12114625329077243,-0.1445931798517704
1684201177852916200,7.336916259765625,-2.629239081043005,0.3530956450343132,-0.47853901099711654
1684201177862941200,7.346941162109375,-2.652885329568386,0.46657589374184605,-0.8229577208399772
1684201177872967200,7.35696728515625,-2.4177029472529887,0.5135217693120241,-1.0917077339753507
1684201177882993400,7.366993408203125,-2.0593980431377887,0.6124947692394256,-1.3126517475798725
1684201177893019400,7.377019287109375,-1.8759774122416972,0.7219464930832385,-1.5410633205860853
1684201177903044400,7.38704443359375,-1.595971553337574,0.7871808895379304,-1.5387532900780438
1684201177913070300,7.3970703125,-1.359708974570036,0.6861866129159927,-1.383554837320745
1684201177923096300,7.407096435546875,-1.2603250557541847,0.4813882629483938,-0.8973647270485758
1684201177933122300,7.417122314453125,-1.1635095261216164,0.3310568317055702,-0.027682079912722108
1684201177943147500,7.4271474609375,-0.9286790259838104,0.18352584483623505,0.6173802031934261
1684201177953173500,7.437173583984375,-0.7955284466445446,0.0456312858402729,0.8633040520146489
1684201177963199500,7.447199462890625,-0.5467266677668318,0.07964169199168682,0.7510629897132516
1684201177973225500,7.4572255859375,0.05404836451914161,0.26666180868446826,0.5196507735863327
1684201177983250400,7.46725048828125,0.8852513876676559,0.405504462185502,0.46887131120264525
1684201177993276400,7.4772763671875,1.6495453226149082,0.36101416307389733,0.6797747000470757
1684201178003302400,7.487302490234375,1.727870086789131,0.3026929070085287,0.865704098893702
1684201178013327400,7.497327392578125,1.08179687307477,0.4597252971947193,0.6478446073010563
1684201178023353300,7.507353271484375,0.4976267925005406,0.8704641529023647,0.2633507844403386
1684201178033379300,7.51737939453125,0.3144657623887062,1.2523305498689412,-0.08737725467979908
1684201178043405300,7.5274052734375,0.3345814256351441,1.521385975691676,-0.20690292103141544
1684201178053430300,7.53743017578125,0.23583580472283064,1.7781711180061102,-0.07283288875967264
1684201178063456300,7.547456298828125,-0.2531084996283054,1.6629542547643184,0.12620295215845106
1684201178073482200,7.557482177734375,-0.9395954106651246,0.7345470314592123,0.49596302400678394
1684201178083508200,7.56750830078125,-1.5548093757353723,-0.6032704292982817,1.0327142777368425
1684201178093533200,7.577533203125,-1.3980299373969436,-1.6248212157249449,1.2413830393970011
1684201178103559200,7.58755908203125,-0.7375251704871654,-2.135349648439884,1.3137380815118551
1684201178113585200,7.597585205078125,-0.6442481902442873,-2.4878520037561653,1.4557389067828654
1684201178123611100,7.607611083984375,-0.7455496331192553,-2.7602701840102672,1.5579881519019603
1684201178133636400,7.61763623046875,-0.9125098353408276,-2.7249820130079985,1.6168816548973322
1684201178143662300,7.627662353515625,-1.4884018438480793,-2.2839754448086023,1.9168460137248038
1684201178153688300,7.637688232421875,-2.293351614310592,-1.583013287565112,2.135939723287523
1684201178163714000,7.647714111328125,-3.483971411806345,-0.7611790177971124,2.321520454826951
1684201178173739300,7.6577392578125,-4.227269320476055,0.05604688139259815,2.7566359191611407
1684201178183765200,7.66776513671875,-4.405778798455,0.5466600688040256,2.9390763068482277
1684201178193791200,7.677791259765625,-4.2810114320576185,0.7901262953400612,3.3955408486813305
1684201178203817500,7.6878173828125,-3.897804726397991,0.9476993682742119,4.295771194294095
1684201178213842200,7.69784228515625,-3.412185109490156,1.1068722776204347,4.1968832423016424
1684201178223868400,7.707868408203125,-2.352349746724218,1.4299433712691068,3.2905876053005456
1684201178233894400,7.717894287109375,0.21277532019615172,1.722422342777252,1.773607755613327
1684201178243920400,7.72792041015625,2.1814896144546565,2.1519085690528152,-0.02691957110762596
1684201178253945300,7.7379453125,2.980868452917039,2.508928694054484,-1.316520697967708
1684201178263971300,7.747971435546875,3.180004831600189,2.3119594302773474,-1.7616151200026273
1684201178273997300,7.757997314453125,2.8258430186390875,1.7214742482721805,-2.0489915076747534
1684201178284023300,7.768023193359375,2.1166355956196785,1.0859218440502882,-2.2665280509233474
1684201178294048300,7.77804833984375,1.1808943761646746,0.7058101817965508,-2.5961566033914685
1684201178304074200,7.78807421875,-0.24949133204445242,0.49326750131249425,-2.8559482340455054
1684201178314100200,7.798100341796875,-1.4545182789467275,0.4070557832807302,-3.09510828782022
1684201178324126200,7.808126220703125,-1.9541595530748366,0.27882629373073575,-3.393854503029585
1684201178334151200,7.818151123046875,-2.062526258160919,0.15151041189432143,-3.4840748721808192
1684201178344177200,7.82817724609375,-1.7991675826750695,-0.06817220347225665,-3.3380537053525448
1684201178354203100,7.838203125,-1.2487092906318604,-0.27876433441042897,-3.039592736825347
1684201178364228400,7.848228271484375,-0.7027367657005786,-0.4882768534183502,-2.4964649338006972
1684201178374254300,7.85825439453125,-0.31348727274537086,-0.5748217489272356,-1.868467475003004
1684201178384280300,7.8682802734375,-0.08659706408753991,-0.45399815171957014,-1.4192501278191805
1684201178394306300,7.878306396484375,-0.1216097791492939,-0.2539741765469313,-1.2290022812515498
1684201178404331300,7.888331298828125,-0.40367900032401083,-0.08141980758011341,-1.1199673215150832
1684201178414357200,7.898357177734375,-0.7257013155721127,-0.033814006796479223,-1.0801689796119929
1684201178424383200,7.90838330078125,-1.1190040294408798,-0.058087447309494014,-1.1267571277856827
1684201178434408200,7.918408203125,-1.3221020052313803,-0.05905015486180782,-1.2389368152886628
1684201178444434200,7.92843408203125,-1.2838169905006884,-0.015045593440532683,-1.2734265293896196
1684201178454460400,7.93846044921875,-1.1800445544023066,0.028247020319104192,-1.0971972713023423
1684201178464486400,7.948486328125,-1.0166566577095537,0.08501812433302403,-0.6902203984767198
1684201178474511000,7.958510986328125,-0.6298176599621772,0.10498539208471774,-0.09821019886136055
1684201178484537300,7.968537353515625,-0.2955132246375084,0.21611177114248276,0.5201654451102018
1684201178494563300,7.978563232421875,-0.20920155336260796,0.3657949676096439,0.8822533748954534
1684201178504589300,7.98858935546875,-0.167188458019495,0.4264847063720226,0.6359732599824667
1684201178514614300,7.9986142578125,-0.13053075222969054,0.3466331710219383,-0.033304888230562206
1684201178524640300,8.00864013671875,-0.03401690895743668,0.10984276898801326,-0.7792869214177132
1684201178534666200,8.018666259765626,-0.033203181421756746,-0.17866729888916014,-1.374423728621006
1684201178544692200,8.028692138671875,-0.04526888226866722,-0.5169558354139328,-1.7435013711631298
1684201178554717200,8.03871728515625,0.19803835431337355,-0.8664543327391148,-2.1269465617537495
1684201178564743200,8.0487431640625,0.45137131034731864,-1.0284282709807158,-2.284677455598116
1684201178574769200,8.05876904296875,-0.014268179327249527,-0.9308920258581638,-1.7352771481752394
1684201178584795100,8.068795166015626,-0.8427006052512676,-0.7032225033909082,-0.7606354124397039
1684201178594820400,8.0788203125,-0.9396258788686245,-0.7327595635205507,-0.1578682564884424
1684201178604846300,8.088846435546875,-0.5334381105940789,-0.8371779693722724,0.05337736992239952
1684201178614872300,8.098872314453125,0.006061455463431775,-0.664997694414854,0.17101181569993495
1684201178624898300,8.108898193359375,0.4169768733143806,-0.24998423012793064,0.12641454908251762
1684201178634923300,8.11892333984375,0.5714004692416638,0.16342939774692058,-0.015057868400216102
1684201178644949200,8.12894921875,0.40609884788207706,0.48025779761373993,-0.16048866811990736
1684201178654975200,8.138975341796876,0.2544552745947614,0.7042588607013225,-0.2570101832419634
1684201178665001200,8.149001220703125,0.33244448667168613,0.8872364240050316,-0.33654899938106536
1684201178675026200,8.159026123046875,0.4687012153327465,1.0611229183584452,-0.43412908364534375
1684201178685052200,8.16905224609375,0.6695335842788219,1.253423605802655,-0.5581435858488083
1684201178695078400,8.179078369140624,0.8549263920307159,1.4025409850805997,-0.7107657583773136
1684201178705104400,8.1891044921875,0.6008428733577952,1.4017606483578682,-0.6255547418206929
1684201178715129300,8.19912939453125,0.14354564356021582,1.1671417451441288,-0.4755792844086885
1684201178725155300,8.2091552734375,0.0018190321207046509,0.8872101205199956,-0.3544575810372829
1684201178735181300,8.219181396484375,0.23496727825999258,0.6294055720299482,-0.25356384218037126
1684201178745207300,8.229207275390625,0.6700643301546573,0.42299335712492464,-0.26340719080269337
1684201178755232300,8.239232177734374,1.2159785490274428,0.4386509449839592,-0.38344928224384783
1684201178765258200,8.24925830078125,1.6887877842009067,0.6937246072053909,-0.5602373432576656
1684201178775284200,8.2592841796875,1.963649850475788,0.9429074578225612,-0.7221008068621159
1684201178785309400,8.269309326171875,1.9381343009471892,0.9342582874208688,-0.8823767090141773
1684201178795335200,8.279335205078125,1.7336346416652202,0.7174328150510788,-1.0190209756881
1684201178805361200,8.289361083984375,1.2735457718551157,0.420088867855072,-1.0605565166473387
1684201178815387100,8.29938720703125,0.7176338905811309,0.2609995451390743,-0.9249503608494997
1684201178825412400,8.309412353515626,0.2822013231217861,0.30221184549331664,-0.5669955853462219
1684201178835438300,8.319438232421875,0.1147428159892559,0.3512362809032202,-0.12665712566673754
1684201178845464300,8.32946435546875,0.14475918406844138,0.31461189286112784,0.1542915670454502
1684201178855490300,8.339490234375,0.3597393208324909,0.19988310539722443,0.2141793417751789
1684201178865515300,8.349515380859375,0.6180524033665656,0.1367640936613083,0.009656301617622374
1684201178875541200,8.359541259765624,0.7832885582745075,0.18083587509989738,-0.2706073314398527
1684201178885567200,8.369567138671876,0.8440332420945167,0.30352175904810424,-0.47429216720759865
1684201178895593200,8.37959326171875,0.8722247328341006,0.52692018006742,-0.5615729757755994
1684201178905618200,8.3896181640625,0.8313385956943035,0.8834154044121504,-0.5409405221134423
1684201178915644200,8.39964404296875,0.5423252544701099,1.322638011804223,-0.434606053507328
1684201178925670100,8.409670166015625,0.10166471409625373,1.6797767947494984,-0.2556061616629362
1684201178935696400,8.4196962890625,-0.29485154585838314,1.8076579092532394,-0.012958850294351577
1684201178945721000,8.42972119140625,-0.6506628795921802,1.6375626238763332,0.2655009482115507
1684201178955747300,8.439747314453125,-0.9672539635717868,1.0976298175007104,0.36545419134795665
1684201178965773300,8.449773193359375,-1.200349602741003,0.3154068426311016,0.32784254583418365
1684201178975799300,8.45979931640625,-1.320167237776518,-0.3197498402714729,0.0030950434058904645
1684201178985824300,8.46982421875,-1.3234125033080577,-0.7870733375102281,-0.49038230126500126
1684201178995850200,8.479850341796874,-1.1055459974527357,-1.09171854763031,-1.049990991230309
1684201179005876200,8.489876220703126,-0.6301110899507999,-0.982225907254219,-1.4773013347715138
1684201179015902200,8.499902099609375,-0.3123626526296139,-0.5240764810740948,-1.5562667349368333
1684201179025927400,8.509927490234375,-0.04544190074801445,-0.025240239718556403,-1.2401520362973213
1684201179035953400,8.519953369140625,0.2272761392354965,0.4130640837848186,-0.6383341438949107
1684201179045979100,8.529979248046875,0.23692188292648642,0.787058724462986,-0.0194803610175848
1684201179056005000,8.540005126953124,0.16909631920112295,0.9377829544156789,0.49351270824521776
1684201179066030300,8.5500302734375,0.05923893716586753,0.7564099036991596,0.7468556011512875
1684201179076056300,8.560056396484375,0.1179518228973262,0.12404372829794882,0.7462740018710493
1684201179086082300,8.570082275390625,0.243467432112433,-0.9573884031176566,0.5060027719840408
1684201179096108300,8.5801083984375,0.30939214891884476,-2.073241859573126,0.1473529999539256
1684201179106133200,8.59013330078125,0.21576810880396513,-2.7203251271128654,0.0953603623881936
1684201179116159200,8.6001591796875,-0.1864811875104904,-2.7401971177965403,0.2731850729733705
1684201179126185200,8.610185302734376,-0.8336942189097404,-2.2458821532577273,0.4960734986439347
1684201179136211200,8.620211181640625,-2.6051521030128,-1.5549632511228322,1.8359815019398926
1684201179146236200,8.630236083984375,-4.985419930362701,-0.5470791709989309,3.1290999892711637
1684201179156262100,8.64026220703125,-5.680408273893595,1.014261213940382,4.145006924591958
1684201179166288100,8.6502880859375,-1.746005462938547,2.650867560005188,4.4461300980657334
1684201179176313000,8.66031298828125,4.638851056748629,3.1505835068047046,3.925019188798964
1684201179186339000,8.670339111328126,4.223046734344959,2.0786042633891104,3.049563803480565
1684201179196365000,8.680364990234375,0.3110883218448609,1.01323888515532,2.282241168361902
1684201179206391300,8.690391357421875,-0.6988987219076603,0.3042027270495891,0.6872866831123828
1684201179216416000,8.700416015625,-0.7279927144449204,-0.18595336424410341,-0.931783129478991
1684201179226442200,8.710442138671874,-1.3033552191853524,-0.47683425290584563,-1.8380331737726925
1684201179236468200,8.72046826171875,-2.1109750856399536,-0.7260626962304115,-2.1321844624072313
1684201179246494200,8.730494140625,-2.6098247709989546,-0.8611901286005973,-1.9560510659098624
1684201179256519400,8.74051953125,-3.086549133789539,-0.8694897549122571,-1.6114654750674962
1684201179266545400,8.75054541015625,-3.1670494884371756,-0.7866197485238313,-1.4927511250987648
1684201179276571400,8.7605712890625,-2.7415561311900616,-0.5639531489104033,-1.6655214749038219
1684201179286597400,8.770597412109375,-1.9816519556343555,-0.27365619761645793,-1.6973671042367815
1684201179296622300,8.780622314453124,-1.0841408058524131,0.09016717765927314,-1.5178174695551394
1684201179306648300,8.7906484375,-0.09491934062242507,0.5210130018502473,-1.2093904028087854
1684201179316674300,8.80067431640625,0.9451987836301327,0.8986761019080877,-0.9223509920060634
1684201179326700300,8.8107001953125,1.4603624749302864,1.0414975959122181,-0.6689303576886654
1684201179336725200,8.820725341796875,1.2982055813372135,0.9896195246368646,-0.5906421261325479
1684201179346751200,8.830751220703124,0.8630056535899638,0.7267308047503233,-0.5811743328243494
1684201179356777200,8.840777099609374,0.6124024147808551,0.4682558096528053,-0.510075428250432
1684201179366803200,8.85080322265625,0.451570011257194,0.060410921820998185,-0.42816111515164373
1684201179376828200,8.860828125,0.15810498785376548,-0.25902035402059553,-0.3594181260541081
1684201179386854100,8.870854248046875,-0.21535773790478704,-0.4409019387811422,-0.326961671346426
1684201179396880100,8.880880126953125,-0.5014987385630607,-0.6393377679795026,-0.38350188921391964
1684201179406906000,8.890906005859375,-0.7455857273459434,-0.7595528779000044,-0.44387715519964693
1684201179416931000,8.90093115234375,-0.6621487347245216,-0.797409438085556,-0.5904691076532006
1684201179426957000,8.91095703125,-0.40600072126984593,-0.6963906115442514,-0.7915913994565605
1684201179436983000,8.920983154296875,-0.1044470474243164,-0.5806278048574924,-0.84364482729882
1684201179447009300,8.93100927734375,0.3825789291501045,-0.5478121614485979,-0.9775827576234936
1684201179457034000,8.941033935546875,0.7474322319954634,-0.7327741765677929,-0.9787336812242865
1684201179467060200,8.951060302734374,1.0792729075551033,-1.1750257763922214,-0.9524658520236611
1684201179477086200,8.961086181640624,0.9885299758344888,-1.719832326284051,-0.6166676710098982
1684201179487112200,8.9711123046875,0.5548813691824674,-2.1180267577171326,-0.21291180605739354
1684201179497137400,8.981137451171875,0.23102058646082876,-2.025610924348235,0.050581893984973425
1684201179507163400,8.991163330078125,0.15088205999606288,-0.7148778698712587,0.387708693253994
1684201179517189400,9.001189453125,0.35766835977733136,1.694244296041131,0.913250570705533
1684201179527215400,9.01121533203125,0.9269844970256089,3.953515507704019,1.7669769392967223
1684201179537240300,9.021240234375,1.8573586364895105,4.912735217902064,2.437704409535229
1684201179547266300,9.031266357421876,3.2311382219880818,3.8192408927708863,2.2888684775471684
1684201179557292300,9.041292236328125,4.160459053006768,0.9232289438843727,0.7693287142440676
1684201179567317200,9.051317138671875,3.433931661874056,-0.9990618912428617,-0.2414502105385065
1684201179577343200,9.06134326171875,1.1720306862294674,-1.6216677201300858,0.011317220567166804
1684201179587369200,9.071369140625,-0.8018944745451212,-1.6870429863601921,0.40731005030274386
1684201179597395200,9.081395263671874,-1.8372984297573565,-1.5245669438153504,0.6800126004561782
1684201179607420200,9.091420166015626,-2.141837841415405,-1.1166057361274957,0.7070259873270988
1684201179617446100,9.101446044921875,-1.8407775040447711,-0.7726151885688305,0.5610358001589775
1684201179627472100,9.11147216796875,-1.3659411469578742,-0.5186252299308777,0.1812438713788986
1684201179637498000,9.121498046875,-0.7605798828601836,-0.14896774167418478,-0.27243250104039907
1684201179647523000,9.131523193359374,-0.10743220071494579,0.13223054188489913,-0.7261395608589053
1684201179657549000,9.141549072265626,0.3579956920355558,0.31760406041443345,-1.1402692280486226
1684201179667575000,9.151574951171876,0.6748854667007923,0.5319160886585712,-1.3810691579848526
1684201179677601300,9.161601318359375,0.8716805429548025,0.6757248401343822,-1.541373409448564
1684201179687626200,9.171626220703125,0.9292793299645185,0.6708499275743961,-1.5750471309915184
1684201179697652200,9.18165234375,0.7889595896482468,0.5386731617033481,-1.4915528552249073
1684201179707678200,9.19167822265625,0.6137327866017818,0.3479436690986156,-1.398437641415
1684201179717704200,9.2017041015625,0.4175403524160385,0.16325111857056618,-1.289519293795526
1684201179727729400,9.2117294921875,0.15333412019014359,0.06835457430183887,-1.162255142146349
1684201179737755400,9.22175537109375,-0.06922609643936156,0.06943944692909718,-0.9628364393904805
1684201179747781400,9.231781494140625,-0.08111993871754966,0.10555413188338279,-0.9307561245188116
1684201179757807400,9.241807373046875,0.020846973195672035,0.05538169548213481,-0.9568494739353656
1684201179767832300,9.251832275390624,-0.012315867082541808,-0.13630407493412494,-0.918752382992208
1684201179777858300,9.2618583984375,-0.10832824537237175,-0.2996685907512903,-0.6526049535706638
1684201179787884300,9.27188427734375,-0.24218027837872505,-0.3206535111129284,-0.18327333137989044
1684201179797910300,9.28191015625,-0.26488018596470353,-0.22490882558226585,0.2708390943691134
1684201179807935200,9.291935302734375,-0.2548036131083965,-0.14066928440630436,0.6169488260388374
1684201179817961200,9.301961181640625,-0.3489122218698263,-0.13852701168060302,0.950768984977901
1684201179827987200,9.3119873046875,-0.49416065075993537,-0.261302327477932,1.278745094063878
1684201179838013200,9.32201318359375,-0.6347416723608971,-0.46201311587095256,1.5373960302501917
1684201179848038100,9.3320380859375,-0.7918272540390491,-0.6367892525404691,1.7015990427181125
1684201179858064100,9.342064208984375,-0.9660890114456414,-0.6463023462951183,1.8174778769999742
1684201179868090000,9.352090087890625,-1.0580594391345977,-0.4956429982721805,1.8676567431420086
1684201179878116000,9.3621162109375,-0.9303829072922468,-0.2835562448620796,1.7852476322636006
1684201179888141000,9.37214111328125,-0.555932376072742,-0.07418225754201412,1.5870453195601701
1684201179898167000,9.3821669921875,-0.049691356619726866,0.07399228792786598,1.2828060598924755
1684201179908193000,9.392193115234376,0.4120160360366106,0.11645195799469947,0.9284949015885591
1684201179918219300,9.40221923828125,0.7686532992005348,0.074814710226655,0.5433233255967498
1684201179928244200,9.412244140625,0.9188491213649511,0.09379998120367526,0.1930924223437905
1684201179938270200,9.422270263671875,0.9153630328148603,0.16220599343180656,-0.04956716398447752
1684201179948296200,9.432296142578124,0.8209732690244913,0.2411100187987089,-0.19178250878900288
1684201179958322200,9.442322265625,0.6105342462887987,0.36751872266232966,-0.14631576586067677
1684201179968347400,9.452347412109376,0.29843057338893414,0.507464368969202,0.14362813421189785
1684201179978373400,9.462373291015625,-0.017934318885672835,0.5615191997617482,0.5192918771460652
1684201179988399400,9.4723994140625,-0.25238546431707215,0.5167553444057703,0.8021087018176912
1684201179998424300,9.48242431640625,-0.38316812721490856,0.3987450510531664,0.9566308627486229
1684201180008450300,9.4924501953125,-0.398050054526329,0.17846797692477703,0.9496320899024605
1684201180018476300,9.502476318359374,-0.26452189231263473,-0.11303133589625358,0.7712906619668006
1684201180028502300,9.512502197265626,0.02658698728554882,-0.30626784288585185,0.552634759299457
1684201180038527200,9.52252734375,0.381565368193388,-0.34023499441742894,0.33401948090344663
1684201180048553200,9.53255322265625,0.7313140408873557,-0.2581546771019697,0.19309680625796316
1684201180058579200,9.5425791015625,1.0946002405464648,-0.1969733554303646,0.08135024947524071
1684201180068605000,9.55260498046875,1.3181214111626147,-0.173283267763257,-0.010427578251063822
1684201180078629600,9.562629638671876,1.5966846700429915,-0.09719897599220276,0.005622516056895256
1684201180088656000,9.57265576171875,2.2440110986888406,0.02161269687116146,0.21361557041257617
1684201180098681900,9.582681884765625,3.1595851439058777,-0.0420586880505085,0.46155865010172126
1684201180108707800,9.592707763671875,3.907544030123949,-0.0755424399793148,0.6342477513641118
1684201180118733000,9.602733154296875,4.015183736109734,0.02503916418850422,1.0357195970326663
1684201180128758800,9.6127587890625,3.136947780162096,0.08598258545100688,1.4983251258388162
1684201180138784800,9.62278466796875,1.0903029817439616,0.11972060440182686,1.5916007909074426
1684201180148810800,9.632810791015626,-1.2006196518540382,0.313580211725831,1.4963181699305772
1684201180158836000,9.6428359375,-2.792456297343969,0.4143202213257551,1.4876473722189665
1684201180168862000,9.652862060546875,-3.2216368186712265,0.5402005174010992,1.644112776172161
1684201180178888000,9.662887939453125,-2.99308320684582,0.8542237967193126,1.911112730769813
1684201180188914000,9.672913818359374,-2.9732489178240296,1.4150316333413124,2.479007310782373
1684201180198939000,9.68293896484375,-3.1336569219231603,1.849229690569639,3.525564820432663
1684201180208964900,9.69296484375,-2.4365515862382945,1.961478936177492,4.392012431170046
1684201180218990800,9.702990966796875,-1.7333811052955685,1.7703303413778542,4.33253031463176
1684201180229016800,9.713016845703125,-1.4530408998705446,1.4330021743178367,3.243082634542882
1684201180239041800,9.723041748046874,-1.0288662240065634,1.2886901494950056,1.767856060218811
1684201180249067800,9.73306787109375,-0.15584756431579588,1.2939403251081705,0.4701803479745984
1684201180259093800,9.74309375,0.43601124413013453,1.4491495915204287,-0.790736536192894
1684201180269119700,9.75311962890625,-0.37504926429763435,1.6567904714375734,-1.5907769073039293
1684201180279144700,9.763144775390625,-0.7687155507817864,1.5888742885529994,-2.5993641672611236
1684201180289170700,9.773170654296875,-0.7358709735393524,1.275602704384923,-3.0547926440447566
1684201180299197000,9.783197021484375,-0.8197687155403196,1.0638993973344564,-3.017085136941075
1684201180309223000,9.793222900390624,-1.0158487753927707,0.9747381818473339,-2.5376550223231313
1684201180319248000,9.803247802734376,-1.2965271267309784,0.9179822754025458,-1.9866724141448735
1684201180329273900,9.81327392578125,-1.4857088053718208,0.8290180437922477,-1.7676304347693919
1684201180339299800,9.8232998046875,-1.6231728639960288,1.0179074614882468,-1.6373586257368324
1684201180349325800,9.833325927734375,-1.3830793287634848,1.3590823671042918,-1.6524351988375185
1684201180359351000,9.84335107421875,-1.1087529768005013,1.385123401811719,-1.610216351789236
1684201180369377000,9.853376953125,-0.47026203490868207,1.2437404161781072,-1.3865437900036572
1684201180379402800,9.86340283203125,-0.2876844307079911,1.0982973414987325,-1.7649807970434426
1684201180389428700,9.8734287109375,-0.3017152941480279,0.7017068381309509,-2.118260566473007
1684201180399454000,9.883453857421875,-0.40776276250630616,0.23725685050189493,-2.2136738280922175
1684201180409480000,9.89347998046875,-0.34180662764832376,-0.05030395382642746,-2.2409271611988544
1684201180419506000,9.903505859375,-0.3336031551875174,-0.15960370197892187,-2.2673487196564674
1684201180429532000,9.913531982421874,-0.5078557063743472,-0.11981763503551482,-2.2783523442298175
1684201180439556900,9.923556884765626,-0.8858394166886806,0.02519289344549179,-2.207609413486719
1684201180449582800,9.933582763671875,-1.1893819262638687,0.12488427077531813,-2.2858961837381124
1684201180459608800,9.94360888671875,-1.2359263814263044,0.134593763884902,-2.4961902085125445
1684201180469634800,9.953634765625,-1.0434724031165241,0.06078267774283885,-2.663714766618609
1684201180479659800,9.96365966796875,-0.6541033754348754,-0.12071019996106624,-2.747514162811637
1684201180489685800,9.973685791015624,-0.2945769667007029,-0.3670943597704172,-2.6595459565013644
1684201180499711700,9.983711669921876,-0.15708908880949018,-0.6038321548342704,-2.2680302721798418
1684201180509737700,9.99373779296875,-0.22135741671100256,-0.6552683275610208,-1.7485767747312784
1684201180519762700,10.0037626953125,-0.47171121080368755,-0.559623010751605,-1.1584311999440193
1684201180529788700,10.01378857421875,-0.717977735582739,-0.3791518773108721,-0.765909553450346
1684201180539815000,10.02381494140625,-0.9215515121914446,-0.3621627485871315,-0.6634563101917504
1684201180549841000,10.0338408203125,-0.991618004977703,-0.5856202063173055,-0.7403975110530853
1684201180559865900,10.043865966796876,-0.8077436389647423,-0.9303770620733499,-0.8868827882617711
1684201180569891800,10.053891845703125,-0.5933505083084106,-1.291891575884819,-1.0048474889069794
1684201180579917800,10.063917724609375,-0.40837694888189435,-1.524161285623908,-1.0886948158949612
1684201180589943000,10.073943115234375,-0.017451339408010243,-1.6515350351274012,-1.112828555676341
1684201180599969000,10.083968994140625,0.3797987969122827,-1.6147960807949304,-1.238724049320817
1684201180609995000,10.0939951171875,0.5459307316161692,-1.3463286839932203,-1.3704022180199622
1684201180620021000,10.10402099609375,0.5439582624994218,-0.8961217412501573,-1.4777701213270424
1684201180630046000,10.1140458984375,0.4087900597274303,-0.40384383549690245,-1.503004515826702
1684201180640072000,10.124072021484375,0.14892697127237914,0.03927694837749004,-1.2760025173574685
1684201180650098000,10.134097900390625,-0.06998129872083664,0.38460371297597884,-1.0529477952092885
1684201180660124000,10.1441240234375,-0.18857969415970147,0.5020774152338504,-0.9703647890686988
1684201180670148900,10.15414892578125,-0.19814481036253273,0.3809375916838646,-0.9836597394496202
1684201180680174800,10.1641748046875,-0.2348094573497772,0.21516309211552143,-0.970047393682599
1684201180690200800,10.174200927734375,-0.27092713797874746,0.034222003075480456,-0.9263900382637977
1684201180700226800,10.184226806640625,0.0047836540799587966,-0.17377134354114532,-0.8553197752624749
1684201180710252800,10.194252685546875,0.3192821496944874,-0.28074411005079747,-0.8135439958065748
1684201180720277800,10.20427783203125,0.47373036860637363,-0.0859083511710167,-0.7388467744797468
1684201180730303700,10.2143037109375,0.40105566608309745,0.3090677027374506,-0.4808522563755512
1684201180740329700,10.224329833984376,-0.01810607698969543,0.681325728881359,-0.1738724658280611
1684201180750354700,10.234354736328125,-0.717183735660836,0.9122048610448836,0.005407996523380279
1684201180760380700,10.244380615234375,-1.2748890031576157,0.9755962599813938,0.15314415057599542
1684201180770407000,10.254406982421875,-1.3350024033367633,0.7342220372885465,0.3372662077397108
1684201180780433000,10.264432861328125,-0.9486018700718879,0.2776952438741922,0.39900399425029753
1684201180790457900,10.274457763671874,-0.3829132391383871,-0.22810206866562366,0.4290174397200346
1684201180800483800,10.28448388671875,-0.002562507431767881,-0.4849357262969017,0.47570612565875053
1684201180810509800,10.294509765625,0.16980949070546775,-0.3576052314132452,0.6613596301734447
1684201180820535800,10.304535888671875,0.4866425667474046,-0.06198679283559322,0.8738964654386043
1684201180830561000,10.31456103515625,1.1374398498415945,0.4023866224259138,1.19020931699872
1684201180840587000,10.3245869140625,1.7502525989890096,1.1268810464262962,1.5916101432576775
1684201180850613000,10.334613037109374,1.9504969389140605,2.070527924439311,1.909777390512824
1684201180860639000,10.344638916015626,2.0462696814954278,3.118426035043597,2.183304408791661
1684201180870664000,10.354663818359375,2.163876654744148,3.6781846548736095,2.511505266544223
1684201180880690000,10.36468994140625,1.970513306504488,2.8946798234999176,2.8513655824303625
1684201180890716000,10.3747158203125,1.3870096539497374,1.0654659159988165,2.766257149465382
1684201180900742000,10.384741943359375,0.8577356042325496,-0.3985784623146057,2.536754858613014
1684201180910766800,10.394766845703124,0.6672761607408523,-1.3843383889138698,2.292472639518976
1684201180920792800,10.404792724609376,0.5316834489464759,-1.8846990633577108,1.8474667725503444
1684201180930818800,10.41481884765625,0.4198503829240799,-1.971284875398874,1.2722405344754457
1684201180940844800,10.4248447265625,0.34797874041199683,-1.8823621448427437,0.6608534342169762
1684201180950869800,10.434869873046875,0.20298689836515113,-1.6450065101414917,0.2066480694875121
1684201180960895700,10.444895751953124,-0.07824996363865211,-1.1841384726524353,-0.03207768452316522
1684201180970921700,10.454921630859374,-0.3997065895617008,-0.5347878447026014,-0.0855965087428689
1684201180980947700,10.46494775390625,-0.6433084251761436,0.20459668991565702,-0.03382686627805233
1684201180990972700,10.47497265625,-0.686372490876913,0.8418728491902351,0.02600070269703865
1684201181000998700,10.48499853515625,-0.5521288190713152,1.1076689809560776,-0.06193710847496986
1684201181011025000,10.49502490234375,-0.3949146791100502,1.040770450681448,-0.24422844308018682
1684201181021051000,10.50505078125,-0.2319254628786817,0.7409241652756929,-0.48161534970253705
1684201181031075800,10.515075927734374,-0.07765490208864212,0.3131125942140817,-0.6841627058729529
1684201181041101800,10.525101806640626,0.0827273830473423,-0.04079962790012359,-0.9028685851618647
1684201181051127800,10.5351279296875,0.21230419555306435,-0.16959493463933467,-0.9429723397523164
1684201181061153800,10.54515380859375,0.13807345922682435,-0.220658182400465,-0.9474649749964476
1684201181071179000,10.555178955078125,-0.036948797690868375,-0.35155542985498905,-1.0098170940130948
1684201181081205000,10.565205078125,-0.2037865060439333,-0.33987668249905106,-1.0511524362251161
1684201181091231000,10.57523095703125,-0.31257658764123913,-0.19925006819069385,-0.9803013689324259
1684201181101257000,10.585257080078126,-0.4724467585366219,0.055339609906077385,-0.8652706759124994
1684201181111282000,10.595281982421875,-0.5689794526398182,0.2456201896995306,-0.8304314177215099
1684201181121308000,10.605307861328125,-0.5201812637338414,0.26174130341708657,-0.9204580178663134
1684201181131334000,10.615333984375,-0.33562888886146247,0.1816138737350702,-1.1427493544265628
1684201181141359900,10.62535986328125,-0.3485071482002735,0.33564299045205115,-0.8715925724104047
1684201181151384800,10.635384765625,-0.15732516258768736,0.489748679536581,-0.7798106530308723
1684201181161410800,10.645410888671876,-0.18726904995255172,0.482764227476716,-0.5334741317555308
1684201181171436800,10.655436767578125,-0.3895032119879499,0.3746487206727266,-0.27359160794764753
1684201181181462800,10.665462890625,-0.8135235375404357,0.19165479075610636,0.07434738497585058
1684201181191487700,10.67548779296875,-1.484373465114832,-0.021277765828371046,0.6391936833336949
1684201181201513700,10.685513671875,-2.078998231142759,-0.0751022949963808,1.042010513870418
1684201181211539700,10.695539794921874,-1.876738459742069,-0.03273322582244873,1.1302642591238021
1684201181221566000,10.70556591796875,-0.9755109197854995,0.06033025780022144,1.3210612640067934
1684201181231590700,10.715590576171875,0.21006434420440345,0.13302549165487287,1.1388406565502285
1684201181241617000,10.725616943359375,0.9774339968025684,0.12817162188291548,0.45536184128820895
1684201181251643000,10.735642822265625,0.8190952001929283,0.16602701302468775,0.42645986419171095
1684201181261667800,10.745667724609374,0.5849649572789669,0.08691489786505699,0.11072627382427454
1684201181271693800,10.75569384765625,0.2946083847522735,0.041724926051497455,-0.39006870038360353
1684201181281719800,10.7657197265625,-0.3017044439604506,-0.03918459391891956,-0.7130649752303958
1684201181291745800,10.775745849609375,-0.8109913887143134,-0.12302724473178386,-0.8959835018232464
1684201181301771000,10.78577099609375,-0.965782137453556,-0.08319149342775345,-0.9917027606517076
1684201181311797000,10.795796875,-0.9539280335307121,-0.030801380977034568,-1.0912702193409203
1684201181321823000,10.805822998046875,-0.9347779273808002,-0.039565702190995214,-1.0240551704630254
1684201181331849000,10.815848876953124,-0.9982698640823364,-0.0494610732614994,-1.0198770079955457
1684201181341874000,10.8258740234375,-0.8148083166539668,-0.01443710615336895,-1.1733286170855164
1684201181351900000,10.83589990234375,-0.5536649791300297,0.0741308196157217,-1.0435329011321066
1684201181361926000,10.84592578125,-0.4480909735023975,0.21074410662949083,-0.8709344007626175
1684201181371951900,10.855951904296875,-0.25092355680465694,0.3188385706454515,-0.866390327592194
1684201181381976800,10.865976806640624,-0.029230770659446716,0.22783669572770593,-0.6544058655127882
1684201181392002800,10.8760029296875,0.12287234643101691,0.04532558089196682,-0.4621618766918778
1684201181402028800,10.88602880859375,0.240848737514019,-0.02583937465548515,-0.38861499444395303
1684201181412054800,10.8960546875,0.20105214917659758,-0.02913198646008968,-0.3051949529573321
1684201181422079700,10.906079833984375,0.11279285096526145,0.014554010531306266,-0.26153642849475145
1684201181432105700,10.916105712890625,0.159167064127326,-0.01144552312195301,-0.06884498816728592
1684201181442131700,10.926131591796874,-0.09119827427268028,-0.09645663319230079,0.15280863501131534
1684201181452157700,10.93615771484375,-0.4393628926455974,-0.200956287586689,0.30625586018711326
1684201181462182700,10.9461826171875,-0.5886527058809995,-0.27954174852371216,0.31965543998628854
1684201181472208600,10.956208740234375,-0.5070920285254716,-0.26351182022094727,0.18801584973186253
1684201181482235000,10.96623486328125,-0.32384558515250683,-0.2341951248437166,-0.043026948560774325
1684201181492260900,10.9762607421875,-0.15846094341827555,-0.24232816241681573,-0.1621279597595334
1684201181502286000,10.9862861328125,-0.058812820708286015,-0.26776363244652746,-0.20788462554514406
1684201181512311800,10.996311767578124,-0.03642623512148857,-0.1811310586541891,-0.1548755044132471
1684201181522337800,11.006337890625,-0.08232815459668635,0.07455225989818573,-0.059575640040636056
1684201181532363800,11.01636376953125,-0.02731240635011345,0.2831868270277977,-0.005705518165230751
1684201181542389000,11.026388916015625,0.17213060886310413,0.3770329854607582,-0.030207506737112998
1684201181552415000,11.0364150390625,0.3686246746102348,0.3312672595858574,-0.019187807811796666
1684201181562441000,11.04644091796875,0.5072071428051218,0.06185059923529625,0.0021735446467995643
1684201181572467000,11.056467041015624,0.5323515574663877,-0.2892155857980251,0.10788608196228743
1684201181582492000,11.066491943359376,0.4514566505432129,-0.5880640923380851,0.2820575307369232
1684201181592518000,11.076517822265625,0.3133569608965888,-0.8044277924150228,0.45551849315464493
1684201181602543900,11.0865439453125,0.1563128437399864,-0.869389217147231,0.6310550928026437
1684201181612569900,11.09656982421875,0.04211535014118999,-0.8030810539811849,0.8497323305189609
1684201181622594800,11.1065947265625,-0.05105214184522629,-0.7251029112875461,1.0092474774315954
1684201181632620800,11.116620849609374,-0.0620393267404288,-0.5014934778660536,1.0695929328009486
1684201181642646800,11.126646728515626,0.012315328226424753,-0.2120353154838085,1.02533351983577
1684201181652672800,11.1366728515625,0.07618720415625721,-0.014490882167220115,0.8348366669431329
1684201181662697700,11.14669775390625,0.17521449155416338,0.07035422368645668,0.5467570994377136
1684201181672723700,11.1567236328125,0.3355495400149375,-0.001693359914422035,0.08305734565407037
1684201181682749700,11.166749755859374,0.4257973451623693,-0.0707628044873476,-0.20161358245164154
1684201181692776000,11.17677587890625,0.41226683245990425,-0.06378945834338665,-0.45800183440297837
1684201181702800600,11.186800537109375,0.4410066412646323,-0.06028992578983307,-0.5687549962341785
1684201181712827000,11.196826904296875,0.3726923624405637,-0.19462182386815546,-0.582670708861947
1684201181722852900,11.206852783203125,0.2990728898804635,-0.3572697158485651,-0.49825522659718985
1684201181732878800,11.21687890625,0.31285482006072995,-0.45675475695133205,-0.38458646958023307
1684201181742904000,11.226904052734374,0.3719582394797355,-0.5094581731349229,-0.30132483352571726
1684201181752930000,11.236929931640624,0.49039757189936933,-0.4608049091249704,-0.1922422352552414
1684201181762956000,11.2469560546875,0.630944618165493,-0.31648060934245587,0.03585807984471321
1684201181772981800,11.256981689453125,0.7535469154834746,-0.12277765388488769,0.3154997816115618
1684201181783007000,11.267007080078125,0.8269131804674863,0.041726679617166515,0.5074348506137728
1684201181793033000,11.277032958984375,0.8962894990324973,0.13030804938971996,0.6409750137925148
1684201181803059000,11.287058837890624,0.9085404933184384,0.14202771327793598,0.7280912794485688
1684201181813085000,11.2970849609375,0.8182323728185147,0.09846446588337421,0.7961980164691805
1684201181823110000,11.30710986328125,0.7599848395764828,0.033142391145229336,0.816749513849616
1684201181833135900,11.317135986328125,0.7276562490321695,-0.0028998130947351453,0.8503899176448583
1684201181843161900,11.327161865234375,0.585313989912346,0.08231880224645137,0.9764265733256936
1684201181853187800,11.337187744140625,0.3019377047270536,0.2886076830327511,1.15007487500906
1684201181863212800,11.347212890625,0.0628460400134325,0.5978723696470261,1.3957055861026049
1684201181873238800,11.35723876953125,-0.08382040244843811,0.8222066102117299,1.633109443859756
1684201181883264800,11.3672646484375,-0.2535731945306062,0.7669324667572974,1.72411424138695
1684201181893290800,11.377290771484375,-0.52292906460464,0.638525867074728,1.7333260141074656
1684201181903315700,11.387315673828125,-0.7783294745624065,0.6561252366513013,1.6730641453683375
1684201181913341700,11.397341796875,-0.9171861565887928,0.8035656226277351,1.4825477109923957
1684201181923367700,11.40736767578125,-0.8536503807455301,0.9179822754025458,0.9773121239885687
1684201181933394000,11.417393798828124,-0.6088257253378629,0.9660486794352531,0.2164274129629135
1684201181943418600,11.427418701171876,-0.23100195482559502,0.9335130220115184,-0.4769122865781188
1684201181953444900,11.43744482421875,0.1871264996767044,0.8433031742542981,-0.9323533305823802
1684201181963470800,11.447470947265625,0.5347171175539494,0.689181118556857,-1.2432201916962862
1684201181973496800,11.457496826171875,0.8043757699668407,0.5425532180070877,-1.3538348218396306
1684201181983522000,11.46752197265625,1.0274901133477687,0.3600573007404804,-1.331140467211604
1684201181993548000,11.477548095703124,1.3344582134574652,0.05292670354545116,-1.147862751917541
1684201182003574000,11.487573974609376,1.6504232744932175,-0.22035656910538673,-0.9867910232126712
1684201182013600000,11.49760009765625,2.246246894916892,-0.33035306735038755,-0.7223778702378273
1684201182023625000,11.507625,3.1819138800919053,-0.26747604767680166,0.002054302181303501
1684201182033651000,11.51765087890625,4.259915452536941,-0.3545587033241987,0.95048169246912
1684201182043677000,11.527677001953125,4.315889853215217,-0.3738771517783403,1.459911808553338
1684201182053703000,11.537702880859374,2.892255226701498,-0.11032383050322532,1.9706532994970678
1684201182063729000,11.54772900390625,-0.308544519113563,0.36686581171154975,1.436610427942872
1684201182073755000,11.5577548828125,-2.7402888877332208,1.0083218870192765,0.9629220718473196
1684201182083780900,11.56778076171875,-4.488256006133556,1.8256044848322868,0.9736074242517352
1684201182093806800,11.577806884765625,-4.857607204920053,2.6062831528693438,1.1907125903457403
1684201182103831800,11.587831787109375,-4.381735075044632,2.757871890696883,1.633344129398465
1684201182113857800,11.59785791015625,-3.346187911969423,2.6171260339230296,2.208193058593571
1684201182123884000,11.607884033203124,-2.968220860528946,2.1816817760258913,2.958165914982557
1684201182133910000,11.617909912109376,-3.224082458257675,1.6020780535191297,4.470607244457304
1684201182143935000,11.62793505859375,-2.4545909546673297,0.9466133266031741,4.7121796200707555
1684201182153961000,11.6379609375,-1.1491349638104438,0.6023936464637517,4.071348690924048
1684201182163987000,11.647987060546875,-0.3928876302618533,0.378044208329916,2.9881057106941937
1684201182174013000,11.658012939453124,-0.580607931113243,0.3909223946034908,1.5842811155438423
1684201182184038000,11.668037841796876,-0.6442213753025978,0.4704699785709381,0.04621873033940792
1684201182194064000,11.67806396484375,-0.8089491422969848,0.6234457868427038,-1.30576520293653
1684201182204089900,11.68808984375,-0.8471838150799273,0.8204197267949581,-2.474298110178113
1684201182214115800,11.69811572265625,-0.48068727507218717,1.035794415834546,-3.220930716228485
1684201182224140800,11.708140869140625,-0.3575964635848999,1.1558166335314513,-3.6865246131956577
1684201182234166800,11.718166748046874,-0.45778702260851856,1.1802028867691754,-3.9269811365216967
1684201182244192800,11.72819287109375,-0.31467735931277274,1.230730712479353,-4.154766394323111
1684201182254218800,11.73821875,-0.02899696190357208,0.9745359372735023,-4.065036439037323
1684201182264244000,11.748243896484375,0.10174436433687806,0.6277800166547298,-3.648645841178298
1684201182274269700,11.758269775390625,-0.023826281267404555,0.2394634206354618,-2.9457290427356955
1684201182284295700,11.768295654296875,-0.3532826920390129,-0.23277999734878538,-1.9655209050446747
1684201182294321000,11.77832080078125,-0.5844413717962801,-0.30748774006962776,-1.273840370887518
1684201182304347000,11.788346923828126,-0.6945103507556021,-0.3171177382022142,-1.1635071880340575
1684201182314372900,11.798372802734375,-0.8936337238267064,-0.30139176128208633,-1.162232930314541
1684201182324398800,11.80839892578125,-0.8877347289159894,-0.09034604135751724,-1.1329694264292716
1684201182334423800,11.818423828125,-0.9946690631113946,0.0034650457620620727,-1.5886410643190145
1684201182344449800,11.82844970703125,-1.1444167031168937,-0.24049919342398643,-2.005707369482517
1684201182354475800,11.838475830078124,-1.3123054183602332,-0.24774258868098256,-2.116505831760168
1684201182364502000,11.848501953125,-1.2814520149350166,-0.2398071195065975,-2.4559224955320356
1684201182374526700,11.858526611328125,-1.0459877469383179,-0.36572657854855056,-2.756681804129481
1684201182384553000,11.868552978515625,-0.7945183928191661,-0.5495546212017536,-2.95142754663825
1684201182394579000,11.878578857421875,-0.6244236919641495,-0.6754197197079658,-3.068613664126396
1684201182404605000,11.88860498046875,-0.5154901467755436,-0.7244190206766128,-3.0932009928941726
1684201182414630000,11.8986298828125,-0.5637666864275932,-0.7090040094017982,-2.977507744312286
1684201182424656000,11.90865576171875,-0.6435363887131214,-0.6747153708308935,-2.8433073636591435
1684201182434681900,11.918681884765626,-0.7370024617873132,-0.603594254425168,-2.734596229049563
1684201182444707800,11.928707763671875,-0.7402478734493255,-0.4858370590507984,-2.6467764912992715
1684201182454732800,11.93873291015625,-0.8008090173959732,-0.42458734831809997,-2.575843590942025
1684201182464758800,11.9487587890625,-0.932876916065067,-0.4487047214865684,-2.4582114832520485
1684201182474784800,11.95878466796875,-1.018868561605364,-0.5023433726936578,-2.245789798799157
1684201182484810800,11.968810791015626,-0.8455402856566011,-0.4760381340920925,-2.105787453868985
1684201182494836000,11.9788359375,-0.4873870649717748,-0.44999242320954796,-1.9724241085618732
1684201182504862000,11.988862060546875,-0.12063728085532784,-0.4962883104383945,-1.8526748625874518
1684201182514888000,11.998887939453125,-0.005314546086266637,-0.5902981350004672,-1.707677778109908
1684201182524913700,12.00891357421875,-0.10368599992394446,-0.6711901193141937,-1.4766232893794775
1684201182534939000,12.01893896484375,-0.13418869021534918,-0.6379319928348064,-1.1467910310328007
1684201182544964900,12.02896484375,0.014754428474232554,-0.5286234768539667,-0.7889367932945489
1684201182554990800,12.038990966796876,0.23581483500003814,-0.44567923618555066,-0.4400058667242527
1684201182565016800,12.049016845703125,0.5359493627626448,-0.43935470933914184,-0.16160101327598095
1684201182575041800,12.059041748046875,0.7925110715847462,-0.4804495207935571,0.07618599857985973
1684201182585067800,12.06906787109375,0.9960065953254699,-0.5002513688504696,0.3672299688488245
1684201182595094000,12.079093994140624,0.9295710794527083,-0.41171676082909103,0.7357885559529066
1684201182605120000,12.0891201171875,0.6842588597238063,-0.28632044887840746,1.119042607885599
1684201182615145000,12.09914501953125,0.4633119235098362,-0.10266250209510326,1.3478238909870386
1684201182625171000,12.1091708984375,0.2296118887066841,0.08721008141934872,1.378233642297983
1684201182635197000,12.119197021484375,0.08403554303646087,0.22522271383702755,1.210914835897088
1684201182645223000,12.129222900390625,0.1108300264596939,0.2518506085216999,0.8761644103705882
1684201182655248000,12.139247802734374,0.18531919452641157,0.12545417961776256,0.5474626173585653
1684201182665273900,12.14927392578125,-0.04953702457454055,-0.10907178461551666,0.5446744479447603
1684201182675299800,12.1592998046875,-0.7356114458203316,-0.3733627725154161,0.9160586138635873
1684201182685325800,12.169325927734375,-1.3797639206051826,-0.4247591977536678,1.2709113316982983
1684201182695350800,12.179350830078125,-1.5684113462388514,0.15433073001205921,1.4816060462281107
1684201182705376800,12.189376708984375,-1.3488333602905274,1.6909452544957397,1.6055495290219783
1684201182715402800,12.19940283203125,-0.7642389898896217,3.8561604643672704,1.9868977473333478
1684201182725428700,12.2094287109375,0.39787352891564365,5.305314147540926,2.47593564825207
1684201182735454000,12.219453857421875,1.7387866176009177,5.07839281309247,2.808200978964567
1684201182745480000,12.22947998046875,2.379836450195312,3.771390761837363,3.0109339208349586
1684201182755506000,12.239505859375,2.472928575390577,2.8212176969259977,3.4501574050098656
1684201182765532000,12.249531982421875,2.273240700304508,1.969410898220539,3.848148422825336
1684201182775556900,12.259556884765624,1.1515618986964224,0.6418944667249917,3.3150904706552624
1684201182785582800,12.269582763671876,0.2611655493557453,-0.7466413738787174,2.044056097099185
1684201182795608800,12.27960888671875,0.24998013847470282,-1.7099726110488176,0.7579641474038362
1684201182805634800,12.289634765625,0.23330489800572393,-2.2970412626087664,-0.2479986092686653
1684201182815659800,12.29965966796875,0.12069324882626532,-2.6772867803752423,-1.1392203035175799
1684201182825685800,12.309685791015625,-0.01718377451300621,-2.5514427246570586,-1.7514722039118409
1684201182835712000,12.3197119140625,-0.46406244961619375,-1.8122025669455528,-1.840197658330202
1684201182845738000,12.329738037109376,-0.9927695131003856,-0.8207710244506597,-1.385584005060792
1684201182855763000,12.339762939453125,-1.284254212874174,0.14330197099745273,-0.714589992840588
1684201182865789000,12.349788818359375,-1.4022972394526003,0.7748065611332654,-0.030597967359423637
1684201182875815000,12.35981494140625,-1.528667364871502,1.083130167505145,0.6638175447195768
1684201182885841000,12.3698408203125,-1.5996308064974845,1.0490613091647625,1.2412860087633133
1684201182895865900,12.379865966796874,-1.4432874214887619,0.5714408743172884,1.281714173002541
1684201182905891800,12.389891845703126,-0.9780653535086661,-0.08736614876389504,0.7252949267283082
1684201182915917800,12.399917724609375,-0.44464697052836416,-0.4821311902701854,0.03906593597531319
1684201182925943800,12.40994384765625,0.05621120510883629,-0.6141337686181068,-0.5837696100145578
1684201182935968800,12.41996875,0.38565592544265087,-0.5673597424834966,-0.9721244922176003
1684201182945994800,12.429994873046875,0.47492746943645175,-0.33624329443275924,-1.060608246834576
1684201182956020700,12.440020751953124,0.363560998012498,-0.1361754801183939,-1.4259209838852285
1684201182966046700,12.450046630859376,-0.06257657542228698,0.14670096578598021,-1.5380208841502665
1684201182976072000,12.460072021484375,-0.7939829707682132,0.348463309058547,-1.5187316617906093
1684201182986098000,12.470097900390625,-1.7018600317418575,0.5204308180481195,-1.469203368511796
1684201182996124000,12.4801240234375,-2.3238263936817645,0.7888041068255901,-1.2526672344774008
1684201183006150000,12.49014990234375,-2.404080080091953,1.2091238608270882,-0.8241463461026549
1684201183016174800,12.5001748046875,-2.2835797234892845,1.3458873699665068,-0.5919897413492202
1684201183026200800,12.510200927734376,-2.133060660719871,1.3155857552051544,-0.7079536235660314
1684201183036226800,12.520226806640625,-1.771459053146839,0.9747142164498567,-0.7081628824025392
1684201183046253000,12.530253173828125,-1.3719254820644855,0.5415297201782465,-1.0072548423096537
1684201183056277800,12.54027783203125,-0.8957295270621776,0.13991934282183646,-1.3634209808304905
1684201183066303700,12.5503037109375,-0.28334585351441055,0.40654140401780603,-1.8559899784848093
1684201183076329700,12.560329833984374,-0.09933248088955879,0.1144207444280386,-1.4894666966006158
1684201183086355700,12.570355712890626,0.49389995399713515,-0.18008885612487793,-2.2430308554798364
1684201183096380700,12.580380615234375,0.7771640109796076,1.027480176475644,-2.7531539222642776
