time,seconds_elapsed,z,y,x
1684200704818049800,0.0360498046875,0.021907705813646317,-0.06125438213348389,-0.08441460132598877
1684200704828075000,0.046074951171875,0.023811068385839462,-0.04604373872280121,-0.07321254909038544
1684200704838099000,0.056098876953125,0.028510749340057373,-0.03900454193353653,-0.07151045650243759
1684200704848124000,0.0661240234375,0.02915070578455925,-0.017673153430223465,-0.07205294072628021
1684200704858149000,0.076149169921875,0.029062289744615555,-0.00693591870367527,-0.06487242877483368
1684200704868173000,0.086173095703125,0.030707325786352158,-0.008693605661392212,-0.06005582958459854
1684200704878198000,0.096197998046875,0.05771470069885254,0.013267752714455128,-0.08024424314498901
1684200704888222000,0.106221923828125,0.11620357632637024,0.08005423843860626,-0.17306606471538544
1684200704898247000,0.116246826171875,0.05609070882201195,0.06678631156682968,-0.21049314737319946
1684200704908271000,0.12627099609375,-0.019752655178308487,0.008871350437402725,-0.20868432521820068
1684200704918296000,0.136296142578125,-0.04751105606555939,-0.14512668550014496,-0.27663666009902954
1684200704928321000,0.146321044921875,-0.13644331693649292,-0.41484683752059937,-0.3672272861003876
1684200704938345000,0.156344970703125,-0.25207191705703735,-0.47786569595336914,-0.44680115580558777
1684200704948370000,0.166369873046875,-0.4345511496067047,-0.37406206130981445,-0.49228236079216003
1684200704958394000,0.17639404296875,-0.720638632774353,-0.12581278383731842,-0.44480007886886597
1684200704968419000,0.186419189453125,-1.0434749126434326,-0.01402607373893261,-0.37644311785697937
1684200704978444000,0.196444091796875,-1.2339982986450195,-0.09423203021287918,-0.40871745347976685
1684200704988468000,0.206468017578125,-1.2698417901992798,-0.1851630061864853,-0.5068357586860657
1684200704998493000,0.216492919921875,-1.2640917301177979,-0.2780786156654358,-0.6096382141113281
1684200705008517000,0.22651708984375,-1.3012055158615112,-0.3223443627357483,-0.6778018474578857
1684200705018542000,0.2365419921875,-1.416886806488037,-0.2962064743041992,-0.6799649596214294
1684200705028566000,0.24656591796875,-1.5986369848251343,-0.3207238018512726,-0.6675881743431091
1684200705038591000,0.256591064453125,-1.7813308238983154,-0.2971440553665161,-0.7055653929710388
1684200705048616000,0.266615966796875,-1.930126428604126,-0.27236229181289673,-0.7448433041572571
1684200705058640100,0.27664013671875,-1.9856456518173218,-0.21173891425132751,-0.7936571836471558
1684200705068665000,0.2866650390625,-1.9495909214019775,-0.2614571750164032,-0.7724432349205017
1684200705078689000,0.29668896484375,-1.8163442611694336,-0.3322950303554535,-0.7548772692680359
1684200705088714200,0.30671435546875,-1.7281233072280884,-0.2324315458536148,-0.6392539739608765
1684200705098738000,0.316738037109375,-1.7118690013885498,-0.17729035019874573,-0.5678955316543579
1684200705108763000,0.326762939453125,-1.557943344116211,-0.278328001499176,-0.6292475461959839
1684200705118788000,0.3367880859375,-1.6574461460113525,-0.21919989585876465,-0.7340961694717407
1684200705128812000,0.34681201171875,-1.8230743408203125,-0.2546367347240448,-0.8942314982414246
1684200705138837000,0.3568369140625,-2.1312239170074463,-0.34367844462394714,-0.9954267144203186
1684200705148861000,0.36686083984375,-2.3243885040283203,-0.3703473210334778,-1.0413137674331665
1684200705158886000,0.376885986328125,-2.4401862621307373,-0.3451181650161743,-1.0171492099761963
1684200705168911000,0.3869111328125,-2.5206117630004883,-0.5900757312774658,-1.1012486219406128
1684200705178935000,0.39693505859375,-2.5310516357421875,-0.6419001221656799,-1.0629667043685913
1684200705188960000,0.4069599609375,-2.628405809402466,-0.620522141456604,-0.9970069527626038
1684200705198984000,0.41698388671875,-2.748845100402832,-0.9149268865585327,-1.0375936031341553
1684200705209009000,0.4270087890625,-2.7864010334014893,-1.214374303817749,-1.1075156927108765
1684200705219033000,0.437033203125,-2.664445638656616,-1.374449610710144,-1.2144173383712769
1684200705229058000,0.44705810546875,-2.453179121017456,-1.293078899383545,-1.2306607961654663
1684200705239083000,0.4570830078125,-2.014551877975464,-0.8836078643798828,-1.0120090246200562
1684200705249107200,0.467107177734375,-1.5670998096466064,-0.45828962326049805,-0.9406163096427917
1684200705259132000,0.4771318359375,-1.5717211961746216,-0.4054146111011505,-1.1038360595703125
1684200705269156000,0.487156005859375,-1.4573179483413696,-0.7752704620361328,-1.1258624792099
1684200705279181000,0.49718115234375,-1.0163346529006958,-1.148512840270996,-0.9187115430831909
1684200705289205000,0.507205078125,-0.7161709070205688,-1.0462650060653687,-0.591224193572998
1684200705299230200,0.517230224609375,-0.43343427777290344,-0.8542760610580444,-0.3960738778114319
1684200705309255200,0.527255126953125,-0.21796055138111115,-0.6705922484397888,-0.308721661567688
1684200705319278800,0.53727880859375,-0.031048985198140144,-0.4541272521018982,-0.2124474197626114
1684200705329304000,0.547303955078125,0.07186780869960785,-0.4734053611755371,-0.08368092030286789
1684200705339328000,0.557327880859375,0.13893792033195496,-0.5840961933135986,0.05211038887500763
1684200705349353000,0.56735302734375,0.1559901386499405,-0.6876590847969055,0.190996915102005
1684200705359378200,0.577378173828125,0.1598501205444336,-0.6526619791984558,0.30759111046791077
1684200705369401900,0.58740185546875,0.1501559615135193,-0.5048856139183044,0.3994496762752533
1684200705379427000,0.597427001953125,0.12670469284057617,-0.31541404128074646,0.4370880722999573
1684200705389451000,0.607450927734375,0.11517347395420074,-0.1311802715063095,0.44264793395996094
1684200705399476000,0.61747607421875,0.0838131532073021,-0.010003818199038506,0.3429611623287201
1684200705409500200,0.627500244140625,0.04135117679834366,0.05790785327553749,0.13702183961868286
1684200705419524900,0.63752490234375,-0.06599739193916321,0.14428424835205078,0.03333096578717232
1684200705429549800,0.6475498046875,-0.07292746007442474,0.24901838600635529,0.10044954717159271
1684200705439574000,0.657573974609375,0.02885642647743225,0.3048102557659149,0.09137576818466187
1684200705449599000,0.667598876953125,0.04938434064388275,0.2308497428894043,0.03304481878876686
1684200705459623200,0.677623046875,0.011041740886867046,0.05247526988387108,-0.06378477811813354
1684200705469648100,0.687648193359375,-0.019931888207793236,-0.11129182577133179,-0.15355832874774933
1684200705479672800,0.6976728515625,-0.048685505986213684,-0.15616367757320404,-0.21798481047153473
1684200705489697000,0.707697021484375,-0.06547114253044128,-0.09698691219091415,-0.21342894434928894
1684200705499722000,0.717721923828125,-0.045551229268312454,0.008556291460990906,-0.17573589086532593
1684200705509746200,0.72774609375,-0.048389360308647156,0.16950762271881104,-0.08267039805650711
1684200705519771100,0.737771240234375,-0.0803944319486618,0.16838468611240387,-0.07407555729150772
1684200705529794800,0.747794921875,-0.08635831624269485,0.18590295314788818,-0.07534988224506378
1684200705539820000,0.757820068359375,-0.09098982065916061,0.2667539417743683,-0.04101906344294548
1684200705549845000,0.767844970703125,-0.09663039445877075,0.24286484718322754,-0.048505742102861404
1684200705559869000,0.777868896484375,-0.110108382999897,0.15880678594112396,-0.06459924578666687
1684200705569894100,0.78789404296875,-0.12315334379673004,0.18627169728279114,-0.041535209864377975
1684200705579917800,0.797917724609375,-0.051522307097911835,0.23282796144485474,-0.06976159662008286
1684200705589943000,0.807943115234375,-0.09752228856086731,0.16337165236473083,-0.11386727541685104
1684200705599967000,0.817967041015625,-0.10567741841077805,0.11958230286836624,-0.14778390526771545
1684200705609992000,0.827991943359375,-0.10508806258440018,0.12460049241781235,-0.13589128851890564
1684200705620017200,0.83801708984375,-0.10624919831752777,0.10754945129156113,-0.12858116626739502
1684200705630040600,0.84804052734375,-0.1004062220454216,0.07212115824222565,-0.1337902992963791
1684200705640065800,0.858065673828125,-0.10844630748033524,0.04940854012966156,-0.13151492178440094
1684200705650089700,0.86808984375,-0.11293266713619232,0.059538137167692184,-0.10088003426790237
1684200705660114700,0.87811474609375,-0.10654480755329132,0.09391050785779953,-0.07647071778774261
1684200705670138600,0.888138671875,-0.09106918424367905,0.12051442265510559,-0.06757655739784241
1684200705680163600,0.89816357421875,-0.0808706060051918,0.1446041613817215,-0.0575181283056736
1684200705690188500,0.9081884765625,-0.06771112978458405,0.2153739333152771,-0.04404200240969658
1684200705700212700,0.918212646484375,-0.07382547855377197,0.23354457318782806,-0.052707068622112274
1684200705710237700,0.92823779296875,-0.07125473022460938,0.2277146428823471,-0.06388594955205917
1684200705720262000,0.938261962890625,-0.07875925302505493,0.2185555249452591,-0.060516633093357086
1684200705730286600,0.94828662109375,-0.08334973454475403,0.20613667368888855,-0.062080975621938705
1684200705740311600,0.9583115234375,-0.0908643826842308,0.16694492101669312,-0.07276981323957443
1684200705750335700,0.968335693359375,-0.10383078455924988,0.14097698032855988,-0.06532148271799088
1684200705760360700,0.978360595703125,-0.11218591779470444,0.12218094617128372,-0.05773543193936348
1684200705770385000,0.988385009765625,-0.09136425703763962,0.16580352187156677,-0.02921803668141365
1684200705780409900,0.998409912109375,-0.08267410099506378,0.17809566855430603,-0.03326176851987839
1684200705790434600,1.0084345703125,-0.06807145476341248,0.1981612592935562,-0.07169491052627563
1684200705800458800,1.018458740234375,-0.05023519694805145,0.23889511823654175,-0.08580688387155533
1684200705810483700,1.028483642578125,-0.024550875648856163,0.3318586051464081,-0.07994047552347183
1684200705820507600,1.038507568359375,-0.032625578343868256,0.37399622797966003,-0.08796925842761993
1684200705830532900,1.048532958984375,-0.032740890979766846,0.3809737265110016,-0.08933679014444351
1684200705840556500,1.058556640625,-0.017223719507455826,0.4577523469924927,-0.09056150168180466
1684200705850581800,1.068581787109375,-0.009894434362649918,0.5492092967033386,-0.08299599587917328
1684200705860605700,1.078605712890625,-0.0024703419767320156,0.6050993204116821,-0.07801541686058044
1684200705870630700,1.088630615234375,0.022384675219655037,0.6372074484825134,-0.08348501473665237
1684200705880656000,1.09865576171875,0.05849847197532654,0.6143130660057068,-0.09255319833755493
1684200705890679600,1.108679443359375,0.046926237642765045,0.6242977976799011,-0.06505285948514938
1684200705900704500,1.11870458984375,0.010299786925315857,0.6225045919418335,-0.06149367243051529
1684200705910728700,1.128728759765625,-0.01609719917178154,0.6215890049934387,-0.06349237263202667
1684200705920753700,1.138753662109375,-0.015556049533188343,0.6415022015571594,-0.07509424537420273
1684200705930778600,1.148778564453125,-0.007084001787006855,0.6520951986312866,-0.10902584344148636
1684200705940802800,1.158802734375,0.013058817014098167,0.6558340191841125,-0.13512563705444336
1684200705950827500,1.16882763671875,-0.034009095281362534,0.5974982976913452,-0.15243937075138092
1684200705960851700,1.178851806640625,-0.10068879276514053,0.5562810301780701,-0.16702820360660553
1684200705970876700,1.188876708984375,-0.13268479704856873,0.5004960298538208,-0.19425874948501587
1684200705980900900,1.19890087890625,-0.1439419835805893,0.4148692488670349,-0.22466640174388885
1684200705990925800,1.20892578125,-0.16288717091083527,0.3198047876358032,-0.22723475098609924
1684200706000950800,1.21895068359375,-0.1359836608171463,0.2674988806247711,-0.22948014736175537
1684200706010974700,1.228974609375,-0.15297089517116547,0.1756964921951294,-0.21361809968948364
1684200706020999700,1.238999755859375,-0.15183666348457336,0.13748134672641754,-0.1478358507156372
1684200706031023600,1.249023681640625,-0.07805351167917252,0.19158291816711426,-0.1143021211028099
1684200706041048800,1.259048828125,-0.03483680635690689,0.21470677852630615,-0.09109747409820557
1684200706051072500,1.269072509765625,-0.00804566964507103,0.20550502836704254,-0.03944360092282295
1684200706061097700,1.27909765625,0.04513606056571007,0.23818771541118622,-0.017665397375822067
1684200706071122700,1.289122802734375,0.08661533147096634,0.2885395586490631,0.004307812079787254
1684200706081146600,1.299146728515625,0.11507812887430191,0.3355121910572052,0.035904593765735626
1684200706091171800,1.309171875,0.1576109379529953,0.3715263903141022,0.0877254530787468
1684200706101195800,1.31919580078125,0.20089370012283325,0.36825624108314514,0.15930530428886414
1684200706111220500,1.329220458984375,0.2798183560371399,0.3605820834636688,0.2635291814804077
1684200706121245700,1.33924560546875,0.3637275993824005,0.3582612872123718,0.38016530871391296
1684200706131269600,1.34926953125,0.4638392925262451,0.3492629826068878,0.48993468284606934
1684200706141294600,1.359294677734375,0.5941983461380005,0.33372020721435547,0.5612927675247192
1684200706151318800,1.36931884765625,0.7110384106636047,0.2738683223724365,0.5825495719909668
1684200706161343700,1.37934375,0.818897008895874,0.22219237685203552,0.5678483843803406
1684200706171367700,1.38936767578125,0.8508956432342529,0.17892825603485107,0.5655039548873901
1684200706181392600,1.399392578125,0.7395102977752686,0.06683811545372009,0.5948483347892761
1684200706191417600,1.40941748046875,0.6345633864402771,0.021708451211452484,0.6468638181686401
1684200706201441800,1.41944189453125,0.6487545371055603,0.061768632382154465,0.6871231198310852
1684200706211466800,1.429466796875,0.6479532122612,-0.005650355480611324,0.7621406316757202
1684200706221490700,1.43949072265625,0.6398204565048218,-0.16567128896713257,0.8529170751571655
1684200706231515600,1.449515625,0.664615273475647,-0.3164781332015991,0.9375400543212891
1684200706241539800,1.459539794921875,0.6790080666542053,-0.4185026288032532,1.0265061855316162
1684200706251564800,1.469564697265625,0.6180760264396667,-0.42715469002723694,1.167527675628662
1684200706261589800,1.47958984375,0.5043169260025024,-0.37600693106651306,1.3064992427825928
1684200706271613700,1.48961376953125,0.3501340448856354,-0.32722049951553345,1.4391976594924927
1684200706281638700,1.499638671875,0.23722268640995026,-0.28491005301475525,1.4939544200897217
1684200706291662600,1.50966259765625,0.20468124747276306,-0.30646541714668274,1.5494197607040405
1684200706301687800,1.519687744140625,0.2175014317035675,-0.29540732502937317,1.6681950092315674
1684200706311712800,1.529712646484375,0.2084283083677292,-0.16571296751499176,1.8419337272644043
1684200706321736700,1.53973681640625,0.2016095519065857,0.06446358561515808,2.043907642364502
1684200706331761700,1.54976171875,0.2233702540397644,0.3224591910839081,2.223654270172119
1684200706341785600,1.55978564453125,0.2554754614830017,0.5608655214309692,2.347318172454834
1684200706351810800,1.569810791015625,0.34661468863487244,0.8593283891677856,2.4125466346740723
1684200706361834800,1.579834716796875,0.514886736869812,1.154845952987671,2.3980069160461426
1684200706371859700,1.589859619140625,0.706379234790802,1.5601556301116943,2.3884501457214355
1684200706381885000,1.599885009765625,0.9438876509666443,1.5736809968948364,2.1824111938476562
1684200706391908600,1.60990869140625,1.0824339389801025,1.198574185371399,1.7823832035064697
1684200706401933600,1.61993359375,1.0944916009902954,0.6735203266143799,1.380935549736023
1684200706411957800,1.629957763671875,1.0585732460021973,-0.0763389989733696,1.014725685119629
1684200706421982700,1.639982666015625,1.0690821409225464,-0.8197895884513855,0.7033029794692993
1684200706432006700,1.650006591796875,1.1254364252090454,-1.641770839691162,0.4074430465698242
1684200706442031600,1.660031494140625,1.1711703538894653,-2.3272757530212402,0.19481121003627777
1684200706452056600,1.670056640625,1.1338735818862915,-2.5382375717163086,0.1707697957754135
1684200706462080800,1.680080810546875,1.0468790531158447,-2.2423720359802246,0.2934297025203705
1684200706472105700,1.690105712890625,0.8730379939079285,-1.678328275680542,0.4800986647605896
1684200706482130000,1.7001298828125,0.7321911454200745,-1.2584081888198853,0.6089758276939392
1684200706492154600,1.710154541015625,0.5826125741004944,-1.0684750080108643,0.6492217779159546
1684200706502178600,1.720178466796875,0.4857217073440552,-1.0429788827896118,0.5895915627479553
1684200706512203800,1.730203857421875,0.42117735743522644,-1.0090105533599854,0.46398910880088806
1684200706522228700,1.740228759765625,0.3787001669406891,-0.8780468106269836,0.32435956597328186
1684200706532252700,1.750252685546875,0.34314003586769104,-0.7174654006958008,0.20082032680511475
1684200706542278000,1.76027783203125,0.31147080659866333,-0.5618211627006531,0.09498124569654465
1684200706552301600,1.770301513671875,0.27880924940109253,-0.38785257935523987,0.008615195751190186
1684200706562326800,1.780326904296875,0.25669997930526733,-0.22528664767742157,-0.06770473718643188
1684200706572351700,1.790351806640625,0.24541881680488586,-0.07551979273557663,-0.14186711609363556
1684200706582375700,1.800375732421875,0.2409316599369049,0.016625290736556053,-0.2374032735824585
1684200706592401000,1.81040087890625,0.2084943652153015,0.052143339067697525,-0.36833277344703674
1684200706602424600,1.820424560546875,0.15936170518398285,0.1047988161444664,-0.48359882831573486
1684200706612449500,1.830449462890625,0.09227241575717926,0.14066414535045624,-0.6085665822029114
1684200706622473700,1.8404736328125,0.018230142071843147,0.17801664769649506,-0.7508669495582581
1684200706632498700,1.850498779296875,-0.08226823061704636,0.20932264626026154,-0.8791652917861938
1684200706642523600,1.860523681640625,-0.20634862780570984,0.25660669803619385,-0.997645378112793
1684200706652547800,1.8705478515625,-0.355553537607193,0.3119000494480133,-1.092909812927246
1684200706662572800,1.88057275390625,-0.5151515007019043,0.35067814588546753,-1.1477042436599731
1684200706672597000,1.890596923828125,-0.6909701824188232,0.35086455941200256,-1.1433578729629517
1684200706682622000,1.9006220703125,-0.8358346819877625,0.319643497467041,-1.0962852239608765
1684200706692646000,1.91064599609375,-0.9610013961791992,0.2633027136325836,-1.0093121528625488
1684200706702670800,1.9206708984375,-1.0589250326156616,0.1596914827823639,-0.8846381902694702
1684200706712695800,1.93069580078125,-1.1111797094345093,0.04354410246014595,-0.7277018427848816
1684200706722720000,1.940719970703125,-1.1124789714813232,-0.0779600664973259,-0.5580058097839355
1684200706732745000,1.950744873046875,-1.0603843927383423,-0.16912859678268433,-0.3959071636199951
1684200706742768600,1.9607685546875,-0.9263118505477905,-0.1656217873096466,-0.25621065497398376
1684200706752793900,1.9707939453125,-0.6929513216018677,-0.024055609479546547,-0.17799842357635498
1684200706762818800,1.98081884765625,-0.48150113224983215,0.2299295961856842,-0.18579216301441193
1684200706772843000,1.990843017578125,-0.2742302417755127,0.44064900279045105,-0.22995854914188385
1684200706782868000,2.000867919921875,-0.06693588197231293,0.6312814354896545,-0.31856048107147217
1684200706792891600,2.0108916015625,0.15252962708473206,0.9204115271568298,-0.4682905972003937
1684200706802916900,2.020916748046875,0.3121022582054138,1.2175713777542114,-0.6944437623023987
1684200706812940800,2.03094091796875,0.3877469599246979,1.2484462261199951,-0.9366135001182556
1684200706822965800,2.0409658203125,0.3990936279296875,0.8298923373222351,-1.0771962404251099
1684200706832991000,2.050990966796875,0.4011996388435364,0.03016742318868637,-1.0625793933868408
1684200706843015000,2.061014892578125,0.40549901127815247,-0.6232583522796631,-0.9800663590431213
1684200706853039600,2.07103955078125,0.38398706912994385,-1.0371066331863403,-0.869586706161499
1684200706863063800,2.081063720703125,0.31113260984420776,-1.2207940816879272,-0.6766921281814575
1684200706873088800,2.0910888671875,0.18163610994815826,-1.1810290813446045,-0.5894981026649475
1684200706883113000,2.101113037109375,0.0724577009677887,-1.0098528861999512,-0.6664267182350159
1684200706893138000,2.111137939453125,-0.014778407290577888,-0.8521697521209717,-0.8153674602508545
1684200706903163000,2.121162841796875,-0.1051945835351944,-0.7062130570411682,-1.0453375577926636
1684200706913186800,2.131186767578125,-0.284122496843338,-0.4325444996356964,-1.3074631690979004
1684200706923211800,2.141211669921875,-0.5699471235275269,-0.11098112910985947,-1.5742062330245972
1684200706933236000,2.151236083984375,-0.9017876386642456,0.17578671872615814,-1.697359323501587
1684200706943261000,2.161260986328125,-1.1630572080612183,0.21333712339401245,-1.5635279417037964
1684200706953286000,2.171285888671875,-1.0719244480133057,-0.308723121881485,-1.3355109691619873
1684200706963309800,2.181309814453125,-0.6910389065742493,-0.708166241645813,-0.9341602325439453
1684200706973334800,2.191334716796875,-0.606558620929718,-1.0264135599136353,-0.45339709520339966
1684200706983359000,2.20135888671875,-0.7270605564117432,-2.140944480895996,0.03957836329936981
1684200706993384000,2.211384033203125,-0.6973154544830322,-3.367762804031372,0.5413461327552795
1684200707003408000,2.221407958984375,-0.13255004584789276,-2.7432045936584473,0.746229887008667
1684200707013432800,2.231432861328125,0.5173776149749756,-0.4959041476249695,0.5733939409255981
1684200707023457800,2.241457763671875,0.7941218614578247,1.596747875213623,0.43590185046195984
1684200707033481700,2.251481689453125,0.6607819199562073,2.7796859741210938,0.5029109716415405
1684200707043507000,2.2615068359375,0.25507652759552,2.9256787300109863,0.5659721493721008
1684200707053531000,2.27153076171875,-0.05448293685913086,2.2502059936523438,0.566186785697937
1684200707063555800,2.281555908203125,-0.26309871673583984,1.1263474225997925,0.543795108795166
1684200707073579800,2.291579833984375,-0.35186082124710083,0.11007634550333023,0.44534581899642944
1684200707083604700,2.301604736328125,-0.31234511733055115,-0.4890444278717041,0.2689060866832733
1684200707093630000,2.3116298828125,-0.2589458227157593,-0.7364025712013245,0.020076565444469452
1684200707103654000,2.32165380859375,-0.07887030392885208,-0.8329898118972778,-0.25272977352142334
1684200707113678800,2.331678955078125,0.18243800103664398,-0.7904722094535828,-0.5373088121414185
1684200707123702800,2.341702880859375,0.4370518922805786,-0.5287284851074219,-0.8281172513961792
1684200707133727700,2.351727783203125,0.6176296472549438,-0.048448942601680756,-1.0420467853546143
1684200707143752700,2.361752685546875,0.8047676086425781,0.48752880096435547,-1.1133579015731812
1684200707153777000,2.37177685546875,0.8346306681632996,0.7844552993774414,-0.6416347026824951
1684200707163801900,2.3818017578125,0.7953658103942871,0.5539914965629578,0.312540203332901
1684200707173825800,2.39182568359375,0.5207867622375488,0.27937886118888855,0.9919970035552979
1684200707183850800,2.401850830078125,0.29343295097351074,0.6285837888717651,1.0163065195083618
1684200707193875000,2.411875,0.22261923551559448,1.247186303138733,0.9166837334632874
1684200707203900000,2.42189990234375,0.19255907833576202,1.604451060295105,0.8562231659889221
1684200707213924900,2.4319248046875,-0.03439418599009514,1.4330617189407349,0.6860077977180481
1684200707223949000,2.441948974609375,-0.3918934464454651,0.8064585328102112,0.39497411251068115
1684200707233973800,2.451973876953125,-0.6352555155754089,-0.016841735690832138,0.10536281764507294
1684200707243997700,2.461997802734375,-0.7439926862716675,-0.5106948614120483,-0.18010224401950836
1684200707254023000,2.47202294921875,-0.7474172115325928,-0.4679846465587616,-0.4392893314361572
1684200707264046800,2.482046875,-0.5944950580596924,-0.16263684630393982,-0.7402791976928711
1684200707274071800,2.49207177734375,-0.30870482325553894,0.1263938844203949,-0.8668885231018066
1684200707284097000,2.502096923828125,0.0058072954416275024,0.1906699538230896,-0.7153812050819397
1684200707294120700,2.51212060546875,0.20224659144878387,-0.016329029574990273,-0.40571945905685425
1684200707304146000,2.52214599609375,0.2581340968608856,-0.341838002204895,-0.21377740800380707
1684200707314169900,2.532169921875,0.14609277248382568,-0.702724039554596,-0.1790226250886917
1684200707324194800,2.54219482421875,0.0016287919133901596,-0.884612500667572,-0.2985963523387909
1684200707334220000,2.552219970703125,0.04320099949836731,-0.9082411527633667,-0.49892598390579224
1684200707344243700,2.56224365234375,-0.01839843951165676,-0.8262065052986145,-0.7216247320175171
1684200707354268700,2.5722685546875,-0.02752961963415146,-0.6439914107322693,-0.8058879971504211
1684200707364292900,2.58229296875,-0.008082684129476547,-0.4924919903278351,-0.7165530920028687
1684200707374317800,2.59231787109375,0.014991476200520992,-0.30844783782958984,-0.5528842806816101
1684200707384342000,2.602342041015625,-0.026179132983088493,-0.2525925934314728,-0.4210625886917114
1684200707394366700,2.61236669921875,-0.06579631567001343,-0.30711254477500916,-0.37453529238700867
1684200707404391700,2.6223916015625,-0.06603360176086426,-0.3736759126186371,-0.3307912349700928
1684200707414416000,2.632415771484375,-0.03926217183470726,-0.4827917516231537,-0.32145845890045166
1684200707424440800,2.64244091796875,-0.03147483244538307,-0.4630741477012634,-0.3530765175819397
1684200707434465000,2.652465087890625,-0.0006082623731344938,-0.2997659146785736,-0.3963203728199005
1684200707444490000,2.662489990234375,0.03997165709733963,-0.12950405478477478,-0.440460205078125
1684200707454513700,2.672513671875,-0.008426235057413578,-0.038405559957027435,-0.48798272013664246
1684200707464539000,2.682538818359375,-0.03433533012866974,0.007141074165701866,-0.5392130017280579
1684200707474563800,2.692563720703125,-0.06538911908864975,-0.0266544409096241,-0.5760447978973389
1684200707484588000,2.702588134765625,-0.09921871870756149,-0.09539053589105606,-0.5743207335472107
1684200707494613000,2.712613037109375,-0.1421792358160019,-0.1371595412492752,-0.5327567458152771
1684200707504636700,2.72263671875,-0.17413637042045593,-0.1744781732559204,-0.4839254915714264
1684200707514662000,2.732661865234375,-0.20194323360919952,-0.19460181891918182,-0.4552142024040222
1684200707524686800,2.742686767578125,-0.21476130187511444,-0.2036043405532837,-0.4184015691280365
1684200707534710800,2.752710693359375,-0.2205912172794342,-0.20333829522132874,-0.3738982677459717
1684200707544736000,2.762736083984375,-0.22826218605041504,-0.16362826526165009,-0.3260048031806946
1684200707554759700,2.772759765625,-0.22419367730617523,-0.12302333116531372,-0.27488434314727783
1684200707564784600,2.78278466796875,-0.2173091471195221,-0.0943317785859108,-0.2362070381641388
1684200707574808800,2.792808837890625,-0.20182526111602783,-0.021895933896303177,-0.19338953495025635
1684200707584833800,2.802833740234375,-0.19969207048416138,0.08417113125324249,-0.13507185876369476
1684200707594859000,2.81285888671875,-0.20556193590164185,0.18727008998394012,-0.07742347568273544
1684200707604883000,2.822883056640625,-0.22750425338745117,0.2680402100086212,-0.04829581081867218
1684200707614907600,2.83290771484375,-0.26065877079963684,0.3269171118736267,-0.03458718955516815
1684200707624931800,2.842931884765625,-0.29550355672836304,0.3574248254299164,-0.027553638443350792
1684200707634957000,2.85295703125,-0.33540090918540955,0.3496374785900116,-0.026191698387265205
1684200707644981000,2.86298095703125,-0.37523141503334045,0.30494630336761475,-0.02600853517651558
1684200707655006000,2.873005859375,-0.40449395775794983,0.24257001280784607,-0.02728046104311943
1684200707665031000,2.883031005859375,-0.4178502559661865,0.1767808049917221,-0.037376899272203445
1684200707675055000,2.89305517578125,-0.3952692747116089,0.1490495651960373,-0.05744754523038864
1684200707685080000,2.903080078125,-0.3282492160797119,0.2055044174194336,-0.003908712416887283
1684200707695104000,2.91310400390625,-0.32552188634872437,0.0775347352027893,-0.013507011346518993
1684200707705129000,2.92312890625,-0.30731573700904846,-0.0623759999871254,-0.06420928984880447
1684200707715154000,2.93315380859375,-0.2642124891281128,-0.08018667995929718,-0.09716830402612686
1684200707725178000,2.94317822265625,-0.21794910728931427,0.03768105059862137,-0.10070531815290451
1684200707735203000,2.953203125,-0.17542721331119537,0.18943248689174652,-0.07757869362831116
1684200707745226800,2.963226806640625,-0.13759461045265198,0.341468870639801,-0.04517987370491028
1684200707755252000,2.973251953125,-0.10720127820968628,0.4749981760978699,-0.014186270534992218
1684200707765276000,2.98327587890625,-0.08639480173587799,0.5911622643470764,0.03976251557469368
1684200707775300900,2.99330078125,-0.07170906662940979,0.6665030717849731,0.08250704407691956
1684200707785326000,3.003326171875,-0.05891604349017143,0.7552201151847839,0.12759165465831757
1684200707795350000,3.01335009765625,-0.0430300198495388,0.8552684187889099,0.17339803278446198
1684200707805375000,3.023375,-0.025823600590229034,0.9372263550758362,0.20860899984836578
1684200707815399000,3.03339892578125,-0.009989243000745773,0.9987733364105225,0.2368619441986084
1684200707825424000,3.043423828125,0.003867180086672306,1.0368423461914062,0.23752926290035248
1684200707835448000,3.053447998046875,0.01847941242158413,1.0440279245376587,0.22526460886001587
1684200707845473000,3.06347314453125,0.021415013819932938,1.0284582376480103,0.2095378339290619
1684200707855498000,3.073498046875,0.013058546930551529,1.0183513164520264,0.1919758915901184
1684200707865522000,3.08352197265625,0.003323628567159176,1.0235745906829834,0.18000125885009766
1684200707875547000,3.093546875,-0.013634050264954567,1.0372579097747803,0.1820652037858963
1684200707885571000,3.103571044921875,-0.023174554109573364,1.0428850650787354,0.18687930703163147
1684200707895596000,3.113595947265625,-0.03192703425884247,1.0307610034942627,0.19362802803516388
1684200707905621000,3.12362109375,-0.04412112012505531,0.9993464350700378,0.1810305118560791
1684200707915645000,3.13364501953125,-0.07456664741039276,0.9664583206176758,0.14499953389167786
1684200707925670000,3.143669921875,-0.11593485623598099,0.9241350889205933,0.08662007004022598
1684200707935694000,3.153694091796875,-0.17207801342010498,0.8832918405532837,0.010970850475132465
1684200707945719000,3.163718994140625,-0.23625007271766663,0.8454718589782715,-0.07625991106033325
1684200707955743000,3.173742919921875,-0.2862245738506317,0.8084366321563721,-0.18599839508533478
1684200707965768000,3.183767822265625,-0.31394249200820923,0.7230376601219177,-0.32931259274482727
1684200707975793000,3.19379296875,-0.33648136258125305,0.6316184997558594,-0.43251940608024597
1684200707985816800,3.20381689453125,-0.37746497988700867,0.4986681342124939,-0.48829588294029236
1684200707995842000,3.213842041015625,-0.48320257663726807,0.27965056896209717,-0.49951818585395813
1684200708005866000,3.223865966796875,-0.5039148330688477,0.09560436010360718,-0.4763818681240082
1684200708015891200,3.23389111328125,-0.5412768125534058,-0.1313326507806778,-0.4727213680744171
1684200708025915000,3.243914794921875,-0.5308390855789185,-0.2821296453475952,-0.46320217847824097
1684200708035939800,3.25393994140625,-0.46355941891670227,-0.37600287795066833,-0.4409112334251404
1684200708045965000,3.263965087890625,-0.39673110842704773,-0.46830835938453674,-0.39842090010643005
1684200708055989000,3.273989013671875,-0.28045588731765747,-0.46397513151168823,-0.29545751214027405
1684200708066014000,3.284013916015625,-0.14467781782150269,-0.4138931930065155,-0.1718004047870636
1684200708076038000,3.294037841796875,0.0027454562950879335,-0.41793107986450195,-0.06758666038513184
1684200708086062800,3.304062744140625,0.19693171977996826,-0.4095858931541443,-0.012219702824950218
1684200708096087800,3.314087890625,0.3307795226573944,-0.5074538588523865,0.0759543627500534
1684200708106112000,3.324112060546875,0.476020872592926,-0.6409026980400085,0.2572532296180725
1684200708116137000,3.334136962890625,0.7563827633857727,-0.7526921033859253,0.452116459608078
1684200708126161000,3.344160888671875,1.1050348281860352,-0.8721875548362732,0.6050854921340942
1684200708136185900,3.354185791015625,1.3681458234786987,-1.089841604232788,0.7385016083717346
1684200708146210000,3.3642099609375,1.4310072660446167,-1.390500783920288,0.8453376889228821
1684200708156235000,3.374235107421875,1.4057033061981201,-1.5672228336334229,0.9161599278450012
1684200708166260000,3.384260009765625,1.4661866426467896,-1.4972200393676758,0.9752175807952881
1684200708176284200,3.3942841796875,1.441744089126587,-1.201037049293518,1.0644150972366333
1684200708186308900,3.404308837890625,1.3918535709381104,-0.8750056624412537,1.2939296960830688
1684200708196333000,3.4143330078125,1.282199501991272,-0.7571647763252258,1.6954227685928345
1684200708206358000,3.42435791015625,1.0039385557174683,-0.8839250206947327,2.160301923751831
1684200708216383000,3.434383056640625,0.6447896361351013,-0.7428989410400391,2.495802402496338
1684200708226407200,3.4444072265625,0.3958871364593506,-0.3065723776817322,2.6109039783477783
1684200708236432100,3.45443212890625,0.3426353633403778,0.15890449285507202,2.582247018814087
1684200708246455800,3.464455810546875,0.35240438580513,0.3791719377040863,2.2637858390808105
1684200708256481000,3.47448095703125,0.38367602229118347,0.3088407814502716,1.8519554138183594
1684200708266505000,3.4845048828125,0.4400836229324341,0.11878111958503723,1.6976200342178345
1684200708276530000,3.494530029296875,0.47973382472991943,0.05115733668208122,1.8864847421646118
1684200708286555100,3.50455517578125,0.6063426733016968,0.012759522534906864,1.973580002784729
1684200708296578800,3.514578857421875,0.7686042785644531,0.19478897750377655,1.83950936794281
1684200708306604000,3.52460400390625,0.9244170188903809,0.1793786883354187,1.5272613763809204
1684200708316628000,3.5346279296875,0.9554910659790039,-0.16441330313682556,1.162967562675476
1684200708326653000,3.54465283203125,0.9130375981330872,-0.9789249897003174,0.7559406757354736
1684200708336677000,3.554677001953125,0.9156994223594666,-1.7009873390197754,0.3929486870765686
1684200708346701800,3.564701904296875,1.0257385969161987,-1.9126734733581543,0.09714654833078384
1684200708356726800,3.574726806640625,1.1331559419631958,-1.8093430995941162,-0.07980959117412567
1684200708366751000,3.5847509765625,1.2070591449737549,-1.4376201629638672,-0.10437832772731781
1684200708376776000,3.59477587890625,1.2463139295578003,-1.0273219347000122,0.003213911782950163
1684200708386800000,3.604800048828125,1.3225029706954956,-0.6612288951873779,0.13404040038585663
1684200708396825000,3.6148251953125,1.4095507860183716,-0.5805172920227051,0.29081377387046814
1684200708406849800,3.624849853515625,1.4966014623641968,-0.6744153499603271,0.3874443471431732
1684200708416874000,3.6348740234375,1.4434781074523926,-0.6892824172973633,0.3265210688114166
1684200708426899000,3.64489892578125,1.2929857969284058,-0.6847432255744934,0.13693469762802124
1684200708436923100,3.654923095703125,1.1034728288650513,-0.7603293061256409,-0.04158763214945793
1684200708446948000,3.664947998046875,0.950709879398346,-1.0304867029190063,-0.163009911775589
1684200708456971800,3.6749716796875,0.8543775081634521,-1.3275946378707886,-0.237558975815773
1684200708466997000,3.6849970703125,0.7910736203193665,-1.4597536325454712,-0.21252217888832092
1684200708477022000,3.69502197265625,0.7171599864959717,-1.4936025142669678,-0.19341586530208588
1684200708487046000,3.7050458984375,0.6498349905014038,-1.4265214204788208,-0.1899351328611374
1684200708497071000,3.715071044921875,0.5925895571708679,-1.325264573097229,-0.20365680754184723
1684200708507094800,3.7250947265625,0.4864969253540039,-1.303146481513977,-0.28324073553085327
1684200708517120000,3.7351201171875,0.41001787781715393,-1.1823135614395142,-0.31720349192619324
1684200708527145000,3.74514501953125,0.35219770669937134,-1.0579259395599365,-0.3362888991832733
1684200708537169000,3.7551689453125,0.25165194272994995,-0.9413013458251953,-0.32114377617836
1684200708547194000,3.765194091796875,0.17299816012382507,-0.817811906337738,-0.320036917924881
1684200708557218000,3.775218017578125,0.12436776608228683,-0.6781283020973206,-0.33421558141708374
1684200708567242800,3.78524267578125,0.06072966381907463,-0.48849454522132874,-0.3430428206920624
1684200708577267000,3.795266845703125,-0.023249389603734016,-0.342296302318573,-0.35132578015327454
1684200708587292000,3.8052919921875,-0.1082063540816307,-0.23818150162696838,-0.3554353713989258
1684200708597316900,3.81531689453125,-0.19623661041259766,-0.16312935948371887,-0.34825602173805237
1684200708607341000,3.825341064453125,-0.28310760855674744,-0.11112487316131592,-0.3213632106781006
1684200708617366000,3.835365966796875,-0.3611544668674469,-0.0865100771188736,-0.29272890090942383
1684200708627390000,3.845389892578125,-0.4124344289302826,-0.09215497970581055,-0.24840405583381653
1684200708637414400,3.855414306640625,-0.4907401502132416,-0.2053888589143753,-0.23752477765083313
1684200708647438600,3.8654384765625,-0.5050538778305054,-0.08945339918136597,-0.13249537348747253
1684200708657463600,3.875463623046875,-0.5460654497146606,-0.03786690533161163,-0.07677137851715088
1684200708667488500,3.885488525390625,-0.588543713092804,0.09962063282728195,-0.04960431903600693
1684200708677512400,3.895512451171875,-0.6339801549911499,0.30685824155807495,-0.04473366588354111
1684200708687537400,3.905537353515625,-0.672535240650177,0.5526760816574097,-0.05246271938085556
1684200708697561600,3.9155615234375,-0.6931353211402893,0.7654376029968262,-0.056630831211805344
1684200708707586600,3.925586669921875,-0.6899179816246033,0.9241145253181458,-0.05532284826040268
1684200708717610200,3.9356103515625,-0.6560220718383789,1.0220783948898315,-0.05817722529172897
1684200708727635500,3.945635498046875,-0.5965736508369446,1.0496430397033691,-0.07046300917863846
1684200708737660400,3.955660400390625,-0.5081748366355896,1.0368784666061401,-0.10324012488126755
1684200708747684400,3.965684326171875,-0.4126804769039154,0.9878888130187988,-0.1755010336637497
1684200708757709600,3.97570947265625,-0.3106648921966553,0.9717934131622314,-0.2221098244190216
1684200708767733500,3.9857333984375,-0.19663608074188232,0.9905580878257751,-0.2874596416950226
1684200708777758500,3.995758544921875,-0.09485140442848206,1.0481489896774292,-0.35644403100013733
1684200708787783400,4.005783447265625,-0.010549308732151985,1.118404746055603,-0.40403738617897034
1684200708797807400,4.015807373046875,0.0640743300318718,1.1288951635360718,-0.4164940416812897
1684200708807832600,4.02583251953125,0.13709181547164917,1.0656657218933105,-0.4164500832557678
1684200708817856500,4.0358564453125,0.19898447394371033,0.9402039051055908,-0.40845102071762085
1684200708827881500,4.045881591796875,0.23444393277168274,0.7981310486793518,-0.3978325128555298
1684200708837905400,4.055905517578125,0.24145203828811646,0.6422895193099976,-0.4093261957168579
1684200708847930400,4.065930419921875,0.21958695352077484,0.49357840418815613,-0.4300179183483124
1684200708857955300,4.075955322265625,0.170370951294899,0.3602491021156311,-0.4526183009147644
1684200708867979500,4.0859794921875,0.11347730457782745,0.23157088458538055,-0.48208996653556824
1684200708878004500,4.09600439453125,0.0579724945127964,0.1414566934108734,-0.5172418355941772
1684200708888028400,4.1060283203125,-0.002899379236623645,0.06875051558017731,-0.5766587853431702
1684200708898053400,4.116053466796875,-0.06641284376382828,0.005111084319651127,-0.6560915112495422
1684200708908078300,4.126078369140625,-0.15221136808395386,-0.07980618625879288,-0.7718342542648315
1684200708918102500,4.1361025390625,-0.22265756130218506,-0.06925953924655914,-0.8684852123260498
1684200708928127500,4.14612744140625,-0.26698750257492065,0.011445868760347366,-0.9324929118156433
1684200708938151400,4.1561513671875,-0.3278343379497528,0.07673779129981995,-1.0233954191207886
1684200708948176400,4.16617626953125,-0.4173375964164734,0.17080385982990265,-1.0974119901657104
1684200708958200600,4.17620068359375,-0.5255964398384094,0.2818398177623749,-1.1426864862442017
1684200708968225500,4.1862255859375,-0.7446570992469788,0.4070284962654114,-1.2644191980361938
1684200708978250500,4.19625048828125,-1.075713872909546,0.5870038866996765,-1.4292882680892944
1684200708988274700,4.206274658203125,-1.3925011157989502,0.9219504594802856,-1.5249661207199097
1684200708998299400,4.21629931640625,-1.5898528099060059,1.0615155696868896,-1.5601952075958252
1684200709008323300,4.2263232421875,-1.6071736812591553,0.8598390817642212,-1.4530582427978516
1684200709018348500,4.2363486328125,-1.4045076370239258,0.36868372559547424,-1.1562981605529785
1684200709028373500,4.24637353515625,-1.2291958332061768,-0.1438421756029129,-0.7027215957641602
1684200709038397400,4.2563974609375,-1.2036770582199097,-0.5846384763717651,-0.20269016921520233
1684200709048422700,4.266422607421875,-1.1878541707992554,-1.443096399307251,0.21470996737480164
1684200709058446300,4.2764462890625,-0.8969766497612,-2.0569162368774414,0.5720821619033813
1684200709068471600,4.286471435546875,-0.35564491152763367,-1.666597604751587,0.605235755443573
1684200709078495500,4.29649560546875,0.031213322654366493,-0.5370739698410034,0.4717996418476105
1684200709088520400,4.3065205078125,0.09268707036972046,0.7570663094520569,0.4690791368484497
1684200709098545700,4.316545654296875,0.04491474851965904,1.7523657083511353,0.5988014340400696
1684200709108569300,4.3265693359375,0.12515419721603394,2.3800723552703857,0.812689483165741
1684200709118594300,4.33659423828125,0.23124654591083527,2.347266912460327,0.983866810798645
1684200709128618500,4.346618408203125,0.26430779695510864,1.4520684480667114,0.9766683578491211
1684200709138643500,4.3566435546875,0.22494976222515106,0.3708828091621399,0.6439223885536194
1684200709148668400,4.36666845703125,0.0988493487238884,-0.08189945667982101,0.05587533488869667
1684200709158692400,4.3766923828125,-0.056882187724113464,-0.21051228046417236,-0.4181827902793884
1684200709168717300,4.38671728515625,-0.18869587779045105,-0.2597444951534271,-0.7328630685806274
1684200709178741500,4.396741455078125,-0.31745970249176025,-0.3412476181983948,-0.9614744186401367
1684200709188766500,4.406766357421875,-0.3745461702346802,-0.5627038478851318,-0.938069224357605
1684200709198790700,4.416790771484375,-0.47822970151901245,-0.7554780840873718,-0.801779568195343
1684200709208815600,4.426815673828125,-0.596992015838623,-0.8383398056030273,-0.6135256290435791
1684200709218840300,4.43684033203125,-0.6068435907363892,-1.01222825050354,-0.46785497665405273
1684200709228864500,4.446864501953125,-0.5053721070289612,-1.27857506275177,-0.42035502195358276
1684200709238889500,4.456889404296875,-0.2876158058643341,-1.5121281147003174,-0.47447389364242554
1684200709248913400,4.466913330078125,-0.021429650485515594,-1.5435056686401367,-0.6239315271377563
1684200709258938600,4.476938720703125,0.1873651146888733,-1.3071333169937134,-0.7729553580284119
1684200709268963600,4.486963623046875,0.27948781847953796,-0.8520075678825378,-0.8472819924354553
1684200709278987500,4.496987548828125,0.27906519174575806,-0.4085749685764313,-0.8131980895996094
1684200709289012500,4.507012451171875,0.2328236699104309,-0.11470852792263031,-0.6842736601829529
1684200709299036400,4.517036376953125,0.13563479483127594,-0.0919286459684372,-0.5796340703964233
1684200709309061600,4.5270615234375,0.07243772596120834,-0.1092565730214119,-0.44181355834007263
1684200709319086600,4.537086669921875,0.053467757999897,-0.2047623246908188,-0.2701949179172516
1684200709329110300,4.5471103515625,0.000975786242634058,-0.17340593039989471,-0.1636030375957489
1684200709339135500,4.557135498046875,-0.059118177741765976,-0.02906925603747368,-0.12284361571073532
1684200709349159400,4.567159423828125,-0.04376984387636185,0.1562538594007492,-0.09367042779922485
1684200709359184400,4.577184326171875,-0.005276246927678585,0.3627889156341553,-0.07905127108097076
1684200709369208600,4.58720849609375,0.00685498584061861,0.6146764755249023,-0.06670045852661133
1684200709379233300,4.5972333984375,0.031046342104673386,0.8914731740951538,-0.028698215261101723
1684200709389258500,4.607258544921875,0.03298245742917061,1.0681281089782715,-0.0015657017938792706
1684200709399282400,4.617282470703125,0.017140643671154976,1.0457689762115479,0.0111162718385458
1684200709409307400,4.627307373046875,-0.05179554596543312,0.8980260491371155,-0.0038787839002907276
1684200709419331600,4.63733154296875,-0.09156718850135803,0.7509681582450867,-0.009447187185287476
1684200709429356500,4.6473564453125,-0.08547121286392212,0.6041531562805176,-0.02132987044751644
1684200709439381200,4.65738134765625,-0.06424050033092499,0.516400158405304,-0.04326579347252846
1684200709449405400,4.667405517578125,-0.015479080379009247,0.49494078755378723,-0.06695627421140671
1684200709459430400,4.677430419921875,0.025947721675038338,0.4971786439418793,-0.08534939587116241
1684200709469454600,4.68745458984375,0.06413984298706055,0.47239041328430176,-0.08053679764270782
1684200709479479600,4.6974794921875,0.0894731655716896,0.4596596956253052,-0.0661701038479805
1684200709489503500,4.70750341796875,0.12184733897447586,0.4626763164997101,-0.05847389996051788
1684200709499528400,4.717528564453125,0.14322641491889954,0.48000845313072205,-0.06892947107553482
1684200709509553400,4.727553466796875,0.1583816558122635,0.48446622490882874,-0.09302705526351929
1684200709519577600,4.73757763671875,0.16839833557605743,0.49033209681510925,-0.1293637603521347
1684200709529602600,4.7476025390625,0.16302300989627838,0.47731855511665344,-0.1600617915391922
1684200709539626200,4.757626220703125,0.13609978556632996,0.4378473162651062,-0.18819782137870789
1684200709549651500,4.7676513671875,0.10514932125806808,0.3985082507133484,-0.18928144872188568
1684200709559676400,4.777676513671875,0.07183957099914551,0.3809572458267212,-0.17065156996250153
1684200709569700400,4.787700439453125,0.04054476320743561,0.3732025921344757,-0.13486675918102264
1684200709579725600,4.7977255859375,0.002705506281927228,0.3606671094894409,-0.10117670148611069
1684200709589749500,4.80774951171875,-0.07231707125902176,0.2457936406135559,-0.12007258087396622
1684200709599774500,4.8177744140625,-0.0807180106639862,0.2552712857723236,-0.07481588423252106
1684200709609799400,4.82779931640625,-0.08149432390928268,0.27511560916900635,-0.006802120711654425
1684200709619823400,4.8378232421875,-0.11372789740562439,0.2774794399738312,-0.014380944892764091
1684200709629848600,4.8478486328125,-0.14576998353004456,0.3010575771331787,-0.034880004823207855
1684200709639872500,4.85787255859375,-0.1764325499534607,0.30399399995803833,-0.0653204694390297
1684200709649897500,4.8678974609375,-0.2115870714187622,0.2882024943828583,-0.10444082319736481
1684200709659921700,4.877921630859375,-0.25091636180877686,0.28878119587898254,-0.14506122469902039
1684200709669946600,4.887946533203125,-0.28235793113708496,0.31951314210891724,-0.18526896834373474
1684200709679971600,4.8979716796875,-0.31416192650794983,0.3574591875076294,-0.2185923010110855
1684200709689995500,4.90799560546875,-0.3367849588394165,0.3937125504016876,-0.23539692163467407
1684200709700020500,4.9180205078125,-0.34134721755981445,0.4094691574573517,-0.2281414121389389
1684200709710044700,4.928044677734375,-0.3462218642234802,0.44535237550735474,-0.18782475590705872
1684200709720069600,4.938069580078125,-0.34020763635635376,0.4580940008163452,-0.1483583003282547
1684200709730094600,4.948094482421875,-0.32859334349632263,0.4229324758052826,-0.14022943377494812
1684200709740118800,4.958118896484375,-0.27687475085258484,0.4363771677017212,-0.11480503529310226
1684200709750143500,4.9681435546875,-0.21471495926380157,0.39687803387641907,-0.11581344157457352
1684200709760167700,4.978167724609375,-0.14036136865615845,0.37652960419654846,-0.13541831076145172
1684200709770192600,4.988192626953125,-0.033841583877801895,0.3116839826107025,-0.17827516794204712
1684200709780216600,4.998216552734375,0.06312064826488495,0.20240621268749237,-0.2242724895477295
1684200709790241800,5.00824169921875,0.12375310808420181,0.06676669418811798,-0.250800758600235
1684200709800266800,5.018266845703125,0.1972675323486328,-0.007192750461399555,-0.23296236991882324
1684200709810290700,5.028290771484375,0.25885018706321716,-0.043551795184612274,-0.2066200226545334
1684200709820315600,5.038315673828125,0.26952093839645386,-0.015095650218427181,-0.17610152065753937
1684200709830339600,5.048339599609375,0.2655866742134094,0.0940045565366745,-0.128697469830513
1684200709840364800,5.05836474609375,0.24662549793720245,0.17358726263046265,-0.07621481269598007
1684200709850389800,5.0683896484375,0.21926870942115784,0.2832053601741791,0.002728354651480913
1684200709860413400,5.078413330078125,0.1996617168188095,0.45783495903015137,0.10800577700138092
1684200709870438700,5.088438720703125,0.1999373584985733,0.6137276291847229,0.20880085229873657
1684200709880462600,5.098462646484375,0.22729387879371643,0.7427692413330078,0.29759570956230164
1684200709890487600,5.108487548828125,0.2446555644273758,0.9592922925949097,0.3815317749977112
1684200709900511700,5.11851171875,0.2680354416370392,1.2331629991531372,0.4500966966152191
1684200709910536400,5.128536376953125,0.2766566276550293,1.4871385097503662,0.48200252652168274
1684200709920561700,5.138561767578125,0.28825893998146057,1.6502225399017334,0.47305911779403687
1684200709930585600,5.148585693359375,0.29021769762039185,1.7281914949417114,0.4816513657569885
1684200709940610600,5.158610595703125,0.28846293687820435,1.7066680192947388,0.5020376443862915
1684200709950634800,5.168634765625,0.28289639949798584,1.6409603357315063,0.506915807723999
1684200709960659700,5.17865966796875,0.26804450154304504,1.521725058555603,0.47778111696243286
1684200709970684400,5.188684326171875,0.27499374747276306,1.3326616287231445,0.3968392014503479
1684200709980708600,5.19870849609375,0.3199644088745117,1.1481168270111084,0.2704881727695465
1684200709990733600,5.208733642578125,0.3239873945713043,0.9621317386627197,0.1390012949705124
1684200710000757800,5.2187578125,0.25025591254234314,0.7939949035644531,-0.01949913613498211
1684200710010782700,5.22878271484375,0.11638626456260681,0.6017502546310425,-0.28227534890174866
1684200710020806700,5.238806640625,0.008301874622702599,0.5579508543014526,-0.4111526310443878
1684200710030831600,5.24883154296875,-0.032580841332674026,0.7876061797142029,-0.20456089079380035
1684200710040856600,5.258856689453125,-0.0058168694376945496,0.8257421255111694,-0.044402915984392166
1684200710050880800,5.268880859375,0.00807470828294754,0.656138002872467,-0.06743067502975464
1684200710060905700,5.27890576171875,0.0007371667306870222,0.565342366695404,-0.03216056525707245
1684200710070929400,5.288929443359375,0.014336064457893372,0.6265450119972229,0.10328976064920425
1684200710080954600,5.29895458984375,0.04813503846526146,0.8236991167068481,0.2943071126937866
1684200710090979600,5.3089794921875,0.11421287059783936,1.0191646814346313,0.40497156977653503
1684200710101003500,5.31900341796875,0.20573826134204865,1.1448479890823364,0.4682871401309967
1684200710111028700,5.32902880859375,0.33304718136787415,1.2830144166946411,0.545721173286438
1684200710121052700,5.339052734375,0.4934326112270355,1.571056842803955,0.6875264644622803
1684200710131077600,5.34907763671875,0.6030584573745728,1.9449145793914795,0.8472068905830383
1684200710141102600,5.3591025390625,0.6734750866889954,2.280103921890259,0.9817266464233398
1684200710151126500,5.36912646484375,0.6957995295524597,2.419062614440918,1.0647717714309692
1684200710161151700,5.37915185546875,0.6705266833305359,2.4715778827667236,1.1419538259506226
1684200710171175700,5.38917578125,0.6308770179748535,2.596008539199829,1.256291389465332
1684200710181200600,5.39920068359375,0.5641887784004211,2.746094226837158,1.3630937337875366
1684200710191224600,5.409224609375,0.5088152885437012,2.815056085586548,1.4236202239990234
1684200710201249500,5.41924951171875,0.44603073596954346,2.799736261367798,1.4426878690719604
1684200710211274500,5.4292744140625,0.3735642731189728,2.8086562156677246,1.4454330205917358
1684200710221298700,5.439298583984375,0.29917311668395996,2.8993024826049805,1.4224331378936768
1684200710231323600,5.44932373046875,0.23217038810253143,2.869337797164917,1.3357982635498047
1684200710241347600,5.45934765625,0.17350387573242188,2.8481266498565674,1.2630034685134888
1684200710251372500,5.46937255859375,0.12580932676792145,2.7670440673828125,1.1699451208114624
1684200710261397500,5.4793974609375,0.0754108726978302,2.632188320159912,1.101564645767212
1684200710271421700,5.489421630859375,0.007288007065653801,2.5849666595458984,1.0595691204071045
1684200710281446700,5.49944677734375,-0.044548824429512024,2.6308271884918213,1.0531363487243652
1684200710291470600,5.509470703125,-0.08925903588533401,2.6980538368225098,1.0540857315063477
1684200710301495600,5.51949560546875,-0.13019980490207672,2.791661024093628,1.093127727508545
1684200710311520500,5.5295205078125,-0.14672525227069855,2.8854691982269287,1.169148325920105
1684200710321544700,5.539544677734375,-0.14414118230342865,2.997194528579712,1.2537964582443237
1684200710331569700,5.549569580078125,-0.11240297555923462,3.1048598289489746,1.3418705463409424
1684200710341593900,5.55959375,-0.05648697167634964,3.20631742477417,1.4181811809539795
1684200710351618600,5.56961865234375,0.01532463077455759,3.3018906116485596,1.482427716255188
1684200710361642500,5.579642578125,0.0738672986626625,3.384695529937744,1.5440597534179688
1684200710371667700,5.589667724609375,0.11379048228263855,3.4639241695404053,1.577841877937317
1684200710381692700,5.599692626953125,0.13625851273536682,3.506756067276001,1.5637987852096558
1684200710391716600,5.609716552734375,0.1553587019443512,3.516033887863159,1.5315086841583252
1684200710401741800,5.619741943359375,0.19286426901817322,3.516939878463745,1.5254031419754028
1684200710411765500,5.629765625,0.22032864391803741,3.4902946949005127,1.5246875286102295
1684200710421790700,5.639790771484375,0.2049877792596817,3.445070266723633,1.5260303020477295
1684200710431815700,5.649815673828125,0.18214450776576996,3.423307418823242,1.5429133176803589
1684200710441839600,5.659839599609375,0.18032291531562805,3.4724066257476807,1.6016024351119995
1684200710451864800,5.66986474609375,0.13972194492816925,3.485060691833496,1.6414519548416138
1684200710461888500,5.679888427734375,0.07484308630228043,3.4423985481262207,1.6485114097595215
1684200710471913500,5.68991357421875,0.04153040051460266,3.40693736076355,1.6419956684112549
1684200710481937700,5.699937744140625,0.00972320232540369,3.377932548522949,1.6541426181793213
1684200710491962600,5.709962646484375,-0.032579779624938965,3.3560068607330322,1.6751430034637451
1684200710501987600,5.719987548828125,-0.07032689452171326,3.371948003768921,1.6866893768310547
1684200710512011500,5.730011474609375,-0.09588684886693954,3.4017224311828613,1.6636958122253418
1684200710522036500,5.740036376953125,-0.09960328787565231,3.4245951175689697,1.6326451301574707
1684200710532060700,5.750060791015625,-0.0904097929596901,3.478698492050171,1.6105519533157349
1684200710542085600,5.760085693359375,-0.07984715700149536,3.5315747261047363,1.6064858436584473
1684200710552110600,5.770110595703125,-0.055851541459560394,3.6109707355499268,1.6285814046859741
1684200710562134800,5.780134765625,-0.06339654326438904,3.664501667022705,1.646284818649292
1684200710572159500,5.790159423828125,-0.056353021413087845,3.7570760250091553,1.6476471424102783
1684200710582183700,5.80018359375,-0.04314587637782097,3.8624267578125,1.648725986480713
1684200710592208600,5.810208740234375,-0.057192444801330566,3.9438607692718506,1.654719352722168
1684200710602233600,5.820233642578125,-0.07734458893537521,3.9942455291748047,1.6410547494888306
1684200710612257800,5.8302578125,-0.06812978535890579,4.070871353149414,1.6080471277236938
1684200710622282800,5.84028271484375,-0.056472327560186386,4.197846412658691,1.5957214832305908
1684200710632306400,5.850306396484375,-0.07794725149869919,4.145569801330566,1.5695276260375977
1684200710642331400,5.860331298828125,-0.10625559091567993,4.015402793884277,1.5712248086929321
1684200710652355300,5.870355224609375,-0.148374542593956,3.896859645843506,1.5974414348602295
1684200710662380500,5.880380615234375,-0.17703361809253693,3.8629612922668457,1.6245115995407104
1684200710672405200,5.8904052734375,-0.20370064675807953,3.8444621562957764,1.63853120803833
1684200710682429400,5.900429443359375,-0.21156710386276245,3.8141250610351562,1.6501553058624268
1684200710692454400,5.910454345703125,-0.19045490026474,3.8578596115112305,1.680845856666565
1684200710702478300,5.920478271484375,-0.1618189960718155,3.8645663261413574,1.6778721809387207
1684200710712503600,5.930503662109375,-0.1841120570898056,3.759960651397705,1.6103557348251343
1684200710722528500,5.940528564453125,-0.19895252585411072,3.567366600036621,1.4573651552200317
1684200710732552200,5.95055224609375,-0.18293306231498718,3.4870035648345947,1.3532694578170776
1684200710742577400,5.960577392578125,-0.14601658284664154,3.44342303276062,1.3194941282272339
1684200710752601300,5.970601318359375,-0.08509918302297592,3.4160776138305664,1.2731655836105347
1684200710762626300,5.980626220703125,-0.04626709222793579,3.3753223419189453,1.1874229907989502
1684200710772650200,5.990650146484375,-0.05847316235303879,3.2726616859436035,1.093069076538086
1684200710782675200,6.00067529296875,-0.08360301703214645,3.1616668701171875,1.026667594909668
1684200710792700400,6.010700439453125,-0.09641708433628082,3.036492347717285,0.9923853278160095
1684200710802724400,6.020724365234375,-0.09195016324520111,2.8105926513671875,0.9719477295875549
1684200710812749300,6.030749267578125,-0.14876390993595123,2.5517637729644775,0.9511967301368713
1684200710822773500,6.0407734375,-0.21571286022663116,2.285369873046875,0.8839199542999268
1684200710832798200,6.050798095703125,-0.260942667722702,2.066317081451416,0.7881678342819214
1684200710842823200,6.0608232421875,-0.2644369900226593,1.8810155391693115,0.6902569532394409
1684200710852847400,6.070847412109375,-0.2911530137062073,1.7352354526519775,0.6137645840644836
1684200710862872300,6.080872314453125,-0.32213330268859863,1.534140944480896,0.5487783551216125
1684200710872896500,6.090896484375,-0.3385713994503021,1.2318633794784546,0.5144083499908447
1684200710882921500,6.10092138671875,-0.349488228559494,0.8719338774681091,0.5131164193153381
1684200710892946200,6.1109462890625,-0.3609403669834137,0.5337634682655334,0.5376227498054504
1684200710902970400,6.120970458984375,-0.36431723833084106,0.23200973868370056,0.578590452671051
1684200710912995300,6.130995361328125,-0.33616843819618225,-0.013936087489128113,0.630678117275238
1684200710923019500,6.14101953125,-0.30216333270072937,-0.13986365497112274,0.7366114854812622
1684200710933044500,6.15104443359375,-0.08939965069293976,-0.3717453181743622,0.8411029577255249
1684200710943068200,6.161068115234375,0.2697356045246124,-0.43275007605552673,1.011151671409607
1684200710953093400,6.17109326171875,0.5610281825065613,-0.22341880202293396,1.181779384613037
1684200710963118300,6.181118408203125,0.8360978364944458,0.09245874732732773,1.2784627676010132
1684200710973142300,6.191142333984375,1.1344094276428223,0.3453092575073242,1.2959377765655518
1684200710983167500,6.20116748046875,1.4248900413513184,0.5522171854972839,1.278279423713684
1684200710993191200,6.211191162109375,1.5432734489440918,0.6956859230995178,1.3120321035385132
1684200711003216400,6.22121630859375,1.5052847862243652,0.7264078855514526,1.3824740648269653
1684200711013241300,6.231241455078125,1.443966269493103,0.5896478891372681,1.4694336652755737
1684200711023265300,6.241265380859375,1.3770194053649902,0.26788902282714844,1.5737550258636475
1684200711033290500,6.25129052734375,1.2908501625061035,-0.3308485746383667,1.7164596319198608
1684200711043314400,6.261314453125,1.138529896736145,-1.1729352474212646,1.921172022819519
1684200711053339100,6.271339111328125,0.8333179950714111,-1.9527350664138794,2.0610501766204834
1684200711063364400,6.2813642578125,0.4970976710319519,-2.045508623123169,2.007068157196045
1684200711073388300,6.29138818359375,0.23315441608428955,-1.7088227272033691,1.5717790126800537
1684200711083413200,6.301413330078125,0.006321280263364315,-1.1933830976486206,1.0453873872756958
1684200711093437400,6.3114375,-0.1313641369342804,-0.600936770439148,0.7535321116447449
1684200711103462100,6.321462158203125,-0.2717961072921753,0.04244194179773331,0.5816280245780945
1684200711113486300,6.331486328125,-0.3912167549133301,0.6804056763648987,0.4557633101940155
1684200711123511300,6.34151123046875,-0.45754626393318176,1.1962131261825562,0.38562631607055664
1684200711133536300,6.351536376953125,-0.40063023567199707,1.5284429788589478,0.34590446949005127
1684200711143560400,6.361560546875,-0.27035319805145264,1.7400835752487183,0.24277302622795105
1684200711153585400,6.37158544921875,-0.2035565823316574,1.7905861139297485,0.03092915005981922
1684200711163609300,6.381609375,-0.11927738785743713,1.9162648916244507,-0.21798080205917358
1684200711173634300,6.39163427734375,-0.018904980272054672,2.05548095703125,-0.46011486649513245
1684200711183659300,6.4016591796875,0.04002198576927185,2.087589979171753,-0.7171298861503601
1684200711193683500,6.411683349609375,-0.0120582589879632,1.893432855606079,-1.0022697448730469
1684200711203708400,6.42170849609375,-0.05619083344936371,1.734940767288208,-1.2049459218978882
1684200711213732400,6.431732421875,-0.12299835681915283,1.460004448890686,-1.3397564888000488
1684200711223757300,6.44175732421875,-0.20381012558937073,1.1091558933258057,-1.4135247468948364
1684200711233782300,6.4517822265625,-0.28832367062568665,0.8173924088478088,-1.4199637174606323
1684200711243806500,6.461806396484375,-0.32871079444885254,0.5384926199913025,-1.3837559223175049
1684200711253831400,6.47183154296875,-0.3365729749202728,0.3597041964530945,-1.33220374584198
1684200711263855400,6.48185546875,-0.36241281032562256,0.2612980008125305,-1.2814031839370728
1684200711273880300,6.49188037109375,-0.4106799364089966,0.21249550580978394,-1.2235298156738281
1684200711283904300,6.501904296875,-0.4686463177204132,0.18863677978515625,-1.1756318807601929
1684200711293929200,6.51192919921875,-0.5180830955505371,0.20929373800754547,-1.1459693908691406
1684200711303954400,6.521954345703125,-0.5693705081939697,0.2630232870578766,-1.1408811807632446
1684200711313978400,6.531978271484375,-0.5843446850776672,0.34230244159698486,-1.1482644081115723
1684200711324003300,6.54200341796875,-0.5653680562973022,0.4371999502182007,-1.1548216342926025
1684200711334027300,6.55202734375,-0.5340359807014465,0.5103795528411865,-1.127217411994934
1684200711344052200,6.56205224609375,-0.49043071269989014,0.5098597407341003,-1.047367811203003
1684200711354077400,6.572077392578125,-0.4470272958278656,0.45526400208473206,-0.900472104549408
1684200711364101400,6.582101318359375,-0.4049440324306488,0.4118800461292267,-0.7258824706077576
1684200711374126300,6.592126220703125,-0.3802400231361389,0.325705349445343,-0.5994601845741272
1684200711384150300,6.602150390625,-0.3350120782852173,0.36890900135040283,-0.5039283633232117
1684200711394175200,6.61217529296875,-0.2878594994544983,0.4820474088191986,-0.47216734290122986
1684200711404200200,6.6222001953125,-0.2430507391691208,0.6225629448890686,-0.48358964920043945
1684200711414224400,6.632224365234375,-0.19109565019607544,0.7861080169677734,-0.5335681438446045
1684200711424249300,6.642249267578125,-0.1434279978275299,0.969577431678772,-0.6115971803665161
1684200711434273300,6.652273193359375,-0.13946761190891266,1.191447138786316,-0.6941299438476562
1684200711444298200,6.66229833984375,-0.11964357644319534,1.3561115264892578,-0.7730526924133301
1684200711454323200,6.6723232421875,-0.13454583287239075,1.3524765968322754,-0.8600027561187744
1684200711464347400,6.682347412109375,-0.25102901458740234,1.3369866609573364,-1.0467318296432495
1684200711474372400,6.692372314453125,-0.49700233340263367,1.2915130853652954,-1.31157386302948
1684200711484396500,6.702396484375,-0.7995573878288269,0.862189769744873,-1.4920320510864258
1684200711494421200,6.712421142578125,-0.9978598356246948,0.05471035838127136,-1.3778680562973022
1684200711504445400,6.722445556640625,-1.0098650455474854,-1.0749149322509766,-1.0934280157089233
1684200711514470400,6.732470458984375,-1.0212042331695557,-1.94673490524292,-0.6769934892654419
1684200711524495400,6.742495361328125,-1.239556074142456,-2.4446659088134766,-0.03434184566140175
1684200711534519600,6.75251953125,-1.4899866580963135,-3.0946900844573975,0.8990443348884583
1684200711544544300,6.762544189453125,-1.18987238407135,-3.230191230773926,1.4507663249969482
1684200711554568200,6.772568115234375,-0.1872236728668213,-1.960129737854004,0.9739952683448792
1684200711564593400,6.782593505859375,0.6569948792457581,0.0719708651304245,0.3764871060848236
1684200711574618400,6.792618408203125,0.7767956256866455,1.8827933073043823,0.49158546328544617
1684200711584642300,6.802642333984375,0.6687160134315491,3.115361452102661,0.8300191760063171
1684200711594667500,6.81266748046875,0.5951347351074219,3.7684638500213623,0.9464225769042969
1684200711604691200,6.822691162109375,0.37536054849624634,4.019896507263184,0.762012243270874
1684200711614716400,6.83271630859375,0.08633408695459366,3.8228940963745117,0.35430285334587097
1684200711624741400,6.842741455078125,-0.14172090590000153,2.8126025199890137,0.0386415533721447
1684200711634766000,6.85276611328125,-0.24467311799526215,0.9542250633239746,-0.0019099450437352061
1684200711644791000,6.862791015625,-0.21571284532546997,-0.8224551677703857,0.15195870399475098
1684200711654815200,6.872815185546875,-0.2526506185531616,-1.8962340354919434,0.168455570936203
1684200711664840000,6.88283984375,-0.25223490595817566,-2.19122314453125,-0.03795379027724266
1684200711674865000,6.892864990234375,-0.2391771525144577,-2.026865005493164,-0.342700332403183
1684200711684889000,6.90288916015625,-0.18797309696674347,-1.617566466331482,-0.5594989657402039
1684200711694914000,6.9129140625,-0.14649994671344757,-1.1761744022369385,-0.6760567426681519
1684200711704938200,6.922938232421875,-0.13497325778007507,-0.6342536211013794,-0.726119339466095
1684200711714963200,6.932963134765625,-0.03941238671541214,-0.08225368708372116,-0.8089001774787903
1684200711724987100,6.942987060546875,0.1632390022277832,0.3156891465187073,-0.8635695576667786
1684200711735012000,6.95301220703125,0.2771112322807312,0.5149467587471008,-0.8031435012817383
1684200711745037000,6.963037109375,0.17316380143165588,0.5821396708488464,-0.7174264788627625
1684200711755061200,6.973061279296875,-0.02557193674147129,0.48132213950157166,-0.6358544826507568
1684200711765086200,6.983086181640625,-0.2615799605846405,0.06992686539888382,-0.6736354231834412
1684200711775110000,6.99310986328125,-0.47486504912376404,-0.4641622304916382,-0.7140999436378479
1684200711785135000,7.003135009765625,-0.6586703062057495,-0.7710651755332947,-0.5970747470855713
1684200711795160000,7.01316015625,-0.7202183604240417,-0.6712883710861206,-0.35557907819747925
1684200711805184000,7.02318408203125,-0.6285036206245422,-0.3332024812698364,-0.1650828868150711
1684200711815209200,7.033209228515625,-0.4028979241847992,0.13457319140434265,-0.036570899188518524
1684200711825233000,7.04323291015625,-0.18490086495876312,0.49882304668426514,0.02909785881638527
1684200711835258000,7.053258056640625,-0.05703771859407425,0.6796609163284302,0.06530661135911942
1684200711845283000,7.063282958984375,0.0012484907638281584,0.7699026465415955,0.05742897465825081
1684200711855307000,7.07330712890625,0.06178773194551468,0.84717857837677,0.01719275675714016
1684200711865332200,7.083332275390625,0.18472245335578918,0.833808422088623,-0.03570214658975601
1684200711875356200,7.093356201171875,0.2814151644706726,0.7907239198684692,-0.053141072392463684
1684200711885380900,7.103380859375,0.3215519189834595,0.7448214292526245,-0.029498860239982605
1684200711895406000,7.113406005859375,0.32195964455604553,0.6028164029121399,-0.03398587182164192
1684200711905430000,7.123429931640625,0.29059720039367676,0.428981751203537,-0.05399526283144951
1684200711915455000,7.133455078125,0.26580023765563965,0.2766875922679901,-0.10432815551757812
1684200711925479200,7.143479248046875,0.20251289010047913,0.1361677497625351,-0.13342586159706116
1684200711935504100,7.153504150390625,0.1416149139404297,0.022019514814019203,-0.13465461134910583
1684200711945528000,7.163528076171875,0.08705207705497742,-0.127104714512825,-0.1345246434211731
1684200711955553000,7.173552978515625,0.057060357183218,-0.20585897564888,-0.13717450201511383
1684200711965578000,7.183577880859375,0.03068627417087555,-0.21155041456222534,-0.14340950548648834
1684200711975602200,7.193602294921875,0.005797436460852623,-0.17370088398456573,-0.16002832353115082
1684200711985627100,7.203627197265625,-0.0230999905616045,-0.0867563933134079,-0.18331500887870789
1684200711995651000,7.213651123046875,-0.05323552340269089,0.018821896985173225,-0.19469836354255676
1684200712005676000,7.223676025390625,-0.08381260931491852,0.13922475278377533,-0.19948086142539978
1684200712015701000,7.233700927734375,-0.10437087714672089,0.24741093814373016,-0.19531475007534027
1684200712025725200,7.24372509765625,-0.11034754663705826,0.3270642161369324,-0.18437154591083527
1684200712035750100,7.253750244140625,-0.11423709243535995,0.3498755097389221,-0.1691514402627945
1684200712045774000,7.263774169921875,-0.09484368562698364,0.3180619180202484,-0.15985140204429626
1684200712055799000,7.273799072265625,-0.08587868511676788,0.2736608386039734,-0.13976286351680756
1684200712065824000,7.283823974609375,-0.08831228315830231,0.22497771680355072,-0.09506463259458542
1684200712075848200,7.29384814453125,-0.11639611423015594,0.15809251368045807,-0.02887836843729019
1684200712085873200,7.303873046875,-0.14596039056777954,0.10335735976696014,0.04171723872423172
1684200712095897000,7.31389697265625,-0.15581195056438446,0.10920097678899765,0.08068957179784775
1684200712105922000,7.323922119140625,-0.13417324423789978,0.13213343918323517,0.06383176147937775
1684200712115947000,7.333947021484375,-0.09905201196670532,0.19725587964057922,0.05322064831852913
1684200712125971200,7.34397119140625,-0.048651423305273056,0.23890559375286102,0.05552028864622116
1684200712135996200,7.35399609375,0.009707223623991013,0.27463582158088684,0.05109406262636185
1684200712146020000,7.36402001953125,0.08056328445672989,0.32794883847236633,0.06567646563053131
1684200712156045300,7.37404541015625,0.10134606063365936,0.32021158933639526,0.031189102679491043
1684200712166070000,7.384070068359375,0.12196984142065048,0.32139214873313904,-0.025483498349785805
1684200712176094000,7.394093994140625,0.10851449519395828,0.3198203444480896,-0.07749941200017929
1684200712186119200,7.404119140625,0.06405248492956161,0.3071540892124176,-0.11785349249839783
1684200712196143000,7.41414306640625,0.017129719257354736,0.30835941433906555,-0.1470082849264145
1684200712206168000,7.42416796875,0.000380832701921463,0.35334286093711853,-0.14648577570915222
1684200712216193300,7.434193359375,-0.002547045238316059,0.43733614683151245,-0.11839581280946732
1684200712226217000,7.444217041015625,0.03407115116715431,0.4916270971298218,-0.11157839000225067
1684200712236242200,7.4542421875,0.08815782517194748,0.5038486123085022,-0.11697006225585938
1684200712246266000,7.46426611328125,0.14406342804431915,0.449211984872818,-0.13540047407150269
1684200712256291000,7.474291015625,0.18023449182510376,0.3020966649055481,-0.16653859615325928
1684200712266315000,7.48431494140625,0.1598527878522873,0.1328096240758896,-0.20315200090408325
1684200712276340000,7.494340087890625,0.0985952839255333,0.058715447783470154,-0.2263968288898468
1684200712286365000,7.504364990234375,-0.013936851173639297,0.08775482326745987,-0.23436181247234344
1684200712296389000,7.51438916015625,-0.0943472757935524,0.17182324826717377,-0.24840521812438965
1684200712306414000,7.5244140625,-0.1579882949590683,0.2746601700782776,-0.24562087655067444
1684200712316438300,7.534438232421875,-0.20588418841362,0.4072810113430023,-0.1782178282737732
1684200712326463000,7.544462890625,-0.22530290484428406,0.566118061542511,-0.052512895315885544
1684200712336488000,7.554488037109375,-0.2343941330909729,0.6768195033073425,0.053192898631095886
1684200712346512100,7.56451220703125,-0.2185765504837036,0.718190610408783,0.08288075029850006
1684200712356537000,7.574537109375,-0.20813323557376862,0.7184718251228333,0.04545655474066734
1684200712366561300,7.584561279296875,-0.1774245947599411,0.7115167379379272,-0.015453135594725609
1684200712376586200,7.594586181640625,-0.12155812233686447,0.6723155975341797,-0.10434477776288986
1684200712386611000,7.60461083984375,-0.11004367470741272,0.6011500358581543,-0.1686026006937027
1684200712396635100,7.61463525390625,-0.09537552297115326,0.5467643737792969,-0.18622058629989624
1684200712406660000,7.62466015625,-0.03816975653171539,0.48698437213897705,-0.21938173472881317
1684200712416684000,7.63468408203125,0.037348706275224686,0.44377392530441284,-0.24548330903053284
1684200712426709200,7.644709228515625,0.10278443992137909,0.34684523940086365,-0.23922035098075867
1684200712436734200,7.654734130859375,0.18503215909004211,0.24551600217819214,-0.19563555717468262
1684200712446758100,7.664758056640625,0.2908424735069275,0.1362036168575287,-0.10432402044534683
1684200712456783000,7.674783203125,0.39204713702201843,0.02658749185502529,0.01369165163487196
1684200712466807000,7.68480712890625,0.4771828055381775,-0.1115562692284584,0.10821788758039474
1684200712476832300,7.694832275390625,0.5472532510757446,-0.31661197543144226,0.14870943129062653
1684200712486857200,7.704857177734375,0.6010770201683044,-0.5038657784461975,0.15119309723377228
1684200712496881000,7.714880859375,0.6677881479263306,-0.570164680480957,0.14237740635871887
1684200712506906000,7.724906005859375,0.7083443999290466,-0.47775083780288696,0.13531658053398132
1684200712516930000,7.734929931640625,0.6845511794090271,-0.21826675534248352,0.16298595070838928
1684200712526955000,7.744955078125,0.6816520690917969,0.09181228280067444,0.22437714040279388
1684200712536980200,7.754980224609375,0.6818667054176331,0.26979774236679077,0.2947593927383423
1684200712547004000,7.76500390625,0.7034516334533691,0.4023752510547638,0.40533196926116943
1684200712557029000,7.775029052734375,0.7094301581382751,0.5296109318733215,0.5990935564041138
1684200712567053000,7.785052978515625,0.6768440008163452,0.5583123564720154,0.8687876462936401
1684200712577078000,7.795078125,0.641745388507843,0.45713743567466736,1.155683159828186
1684200712587102200,7.805102294921875,0.5990551710128784,0.2612331807613373,1.3645771741867065
1684200712597127200,7.815127197265625,0.5436941981315613,-0.01660863868892193,1.4842642545700073
1684200712607151900,7.82515185546875,0.444125235080719,-0.16370567679405212,1.618557333946228
1684200712617176000,7.835176025390625,0.3259890079498291,-0.09827998280525208,1.819878339767456
1684200712627201000,7.845200927734375,0.20668925344944,0.014700897969305515,1.957879900932312
1684200712637224400,7.855224365234375,0.1511237472295761,0.0642990991473198,2.027087926864624
1684200712647249400,7.86524951171875,0.11497665196657181,0.03647838160395622,2.0405898094177246
1684200712657274400,7.8752744140625,0.10631285607814789,0.023162001743912697,2.0285613536834717
1684200712667298600,7.885298583984375,0.16543956100940704,0.07054629921913147,2.030925750732422
1684200712677323500,7.895323486328125,0.26909562945365906,0.21895591914653778,2.0509581565856934
1684200712687347500,7.905347412109375,0.4130440354347229,0.4708086848258972,2.099362373352051
1684200712697372400,7.915372314453125,0.5982658267021179,0.7740204334259033,2.064410448074341
1684200712707397400,7.9253974609375,0.7756344676017761,1.1397570371627808,1.9565256834030151
1684200712717421600,7.935421630859375,0.957440197467804,1.3983830213546753,1.7916773557662964
1684200712727446500,7.945446533203125,1.118343710899353,1.290592074394226,1.5179041624069214
1684200712737470500,7.955470458984375,1.1660104990005493,0.8687244653701782,1.2139767408370972
1684200712747495400,7.965495361328125,1.1214739084243774,0.27960342168807983,0.9207188487052917
1684200712757520400,7.975520263671875,1.0633842945098877,-0.3291330635547638,0.5382998585700989
1684200712767544600,7.985544677734375,1.0241636037826538,-0.8957679867744446,0.1490655392408371
1684200712777569500,7.995569580078125,1.0012532472610474,-1.3683005571365356,-0.0871838852763176
1684200712787593500,8.005593505859375,1.009798526763916,-1.6414806842803955,-0.12228887528181076
1684200712797618400,8.015618408203125,1.0656898021697998,-1.5833473205566406,-0.0011282048653811216
1684200712807643400,8.025643310546876,1.0702320337295532,-1.3640005588531494,0.18380889296531677
1684200712817667600,8.03566748046875,0.9847578406333923,-1.177351951599121,0.3376624286174774
1684200712827692500,8.045692626953125,0.7320233583450317,-1.2098864316940308,0.47949278354644775
1684200712837716500,8.055716552734374,0.4324169158935547,-1.1132501363754272,0.5764632225036621
1684200712847741400,8.065741455078125,0.28486210107803345,-0.6859598755836487,0.5942566394805908
1684200712857766400,8.075766357421875,0.2770425081253052,-0.13589346408843994,0.5190572142601013
1684200712867790300,8.085790283203124,0.3114297688007355,0.09808549284934998,0.38526451587677
1684200712877815600,8.095815673828126,0.30744674801826477,0.010509124957025051,0.23310452699661255
1684200712887839500,8.105839599609375,0.2710203230381012,-0.1306978017091751,0.12573865056037903
1684200712897864700,8.11586474609375,0.22285333275794983,-0.2355210781097412,0.07155567407608032
1684200712907889400,8.125889404296874,0.16929608583450317,-0.28614485263824463,0.050812844187021255
1684200712917913300,8.135913330078125,0.11501500010490417,-0.26166486740112305,0.007616377901285887
1684200712927938600,8.1459384765625,0.07165741175413132,-0.20209446549415588,-0.05548509210348129
1684200712937962500,8.15596240234375,0.01781068742275238,-0.1791587918996811,-0.13943040370941162
1684200712947987500,8.165987548828125,-0.08013078570365906,-0.1925896406173706,-0.22142194211483002
1684200712958012700,8.1760126953125,-0.18562792241573334,-0.18822744488716125,-0.3180578649044037
1684200712968036400,8.186036376953124,-0.27621400356292725,-0.11788271367549896,-0.45321622490882874
1684200712978061300,8.196061279296876,-0.33648720383644104,0.004193372093141079,-0.5844315886497498
1684200712988085500,8.20608544921875,-0.4228018522262573,0.11934659630060196,-0.6995576024055481
1684200712998110500,8.2161103515625,-0.5389588475227356,0.17881464958190918,-0.7942368984222412
1684200713008135700,8.2261357421875,-0.6857490539550781,0.19632865488529205,-0.8276174664497375
1684200713018159400,8.236159423828125,-0.8427373766899109,0.1537540853023529,-0.7912887930870056
1684200713028184300,8.246184326171875,-0.9770805239677429,0.0394887700676918,-0.7095617055892944
1684200713038208500,8.25620849609375,-1.0741026401519775,-0.1290462762117386,-0.584524393081665
1684200713048233500,8.2662333984375,-1.1368099451065063,-0.3315351903438568,-0.4327913522720337
1684200713058258400,8.276258544921875,-1.1316841840744019,-0.5501891374588013,-0.30539944767951965
1684200713068282400,8.286282470703124,-1.043737769126892,-0.7322556376457214,-0.2209053486585617
1684200713078307300,8.296307373046876,-0.8960258960723877,-0.7847261428833008,-0.17835518717765808
1684200713088331500,8.30633154296875,-0.7190796136856079,-0.6432949304580688,-0.15963158011436462
1684200713098356500,8.3163564453125,-0.5685739517211914,-0.31341761350631714,-0.15741729736328125
1684200713108381400,8.32638134765625,-0.43040040135383606,-0.0029974374920129776,-0.1618940681219101
1684200713118405600,8.336405517578125,-0.2662298381328583,0.25370776653289795,-0.15878720581531525
1684200713128430300,8.346430419921875,-0.0793994814157486,0.5784072875976562,-0.21662387251853943
1684200713138454500,8.35645458984375,0.08099338412284851,1.0057450532913208,-0.3785572052001953
1684200713148479500,8.3664794921875,0.1292397379875183,1.3452253341674805,-0.5435346961021423
1684200713158504400,8.37650439453125,0.13228826224803925,1.3651418685913086,-0.6347083449363708
1684200713168528600,8.386528564453124,0.0726289302110672,0.9394566416740417,-0.6568602323532104
1684200713178553600,8.3965537109375,0.01368385273963213,0.15948979556560516,-0.6940807104110718
1684200713188577500,8.40657763671875,0.03398565948009491,-0.6707218885421753,-0.8335403203964233
1684200713198602500,8.4166025390625,0.08513113856315613,-1.251438856124878,-1.004353404045105
1684200713208627500,8.42662744140625,0.12709829211235046,-1.497582197189331,-1.1286123991012573
1684200713218651600,8.436651611328125,0.18173064291477203,-1.4398562908172607,-1.134732961654663
1684200713228676600,8.446676513671875,0.19422993063926697,-1.1527149677276611,-1.0571420192718506
1684200713238701600,8.45670166015625,0.12002147734165192,-0.8437122702598572,-0.9994719624519348
1684200713248725500,8.4667255859375,0.00999218039214611,-0.4921899139881134,-1.0001764297485352
1684200713258750500,8.47675048828125,-0.13142913579940796,-0.02852831408381462,-1.0986199378967285
1684200713268774400,8.4867744140625,-0.4014579653739929,0.41469839215278625,-1.2610511779785156
1684200713278799600,8.496799560546876,-0.7130685448646545,0.8689919114112854,-1.2323427200317383
1684200713288823300,8.5068232421875,-0.9665626287460327,0.8732343316078186,-1.0369123220443726
1684200713298848500,8.5168486328125,-1.0190327167510986,0.41101863980293274,-0.6953522562980652
1684200713308873500,8.52687353515625,-0.9708897471427917,-0.03475376218557358,-0.37277281284332275
1684200713318897400,8.5368974609375,-0.989329993724823,-0.5586941242218018,0.014619230292737484
1684200713328922600,8.546922607421875,-1.1662524938583374,-1.3646446466445923,0.5432028770446777
1684200713338947600,8.556947509765624,-1.1455988883972168,-1.7282192707061768,1.0440398454666138
1684200713348971300,8.56697119140625,-0.6512140035629272,-0.5099034905433655,1.0917330980300903
1684200713358996500,8.57699658203125,-0.10034257918596268,1.3397853374481201,0.7717510461807251
1684200713369020400,8.5870205078125,0.24436739087104797,2.891786575317383,0.8311895728111267
1684200713379045400,8.59704541015625,0.5894403457641602,3.6523146629333496,1.2179564237594604
1684200713389069600,8.607069580078125,0.7426022291183472,3.3915581703186035,1.357431173324585
1684200713399094500,8.617094482421875,0.2673581838607788,2.6132757663726807,0.9775463342666626
1684200713409119500,8.627119384765624,-0.3944583833217621,1.610962986946106,0.08524729311466217
1684200713419143400,8.637143310546875,-0.40662288665771484,0.8518602848052979,-0.7162054181098938
1684200713429168400,8.64716845703125,-0.31308573484420776,0.11840518563985825,-1.1055729389190674
1684200713439192600,8.657192626953124,-0.19897566735744476,-0.7052532434463501,-1.0915054082870483
1684200713449217500,8.667217529296876,-0.17145057022571564,-1.4307105541229248,-0.9054274559020996
1684200713459242500,8.677242431640625,-0.24663615226745605,-1.5833189487457275,-0.7129719257354736
1684200713469266400,8.687266357421874,-0.288707971572876,-1.5027791261672974,-0.5703434348106384
1684200713479291400,8.69729150390625,-0.1887589991092682,-1.3633579015731812,-0.4438793659210205
1684200713489315600,8.707315673828125,-0.0222078338265419,-0.98460453748703,-0.31943997740745544
1684200713499340500,8.717340576171875,0.059662796556949615,-0.40665382146835327,-0.2331896275281906
1684200713509365500,8.727365478515624,0.14382266998291016,0.11007852852344513,-0.3241610825061798
1684200713519389400,8.737389404296875,0.16805212199687958,0.3686586022377014,-0.5003454685211182
1684200713529414400,8.747414306640625,0.09255523234605789,0.33954864740371704,-0.5808916687965393
1684200713539438600,8.7574384765625,0.01698404550552368,0.17145216464996338,-0.5098601579666138
1684200713549463600,8.767463623046876,0.06962382048368454,0.04720984771847725,-0.30778080224990845
1684200713559488500,8.777488525390625,0.062203988432884216,-0.10520422458648682,-0.08585316687822342
1684200713569512400,8.787512451171875,0.012849219143390656,-0.3003622889518738,0.05615962669253349
1684200713579537400,8.797537353515626,-0.07201480120420456,-0.4121371805667877,0.04419436305761337
1684200713589561300,8.807561279296875,-0.13727371394634247,-0.3308678865432739,-0.08718017488718033
1684200713599586600,8.817586669921875,-0.1539299190044403,-0.11334693431854248,-0.20017865300178528
1684200713609611500,8.827611572265624,-0.1529320329427719,-0.012440023943781853,-0.29365798830986023
1684200713619635500,8.837635498046875,-0.13093352317810059,0.001587310223840177,-0.3588087260723114
1684200713629660400,8.847660400390625,-0.08838978409767151,-0.1033921018242836,-0.42912763357162476
1684200713639686000,8.857685791015625,-0.06800195574760437,-0.34905195236206055,-0.5156449675559998
1684200713649709800,8.867709716796876,-0.0503835454583168,-0.5835776329040527,-0.6072694659233093
1684200713659735000,8.877735107421875,-0.02237987518310547,-0.5639416575431824,-0.6206265091896057
1684200713669759000,8.887759033203125,-0.031144071370363235,-0.4137478768825531,-0.5562939047813416
1684200713679784000,8.897783935546874,-0.025555161759257317,-0.3208228051662445,-0.5179620981216431
1684200713689809000,8.907808837890625,-0.03424771875143051,-0.3510805666446686,-0.5213701725006104
1684200713699832800,8.917832763671875,-0.024265926331281662,-0.37186533212661743,-0.5213690996170044
1684200713709858000,8.927858154296874,-0.004997157026082277,-0.31072527170181274,-0.4815923869609833
1684200713719882000,8.937882080078126,0.022403575479984283,-0.2077431082725525,-0.4007776379585266
1684200713729907000,8.947906982421875,0.03790077939629555,-0.12329693883657455,-0.32498806715011597
1684200713739932200,8.95793212890625,0.026927487924695015,-0.0710102990269661,-0.2540413737297058
1684200713749955800,8.967955810546876,0.006482666824012995,-0.00852268934249878,-0.16159826517105103
1684200713759980800,8.977980712890625,-0.01882321946322918,0.07972822338342667,-0.07545196264982224
1684200713770005000,8.9880048828125,-0.033293504267930984,0.19518958032131195,-0.01656201109290123
1684200713780030000,8.998030029296874,-0.04116075485944748,0.3205316364765167,0.018047548830509186
1684200713790054000,9.008053955078125,-0.04940137267112732,0.4100705683231354,0.0471484437584877
1684200713800078800,9.018078857421875,-0.06629140675067902,0.4419602155685425,0.05590451881289482
1684200713810103800,9.028103759765624,-0.09484874457120895,0.42856505513191223,0.04563004523515701
1684200713820128000,9.0381279296875,-0.1308930367231369,0.39771366119384766,0.02078309655189514
1684200713830153000,9.048153076171875,-0.17067641019821167,0.36779651045799255,-0.01259483303874731
1684200713840177200,9.05817724609375,-0.20834681391716003,0.3466729521751404,-0.050287872552871704
1684200713850201900,9.068201904296876,-0.23581838607788086,0.3437557518482208,-0.07904309034347534
1684200713860226800,9.078226806640625,-0.2525552809238434,0.3474295437335968,-0.0963798463344574
1684200713870251000,9.0882509765625,-0.25286659598350525,0.34501805901527405,-0.1093776673078537
1684200713880276000,9.09827587890625,-0.24574345350265503,0.32978498935699463,-0.11653397977352142
1684200713890300200,9.108300048828125,-0.23879793286323547,0.30210089683532715,-0.11789964884519577
1684200713900325000,9.1183251953125,-0.22955968976020813,0.25680777430534363,-0.10570456087589264
1684200713910349800,9.128349853515624,-0.2197542041540146,0.2082306444644928,-0.09217943251132965
1684200713920374000,9.1383740234375,-0.20629805326461792,0.16330398619174957,-0.08916285634040833
1684200713930399000,9.14839892578125,-0.19093534350395203,0.14546506106853485,-0.09044010937213898
1684200713940423000,9.1584228515625,-0.1678611785173416,0.16378852725028992,-0.09064675867557526
1684200713950448000,9.1684482421875,-0.15268781781196594,0.208445742726326,-0.09355653077363968
1684200713960473000,9.17847314453125,-0.13482919335365295,0.2731037139892578,-0.100186288356781
1684200713970496800,9.188496826171875,-0.12175466120243073,0.33241260051727295,-0.1029096394777298
1684200713980522000,9.19852197265625,-0.1147817075252533,0.3739508092403412,-0.10616792738437653
1684200713990547000,9.208546875,-0.11657188832759857,0.40681716799736023,-0.11004389077425003
1684200714000571100,9.218571044921875,-0.11734127253293991,0.4284854233264923,-0.10500964522361755
1684200714010596000,9.22859619140625,-0.13360653817653656,0.45568639039993286,-0.10206791758537292
1684200714020619800,9.238619873046876,-0.15254081785678864,0.509556770324707,-0.08787674456834793
1684200714030645000,9.24864501953125,-0.17334648966789246,0.5686213970184326,-0.07652714848518372
1684200714040669000,9.2586689453125,-0.19400276243686676,0.6070581078529358,-0.0743255764245987
1684200714050694000,9.26869384765625,-0.21125765144824982,0.606304943561554,-0.07627581059932709
1684200714060719000,9.278718994140625,-0.221235454082489,0.5829409956932068,-0.08543283492326736
1684200714070742800,9.28874267578125,-0.20288334786891937,0.585750937461853,-0.06524181365966797
1684200714080767700,9.298767822265624,-0.22553671896457672,0.45338529348373413,-0.10605975240468979
1684200714090793000,9.30879296875,-0.2265159636735916,0.3889796733856201,-0.1354336142539978
1684200714100817000,9.31881689453125,-0.22423523664474487,0.38553059101104736,-0.17170895636081696
1684200714110842000,9.328842041015625,-0.2181110382080078,0.3719913363456726,-0.20985926687717438
1684200714120866000,9.338865966796876,-0.20548738539218903,0.3838302195072174,-0.24872252345085144
1684200714130890800,9.348890869140625,-0.20096319913864136,0.4314992129802704,-0.27562180161476135
1684200714140916000,9.358916015625,-0.1714673638343811,0.4933810532093048,-0.30548906326293945
1684200714150940000,9.36893994140625,-0.1405925452709198,0.49775823950767517,-0.3426137864589691
1684200714160964900,9.37896484375,-0.12017460912466049,0.5109593868255615,-0.3789520263671875
1684200714170989000,9.388989013671875,-0.13487446308135986,0.5023365616798401,-0.42553868889808655
1684200714181014000,9.399013916015624,-0.15764743089675903,0.45584988594055176,-0.49378910660743713
1684200714191038700,9.409038818359376,-0.1691349744796753,0.3693951368331909,-0.5647852420806885
1684200714201063000,9.41906298828125,-0.16917385160923004,0.2933052182197571,-0.5951561331748962
1684200714211088000,9.429087890625,-0.12882696092128754,0.24694038927555084,-0.5719717144966125
1684200714221112000,9.439112060546876,-0.06845362484455109,0.21043069660663605,-0.526732325553894
1684200714231137000,9.449136962890625,0.0020157466642558575,0.22091956436634064,-0.4313139021396637
1684200714241161000,9.459160888671875,0.0639968290925026,0.30839967727661133,-0.2929327189922333
1684200714251186000,9.46918603515625,0.12687431275844574,0.37957507371902466,-0.17739202082157135
1684200714261211000,9.4792109375,0.18007788062095642,0.41558417677879333,-0.07440643012523651
1684200714271235000,9.489235107421875,0.2602885663509369,0.44712984561920166,0.05237894132733345
1684200714281260000,9.499260009765624,0.35722362995147705,0.4618181884288788,0.18960735201835632
1684200714291285000,9.509284912109376,0.46666330099105835,0.4153039753437042,0.3278549611568451
1684200714301309000,9.519308837890625,0.5807573795318604,0.3496682345867157,0.48934870958328247
1684200714311334000,9.529333984375,0.7391246557235718,0.2640465199947357,0.6618118286132812
1684200714321358000,9.539358154296876,0.9063645005226135,0.14416658878326416,0.8254150152206421
1684200714331383000,9.549383056640625,1.0890697240829468,0.08478500694036484,0.9445413947105408
1684200714341408000,9.559407958984375,1.1778093576431274,0.07281164824962616,1.1006053686141968
1684200714351432000,9.569431884765624,1.2398786544799805,0.19821085035800934,1.2298266887664795
1684200714361457000,9.579456787109375,1.2900906801223755,0.3317020833492279,1.3450461626052856
1684200714371480800,9.589480712890625,1.319498896598816,0.4542844593524933,1.4046043157577515
1684200714381506000,9.599506103515624,1.3694419860839844,0.40782105922698975,1.431273102760315
1684200714391531000,9.609531005859376,1.404077410697937,0.22196143865585327,1.631292462348938
1684200714401555000,9.619554931640625,1.2880946397781372,-0.028871197253465652,2.0137240886688232
1684200714411580000,9.629579833984375,1.0587620735168457,-0.09147625416517258,2.365426778793335
1684200714421603800,9.639603759765626,0.8184794187545776,0.10026692599058151,2.4590539932250977
1684200714431629000,9.649629150390625,0.656467080116272,0.33532899618148804,2.3269295692443848
1684200714441654000,9.659654052734375,0.591914176940918,0.4001722037792206,2.0974009037017822
1684200714451678000,9.669677978515624,0.5704547166824341,0.3002546727657318,1.8873248100280762
1684200714461703200,9.679703125,0.5392754673957825,0.16296109557151794,1.7307400703430176
1684200714471726800,9.689726806640625,0.5290231108665466,0.07170921564102173,1.651869535446167
1684200714481751800,9.699751708984374,0.6391341686248779,-0.0742955356836319,1.547584056854248
1684200714491777000,9.709777099609376,0.7679097056388855,-0.022854715585708618,1.4418206214904785
1684200714501801000,9.719801025390625,0.817936897277832,-0.025837339460849762,1.2226134538650513
1684200714511826000,9.729825927734375,0.7904211282730103,-0.15310394763946533,1.0501782894134521
1684200714521849900,9.739849853515626,0.7542971968650818,-0.42813605070114136,0.9154671430587769
1684200714531874800,9.749874755859375,0.7477919459342957,-0.7686893343925476,0.7350217700004578
1684200714541900000,9.759900146484375,0.7496345639228821,-1.0718086957931519,0.49879390001296997
1684200714551924000,9.769924072265624,0.7292565703392029,-1.3045992851257324,0.29456406831741333
1684200714561949000,9.779948974609376,0.7368218302726746,-1.359189748764038,0.21149088442325592
1684200714571972900,9.789972900390625,0.7712501287460327,-1.216486930847168,0.2599646747112274
1684200714581997800,9.799997802734374,0.8058304786682129,-1.0104082822799683,0.3882380723953247
1684200714592022800,9.810022705078126,0.8436744809150696,-0.8955141305923462,0.4700533151626587
1684200714602047000,9.820046875,0.8593708872795105,-0.7643629908561707,0.49141329526901245
1684200714612072000,9.830072021484375,0.7808867692947388,-0.6852055788040161,0.41380637884140015
1684200714622096100,9.84009619140625,0.6781081557273865,-0.656104564666748,0.23921403288841248
1684200714632120800,9.850120849609375,0.5913844704627991,-0.7233693599700928,0.059508178383111954
1684200714642145300,9.860145263671875,0.5312572121620178,-0.7864082455635071,-0.02850666269659996
1684200714652169200,9.870169189453126,0.47854340076446533,-0.8617647886276245,-0.07222112268209457
1684200714662194200,9.880194091796875,0.43360841274261475,-0.9019745588302612,-0.09299057722091675
1684200714672218400,9.89021826171875,0.3854760527610779,-0.9426279664039612,-0.10929445177316666
1684200714682243300,9.900243408203124,0.330064982175827,-0.8545352220535278,-0.11968463659286499
1684200714692268300,9.910268310546876,0.2962050139904022,-0.6999610662460327,-0.11999621987342834
1684200714702292200,9.920292236328125,0.25878655910491943,-0.5538638830184937,-0.15946827828884125
1684200714712317200,9.930317138671874,0.21650727093219757,-0.4359303414821625,-0.242028146982193
1684200714722341400,9.94034130859375,0.15864743292331696,-0.3590030372142792,-0.31606587767601013
1684200714732366300,9.950366455078125,0.08886675536632538,-0.3365155756473541,-0.36770644783973694
1684200714742391300,9.960391357421875,-0.004041614942252636,-0.33212101459503174,-0.4099612534046173
1684200714752415200,9.970415283203126,-0.09342768043279648,-0.3078095316886902,-0.4575258493423462
1684200714762440200,9.980440185546875,-0.20032112300395966,-0.26501885056495667,-0.5004414319992065
1684200714772464400,9.99046435546875,-0.3153741955757141,-0.2295343577861786,-0.5369736552238464
1684200714782489300,10.0004892578125,-0.39864885807037354,-0.1889515072107315,-0.5679583549499512
1684200714792514300,10.010514404296876,-0.46915099024772644,-0.12706656754016876,-0.5767508149147034
1684200714802538200,10.020538330078125,-0.5354522466659546,-0.09929254651069641,-0.5686312317848206
1684200714812563200,10.030563232421875,-0.6792663931846619,-0.10731052607297897,-0.5571085214614868
1684200714822587100,10.040587158203126,-0.797386646270752,-0.17895501852035522,-0.5400905013084412
1684200714832612400,10.0506123046875,-0.88420170545578,-0.3160380423069,-0.47372129559516907
1684200714842637300,10.06063720703125,-0.9854175448417664,-0.48346343636512756,-0.3679339587688446
1684200714852661200,10.0706611328125,-1.053287386894226,-0.6234328150749207,-0.22179833054542542
1684200714862686200,10.080686279296875,-1.049940824508667,-0.7417054772377014,-0.07648012042045593
1684200714872710100,10.090710205078125,-0.9459348320960999,-0.7882794141769409,0.0007123986724764109
1684200714882735400,10.1007353515625,-0.7447947859764099,-0.5021122097969055,0.10767867416143417
1684200714892760300,10.11076025390625,-0.4817858040332794,-0.08841171115636826,0.15286372601985931
1684200714902784300,10.1207841796875,-0.23028594255447388,0.2973915636539459,0.1277434080839157
1684200714912809500,10.1308095703125,-0.09813721477985382,0.6473338603973389,0.03642575070261955
1684200714922834200,10.140834228515626,0.05599642172455788,1.0197899341583252,-0.0933976098895073
1684200714932858000,10.150858154296875,0.14921024441719055,1.2680506706237793,-0.30420732498168945
1684200714942883300,10.16088330078125,0.19704648852348328,1.4376710653305054,-0.506632924079895
1684200714952907300,10.1709072265625,0.18900692462921143,1.3437179327011108,-0.6857414245605469
1684200714962932200,10.18093212890625,0.1351460963487625,1.0356693267822266,-0.8278774619102478
1684200714972957400,10.19095751953125,0.13353222608566284,0.5201883316040039,-0.9702556729316711
1684200714982981000,10.200981201171874,0.17702244222164154,0.15994122624397278,-1.0333424806594849
1684200714993006300,10.21100634765625,0.2259897142648697,-0.17021536827087402,-1.0904650688171387
1684200715003030300,10.2210302734375,0.27270156145095825,-0.42004838585853577,-1.1105413436889648
1684200715013055200,10.23105517578125,0.2776246964931488,-0.5524680018424988,-1.0361618995666504
1684200715023080400,10.24108056640625,0.24953952431678772,-0.5156026482582092,-0.9361287355422974
1684200715033104100,10.251104248046875,0.18312294781208038,-0.36161038279533386,-0.8992021679878235
1684200715043129000,10.261129150390625,0.10936271399259567,-0.1609162986278534,-0.9299919605255127
1684200715053153300,10.2711533203125,0.05454979091882706,-0.049187902361154556,-1.0230042934417725
1684200715063178200,10.28117822265625,0.025559421628713608,-0.03228228911757469,-1.1308425664901733
1684200715073203200,10.291203125,0.012150405906140804,-0.07175992429256439,-1.2512065172195435
1684200715083227100,10.30122705078125,-0.09471958130598068,-0.13367992639541626,-1.4143403768539429
1684200715093252000,10.311252197265626,-0.3422817289829254,-0.16711218655109406,-1.5940417051315308
1684200715103276300,10.3212763671875,-0.6538811326026917,-0.27469414472579956,-1.697939395904541
1684200715113301200,10.33130126953125,-0.9092450141906738,-0.5858017206192017,-1.6191495656967163
1684200715123326200,10.341326171875,-0.835778534412384,-1.0640941858291626,-1.3900529146194458
1684200715133350400,10.351350341796875,-0.7279340624809265,-1.5747989416122437,-1.1643627882003784
1684200715143375000,10.361375,-0.9167673587799072,-1.969718337059021,-0.9051682949066162
1684200715153399300,10.3713994140625,-1.0713928937911987,-2.4449403285980225,-0.5406995415687561
1684200715163424300,10.38142431640625,-0.9433627724647522,-2.8721542358398438,-0.28176403045654297
1684200715173449200,10.39144921875,-0.6395118236541748,-2.747617483139038,-0.28990161418914795
1684200715183473400,10.401473388671874,-0.43902823328971863,-2.014021873474121,-0.4496418535709381
1684200715193498400,10.411498291015626,-0.46512001752853394,-0.9246718287467957,-0.4294247329235077
1684200715203522300,10.421522216796875,-0.5227630734443665,0.04482822120189667,-0.21128390729427338
1684200715213547300,10.43154736328125,-0.3354339301586151,0.636197566986084,0.05603914335370064
1684200715223572200,10.441572265625,0.013173856772482395,0.7427820563316345,0.3281513452529907
1684200715233596400,10.451596435546875,0.37871721386909485,0.4023062586784363,0.43490123748779297
1684200715243621400,10.461621337890625,0.5711958408355713,-0.06269965320825577,0.34948933124542236
1684200715253645000,10.47164501953125,0.6123616695404053,-0.3206624984741211,-0.027719751000404358
1684200715263670300,10.481670166015626,0.6287355422973633,-0.4582574963569641,-0.5309838652610779
1684200715273695200,10.4916953125,0.6581752300262451,-0.7355524897575378,-1.0047028064727783
1684200715283719400,10.501719482421874,0.3873802125453949,-1.1345725059509277,-1.243693232536316
1684200715293744400,10.511744384765626,0.07411018013954163,-1.397024393081665,-1.2777042388916016
1684200715303768000,10.52176806640625,-0.06949465721845627,-1.4576033353805542,-1.0827747583389282
1684200715313793300,10.531793212890625,-0.35591310262680054,-1.3924446105957031,-0.8255967497825623
1684200715323818200,10.541818359375,-0.4638020098209381,-1.3852664232254028,-0.6551969051361084
1684200715333842200,10.55184228515625,-0.4621492624282837,-1.2513792514801025,-0.5592999458312988
1684200715343867400,10.561867431640625,-0.4544956088066101,-1.0813461542129517,-0.5546193718910217
1684200715353892400,10.571892333984374,-0.4386543333530426,-0.9150948524475098,-0.5966179966926575
1684200715363916000,10.581916015625,-0.3544057607650757,-0.7279048562049866,-0.6633906960487366
1684200715373941200,10.591941162109375,-0.30911338329315186,-0.4727271497249603,-0.7431283593177795
1684200715383965200,10.601965087890624,-0.34496966004371643,-0.179997056722641,-0.7778067588806152
1684200715393990400,10.611990478515626,-0.3804243206977844,-0.09313059598207474,-0.6147736310958862
1684200715404015400,10.622015380859375,-0.3858105540275574,-0.1183876246213913,-0.5065898895263672
1684200715414039300,10.632039306640625,-0.3062187731266022,0.006154573522508144,-0.6482874155044556
1684200715424064300,10.642064208984374,-0.3050302267074585,-0.24567119777202606,-0.5809502005577087
1684200715434088200,10.652088134765625,-0.29314666986465454,-0.4730348587036133,-0.47735780477523804
1684200715444113200,10.662113037109375,-0.2545079290866852,-0.5338258743286133,-0.4254428744316101
1684200715454138400,10.672138427734374,-0.1447097808122635,-0.535793662071228,-0.39732226729393005
1684200715464162300,10.682162353515626,-0.10219321399927139,-0.6001591682434082,-0.2855820059776306
1684200715474187300,10.692187255859375,-0.08303283154964447,-0.5792799592018127,-0.24239510297775269
1684200715484211200,10.702211181640624,-0.08125544339418411,-0.5921319723129272,-0.2671484649181366
1684200715494236200,10.712236083984376,-0.09640989452600479,-0.6477537155151367,-0.3636036217212677
1684200715504261400,10.722261474609375,-0.09856012463569641,-0.7270752787590027,-0.39934709668159485
1684200715514285300,10.732285400390625,-0.10809557884931564,-0.8480944037437439,-0.3749573230743408
1684200715524310300,10.742310302734374,-0.13631443679332733,-0.922821044921875,-0.3134344518184662
1684200715534334200,10.752334228515625,-0.18003955483436584,-0.9787245392799377,-0.2639222741127014
1684200715544359200,10.762359130859375,-0.2168833166360855,-1.0787367820739746,-0.24715831875801086
1684200715554384100,10.772384033203124,-0.2657960057258606,-1.1352181434631348,-0.23102807998657227
1684200715564408300,10.782408203125,-0.3245770335197449,-1.1216439008712769,-0.2180735468864441
1684200715574433300,10.792433349609375,-0.36425918340682983,-1.029906988143921,-0.23132649064064026
1684200715584457200,10.802457275390625,-0.3580329716205597,-0.9366140365600586,-0.23778954148292542
1684200715594482200,10.812482177734376,-0.3315656781196594,-0.7895566821098328,-0.2446351945400238
1684200715604507100,10.822507080078125,-0.29181402921676636,-0.6988765001296997,-0.21872968971729279
1684200715614531300,10.83253125,-0.20473237335681915,-0.63348788022995,-0.24760368466377258
1684200715624556300,10.842556396484374,-0.18820932507514954,-0.4675304591655731,-0.34114426374435425
1684200715634581200,10.852581298828126,-0.25059840083122253,-0.4378681778907776,-0.32600152492523193
1684200715644605700,10.862605712890625,-0.23160287737846375,-0.41446226835250854,-0.4125765264034271
1684200715654630700,10.872630615234375,-0.2656759023666382,-0.5065549612045288,-0.26541078090667725
1684200715664654800,10.88265478515625,-0.25166207551956177,-0.3918195068836212,-0.22222401201725006
1684200715674679800,10.8926796875,-0.2607343792915344,-0.4618915319442749,-0.0905325710773468
1684200715684704800,10.902704833984375,-0.21895872056484222,-0.3506126403808594,-0.0979718267917633
1684200715694729000,10.91272900390625,-0.14668984711170197,-0.4246242940425873,-0.011174611747264862
1684200715704753700,10.922753662109375,-0.11329273134469986,-0.3379761278629303,0.008548732846975327
1684200715714777600,10.932777587890625,-0.0016154746990650892,-0.4225511848926544,0.054869361221790314
1684200715724802800,10.942802734375,0.015476160682737827,-0.38103392720222473,0.08496657013893127
1684200715734827800,10.952827880859376,0.09368015080690384,-0.29396745562553406,0.07798349112272263
1684200715744851700,10.962851806640625,0.17551642656326294,-0.31693097949028015,0.12433561682701111
1684200715754877000,10.972876953125,0.19557136297225952,-0.42752352356910706,0.20368850231170654
1684200715764900600,10.982900634765626,0.25364744663238525,-0.6053816676139832,0.3734820485115051
1684200715774925800,10.99292578125,0.32894885540008545,-0.6221075057983398,0.5236925482749939
1684200715784950800,11.00295068359375,0.39840197563171387,-0.592737078666687,0.6908311247825623
1684200715794974700,11.012974609375,0.5198231935501099,-0.5356876850128174,0.8356629014015198
1684200715805000000,11.023,0.6289092302322388,-0.4310138523578644,0.9574079513549805
1684200715815023600,11.033023681640625,0.7432475090026855,-0.2572513818740845,0.9844289422035217
1684200715825048600,11.043048583984374,0.793639063835144,-0.08223684132099152,1.026728868484497
1684200715835073800,11.05307373046875,0.8138830661773682,0.02052362449467182,1.1115998029708862
1684200715845097700,11.06309765625,0.912306547164917,0.036262258887290955,1.2136214971542358
