time,seconds_elapsed,z,y,x
1684206813583211500,0.03021142578125,-0.19013342261314392,-0.09655166417360306,-0.12593477964401245
1684206813593237500,0.040237548828125,-0.21739622950553894,-0.07866068184375763,-0.19895249605178833
1684206813603262500,0.050262451171875,-0.2529768645763397,-0.11385169625282288,-0.2735077142715454
1684206813613287400,0.060287353515625,-0.3738612234592438,-0.02760891057550907,-0.416801393032074
1684206813623312400,0.0703125,-0.3302335739135742,0.04784216731786728,-0.5319926738739014
1684206813633337600,0.080337646484375,-0.3460213541984558,0.11076231300830841,-0.5390086770057678
1684206813643362600,0.090362548828125,-0.5044269561767578,0.21656811237335205,-0.5563698410987854
1684206813653388500,0.100388427734375,-0.7011869549751282,0.36018702387809753,-0.6001580953598022
1684206813663413500,0.11041357421875,-0.8879339098930359,0.4976500868797302,-0.5836523175239563
1684206813673438500,0.1204384765625,-1.2244678735733032,0.512363076210022,-0.5927783846855164
1684206813683463400,0.13046337890625,-1.7196853160858154,0.538293719291687,-0.6206819415092468
1684206813693488400,0.14048828125,-2.26993727684021,0.5270021557807922,-0.6880086660385132
1684206813703514400,0.150514404296875,-2.8190062046051025,0.4854408800601959,-0.757874071598053
1684206813713539300,0.160539306640625,-3.1452560424804688,0.17310398817062378,-0.6816039085388184
1684206813723564300,0.170564208984375,-3.2544918060302734,-0.24330735206604004,-0.553557813167572
1684206813733589500,0.180589599609375,-3.3112528324127197,-0.4773887097835541,-0.49813321232795715
1684206813743614500,0.190614501953125,-3.4017341136932373,-0.3974730968475342,-0.527470588684082
1684206813753639400,0.200639404296875,-3.408473491668701,-0.1620592474937439,-0.689583420753479
1684206813763665400,0.21066552734375,-3.228395462036133,0.007378792390227318,-0.9025161862373352
1684206813773690400,0.2206904296875,-2.9055001735687256,0.17723390460014343,-1.069806694984436
1684206813783715600,0.230715576171875,-2.4823131561279297,0.34861868619918823,-1.1330077648162842
1684206813793740500,0.240740478515625,-2.157766103744507,0.3769072890281677,-1.0006400346755981
1684206813803765500,0.250765625,-1.9262279272079468,0.3251042664051056,-0.7864155769348145
1684206813813791500,0.26079150390625,-1.7997233867645264,0.3920426070690155,-0.6442747116088867
1684206813823816400,0.27081640625,-1.6477290391921997,0.47299924492836,-0.5000307559967041
1684206813833841700,0.280841552734375,-1.4411065578460693,0.4175199270248413,-0.3333738446235657
1684206813843866400,0.290866455078125,-1.2490605115890503,0.26322248578071594,-0.31074070930480957
1684206813853891300,0.300891357421875,-1.1166330575942993,0.08889499306678772,-0.26340505480766296
1684206813863916300,0.310916259765625,-0.9992387890815735,0.013531263917684555,-0.25966304540634155
1684206813873942300,0.3209423828125,-0.8369128704071045,-0.07297714054584503,-0.32364001870155334
1684206813883967500,0.330967529296875,-0.6345573663711548,-0.07467011362314224,-0.3605192005634308
1684206813893992400,0.340992431640625,-0.3895443081855774,-0.10458997637033463,-0.4120449721813202
1684206813904017400,0.351017333984375,-0.04117167368531227,-0.12219320237636566,-0.46295368671417236
1684206813914042400,0.36104248046875,0.16636358201503754,-0.3018447458744049,-0.32634440064430237
1684206813924068400,0.371068359375,0.18655672669410706,-0.555080235004425,-0.18858815729618073
1684206813934093600,0.381093505859375,0.07192959636449814,-0.6433033347129822,-0.21551309525966644
1684206813944118500,0.391118408203125,-0.15447956323623657,-0.5794641375541687,-0.26727989315986633
1684206813954143500,0.4011435546875,-0.3993862569332123,-0.4485377073287964,-0.3021695017814636
1684206813964168400,0.41116845703125,-0.5779890418052673,-0.3731204569339752,-0.32045263051986694
1684206813974193400,0.421193359375,-0.666357159614563,-0.4396651089191437,-0.3431271016597748
1684206813984219600,0.4312197265625,-0.7755345106124878,-0.5837969779968262,-0.33330562710762024
1684206813994244400,0.441244384765625,-0.673160195350647,-0.5629481077194214,-0.17562168836593628
1684206814004269300,0.451269287109375,-0.03715073689818382,-0.14435860514640808,-0.03847689554095268
1684206814014294300,0.461294189453125,0.046140577644109726,-0.19543872773647308,-0.20186468958854675
1684206814024319500,0.471319580078125,-0.010715246200561523,-0.2870325446128845,-0.18795447051525116
1684206814034345500,0.481345458984375,0.021994588896632195,-0.19447021186351776,-0.09507004171609879
1684206814044370400,0.491370361328125,0.010423154570162296,-0.07573424279689789,-0.03630659356713295
1684206814054395400,0.5013955078125,-0.001381307258270681,0.012923991307616234,-0.008431288413703442
1684206814064420400,0.51142041015625,-0.03290114924311638,0.11271609365940094,0.038822777569293976
1684206814074445600,0.521445556640625,-0.015149369835853577,0.21027621626853943,0.06861162930727005
1684206814084470500,0.531470458984375,-0.0115354610607028,0.28832918405532837,0.06247410923242569
1684206814094496500,0.54149658203125,-0.04525100812315941,0.310137003660202,0.05132675915956497
1684206814104521500,0.551521484375,-0.05415821820497513,0.34532296657562256,0.06046965718269348
1684206814114546400,0.56154638671875,-0.10565873980522156,0.3313075304031372,0.0017217202112078667
1684206814124571600,0.571571533203125,-0.11629300564527512,0.32872718572616577,-0.07008109986782074
1684206814134596400,0.581596435546875,-0.10647468268871307,0.4647178053855896,-0.05615602433681488
1684206814144622800,0.591622802734375,-0.0636017844080925,0.5535163879394531,0.00032988772727549076
1684206814154647600,0.6016474609375,-0.12529206275939941,0.0841108188033104,-0.20452144742012024
1684206814164672500,0.611672607421875,-0.19842754304409027,-0.4088711738586426,-0.47800835967063904
1684206814174697700,0.62169775390625,-0.14171136915683746,-0.3761054277420044,-0.535448431968689
1684206814184722700,0.63172265625,-0.1031341478228569,-0.3041481375694275,-0.41538727283477783
1684206814194747600,0.64174755859375,-0.040519434958696365,-0.2290530502796173,-0.34659963846206665
1684206814204773600,0.651773681640625,-0.009905865415930748,-0.1929195374250412,-0.38100501894950867
1684206814214798600,0.661798583984375,0.016904789954423904,-0.24168084561824799,-0.40624067187309265
1684206814224823800,0.67182373046875,0.05543060973286629,-0.3515183627605438,-0.4050142765045166
1684206814234848800,0.681848876953125,0.12361784279346466,-0.3448345959186554,-0.4291980266571045
1684206814244873700,0.691873779296875,0.18020816147327423,-0.20848369598388672,-0.48100796341896057
1684206814254899700,0.701899658203125,0.2281375676393509,-0.17156042158603668,-0.3743385076522827
1684206814264924700,0.711924560546875,0.21632565557956696,-0.21669913828372955,-0.19163231551647186
1684206814274950000,0.721949951171875,0.20473238825798035,-0.14958378672599792,-0.11604257673025131
1684206814284974800,0.731974853515625,0.19868755340576172,-0.003485170193016529,-0.1101793646812439
1684206814294999600,0.74199951171875,0.18720215559005737,0.11760946363210678,-0.09364187717437744
1684206814305024500,0.7520244140625,0.14980152249336243,0.13941249251365662,-0.08789903670549393
1684206814315050500,0.762050537109375,0.10429608821868896,0.10930322855710983,-0.12510386109352112
1684206814325075700,0.77207568359375,0.04578164219856262,0.0440206304192543,-0.18556562066078186
1684206814335100700,0.7821005859375,0.0003337354864925146,-0.00752538675442338,-0.24097374081611633
1684206814345125600,0.792125732421875,-0.04115724936127663,-0.0068153878673911095,-0.28245219588279724
1684206814355150600,0.802150634765625,-0.08353900164365768,0.008376240730285645,-0.31938254833221436
1684206814365176600,0.812176513671875,-0.08877744525671005,0.0667647123336792,-0.3323467969894409
1684206814375201800,0.822201904296875,-0.10043759644031525,0.07788215577602386,-0.34597188234329224
1684206814385226800,0.832226806640625,-0.12730009853839874,0.08680827170610428,-0.36272022128105164
1684206814395251700,0.842251708984375,-0.1535530686378479,0.10767930746078491,-0.3939295709133148
1684206814405276700,0.852276611328125,-0.16932296752929688,0.20417281985282898,-0.386148601770401
1684206814415302000,0.862302001953125,-0.17484161257743835,0.35688716173171997,-0.3428439795970917
1684206814425327900,0.872327880859375,-0.17739318311214447,0.4983771741390228,-0.28556951880455017
1684206814435352800,0.882352783203125,-0.18538248538970947,0.5775521397590637,-0.2546837329864502
1684206814445377500,0.89237744140625,-0.19382017850875854,0.6145937442779541,-0.23935510218143463
1684206814455402500,0.902402587890625,-0.19319719076156616,0.6236267685890198,-0.25933822989463806
1684206814465427700,0.912427734375,-0.16037532687187195,0.6038922071456909,-0.2891874611377716
1684206814475453700,0.92245361328125,-0.08104278892278671,0.49121561646461487,-0.36866137385368347
1684206814485478700,0.932478759765625,0.02145802229642868,0.2727983295917511,-0.4300310015678406
1684206814495503600,0.942503662109375,0.10998264700174332,0.012388910166919231,-0.37676218152046204
1684206814505528600,0.952528564453125,0.11948507279157639,-0.07626745849847794,-0.15730172395706177
1684206814515553800,0.9625537109375,0.10068418830633163,0.0967651754617691,0.10596536099910736
1684206814525578800,0.972578857421875,0.0938103049993515,0.3281499445438385,0.2576371729373932
1684206814535604700,0.982604736328125,0.11026902496814728,0.4751138687133789,0.27401643991470337
1684206814545629700,0.992629638671875,0.1207222044467926,0.5464453101158142,0.2676149904727936
1684206814555654700,1.002654541015625,0.08819478005170822,0.6831605434417725,0.34811073541641235
1684206814565679900,1.012679931640625,0.06217996031045914,0.8616882562637329,0.4524235725402832
1684206814575704800,1.022704833984375,0.05719698593020439,0.9635059833526611,0.44435209035873413
1684206814585730800,1.032730712890625,0.10108614712953568,0.9800493121147156,0.34554722905158997
1684206814595755800,1.042755859375,0.1730663776397705,1.087353229522705,0.30390509963035583
1684206814605780500,1.052780517578125,0.2276071161031723,1.1295193433761597,0.3115331828594208
1684206814615805700,1.0628056640625,0.23719124495983124,1.0284490585327148,0.28900352120399475
1684206814625830700,1.07283056640625,0.18435600399971008,0.7829886674880981,0.19287779927253723
1684206814635855600,1.082855712890625,0.06283456832170486,0.46118465065956116,0.0684509202837944
1684206814645881600,1.092881591796875,-0.07517389953136444,0.22257128357887268,0.087422214448452
1684206814655906600,1.102906494140625,-0.17692051827907562,0.0459829606115818,0.2374807894229889
1684206814665931800,1.112931884765625,-0.2770175635814667,-0.03976070508360863,0.3237980902194977
1684206814675956700,1.122956787109375,-0.3431825339794159,-0.010813266970217228,0.30417779088020325
1684206814685981700,1.132981689453125,-0.38067078590393066,0.0708477795124054,0.2814823091030121
1684206814696007700,1.143007568359375,-0.33593738079071045,0.14054685831069946,0.2512911260128021
1684206814706032600,1.15303271484375,-0.21501842141151428,0.17388483881950378,0.18334297835826874
1684206814716057900,1.163057861328125,-0.12183161079883575,0.10122386366128922,0.07747883349657059
1684206814726082800,1.173082763671875,-0.03713377192616463,-0.07455435395240784,-0.02866305038332939
1684206814736107500,1.183107421875,0.018225330859422684,-0.17803053557872772,-0.04423239454627037
1684206814746132700,1.1931328125,0.02615036629140377,-0.17368853092193604,-0.0075185876339674
1684206814756158500,1.203158447265625,0.018645431846380234,-0.11450210958719254,0.03295585513114929
1684206814766183700,1.21318359375,0.010389365255832672,-0.07673262804746628,0.09984593838453293
1684206814776208600,1.223208740234375,0.018391765654087067,-0.04838765785098076,0.17098498344421387
1684206814786233600,1.233233642578125,0.008222484961152077,0.02881179004907608,0.2583070993423462
1684206814796258600,1.243258544921875,-0.012949884869158268,0.15195754170417786,0.3585609793663025
1684206814806284500,1.253284423828125,-0.04644526168704033,0.26798802614212036,0.42837440967559814
1684206814816309800,1.263309814453125,-0.09219995141029358,0.3706361651420593,0.47984808683395386
1684206814826334700,1.273334716796875,-0.13024482131004333,0.44275349378585815,0.5335012078285217
1684206814836359700,1.283359619140625,-0.1489543318748474,0.4706043303012848,0.5403032898902893
1684206814846384600,1.293384521484375,-0.21715761721134186,0.3754655718803406,0.4921804964542389
1684206814856409900,1.303409912109375,-0.24317650496959686,0.254773885011673,0.4010290205478668
1684206814866435800,1.313435791015625,-0.25818848609924316,0.08496807515621185,0.29981452226638794
1684206814876460800,1.323460693359375,-0.2903296947479248,-0.1354944407939911,0.2154199630022049
1684206814886485800,1.33348583984375,-0.3435436487197876,-0.3372693955898285,0.1449924111366272
1684206814896510700,1.3435107421875,-0.39453354477882385,-0.49628138542175293,0.09078139066696167
1684206814906535700,1.35353564453125,-0.4224826395511627,-0.6293630003929138,0.05040786787867546
1684206814916561700,1.363561767578125,-0.35857799649238586,-0.6988419890403748,0.04835108295083046
1684206814926586600,1.373586669921875,-0.32973116636276245,-0.7620902061462402,0.05346222221851349
1684206814936611600,1.383611572265625,-0.28440287709236145,-0.7862705588340759,0.10834427177906036
1684206814946636800,1.39363671875,-0.23293277621269226,-0.76019686460495,0.19207724928855896
1684206814956661800,1.403661865234375,-0.17153924703598022,-0.70052170753479,0.2779528498649597
1684206814966686700,1.413686767578125,-0.08244398981332779,-0.6370604038238525,0.3712034225463867
1684206814976712700,1.423712646484375,0.02034999430179596,-0.5717324614524841,0.47098907828330994
1684206814986737700,1.433737548828125,0.12217303365468979,-0.5179608464241028,0.6171308755874634
1684206814996763000,1.443762939453125,0.2248929888010025,-0.4061981439590454,0.8345069885253906
1684206815006787800,1.453787841796875,0.3498556911945343,-0.2482607215642929,1.0452420711517334
1684206815016812800,1.463812744140625,0.5078415870666504,-0.008382817730307579,1.2618669271469116
1684206815026837500,1.47383740234375,0.6978472471237183,0.3821335434913635,1.4607808589935303
1684206815036863700,1.48386376953125,0.8944067358970642,0.8687224984169006,1.5842492580413818
1684206815046888700,1.493888671875,1.11387300491333,1.2510651350021362,1.5328691005706787
1684206815056913700,1.50391357421875,1.313895583152771,1.333920955657959,1.2642710208892822
1684206815066938600,1.513938720703125,1.3815345764160156,1.1810773611068726,1.0139106512069702
1684206815076963600,1.523963623046875,1.2825978994369507,0.7633348703384399,0.8549023866653442
1684206815086989600,1.533989501953125,1.062909483909607,-0.006060057319700718,0.639585554599762
1684206815097014800,1.544014892578125,0.7549431920051575,-0.8182622194290161,0.39014932513237
1684206815107039700,1.554039794921875,0.35283195972442627,-1.3637934923171997,0.1669687032699585
1684206815117064700,1.564064697265625,-0.1049221083521843,-1.4002628326416016,0.013541419990360737
1684206815127089700,1.574089599609375,-0.5506367683410645,-1.1102187633514404,-0.11294142156839371
1684206815137115000,1.584114990234375,-0.9197365641593933,-0.822531521320343,-0.21521252393722534
1684206815147140900,1.594140869140625,-1.1514909267425537,-0.8605502843856812,-0.2334836721420288
1684206815157165800,1.604165771484375,-1.088549017906189,-1.1807795763015747,-0.03757084906101227
1684206815167190500,1.6141904296875,-0.6489269137382507,-1.3256289958953857,0.1688675433397293
1684206815177215500,1.624215576171875,-0.3953762352466583,-0.6646865606307983,-0.022770045325160027
1684206815187240700,1.63424072265625,-0.45307841897010803,-0.04392398148775101,-0.3856547772884369
1684206815197265700,1.644265625,-0.6650421619415283,0.06592250615358353,-0.50309818983078
1684206815207291600,1.654291748046875,-0.820024311542511,-0.18647752702236176,-0.44167429208755493
1684206815217316600,1.664316650390625,-0.908240020275116,-0.4843401312828064,-0.4760880172252655
1684206815227341600,1.674341552734375,-0.8595012426376343,-0.5715416073799133,-0.6328843235969543
1684206815237366800,1.68436669921875,-0.8124121427536011,-0.6428849101066589,-0.6536431312561035
1684206815247391700,1.694391845703125,-0.7780653238296509,-0.49723345041275024,-0.4228532910346985
1684206815257417700,1.704417724609375,-0.7320955395698547,-0.17924611270427704,-0.10640829801559448
1684206815267442700,1.714442626953125,-0.7049755454063416,0.10737874358892441,0.19232115149497986
1684206815277467600,1.724467529296875,-0.6053934693336487,0.4058306813240051,0.4126339554786682
1684206815287492900,1.734492919921875,-0.3631685674190521,0.7753415703773499,0.4901396632194519
1684206815297517800,1.744517822265625,-0.11203087121248245,0.9334921836853027,0.4410009980201721
1684206815307542500,1.75454248046875,0.0636618584394455,0.700951337814331,0.39236369729042053
1684206815317568500,1.764568603515625,0.19676582515239716,0.34311771392822266,0.3838892877101898
1684206815327593500,1.774593505859375,0.3047862946987152,0.11592607945203781,0.40620365738868713
1684206815337618700,1.78461865234375,0.3810546398162842,0.02428468130528927,0.45327553153038025
1684206815347643600,1.7946435546875,0.67396080493927,0.06297987699508667,0.5303388833999634
1684206815357668600,1.804668701171875,1.0106470584869385,0.07178758084774017,0.7128680944442749
1684206815367694600,1.814694580078125,1.3180674314498901,0.07704892754554749,0.9718949198722839
1684206815377719600,1.824719482421875,1.5933605432510376,0.16207274794578552,1.1920442581176758
1684206815387744800,1.834744873046875,1.7687288522720337,0.2931189239025116,1.229455828666687
1684206815397769700,1.844769775390625,1.8334954977035522,0.38204020261764526,1.1219136714935303
1684206815407794700,1.854794677734375,1.8496938943862915,0.36486387252807617,1.0669931173324585
1684206815417819600,1.864819580078125,1.7759649753570557,0.2104642391204834,1.1458799839019775
1684206815427845600,1.874845703125,1.6334269046783447,-0.1758112907409668,1.0246179103851318
1684206815437870800,1.884870849609375,1.550855040550232,-0.32551729679107666,0.7381042838096619
1684206815447895800,1.894895751953125,1.5447475910186768,-0.15835388004779816,0.45564892888069153
1684206815457920500,1.90492041015625,1.4882899522781372,-0.0025440154131501913,0.22204111516475677
1684206815467945500,1.914945556640625,1.3472647666931152,0.01963692158460617,-0.0011650612577795982
1684206815477970700,1.924970703125,1.1254746913909912,0.07817355543375015,-0.16078929603099823
1684206815487996700,1.93499658203125,0.9526009559631348,-0.02878591977059841,-0.23417456448078156
1684206815498021600,1.945021728515625,0.8722324371337891,-0.03181454539299011,-0.2398659884929657
1684206815508046600,1.955046630859375,0.810975968837738,0.25875285267829895,-0.2383120357990265
1684206815518071600,1.965071533203125,0.7059043645858765,0.6721888780593872,-0.28157931566238403
1684206815528096800,1.9750966796875,0.5386887192726135,1.0108833312988281,-0.3779926598072052
1684206815538122800,1.985122802734375,0.35392940044403076,1.103753685951233,-0.506891131401062
1684206815548147700,1.995147705078125,0.19678397476673126,0.9288700222969055,-0.5778824687004089
1684206815558172700,2.005172607421875,0.08569569140672684,0.6467854380607605,-0.5917686820030212
1684206815568197600,2.01519775390625,-0.016858113929629326,0.3566018342971802,-0.6509667634963989
1684206815578222800,2.025222900390625,-0.09489062428474426,0.008114838972687721,-0.694309651851654
1684206815588247800,2.035247802734375,-0.1714133620262146,-0.36401718854904175,-0.6781418919563293
1684206815598273800,2.045273681640625,-0.2612650990486145,-0.8256161212921143,-0.5836561918258667
1684206815608298500,2.055298583984375,-0.373866468667984,-1.2332171201705933,-0.4809034466743469
1684206815618323500,2.065323486328125,-0.4500071704387665,-1.5490572452545166,-0.477277547121048
1684206815628348700,2.0753486328125,-0.4580826759338379,-1.7469327449798584,-0.5586180090904236
1684206815638373600,2.08537353515625,-0.3870904743671417,-1.8443984985351562,-0.6354034543037415
1684206815648399600,2.095399658203125,-0.2763064205646515,-1.8204190731048584,-0.6502056121826172
1684206815658424600,2.105424560546875,-0.15784503519535065,-1.589510440826416,-0.6258478760719299
1684206815668449500,2.115449462890625,-0.02812565490603447,-1.0961648225784302,-0.5724829435348511
1684206815678474800,2.125474853515625,0.08757484704256058,-0.5105060935020447,-0.490848183631897
1684206815688499700,2.135499755859375,0.1695791631937027,-0.05467648431658745,-0.42520952224731445
1684206815698524700,2.145524658203125,0.22548842430114746,0.32491475343704224,-0.3601984977722168
1684206815708550700,2.155550537109375,0.269533634185791,0.6040989756584167,-0.30095091462135315
1684206815718575600,2.16557568359375,0.29663532972335815,0.7406619787216187,-0.27230045199394226
1684206815728600800,2.175600830078125,0.2897305488586426,0.7019763588905334,-0.2857970893383026
1684206815738625800,2.185625732421875,0.26542928814888,0.5080532431602478,-0.34893035888671875
1684206815748650500,2.195650390625,0.21787507832050323,0.2199290543794632,-0.45983290672302246
1684206815758675500,2.205675537109375,0.1410394161939621,-0.03993598371744156,-0.586280107498169
1684206815768701400,2.215701416015625,0.08411114662885666,-0.21663565933704376,-0.6744640469551086
1684206815778726700,2.2257265625,-0.015525195747613907,-0.2855023741722107,-0.7046533226966858
1684206815788751600,2.235751708984375,-0.1393779069185257,-0.2895714044570923,-0.6706120371818542
1684206815798776600,2.245776611328125,-0.2990686893463135,-0.24215072393417358,-0.6051706671714783
1684206815808801500,2.255801513671875,-0.4872628152370453,-0.17592163383960724,-0.5214044451713562
1684206815818827500,2.26582763671875,-0.6451766490936279,-0.13232409954071045,-0.45756256580352783
1684206815828852700,2.275852783203125,-0.7722469568252563,-0.10191639512777328,-0.41012129187583923
1684206815838877700,2.285877685546875,-0.882509171962738,-0.044921427965164185,-0.3781655728816986
1684206815848902700,2.295902587890625,-0.9695618152618408,0.024857118725776672,-0.36045899987220764
1684206815858927600,2.305927734375,-1.0296128988265991,0.13089804351329803,-0.3618934452533722
1684206815868952800,2.315952880859375,-1.0659573078155518,0.22167854011058807,-0.37607795000076294
1684206815878978800,2.325978759765625,-1.0868916511535645,0.29543450474739075,-0.3716467618942261
1684206815889003800,2.336003662109375,-1.1223894357681274,0.36531639099121094,-0.34114211797714233
1684206815899028500,2.346028564453125,-1.1851370334625244,0.37822413444519043,-0.24857069551944733
1684206815909053400,2.356053466796875,-1.199293613433838,0.34138035774230957,-0.06812183558940887
1684206815919078700,2.36607861328125,-1.1079590320587158,0.1932896375656128,0.13829182088375092
1684206815929103600,2.376103515625,-0.9190024733543396,0.04842539131641388,0.2646726667881012
1684206815939129600,2.386129638671875,-0.7172545790672302,-0.023066120222210884,0.3310970366001129
1684206815949154600,2.396154541015625,-0.48757609724998474,-0.10997065156698227,0.3840571939945221
1684206815959179500,2.406179443359375,-0.24282148480415344,-0.12868937849998474,0.3808096945285797
1684206815969204700,2.416204833984375,0.05881373584270477,0.04720175266265869,0.2717963755130768
1684206815979229700,2.426229736328125,0.30345067381858826,0.3503073453903198,0.11407256126403809
1684206815989255700,2.436255615234375,0.4015950858592987,0.5587849020957947,-0.01554988231509924
1684206815999280600,2.44628076171875,0.5114021897315979,0.5746253728866577,-0.13890667259693146
1684206816009305600,2.4563056640625,0.5453599095344543,0.37913307547569275,-0.26924601197242737
1684206816019330800,2.466330810546875,0.4899883568286896,0.01666620746254921,-0.38366755843162537
1684206816029355800,2.476355712890625,0.37637659907341003,-0.48284855484962463,-0.4460744857788086
1684206816039380500,2.48638037109375,0.2907376289367676,-0.8733896017074585,-0.484918475151062
1684206816049406700,2.49640673828125,0.22409921884536743,-0.9857611656188965,-0.4627995789051056
1684206816059431700,2.506431640625,0.10595966130495071,-0.9730750322341919,-0.3994617462158203
1684206816069456600,2.51645654296875,-0.03138327971100807,-0.9797036051750183,-0.2918497920036316
1684206816079481600,2.526481689453125,-0.14970850944519043,-0.9145246744155884,-0.14927361905574799
1684206816089506600,2.536506591796875,-0.2323724925518036,-0.8329672813415527,-0.018407484516501427
1684206816099531800,2.54653173828125,-0.27506476640701294,-0.7652371525764465,0.07428628951311111
1684206816109557500,2.5565576171875,-0.2664033770561218,-0.6977452039718628,0.14175373315811157
1684206816119582700,2.566582763671875,-0.18529440462589264,-0.567502498626709,0.17460116744041443
1684206816129607700,2.576607666015625,-0.09201586246490479,-0.418558269739151,0.137796550989151
1684206816139632600,2.586632568359375,-0.049713145941495895,-0.3006409704685211,0.041436463594436646
1684206816149657600,2.59665771484375,-0.07631786167621613,-0.24370203912258148,-0.05792767554521561
1684206816159683600,2.60668359375,-0.11761121451854706,-0.2150067389011383,-0.1432274430990219
1684206816169708800,2.616708740234375,-0.1563415676355362,-0.20045682787895203,-0.22925473749637604
1684206816179733800,2.626733642578125,-0.20319147408008575,-0.21110939979553223,-0.3028072416782379
1684206816189758700,2.6367587890625,-0.24423211812973022,-0.24940432608127594,-0.35079365968704224
1684206816199783700,2.64678369140625,-0.26352459192276,-0.32623058557510376,-0.36691713333129883
1684206816209809000,2.656808837890625,-0.25603577494621277,-0.40612542629241943,-0.3463466167449951
1684206816219835000,2.6668349609375,-0.23985624313354492,-0.48999062180519104,-0.2920953929424286
1684206816229859800,2.67685986328125,-0.22261813282966614,-0.5640648603439331,-0.20926786959171295
1684206816239884800,2.686884765625,-0.19841140508651733,-0.5986010432243347,-0.10816651582717896
1684206816249909800,2.69690966796875,-0.18824613094329834,-0.5884466767311096,-0.004358628299087286
1684206816259934700,2.706934814453125,-0.18937739729881287,-0.5160232186317444,0.0795247033238411
1684206816269959700,2.716959716796875,-0.17490896582603455,-0.44982555508613586,0.13759386539459229
1684206816279985700,2.726985595703125,-0.15945865213871002,-0.4470627009868622,0.14665600657463074
1684206816290010600,2.7370107421875,-0.1520015448331833,-0.4794589877128601,0.11877564340829849
1684206816300035800,2.747035888671875,-0.15591657161712646,-0.5646169781684875,0.0550483837723732
1684206816310060800,2.757060791015625,-0.17148354649543762,-0.6416683793067932,-0.028097636997699738
1684206816320085800,2.767085693359375,-0.19302597641944885,-0.7168822884559631,-0.14225636422634125
1684206816330111700,2.77711181640625,-0.19588728249073029,-0.8379504084587097,-0.22950391471385956
1684206816340136700,2.78713671875,-0.19021087884902954,-0.9725931882858276,-0.2802644968032837
1684206816350161700,2.79716162109375,-0.16516704857349396,-1.107435941696167,-0.315844863653183
1684206816360187000,2.807186767578125,-0.13457465171813965,-1.179718255996704,-0.32672134041786194
1684206816370211800,2.8172119140625,-0.1058087944984436,-1.141473412513733,-0.2815626561641693
1684206816380236800,2.82723681640625,-0.0858411192893982,-0.9758339524269104,-0.2129952758550644
1684206816390262800,2.8372626953125,-0.09057435393333435,-0.7365965843200684,-0.17309127748012543
1684206816400287700,2.847287841796875,-0.11617588996887207,-0.49867644906044006,-0.14244896173477173
1684206816410313000,2.85731298828125,-0.1308610886335373,-0.34116512537002563,-0.13255614042282104
1684206816420337700,2.867337646484375,-0.1383916735649109,-0.1813538670539856,-0.17234265804290771
1684206816430362600,2.877362548828125,-0.11750689893960953,0.016686510294675827,-0.18843534588813782
1684206816440387800,2.887387939453125,-0.12857124209403992,0.2432129830121994,-0.19222426414489746
1684206816450413800,2.897413818359375,-0.18965031206607819,0.3723129332065582,-0.1878175288438797
1684206816460438800,2.907438720703125,-0.2528345286846161,0.42327880859375,-0.17557308077812195
1684206816470463700,2.917463623046875,-0.330778032541275,0.44849255681037903,-0.16282027959823608
1684206816480488700,2.92748876953125,-0.36136510968208313,0.47326353192329407,-0.09253539144992828
1684206816490514000,2.937513916015625,-0.35566994547843933,0.4768582880496979,-0.005060936324298382
1684206816500540000,2.947539794921875,-0.3393130600452423,0.5297934412956238,0.04983409494161606
1684206816510564900,2.95756494140625,-0.29407528042793274,0.6380533576011658,0.06482343375682831
1684206816520589800,2.96758984375,-0.2066163271665573,0.7701928615570068,0.03430239483714104
1684206816530614800,2.97761474609375,-0.13587185740470886,0.8581517338752747,0.0018669546116143465
1684206816540640000,2.987639892578125,-0.06582408398389816,0.8734962344169617,-0.014231557957828045
1684206816550665000,2.9976650390625,0.022087393328547478,0.85762619972229,-0.011320989578962326
1684206816560691000,3.00769091796875,0.09321588277816772,0.7831002473831177,-0.006686941254884005
1684206816570715600,3.017715576171875,0.14416135847568512,0.6793416738510132,0.0026506339199841022
1684206816580740600,3.02774072265625,0.18541866540908813,0.5931692123413086,0.032560769468545914
1684206816590765800,3.037765869140625,0.22295591235160828,0.5200158953666687,0.05607195198535919
1684206816600790800,3.047790771484375,0.252826064825058,0.41676023602485657,0.08254126459360123
1684206816610815700,3.057815673828125,0.28571078181266785,0.302523672580719,0.106421560049057
1684206816620841700,3.067841796875,0.3153146207332611,0.22903695702552795,0.10631627589464188
1684206816630866700,3.07786669921875,0.31072521209716797,0.20715323090553284,0.09570704400539398
1684206816640892000,3.087891845703125,0.2894280254840851,0.2505095303058624,0.08106679469347
1684206816650916900,3.097916748046875,0.24124106764793396,0.3108453154563904,0.0830330029129982
1684206816660941800,3.10794189453125,0.18198242783546448,0.3526611030101776,0.09448819607496262
1684206816670967800,3.1179677734375,0.1147724911570549,0.3990403115749359,0.09465011209249496
1684206816680992800,3.12799267578125,0.05340547487139702,0.4504328668117523,0.056672852486371994
1684206816691018000,3.13801806640625,0.013122234493494034,0.5017064809799194,-0.0035848948173224926
1684206816701043000,3.14804296875,-0.009136252105236053,0.48046720027923584,-0.043232910335063934
1684206816711067600,3.158067626953125,-0.02006692998111248,0.41706904768943787,-0.04825296625494957
1684206816721092600,3.168092529296875,-0.03907397761940956,0.37799882888793945,-0.011600207537412643
1684206816731118600,3.17811865234375,-0.05572113022208214,0.35543277859687805,0.0480055995285511
1684206816741143800,3.188143798828125,-0.07653091102838516,0.47997787594795227,0.12401602417230606
1684206816751168800,3.198168701171875,-0.09732992947101593,0.6463322639465332,0.19035455584526062
1684206816761193700,3.20819384765625,-0.10752196609973907,0.727519154548645,0.24581676721572876
1684206816771218700,3.21821875,-0.09392200410366058,0.7401726841926575,0.2786860466003418
1684206816781244000,3.228243896484375,-0.07017938047647476,0.7227421998977661,0.3019895553588867
1684206816791270000,3.238269775390625,-0.04676221311092377,0.7153233885765076,0.3091001808643341
1684206816801294800,3.248294921875,-0.030792219564318657,0.73572838306427,0.3172243535518646
1684206816811319800,3.25831982421875,0.00014146161265671253,0.8071357607841492,0.3127022981643677
1684206816821344800,3.2683447265625,0.03709472715854645,0.910196840763092,0.3077806234359741
1684206816831370000,3.278369873046875,0.05992414057254791,1.0161616802215576,0.32660171389579773
1684206816841396000,3.28839599609375,0.05112943798303604,1.1579654216766357,0.3661126494407654
1684206816851421000,3.2984208984375,0.03829513117671013,1.3229719400405884,0.39869561791419983
1684206816861445600,3.308445556640625,0.004762845113873482,1.4136749505996704,0.41315487027168274
1684206816871470600,3.318470703125,-0.03949010372161865,1.3950434923171997,0.38411444425582886
1684206816881495800,3.328495849609375,-0.0839923769235611,1.312901496887207,0.3032337427139282
1684206816891520800,3.338520751953125,-0.09893830865621567,1.23490309715271,0.21231131255626678
1684206816901546800,3.348546630859375,-0.08000937849283218,1.173638939857483,0.14680315554141998
1684206816911571700,3.35857177734375,-0.05119796842336655,1.112402319908142,0.12710802257061005
1684206816921596700,3.3685966796875,-0.017077811062335968,1.0836420059204102,0.11766025424003601
1684206816931622000,3.378621826171875,0.017671912908554077,1.1288927793502808,0.11057358235120773
1684206816941646800,3.388646728515625,0.06112244725227356,1.2419970035552979,0.07611966878175735
1684206816951671800,3.398671875,0.10308507829904556,1.4157541990280151,0.011997412890195847
1684206816961697800,3.40869775390625,0.13352763652801514,1.6026040315628052,-0.09587742388248444
1684206816971722800,3.41872265625,0.13790346682071686,1.6805118322372437,-0.22837713360786438
1684206816981748000,3.428748046875,0.1037130206823349,1.5670925378799438,-0.4091090261936188
1684206816991773000,3.43877294921875,0.10785796493291855,1.4355230331420898,-0.7041042447090149
1684206817001797600,3.448797607421875,0.12809240818023682,1.3082517385482788,-0.8544691205024719
1684206817011823900,3.458823974609375,0.1627795398235321,1.1076462268829346,-0.710174024105072
1684206817021848600,3.4688486328125,0.22446240484714508,0.7755646109580994,-0.5301541686058044
1684206817031873800,3.478873779296875,0.2734062671661377,0.4731527864933014,-0.4196745455265045
1684206817041898800,3.488898681640625,0.18898402154445648,0.4951525628566742,-0.21750929951667786
1684206817051923700,3.498923828125,0.07708359509706497,0.352272093296051,-0.12037584185600281
1684206817061948700,3.50894873046875,-0.006086127366870642,0.02089124731719494,-0.080117367208004
1684206817071974700,3.518974609375,-0.0975412130355835,-0.2173902988433838,-0.12290557473897934
1684206817082000000,3.528999755859375,-0.17967574298381805,-0.3922053277492523,-0.24215973913669586
1684206817092024800,3.53902490234375,-0.25141891837120056,-0.5300257802009583,-0.37061890959739685
1684206817102049800,3.5490498046875,-0.29319295287132263,-0.5996214747428894,-0.4332745671272278
1684206817112074800,3.55907470703125,-0.30924034118652344,-0.6410893201828003,-0.48664936423301697
1684206817122100000,3.569099853515625,-0.31929275393486023,-0.6407009959220886,-0.5448899865150452
1684206817132126000,3.5791259765625,-0.30625152587890625,-0.5896074771881104,-0.597579300403595
1684206817142151000,3.58915087890625,-0.29531705379486084,-0.5188072919845581,-0.625425398349762
1684206817152175400,3.59917529296875,-0.2896423935890198,-0.4673241376876831,-0.6202473640441895
1684206817162200600,3.60920068359375,-0.2674040198326111,-0.43475085496902466,-0.5843727588653564
1684206817172225500,3.6192255859375,-0.21988949179649353,-0.31322094798088074,-0.485837459564209
1684206817182251500,3.62925146484375,-0.1453639715909958,-0.201484814286232,-0.39911308884620667
1684206817192276500,3.6392763671875,-0.02495153434574604,-0.13295342028141022,-0.37621575593948364
1684206817202301400,3.649301513671875,0.1398431956768036,-0.02967134118080139,-0.3298560678958893
1684206817212326400,3.659326416015625,0.3206515908241272,0.06866401433944702,-0.20069941878318787
1684206817222351600,3.6693515625,0.47678568959236145,0.14024068415164948,0.0006523460615426302
1684206817232376300,3.679376220703125,0.623080313205719,0.20802372694015503,0.2090473622083664
1684206817242402600,3.689402587890625,0.7405089735984802,0.3123956322669983,0.38335058093070984
1684206817252427300,3.69942724609375,0.8188648223876953,0.40722066164016724,0.5213193297386169
1684206817262452500,3.709452392578125,0.8234155178070068,0.42612913250923157,0.6667594313621521
1684206817272477400,3.7194775390625,0.7911393642425537,0.39408543705940247,0.8307979106903076
1684206817282502400,3.72950244140625,0.7531179189682007,0.32038164138793945,0.9890003204345703
1684206817292527400,3.73952734375,0.704368531703949,0.2893752455711365,1.1340688467025757
1684206817302553300,3.74955322265625,0.6315869688987732,0.31940290331840515,1.2876695394515991
1684206817312578600,3.75957861328125,0.4748317301273346,0.3211914598941803,1.4138985872268677
1684206817322603500,3.769603515625,0.29133960604667664,0.2912400960922241,1.478440284729004
1684206817332628500,3.77962841796875,0.2379045933485031,0.11857723444700241,1.4929754734039307
1684206817342653400,3.7896533203125,0.21959838271141052,0.10304846614599228,1.6128665208816528
1684206817352678700,3.7996787109375,0.22053448855876923,0.20752401649951935,1.7967610359191895
1684206817362704600,3.80970458984375,0.2136632800102234,0.2700519263744354,1.8929903507232666
1684206817372729600,3.8197294921875,0.1919662356376648,0.3580603301525116,1.8662519454956055
1684206817382754600,3.829754638671875,0.19476304948329926,0.400313138961792,1.7709919214248657
1684206817392779300,3.839779296875,0.21258226037025452,0.2908377945423126,1.67341148853302
1684206817402804500,3.849804443359375,0.2685387432575226,0.15980255603790283,1.5839799642562866
1684206817412830500,3.85983056640625,0.3083801567554474,0.03736985847353935,1.5052598714828491
1684206817422855400,3.86985546875,0.3383229076862335,-0.08723235875368118,1.466390609741211
1684206817432880400,3.87988037109375,0.34640082716941833,-0.09006170183420181,1.3745341300964355
1684206817442905300,3.8899052734375,0.38296034932136536,-0.0555773489177227,1.1892658472061157
1684206817452930600,3.8999306640625,0.47668787837028503,-0.056690819561481476,0.9128890633583069
1684206817462955500,3.90995556640625,0.5364450216293335,-0.04798118770122528,0.6239678263664246
1684206817472981500,3.9199814453125,0.608218252658844,-0.020753560587763786,0.3553350269794464
1684206817483005400,3.93000537109375,0.7087787389755249,0.01070825383067131,0.10908401012420654
1684206817493031400,3.940031494140625,0.7518010139465332,-0.1517549604177475,-0.11302947998046875
1684206817503056600,3.950056640625,0.7056099772453308,-0.45202794671058655,-0.32315489649772644
1684206817513081600,3.96008154296875,0.6037120819091797,-0.8695942759513855,-0.5145615935325623
1684206817523106300,3.970106201171875,0.5307888388633728,-1.2683826684951782,-0.6504989266395569
1684206817533131300,3.98013134765625,0.47046586871147156,-1.517945647239685,-0.7337200045585632
1684206817543156500,3.990156494140625,0.3700818419456482,-1.6493678092956543,-0.8257229328155518
1684206817553182500,4.000182373046875,0.26643800735473633,-1.6846661567687988,-0.9326546788215637
1684206817563207400,4.01020751953125,0.1346939206123352,-1.6759538650512695,-1.0044649839401245
1684206817573232400,4.020232421875,0.006477361544966698,-1.5752131938934326,-1.00653874874115
1684206817583257300,4.03025732421875,-0.0976128876209259,-1.3862379789352417,-0.9796706438064575
1684206817593282600,4.040282470703125,-0.14152975380420685,-1.2073720693588257,-0.9469689130783081
1684206817603307500,4.0503076171875,-0.17753295600414276,-1.0824211835861206,-0.9080494046211243
1684206817613333500,4.06033349609375,-0.21286670863628387,-1.0293166637420654,-0.8493956327438354
1684206817623358500,4.0703583984375,-0.2287522554397583,-1.001231074333191,-0.7822544574737549
1684206817633383400,4.080383544921875,-0.23920170962810516,-0.9684914946556091,-0.6757940649986267
1684206817643408600,4.09040869140625,-0.22996000945568085,-0.9395523071289062,-0.5340067148208618
1684206817653433600,4.10043359375,-0.2224259376525879,-0.9195296168327332,-0.42425569891929626
1684206817663459600,4.11045947265625,-0.24404332041740417,-0.9490557312965393,-0.33783024549484253
1684206817673484500,4.120484619140625,-0.25923264026641846,-1.003914475440979,-0.2638167440891266
1684206817683509200,4.13050927734375,-0.23647864162921906,-0.9958117008209229,-0.18852674961090088
1684206817693534500,4.140534423828125,-0.22042669355869293,-1.0310453176498413,-0.12523353099822998
1684206817703559400,4.150559326171875,-0.16840267181396484,-0.9811334013938904,-0.05081072822213173
1684206817713584400,4.16058447265625,-0.08101610839366913,-0.8596522808074951,0.018350234255194664
1684206817723610400,4.1706103515625,0.0062124100513756275,-0.7355297207832336,0.06061098352074623
1684206817733635300,4.18063525390625,0.12380695343017578,-0.5234465003013611,0.06789233535528183
1684206817743660500,4.19066064453125,0.22469256818294525,-0.28599539399147034,0.026923920959234238
1684206817753685500,4.200685546875,0.2910026013851166,-0.12195399403572083,-0.046562012284994125
1684206817763710500,4.21071044921875,0.33062130212783813,0.004332416225224733,-0.10979577898979187
1684206817773735400,4.2207353515625,0.3635922968387604,0.14579607546329498,-0.13512243330478668
1684206817783761400,4.230761474609375,0.3649281859397888,0.22884520888328552,-0.18439193069934845
1684206817793786600,4.24078662109375,0.3816400468349457,0.3203921616077423,-0.23988528549671173
1684206817803811600,4.2508115234375,0.3628360331058502,0.3049103319644928,-0.3048418164253235
1684206817813836300,4.260836181640625,0.3034992218017578,0.16912294924259186,-0.3795027434825897
1684206817823861200,4.270861328125,0.24138978123664856,0.009908260777592659,-0.4282388985157013
1684206817833887200,4.28088720703125,0.16638770699501038,-0.16830435395240784,-0.4288479685783386
1684206817843912400,4.290912353515625,0.084837906062603,-0.3845613896846771,-0.42207276821136475
1684206817853937400,4.3009375,0.021793153136968613,-0.457415372133255,-0.37692898511886597
1684206817863962400,4.31096240234375,-0.03951038420200348,-0.45060670375823975,-0.3311353623867035
1684206817873987300,4.3209873046875,-0.08191962540149689,-0.3549284040927887,-0.30670031905174255
1684206817884012500,4.331012451171875,-0.1435297429561615,-0.16071796417236328,-0.3090594708919525
1684206817894038500,4.34103857421875,-0.18768948316574097,-0.009376111440360546,-0.3216407895088196
1684206817904063500,4.3510634765625,-0.22313618659973145,-0.007752145174890757,-0.3429564833641052
1684206817914088400,4.36108837890625,-0.2732744514942169,-0.10650774836540222,-0.38252171874046326
1684206817924113400,4.371113525390625,-0.33559855818748474,-0.29407799243927,-0.43278396129608154
1684206817934138600,4.381138671875,-0.4088006019592285,-0.541408121585846,-0.47572609782218933
1684206817944164600,4.39116455078125,-0.4852692484855652,-0.7670003175735474,-0.514618456363678
1684206817954189600,4.401189453125,-0.5971670150756836,-0.9509903788566589,-0.5742412805557251
1684206817964214500,4.411214599609375,-0.5963086485862732,-0.9081178307533264,-0.5750107169151306
1684206817974239200,4.4212392578125,-0.6113389730453491,-0.7735227346420288,-0.5702593922615051
1684206817984265500,4.431265380859375,-0.6525946855545044,-0.6301174759864807,-0.557854175567627
1684206817994290400,4.44129052734375,-0.73981773853302,-0.5304774641990662,-0.5019490718841553
1684206818004315400,4.4513154296875,-0.7766820192337036,-0.3818274736404419,-0.3522455096244812
1684206818014340400,4.46134033203125,-0.7953957319259644,-0.2509725093841553,-0.16757261753082275
1684206818024365300,4.471365234375,-0.8043492436408997,-0.1918642371892929,-0.0038581318221986294
1684206818034391300,4.481391357421875,-0.7594342231750488,-0.18384891748428345,0.10298150032758713
1684206818044416500,4.49141650390625,-0.6269303560256958,-0.10051621496677399,0.23282213509082794
1684206818054441500,4.50144140625,-0.4973324239253998,0.05096837505698204,0.4115351438522339
1684206818064466400,4.511466552734375,-0.34325194358825684,0.29869815707206726,0.5662479996681213
1684206818074491400,4.521491455078125,-0.10936195403337479,0.5522161722183228,0.6016179919242859
1684206818084516600,4.5315166015625,0.11863096058368683,0.6146804690361023,0.5134520530700684
1684206818094542600,4.54154248046875,0.21665765345096588,0.5703084468841553,0.4133049547672272
1684206818104567600,4.551567626953125,0.18543510138988495,0.6507667303085327,0.2543953061103821
1684206818114592500,4.561592529296875,0.1680087000131607,0.7231916785240173,-0.001968826400116086
1684206818124617200,4.5716171875,0.17763970792293549,0.5166229009628296,-0.2985655963420868
1684206818134642400,4.581642333984375,0.1522858738899231,0.15309342741966248,-0.5749636888504028
1684206818144667400,4.59166748046875,0.04357815161347389,-0.2635476589202881,-0.7157415151596069
1684206818154693400,4.601693359375,-0.110247902572155,-0.6524136662483215,-0.6829614639282227
1684206818164718300,4.61171826171875,-0.19908232986927032,-0.8815335631370544,-0.5386227965354919
1684206818174743300,4.621743408203125,-0.27824825048446655,-0.9291253089904785,-0.3938142657279968
1684206818184768500,4.6317685546875,-0.32935231924057007,-0.8569465279579163,-0.2719608247280121
1684206818194793500,4.64179345703125,-0.3217141032218933,-0.7217788696289062,-0.1636098325252533
1684206818204819500,4.6518193359375,-0.2935170829296112,-0.5382569432258606,-0.08468945324420929
1684206818214844400,4.661844482421875,-0.2575457692146301,-0.3543872535228729,-0.018512561917304993
1684206818224869400,4.671869384765625,-0.22041012346744537,-0.23334167897701263,0.04785291105508804
1684206818234894600,4.68189453125,-0.2151985913515091,-0.13993290066719055,0.11364017426967621
1684206818244919600,4.69191943359375,-0.21136629581451416,-0.12786780297756195,0.12435893714427948
1684206818254944500,4.701944580078125,-0.2040489912033081,-0.1983904391527176,0.08910612761974335
1684206818264970500,4.711970458984375,-0.16815252602100372,-0.32274895906448364,0.020177282392978668
1684206818274995500,4.721995361328125,-0.10107282549142838,-0.4622322618961334,-0.08197572082281113
1684206818285020400,4.7320205078125,-0.017244752496480942,-0.5494628548622131,-0.2093105912208557
1684206818295045400,4.74204541015625,0.10043900460004807,-0.590350329875946,-0.32801780104637146
1684206818305070300,4.7520703125,0.19263632595539093,-0.6156206130981445,-0.42005133628845215
1684206818315095600,4.762095458984375,0.2770329713821411,-0.6298165917396545,-0.46720075607299805
1684206818325121300,4.772121337890625,0.3432018458843231,-0.6249779462814331,-0.46030375361442566
1684206818335146500,4.782146484375,0.33840683102607727,-0.5263621807098389,-0.3825967013835907
1684206818345171500,4.79217138671875,0.3017834722995758,-0.4752137362957001,-0.28089573979377747
1684206818355196400,4.802196533203125,0.267246812582016,-0.4339941442012787,-0.16720272600650787
1684206818365221400,4.812221435546875,0.21892403066158295,-0.37037548422813416,-0.06339403986930847
1684206818375247400,4.822247314453125,0.1707969754934311,-0.320402055978775,0.023044440895318985
1684206818385272600,4.8322724609375,0.13229289650917053,-0.20958155393600464,0.10018964111804962
1684206818395297500,4.842297607421875,0.10465087741613388,-0.08616960793733597,0.1355937123298645
1684206818405322500,4.852322509765625,0.07415948808193207,0.05761030688881874,0.1092156320810318
1684206818415347500,4.862347412109375,0.057279836386442184,0.1902889907360077,0.041542842984199524
1684206818425372400,4.872372314453125,0.0615948811173439,0.30643534660339355,-0.052000537514686584
1684206818435398400,4.8823984375,0.06845918297767639,0.4029940962791443,-0.14501410722732544
1684206818445423400,4.89242333984375,0.08383896201848984,0.5453982353210449,-0.17519894242286682
1684206818455448300,4.9024482421875,0.12870363891124725,0.7515727281570435,-0.1386401355266571
1684206818465473500,4.9124736328125,0.17543621361255646,0.9745028614997864,-0.10546042025089264
1684206818475498500,4.92249853515625,0.20193013548851013,1.105309247970581,-0.09738171845674515
1684206818485523500,4.9325234375,0.20929434895515442,1.2466392517089844,-0.08906250447034836
1684206818495549400,4.942549560546875,0.21277908980846405,1.2633532285690308,-0.0906180590391159
1684206818505574400,4.952574462890625,0.20774012804031372,1.2174888849258423,-0.10270028561353683
1684206818515599600,4.962599609375,0.20636753737926483,1.1337635517120361,-0.13230931758880615
1684206818525624600,4.97262451171875,0.22888949513435364,1.046663761138916,-0.1945897787809372
1684206818535649500,4.9826494140625,0.2709796726703644,0.9255166053771973,-0.22840632498264313
1684206818545675500,4.992675537109375,0.33867841958999634,0.7768612504005432,-0.23836444318294525
1684206818555700500,5.002700439453125,0.4159274101257324,0.6526048183441162,-0.2300841361284256
1684206818565725400,5.012725341796875,0.4904850423336029,0.5269611477851868,-0.2001478672027588
1684206818575750400,5.02275048828125,0.509566605091095,0.393844872713089,-0.11200256645679474
1684206818585775400,5.032775390625,0.4926823377609253,0.24478410184383392,-0.029653390869498253
1684206818595800300,5.04280029296875,0.42641809582710266,0.1031619980931282,0.0370771698653698
1684206818605826300,5.052826416015625,0.35201600193977356,0.03448878973722458,0.06854777783155441
1684206818615851500,5.0628515625,0.29401901364326477,0.05308191478252411,0.05680349841713905
1684206818625876500,5.07287646484375,0.23636490106582642,0.12461507320404053,0.03804484009742737
1684206818635901400,5.0829013671875,0.19403742253780365,0.15574023127555847,0.028564253821969032
1684206818645926400,5.092926513671875,0.12587739527225494,0.12766209244728088,0.018503395840525627
1684206818655951600,5.10295166015625,0.060719966888427734,0.09900166839361191,0.0140702985227108
1684206818665977600,5.1129775390625,0.01243926677852869,0.10270459949970245,0.008953684940934181
1684206818676002600,5.12300244140625,-0.02333977073431015,0.10367905348539352,-0.006247638259083033
1684206818686027500,5.133027587890625,-0.05836750566959381,0.0904601439833641,-0.011509867385029793
1684206818696052500,5.143052490234375,-0.08749290555715561,0.06872635334730148,-0.0026298225857317448
1684206818706077400,5.153077392578125,-0.11381184309720993,0.06578442454338074,0.007015732582658529
1684206818716103700,5.163103759765625,-0.132684588432312,0.06920179724693298,0.017762120813131332
1684206818726128400,5.17312841796875,-0.1464143693447113,0.07147105038166046,0.034349165856838226
1684206818736153300,5.1831533203125,-0.1544129103422165,0.07717287540435791,0.05621211975812912
1684206818746178300,5.19317822265625,-0.1496034562587738,0.08746682107448578,0.06285002827644348
1684206818756203500,5.20320361328125,-0.15379899740219116,0.09174412488937378,0.06113708019256592
1684206818766228500,5.213228515625,-0.1530524343252182,0.10404565930366516,0.0610206164419651
1684206818776254500,5.22325439453125,-0.14043889939785004,0.1299598217010498,0.05592279136180878
1684206818786279400,5.233279541015625,-0.119777612388134,0.15969321131706238,0.03968529403209686
1684206818796304400,5.243304443359375,-0.10047102719545364,0.1868864893913269,0.010668021626770496
1684206818806329600,5.25332958984375,-0.07536910474300385,0.18717600405216217,-0.027212221175432205
1684206818816354600,5.2633544921875,-0.008845474570989609,0.3162144124507904,-0.04126625135540962
1684206818826379500,5.273379638671875,0.03540431708097458,0.4221378564834595,-0.05146021395921707
1684206818836405500,5.283405517578125,0.05964067950844765,0.4695964455604553,-0.026094136759638786
1684206818846430500,5.293430419921875,0.05794761702418327,0.5036687254905701,0.022472038865089417
1684206818856455700,5.30345556640625,0.038757678121328354,0.5378770232200623,0.06427274644374847
1684206818866480400,5.31348046875,0.012755390256643295,0.5616310834884644,0.10371886938810349
1684206818876505300,5.32350537109375,-0.012710288166999817,0.5523414611816406,0.10919646173715591
1684206818886531300,5.33353125,-0.033678632229566574,0.5359014868736267,0.09192606061697006
1684206818896556300,5.343556396484375,-0.045534491539001465,0.47367218136787415,0.05030405521392822
1684206818906581500,5.35358154296875,-0.04929407313466072,0.38804373145103455,-0.0007444231305271387
1684206818916606500,5.3636064453125,-0.0426071397960186,0.312652587890625,-0.04916095733642578
1684206818926631400,5.37363134765625,-0.03686610609292984,0.23787115514278412,-0.10077408701181412
1684206818936656400,5.383656494140625,-0.046093426644802094,0.13358816504478455,-0.1709427833557129
1684206818946682400,5.393682373046875,-0.058818887919187546,0.07355612516403198,-0.22052356600761414
1684206818956707600,5.40370751953125,-0.07373738288879395,0.05507379025220871,-0.23565511405467987
1684206818966732500,5.413732666015625,-0.09964080154895782,0.06074804440140724,-0.23943422734737396
1684206818976757500,5.423757568359375,-0.11016135662794113,0.08923082053661346,-0.23272545635700226
1684206818986782500,5.433782470703125,-0.1305139809846878,0.1457519829273224,-0.23205234110355377
1684206818996807400,5.443807373046875,-0.15256522595882416,0.24346283078193665,-0.2508196234703064
1684206819006833700,5.453833740234375,-0.17817668616771698,0.36175060272216797,-0.25724518299102783
1684206819016858400,5.4638583984375,-0.22764064371585846,0.4315747022628784,-0.2527279257774353
1684206819026883300,5.47388330078125,-0.2847384810447693,0.30353572964668274,-0.24693597853183746
1684206819036908300,5.483908203125,-0.2927822768688202,0.08492349088191986,-0.24568802118301392
1684206819046933500,5.49393359375,-0.3013980984687805,-0.012427106499671936,-0.2678515613079071
1684206819056959500,5.50395947265625,-0.3024519383907318,0.0625549927353859,-0.24010273814201355
1684206819066984400,5.513984375,-0.3383018672466278,0.1642487496137619,-0.18113572895526886
1684206819077009400,5.524009521484375,-0.3833220601081848,0.22167448699474335,-0.15977878868579865
1684206819087034400,5.534034423828125,-0.40821120142936707,0.285857230424881,-0.15707719326019287
1684206819097059600,5.5440595703125,-0.4103129804134369,0.2857067883014679,-0.15719303488731384
1684206819107084500,5.55408447265625,-0.40260499715805054,0.22890913486480713,-0.1428457647562027
1684206819117110500,5.564110595703125,-0.40688738226890564,0.1798955202102661,-0.14319942891597748
1684206819127135500,5.574135498046875,-0.4158249497413635,0.12177648395299911,-0.1807975172996521
1684206819137160400,5.584160400390625,-0.420979768037796,0.018062874674797058,-0.23597848415374756
1684206819147186000,5.59418603515625,-0.4194406569004059,-0.10767412185668945,-0.28062373399734497
1684206819157211100,5.604211181640625,-0.42522504925727844,-0.18899160623550415,-0.29150405526161194
1684206819167236000,5.614236083984375,-0.42283836007118225,-0.19877144694328308,-0.283968448638916
1684206819177262000,5.624261962890625,-0.39435797929763794,-0.15275868773460388,-0.2625015079975128
1684206819187287000,5.634287109375,-0.3581266403198242,-0.11351677775382996,-0.24640364944934845
1684206819197312000,5.64431201171875,-0.2983378767967224,-0.08765561878681183,-0.24926148355007172
1684206819207337200,5.654337158203125,-0.22093915939331055,-0.06922884285449982,-0.2697323262691498
1684206819217362000,5.66436181640625,-0.16432195901870728,-0.03252542391419411,-0.29613569378852844
1684206819227387000,5.674386962890625,-0.1514202058315277,0.02331755869090557,-0.32163453102111816
1684206819237412900,5.684412841796875,-0.1682146191596985,0.1306285709142685,-0.3385482728481293
1684206819247438000,5.69443798828125,-0.2254970669746399,0.2622322738170624,-0.3454975485801697
1684206819257463000,5.704463134765625,-0.2878943979740143,0.3957229554653168,-0.337027907371521
1684206819267488000,5.714488037109375,-0.3186970055103302,0.4992339015007019,-0.3116234540939331
1684206819277513000,5.724512939453125,-0.29446941614151,0.5732945799827576,-0.28328555822372437
1684206819287538200,5.7345380859375,-0.25724008679389954,0.608380913734436,-0.27046769857406616
1684206819297564000,5.74456396484375,-0.22434234619140625,0.5554766654968262,-0.2519770860671997
1684206819307589000,5.754589111328125,-0.19599397480487823,0.47838884592056274,-0.1968233287334442
1684206819317614000,5.764614013671875,-0.16036087274551392,0.37510374188423157,-0.10614749044179916
1684206819327639000,5.77463916015625,-0.10909079015254974,0.2744860351085663,0.0059854136779904366
1684206819337664000,5.7846640625,-0.03636572137475014,0.2018302083015442,0.13530398905277252
1684206819347690000,5.79468994140625,0.048765696585178375,0.17472994327545166,0.2623920142650604
1684206819357715200,5.804715087890625,0.13912169635295868,0.15791261196136475,0.38165608048439026
1684206819367740000,5.814739990234375,0.23426073789596558,0.172792449593544,0.4823930263519287
1684206819377764900,5.824764892578125,0.34346845746040344,0.20446543395519257,0.5228501558303833
1684206819387790000,5.8347900390625,0.4476265013217926,0.2995794415473938,0.5667441487312317
1684206819397815000,5.84481494140625,0.5713321566581726,0.41574519872665405,0.6360819339752197
1684206819407841000,5.854841064453125,0.6996216177940369,0.5173978209495544,0.7016249895095825
1684206819417866000,5.864865966796875,0.7674843072891235,0.5444331765174866,0.7474638819694519
1684206819427891000,5.874890869140625,0.787678599357605,0.4960572123527527,0.786005973815918
1684206819437916200,5.884916259765625,0.7737912535667419,0.297553688287735,0.806189239025116
1684206819447941000,5.894941162109375,0.7318426966667175,-0.07255560159683228,0.7506664991378784
1684206819457966000,5.904966064453125,0.6371207237243652,-0.45777201652526855,0.7310275435447693
1684206819467992000,5.914991943359375,0.39980584383010864,-0.6244738698005676,0.8648860454559326
1684206819478017000,5.92501708984375,0.1177898496389389,-0.6659622192382812,1.184515118598938
1684206819488042200,5.935042236328125,-0.15167401731014252,-0.7506881356239319,1.5386672019958496
1684206819498067200,5.945067138671875,-0.39490583539009094,-0.7671235203742981,1.7251497507095337
1684206819508092000,5.955091796875,-0.5204261541366577,-0.5160249471664429,1.7744741439819336
1684206819518118100,5.9651181640625,-0.5320987701416016,0.09696151316165924,1.7509959936141968
1684206819528142800,5.975142822265625,-0.3987748920917511,0.9705792665481567,1.7368354797363281
1684206819538168000,5.98516796875,-0.1650417298078537,1.6883454322814941,1.7306768894195557
1684206819548193000,5.995193115234375,0.09904689341783524,2.0230772495269775,1.6003777980804443
1684206819558218000,6.005218017578125,0.36266255378723145,1.9901989698410034,1.3207719326019287
1684206819568243000,6.015242919921875,0.5894557237625122,1.6185526847839355,0.8942573070526123
1684206819578269000,6.02526904296875,0.7107880115509033,1.1768099069595337,0.4373193383216858
1684206819588294100,6.035294189453125,0.7931154370307922,0.9326273202896118,0.1175735741853714
1684206819598319000,6.045319091796875,0.9065985679626465,0.8743653297424316,-0.10955438017845154
1684206819608344000,6.055343994140625,0.9963745474815369,0.9032599329948425,-0.2583273947238922
1684206819618369000,6.065369140625,1.1315416097640991,0.7670032978057861,-0.32930970191955566
1684206819628394200,6.075394287109375,1.1547040939331055,0.3161473870277405,-0.39527931809425354
1684206819638420200,6.085420166015625,1.0801019668579102,-0.38181838393211365,-0.4065958857536316
1684206819648445200,6.095445068359375,0.9358238577842712,-1.2021206617355347,-0.3534812331199646
1684206819658470000,6.105469970703125,0.7683879733085632,-1.8246949911117554,-0.232951357960701
1684206819668494800,6.115494873046875,0.6634610891342163,-2.0220017433166504,-0.08171816170215607
1684206819678520000,6.12552001953125,0.5885027050971985,-1.7668157815933228,0.0589342936873436
1684206819688546000,6.135546142578125,0.5693063139915466,-1.4075710773468018,0.1019798293709755
1684206819698571000,6.145571044921875,0.526017427444458,-1.1001371145248413,0.10544619709253311
1684206819708596000,6.155595947265625,0.47171470522880554,-0.857475221157074,0.12777434289455414
1684206819718621000,6.165620849609375,0.4309680759906769,-0.8160156607627869,0.21181225776672363
1684206819728646100,6.175646240234375,0.37344232201576233,-0.9057864546775818,0.2784329056739807
1684206819738671000,6.185671142578125,0.3556334972381592,-0.9685167074203491,0.30795004963874817
1684206819748697000,6.195697021484375,0.35893136262893677,-1.0098989009857178,0.30709388852119446
1684206819758722000,6.20572216796875,0.3665405511856079,-1.0191352367401123,0.23896516859531403
1684206819768747000,6.2157470703125,0.3815912902355194,-1.0607887506484985,0.054722681641578674
1684206819778772200,6.225772216796875,0.3529777526855469,-1.117515206336975,-0.16528743505477905
1684206819788797200,6.235797119140625,0.31465521454811096,-1.2149815559387207,-0.3156864047050476
1684206819798822000,6.24582177734375,0.24806050956249237,-1.3640671968460083,-0.3852316439151764
1684206819808848100,6.25584814453125,0.16265738010406494,-1.4287116527557373,-0.3801155686378479
1684206819818872800,6.265872802734375,0.07339248061180115,-1.4786661863327026,-0.36722320318222046
1684206819828898000,6.27589794921875,0.0169513076543808,-1.4262831211090088,-0.3405393958091736
1684206819838923000,6.285923095703125,-0.013840160332620144,-1.2981314659118652,-0.31211015582084656
1684206819848948000,6.295947998046875,-0.011418675072491169,-1.1819721460342407,-0.28872576355934143
1684206819858974000,6.305973876953125,0.01090260874480009,-1.1355916261672974,-0.301534503698349
1684206819868999000,6.3159990234375,0.029383981600403786,-1.1385306119918823,-0.34470614790916443
1684206819879024000,6.326024169921875,0.04338155686855316,-1.1915208101272583,-0.4036552309989929
1684206819889049000,6.336049072265625,0.04608398303389549,-1.2745860815048218,-0.5028385519981384
1684206819899074000,6.346073974609375,0.054414618760347366,-1.2619798183441162,-0.5884780883789062
1684206819909099000,6.35609912109375,0.05208684504032135,-1.1391332149505615,-0.646344006061554
1684206819919125000,6.366125,-0.024439087137579918,-1.0682740211486816,-0.7253059148788452
1684206819929150200,6.376150146484375,-0.08954383432865143,-0.9527615904808044,-0.762124240398407
1684206819939175200,6.386175048828125,-0.17451626062393188,-0.9156025052070618,-0.769814133644104
1684206819949200000,6.396199951171875,-0.31270408630371094,-0.9504600763320923,-0.7541284561157227
1684206819959224800,6.406224853515625,-0.41744035482406616,-1.0421942472457886,-0.7137312293052673
1684206819969250000,6.41625,-0.4545871913433075,-1.1524971723556519,-0.7003044486045837
1684206819979276000,6.426276123046875,-0.2977808117866516,-0.9474162459373474,-0.683843731880188
1684206819989301000,6.436301025390625,-0.14098189771175385,-0.6827039122581482,-0.6633538603782654
1684206819999326000,6.446325927734375,-0.01564740762114525,-0.6348485350608826,-0.5783407092094421
1684206820009351000,6.456350830078125,0.0019621180836111307,-0.7553256154060364,-0.4394654333591461
1684206820019376000,6.466376220703125,-0.15515932440757751,-0.7249612808227539,-0.2832987308502197
1684206820029402000,6.476402099609375,-0.2711598873138428,-0.6207279562950134,-0.2224578708410263
1684206820039427000,6.486427001953125,-0.3716297745704651,-0.6722476482391357,-0.2068091481924057
1684206820049452000,6.4964521484375,-0.4749898910522461,-0.8759126663208008,-0.18802227079868317
1684206820059477000,6.50647705078125,-0.5416421294212341,-1.1737514734268188,-0.2062036693096161
1684206820069502200,6.516502197265625,-0.6132985949516296,-1.465997338294983,-0.2667948007583618
1684206820079527200,6.526527099609375,-0.6532651782035828,-1.6245144605636597,-0.3287902772426605
1684206820089553200,6.53655322265625,-0.6315907835960388,-1.6193488836288452,-0.3734743595123291
1684206820099578000,6.546578125,-0.5917245745658875,-1.4585487842559814,-0.3761276602745056
1684206820109602800,6.556602783203125,-0.5645182132720947,-1.2113380432128906,-0.3290194272994995
1684206820119628000,6.5666279296875,-0.5508801937103271,-1.13264799118042,-0.26821014285087585
1684206820129653000,6.576653076171875,-0.5494289994239807,-1.1246763467788696,-0.22691752016544342
1684206820139678000,6.586677978515625,-0.535729706287384,-1.169782280921936,-0.24600332975387573
1684206820149704000,6.596703857421875,-0.5270882248878479,-1.2100602388381958,-0.3068656623363495
1684206820159729000,6.60672900390625,-0.5454544425010681,-1.2898317575454712,-0.3419562876224518
1684206820169754000,6.616754150390625,-0.569940447807312,-1.4286695718765259,-0.3259970247745514
1684206820179779000,6.626779052734375,-0.5852528810501099,-1.5218729972839355,-0.2910046875476837
1684206820189804000,6.636803955078125,-0.5978963375091553,-1.6149977445602417,-0.29873859882354736
1684206820199830000,6.646830078125,-0.5925202369689941,-1.7132295370101929,-0.33610326051712036
1684206820209855000,6.65685498046875,-0.5582529902458191,-1.8273496627807617,-0.3678561747074127
1684206820219880200,6.666880126953125,-0.49344897270202637,-1.930973768234253,-0.3801564872264862
1684206820229905200,6.6769052734375,-0.45514005422592163,-2.0489089488983154,-0.3893297016620636
1684206820239929900,6.686929931640625,-0.42179834842681885,-2.1730282306671143,-0.40393581986427307
1684206820249954800,6.696954833984375,-0.3765656352043152,-2.3363499641418457,-0.41809365153312683
1684206820259980800,6.706980712890625,-0.32510218024253845,-2.49272084236145,-0.4403153359889984
1684206820270006000,6.717006103515625,-0.3124910891056061,-2.605381727218628,-0.5074180364608765
1684206820280031000,6.727031005859375,-0.34057334065437317,-2.7558743953704834,-0.5704119205474854
1684206820290056000,6.737055908203125,-0.36799508333206177,-2.928562879562378,-0.64522784948349
1684206820300081000,6.747080810546875,-0.3700430393218994,-3.096123218536377,-0.6833035945892334
1684206820310106000,6.757106201171875,-0.3281072676181793,-3.2544219493865967,-0.6858072876930237
1684206820320132000,6.767132080078125,-0.2969339191913605,-3.371798038482666,-0.6583722233772278
1684206820330157000,6.777156982421875,-0.23868736624717712,-3.4123599529266357,-0.6292083263397217
1684206820340182000,6.78718212890625,-0.21132180094718933,-3.400285005569458,-0.5986051559448242
1684206820350207000,6.79720703125,-0.19706274569034576,-3.462845802307129,-0.5359583497047424
1684206820360232200,6.807232177734375,-0.14907976984977722,-3.4707236289978027,-0.47549691796302795
1684206820370257200,6.817257080078125,-0.0430254228413105,-3.3937759399414062,-0.4239792227745056
1684206820380283100,6.827283203125,0.08683377504348755,-3.2958106994628906,-0.3777233064174652
1684206820390308000,6.83730810546875,0.09009375423192978,-3.2564356327056885,-0.3932071328163147
1684206820400332800,6.847332763671875,0.053130943328142166,-3.2791459560394287,-0.49713993072509766
1684206820410358000,6.85735791015625,0.002576882718130946,-3.3431761264801025,-0.5685681104660034
1684206820420383000,6.867383056640625,0.006595060229301453,-3.337463140487671,-0.5353230834007263
1684206820430409000,6.877408935546875,0.08670379966497421,-3.301914930343628,-0.365097314119339
1684206820440434000,6.887433837890625,0.1721436083316803,-3.208193302154541,-0.1481461077928543
1684206820450459000,6.897458984375,0.2611987888813019,-3.122393846511841,0.07459424436092377
1684206820460484000,6.907484130859375,0.35633060336112976,-2.990853786468506,0.23947401344776154
1684206820470509000,6.917509033203125,0.4453273117542267,-2.8395743370056152,0.32371675968170166
1684206820480534000,6.927533935546875,0.49599340558052063,-2.790424108505249,0.3289421498775482
1684206820490560000,6.93756005859375,0.5129921436309814,-2.7948434352874756,0.27174630761146545
1684206820500585000,6.9475849609375,0.5605484843254089,-2.9116568565368652,0.1738802045583725
1684206820510610200,6.957610107421875,0.6356294751167297,-3.166240930557251,0.07312669605016708
1684206820520635100,6.96763525390625,0.7153050899505615,-3.483670949935913,-0.01770467683672905
1684206820530659800,6.977659912109375,0.7911136150360107,-3.7834603786468506,-0.05785730481147766
1684206820540685000,6.98768505859375,0.8724212050437927,-3.965876817703247,-0.036214858293533325
1684206820550711000,6.9977109375,0.9785166382789612,-4.003241539001465,0.0280919186770916
1684206820560736000,7.007736083984375,1.0940759181976318,-3.9369781017303467,0.061409395188093185
1684206820570761000,7.017760986328125,1.2428864240646362,-3.7938625812530518,0.038961201906204224
1684206820580786000,7.027785888671875,1.4296927452087402,-3.55808162689209,-0.041538167744874954
1684206820590811100,7.03781103515625,1.6461704969406128,-3.2679789066314697,-0.16654404997825623
1684206820600837000,7.047837158203125,1.802419662475586,-2.887998342514038,-0.35120654106140137
1684206820610862000,7.057862060546875,1.886950135231018,-2.4529714584350586,-0.6112083792686462
1684206820620887000,7.067886962890625,1.907492995262146,-2.172816276550293,-0.9372179508209229
1684206820630912000,7.077912109375,1.84010910987854,-2.173797845840454,-1.2405287027359009
1684206820640937200,7.087937255859375,1.4616153240203857,-2.0994105339050293,-1.3881163597106934
1684206820650962200,7.097962158203125,0.9723027944564819,-1.9920212030410767,-1.3830491304397583
1684206820660988200,7.10798828125,0.6098604202270508,-1.9690256118774414,-1.3535807132720947
1684206820671013000,7.11801318359375,0.3924608826637268,-2.0149929523468018,-1.4468183517456055
1684206820681038000,7.1280380859375,0.17799653112888336,-2.076251268386841,-1.6158398389816284
1684206820691063000,7.13806298828125,-0.00012775743380188942,-2.175273895263672,-1.792526125907898
1684206820701088000,7.148087890625,-0.10933467000722885,-2.331939220428467,-1.9462636709213257
1684206820711113000,7.158113037109375,-0.19616976380348206,-2.5665395259857178,-2.0507078170776367
1684206820721139000,7.168138916015625,-0.35244059562683105,-2.806563138961792,-2.0440192222595215
1684206820731164000,7.178163818359375,-0.5231831073760986,-3.124983310699463,-1.9039278030395508
1684206820741189000,7.188189208984375,-0.6769486665725708,-3.4699995517730713,-1.712703824043274
1684206820751214000,7.198214111328125,-0.8580990433692932,-3.8524763584136963,-1.5386966466903687
1684206820761239000,7.208239013671875,-0.9519741535186768,-4.169139385223389,-1.4162952899932861
1684206820771264000,7.218263916015625,-0.8893945217132568,-4.2368574142456055,-1.37906014919281
1684206820781290000,7.2282900390625,-0.7949606776237488,-3.9968907833099365,-1.307145118713379
1684206820791315200,7.238315185546875,-0.7167267203330994,-3.646542549133301,-1.1229723691940308
1684206820801340200,7.248340087890625,-0.644805908203125,-3.4652955532073975,-0.7980079054832458
1684206820811365000,7.258365234375,-0.630151629447937,-3.624182939529419,-0.3794475495815277
1684206820821389800,7.268389892578125,-0.5890486836433411,-3.644674777984619,-0.04669330269098282
1684206820831416000,7.278416015625,-0.5378226637840271,-2.7342538833618164,0.03632195666432381
1684206820841441000,7.28844091796875,-0.6995428800582886,-1.355575442314148,0.09664814174175262
1684206820851466000,7.298466064453125,-0.9811908006668091,-0.8476091027259827,0.15291470289230347
1684206820861491000,7.308490966796875,-1.1660581827163696,-0.843470573425293,0.17353661358356476
1684206820871516000,7.318515869140625,-1.2254071235656738,-0.7232605218887329,0.024043789133429527
1684206820881541000,7.328541015625,-1.1776305437088013,-0.37345245480537415,-0.324790358543396
1684206820891567000,7.338567138671875,-0.9023082852363586,0.16221515834331512,-0.6286503076553345
1684206820901592000,7.348592041015625,-0.4388061463832855,0.6060053706169128,-0.6254459619522095
1684206820911617000,7.358616943359375,0.11539093405008316,0.8314558863639832,-0.4147026836872101
1684206820921642000,7.36864208984375,0.6035131812095642,0.8297656178474426,-0.22004078328609467
1684206820931667200,7.378667236328125,0.8849647045135498,0.5547189116477966,-0.1464453488588333
1684206820941692200,7.388692138671875,0.8587397933006287,0.021342085674405098,-0.10394208878278732
1684206820951718100,7.39871826171875,0.6406714916229248,-0.4446612000465393,0.04591324180364609
1684206820961743000,7.4087431640625,0.15899914503097534,-0.940797746181488,0.061961982399225235
1684206820971768000,7.41876806640625,-0.22476504743099213,-1.2830201387405396,-0.23067083954811096
1684206820981793000,7.42879296875,-0.20467787981033325,-1.4037154912948608,-0.5391290783882141
1684206820991818000,7.43881787109375,-0.24221181869506836,-1.4588462114334106,-0.7048304677009583
1684206821001844000,7.448843994140625,-0.3087535500526428,-1.5410364866256714,-0.7792897820472717
1684206821011869000,7.458868896484375,-0.3169863820075989,-1.702877163887024,-0.8142622709274292
1684206821021894000,7.468893798828125,-0.39481860399246216,-1.9525271654129028,-0.8357236385345459
1684206821031919000,7.478919189453125,-0.48945650458335876,-2.2169930934906006,-0.7728995680809021
1684206821041944000,7.488944091796875,-0.5446523427963257,-2.189121723175049,-0.6475184559822083
1684206821051969000,7.498968994140625,-0.5999375581741333,-1.8953163623809814,-0.4826158285140991
1684206821061995000,7.5089951171875,-0.6537994742393494,-1.5970007181167603,-0.41124391555786133
1684206821072020000,7.51902001953125,-0.7149017453193665,-1.3913745880126953,-0.39592087268829346
1684206821082045200,7.529045166015625,-0.7386041283607483,-1.2746647596359253,-0.3800891935825348
1684206821092070100,7.539070068359375,-0.7416247129440308,-1.2308226823806763,-0.396297425031662
1684206821102095000,7.54909521484375,-0.7239620685577393,-1.229432463645935,-0.46517372131347656
1684206821112120000,7.5591201171875,-0.6937140226364136,-1.3685576915740967,-0.5612256526947021
1684206821122146000,7.56914599609375,-0.6548470258712769,-1.5906778573989868,-0.6423473954200745
1684206821132171000,7.5791708984375,-0.6021239161491394,-1.780961036682129,-0.689717173576355
1684206821142196000,7.589196044921875,-0.5992556810379028,-1.8879261016845703,-0.6954115629196167
1684206821152220200,7.59922021484375,-0.5913344621658325,-1.8759815692901611,-0.6301619410514832
1684206821162245400,7.609245361328125,-0.523754894733429,-1.7814451456069946,-0.4993477761745453
1684206821172271400,7.619271240234375,-0.3926871418952942,-1.6667838096618652,-0.28548333048820496
1684206821182296300,7.62929638671875,-0.15363752841949463,-1.5679413080215454,-0.04210902377963066
1684206821192321300,7.6393212890625,0.1903303861618042,-1.512818694114685,0.1848076730966568
1684206821202346000,7.649345947265625,0.4740760922431946,-1.4208067655563354,0.41507551074028015
1684206821212371200,7.65937109375,0.6591476202011108,-1.2445179224014282,0.6538762450218201
1684206821222396200,7.669396240234375,0.7351137399673462,-1.003411054611206,0.8034241795539856
1684206821232422100,7.679422119140625,0.7180063724517822,-0.7314080595970154,0.8731153607368469
1684206821242447000,7.689447021484375,0.6794291138648987,-0.3415766656398773,0.9063915610313416
1684206821252472000,7.69947216796875,0.6317598223686218,0.14142808318138123,0.9003044366836548
1684206821262497300,7.709497314453125,0.5697143077850342,0.5699703693389893,0.8970154523849487
1684206821272522200,7.719522216796875,0.5920608043670654,0.7259101867675781,0.8236738443374634
1684206821282547200,7.729547119140625,0.6732276082038879,0.5924698114395142,0.73023521900177
1684206821292573200,7.7395732421875,0.7544965147972107,0.4811188578605652,0.8154587149620056
1684206821302598100,7.74959814453125,0.872525691986084,0.6211627721786499,1.0259840488433838
1684206821312623400,7.759623291015625,1.0107392072677612,0.9210429787635803,1.2161312103271484
1684206821322648300,7.7696484375,0.9575791954994202,1.0490864515304565,1.2194135189056396
1684206821332673300,7.77967333984375,0.7616250514984131,0.9831249713897705,1.108638882637024
1684206821342699300,7.78969921875,0.6124776601791382,0.45123493671417236,0.915401816368103
1684206821352724200,7.79972412109375,0.39472532272338867,-0.22345618903636932,0.6762900352478027
1684206821362749200,7.809749267578125,0.16372936964035034,-0.6290417313575745,0.3470032215118408
1684206821372774100,7.819774169921875,0.03272964060306549,-0.879186749458313,-0.08635752648115158
1684206821382799000,7.829799072265625,0.0864727646112442,-0.9921985268592834,-0.5123389363288879
1684206821392824000,7.839823974609375,0.2344120293855667,-0.8777051568031311,-0.8554980754852295
1684206821402850000,7.84985009765625,0.3452429175376892,-0.8374666571617126,-1.0500801801681519
1684206821412875300,7.859875244140625,0.4395497143268585,-0.8014065623283386,-1.1040116548538208
1684206821422900200,7.869900146484375,0.4126765727996826,-0.9405242204666138,-1.082781195640564
1684206821432925200,7.87992529296875,0.3444766700267792,-1.3377647399902344,-1.0522812604904175
1684206821442950100,7.8899501953125,0.17769943177700043,-1.880542278289795,-1.00553560256958
1684206821452975400,7.899975341796875,-0.007337067276239395,-2.175455331802368,-0.8447689414024353
1684206821463001300,7.91000146484375,-0.051742617040872574,-2.164911985397339,-0.6090784072875977
1684206821473026300,7.9200263671875,0.003756409976631403,-1.9325952529907227,-0.3644125163555145
1684206821483051300,7.93005126953125,0.10834673792123795,-1.6018980741500854,-0.20050984621047974
1684206821493076000,7.940075927734375,0.15372256934642792,-1.2061944007873535,-0.12413416057825089
1684206821503101200,7.95010107421875,0.16816595196723938,-0.7823398113250732,-0.06322713196277618
1684206821513126100,7.960126220703125,0.21713821589946747,-0.32503944635391235,-0.0035228431224823
1684206821523151000,7.970151123046875,0.2901831567287445,0.06683912128210068,0.03695427253842354
1684206821533176000,7.980176025390625,0.36926594376564026,0.33625075221061707,0.04516110196709633
1684206821543202000,7.9902021484375,0.4471045434474945,0.5302103757858276,-0.004040796309709549
1684206821553227300,8.000227294921874,0.5199130177497864,0.6427412033081055,-0.09500778466463089
1684206821563252200,8.010252197265626,0.5483497381210327,0.6274000406265259,-0.20811890065670013
1684206821573277200,8.020277099609375,0.5366171002388,0.4333721101284027,-0.3530544638633728
1684206821583302100,8.03030224609375,0.4933282732963562,0.10219977796077728,-0.5103136301040649
1684206821593327400,8.040327392578124,0.4491855502128601,-0.2377128005027771,-0.6289411783218384
1684206821603353300,8.050353271484376,0.3967772126197815,-0.4282710552215576,-0.6837937831878662
1684206821613378300,8.06037841796875,0.327608197927475,-0.45300957560539246,-0.6562604308128357
1684206821623403300,8.0704033203125,0.2270892858505249,-0.3384137451648712,-0.5920963883399963
1684206821633428200,8.08042822265625,0.14163419604301453,-0.1554999053478241,-0.5318229794502258
1684206821643453200,8.090453125,0.09114465117454529,0.03441942483186722,-0.5126593708992004
1684206821653479200,8.100479248046875,0.07350838929414749,0.1636284440755844,-0.5447437167167664
1684206821663504100,8.110504150390625,0.0476730614900589,0.1713942289352417,-0.6267301440238953
1684206821673529000,8.120529052734375,0.025005724281072617,0.07999587804079056,-0.7065849304199219
1684206821683554000,8.130553955078126,-0.0010184177663177252,-0.06564360857009888,-0.7894965410232544
1684206821693579300,8.140579345703125,-0.04503008350729942,-0.24931730329990387,-0.8382499814033508
1684206821703604200,8.150604248046875,-0.12727701663970947,-0.47649210691452026,-0.846230149269104
1684206821713630200,8.160630126953125,-0.2528069317340851,-0.6664287447929382,-0.806714653968811
1684206821723655200,8.1706552734375,-0.39695799350738525,-0.7721719145774841,-0.739467442035675
1684206821733680000,8.18068017578125,-0.509127676486969,-0.6992718577384949,-0.6319164633750916
1684206821743705300,8.190705322265625,-0.6108159422874451,-0.5961268544197083,-0.5688030123710632
1684206821753730300,8.200730224609375,-0.6987516283988953,-0.4438876211643219,-0.5589108467102051
1684206821763755000,8.210755126953124,-0.7706684470176697,-0.256487637758255,-0.5543323159217834
1684206821773781200,8.22078125,-0.8102074861526489,-0.09765416383743286,-0.5463545322418213
1684206821783806200,8.23080615234375,-0.8546897172927856,-0.02922290936112404,-0.5464362502098083
1684206821793831200,8.2408310546875,-0.9018264412879944,-0.09547458589076996,-0.47475332021713257
1684206821803856100,8.250856201171874,-0.8960058093070984,-0.178781196475029,-0.2858031094074249
1684206821813881000,8.260881103515626,-0.6774546504020691,-0.28029584884643555,-0.006524312309920788
1684206821823907000,8.270906982421875,-0.2912989556789398,-0.3760508596897125,0.28260281682014465
1684206821833932300,8.280932373046875,0.016153443604707718,-0.2723972499370575,0.6183806657791138
1684206821843957200,8.290957275390625,0.1318342387676239,0.06640849262475967,1.0530327558517456
1684206821853982200,8.300982177734374,0.13194173574447632,0.658706545829773,1.3385565280914307
1684206821864007200,8.311007080078125,0.060868360102176666,1.2829173803329468,1.3771610260009766
1684206821874032400,8.321032470703125,-0.11875985562801361,1.6810435056686401,1.2689154148101807
1684206821884058000,8.33105810546875,-0.2717297077178955,1.7027595043182373,1.0282561779022217
1684206821894083300,8.341083251953124,-0.44886213541030884,1.403072476387024,0.652256190776825
1684206821904108300,8.3511083984375,-0.6914412379264832,0.7212772369384766,0.25458475947380066
1684206821914133200,8.36113330078125,-0.8883016109466553,-0.0684979259967804,-0.11535563319921494
1684206821924158200,8.371158203125,-0.9682936668395996,-0.4693811535835266,-0.2929935157299042
1684206821934183200,8.38118310546875,-0.9650169014930725,-0.6649588346481323,-0.31908756494522095
1684206821944209200,8.391209228515624,-0.923883855342865,-0.7986122369766235,-0.2289363443851471
1684206821954234000,8.401234130859375,-0.8291022181510925,-0.8017450571060181,-0.09611441195011139
1684206821964259000,8.411259033203125,-0.6079493165016174,-0.5075741410255432,-0.012638161890208721
1684206821974284300,8.4212841796875,-0.2702825963497162,-0.023614773526787758,-0.02877099998295307
1684206821984309200,8.431309326171874,0.08051831275224686,0.31309694051742554,-0.10912442952394485
1684206821994335200,8.441335205078126,0.3470610976219177,0.40384888648986816,-0.1601867377758026
1684206822004360200,8.451360107421875,0.5148785710334778,0.3908473253250122,-0.11040851473808289
1684206822014385200,8.46138525390625,0.5505161285400391,0.4997186064720154,0.002151764463633299
1684206822024410400,8.471410400390624,0.46673598885536194,0.6853821873664856,0.03558215871453285
1684206822034435300,8.481435302734376,0.411853551864624,0.8378238081932068,-0.026171721518039703
1684206822044460300,8.491460205078125,0.4046316146850586,0.8439688086509705,-0.07435256987810135
1684206822054486300,8.501486328125,0.353738397359848,0.5989189743995667,-0.09647384285926819
1684206822064511200,8.51151123046875,0.2899988293647766,0.279552698135376,-0.12953007221221924
1684206822074536200,8.5215361328125,0.24308882653713226,0.13805416226387024,-0.15982645750045776
1684206822084561200,8.53156103515625,0.17396807670593262,0.02058238536119461,-0.20286020636558533
1684206822094586000,8.541586181640625,0.08781355619430542,-0.07561422884464264,-0.23215220868587494
1684206822104611000,8.551611083984374,0.017786800861358643,-0.05963260307908058,-0.18477004766464233
1684206822114637000,8.561636962890624,-0.06922274082899094,-0.020010314881801605,-0.11985613405704498
1684206822124662300,8.571662353515626,-0.18104247748851776,0.1602524071931839,-0.03591516613960266
1684206822134687200,8.581687255859375,-0.2840830981731415,0.34321314096450806,0.01331416703760624
1684206822144712200,8.591712158203125,-0.34184280037879944,0.4462985396385193,0.05067352205514908
1684206822154737200,8.601737060546874,-0.32430022954940796,0.4794846773147583,0.0937982052564621
1684206822164763100,8.61176318359375,-0.25352299213409424,0.3813610374927521,0.057728614658117294
1684206822174788400,8.621788330078125,-0.16152609884738922,0.2079794555902481,-0.0530829057097435
1684206822184813300,8.631813232421875,-0.06724566221237183,0.01890220306813717,-0.1847115010023117
1684206822194838300,8.64183837890625,0.05305996164679527,-0.16192330420017242,-0.2874355912208557
1684206822204863200,8.65186328125,0.19676680862903595,-0.2290267050266266,-0.36889636516571045
1684206822214888200,8.66188818359375,0.2874916195869446,-0.19213660061359406,-0.4224906265735626
1684206822224914400,8.67191455078125,0.32912614941596985,-0.16328339278697968,-0.46010324358940125
1684206822234939100,8.681939208984375,0.3483760952949524,-0.18102510273456573,-0.4524744153022766
1684206822244964000,8.691964111328126,0.39173075556755066,-0.17776672542095184,-0.4018988609313965
1684206822254989000,8.701989013671875,0.4198540151119232,-0.20401480793952942,-0.3161937892436981
1684206822265014300,8.71201416015625,0.43344759941101074,-0.17578130960464478,-0.22667934000492096
1684206822275040300,8.722040283203125,0.43447986245155334,-0.06423696875572205,-0.16135768592357635
1684206822285065200,8.732065185546874,0.4199739098548889,0.09008655697107315,-0.1084316223859787
1684206822295090200,8.742090087890626,0.3847285509109497,0.22267718613147736,-0.0664307028055191
1684206822305115100,8.752115234375,0.3392423093318939,0.3081580102443695,-0.03944436088204384
1684206822315140400,8.762140380859375,0.2905662953853607,0.34021925926208496,-0.049265529960393906
1684206822325165300,8.772165283203124,0.23619703948497772,0.3200562000274658,-0.07982689887285233
1684206822335191300,8.78219140625,0.17544540762901306,0.26663097739219666,-0.0997622087597847
1684206822345216300,8.79221630859375,0.12014779448509216,0.20332899689674377,-0.10158754140138626
1684206822355241200,8.8022412109375,0.06761765480041504,0.1304028183221817,-0.0993424579501152
1684206822365266200,8.81226611328125,0.0279685128480196,0.05527132377028465,-0.08276721090078354
1684206822375291100,8.822291015625,0.008806794881820679,-0.03551919758319855,-0.06993483006954193
1684206822385316000,8.832316162109375,-0.016981391236186028,-0.11292770504951477,-0.055995311588048935
1684206822395342000,8.842342041015625,-0.025177236646413803,-0.11460066586732864,-0.10886675119400024
1684206822405367000,8.852366943359375,-0.00208177138119936,-0.019852325320243835,-0.20606599748134613
1684206822415392300,8.862392333984374,0.017846157774329185,0.09376464784145355,-0.2691640257835388
1684206822425417200,8.872417236328126,-0.01701968163251877,0.12239629775285721,-0.2270197868347168
1684206822435442200,8.882442138671875,-0.07839160412549973,-0.0014652761165052652,-0.18691842257976532
1684206822445467100,8.892467041015625,-0.09140806645154953,-0.17024098336696625,-0.18246695399284363
1684206822455493000,8.9024931640625,-0.07567673921585083,-0.28701573610305786,-0.1820136159658432
1684206822465518300,8.912518310546876,-0.03966068848967552,-0.28911909461021423,-0.18269990384578705
1684206822475543300,8.922543212890625,-0.018457164987921715,-0.15055328607559204,-0.18929076194763184
1684206822485568300,8.932568359375,-0.0007647203747183084,0.11672315001487732,-0.20095008611679077
1684206822495593200,8.94259326171875,0.02631518244743347,0.33753132820129395,-0.14761847257614136
1684206822505619200,8.952619140625,0.03633852303028107,0.5188667178153992,-0.09322952479124069
1684206822515644400,8.96264453125,0.03299902006983757,0.602757453918457,-0.039115872234106064
1684206822525669000,8.972669189453125,0.03704356029629707,0.6205178499221802,0.036996737122535706
1684206822535694000,8.982694091796875,0.04215701296925545,0.6046181321144104,0.09547372162342072
1684206822545719000,8.992718994140626,0.05061175301671028,0.6268744468688965,0.10784890502691269
1684206822555744300,9.002744140625,0.06428251415491104,0.6770836114883423,0.08223240077495575
1684206822565770200,9.012770263671875,0.07097690552473068,0.7092236876487732,0.053435903042554855
1684206822575795200,9.022795166015625,0.052535608410835266,0.71929931640625,0.045053042471408844
1684206822585820200,9.032820068359374,0.0022886821534484625,0.6826981902122498,0.044163547456264496
1684206822595845000,9.04284521484375,-0.0666399672627449,0.5910529494285583,0.010431913658976555
1684206822605870300,9.052870361328125,-0.1417221873998642,0.46142470836639404,-0.05975516140460968
1684206822615896300,9.062896240234375,-0.19163307547569275,0.2998851239681244,-0.16837812960147858
1684206822625921300,9.07292138671875,-0.25171610713005066,0.1090155765414238,-0.2731090784072876
1684206822635946200,9.0829462890625,-0.2972455620765686,-0.0844450518488884,-0.32092681527137756
1684206822645971200,9.09297119140625,-0.3522355854511261,-0.24678336083889008,-0.36409637331962585
1684206822655996200,9.10299609375,-0.4391975998878479,-0.30932483077049255,-0.4217260479927063
1684206822666021000,9.113021240234374,-0.49738582968711853,-0.38761377334594727,-0.4662543535232544
1684206822676047000,9.123047119140624,-0.47890323400497437,-0.6238077282905579,-0.44753316044807434
1684206822686072000,9.133072021484375,-0.36710506677627563,-0.9603087902069092,-0.36345475912094116
1684206822696097000,9.143096923828125,-0.15850095450878143,-1.2900675535202026,-0.31589117646217346
1684206822706122200,9.153122314453125,0.004754549823701382,-1.568056583404541,-0.3101925253868103
1684206822716147200,9.163147216796874,0.11156032979488373,-1.5724191665649414,-0.26294809579849243
1684206822726172200,9.173172119140625,0.18245287239551544,-1.3810185194015503,-0.16810280084609985
1684206822736198100,9.1831982421875,0.21828334033489227,-1.1750121116638184,-0.08709871768951416
1684206822746223000,9.19322314453125,0.2594795227050781,-1.0046957731246948,-0.06500620394945145
1684206822756248300,9.203248291015624,0.2868565022945404,-0.7775176167488098,-0.031457919627428055
1684206822766273300,9.213273193359376,0.2834010422229767,-0.41761887073516846,0.07159415632486343
1684206822776298200,9.22329833984375,0.2476094514131546,0.043837614357471466,0.2311040610074997
1684206822786323200,9.2333232421875,0.22054800391197205,0.4828285574913025,0.41755595803260803
1684206822796349200,9.24334912109375,0.19510330259799957,0.8059669137001038,0.5848488211631775
1684206822806374400,9.25337451171875,0.2137259989976883,0.9823054075241089,0.6822807788848877
1684206822816399000,9.263399169921875,0.29793107509613037,0.8940803408622742,0.7324651479721069
1684206822826424000,9.273424072265625,0.34055763483047485,0.5985485911369324,0.8029240965843201
1684206822836449000,9.283448974609374,0.4039072096347809,0.2732800543308258,0.8463510870933533
1684206822846475000,9.29347509765625,0.45964932441711426,-0.017605574801564217,0.8622562885284424
1684206822856500200,9.303500244140626,0.4704594314098358,-0.1512676477432251,0.8835588097572327
1684206822866525200,9.313525146484375,0.4014614522457123,-0.08527690917253494,0.9475987553596497
1684206822876550100,9.323550048828125,0.341377317905426,0.18606775999069214,1.0393465757369995
1684206822886575000,9.3335751953125,0.31691300868988037,0.49841445684432983,1.1381375789642334
1684206822896600300,9.343600341796876,0.30235984921455383,0.7498023509979248,1.2615777254104614
1684206822906626300,9.353626220703125,0.31882113218307495,0.8425144553184509,1.3763765096664429
1684206822916651300,9.3636513671875,0.36603817343711853,0.7589956521987915,1.418183445930481
1684206822926676200,9.37367626953125,0.418792188167572,0.7201704978942871,1.4365246295928955
1684206822936701200,9.383701171875,0.5162375569343567,0.7215701937675476,1.4210963249206543
1684206822946726100,9.39372607421875,0.6450660824775696,0.7029911875724792,1.3530930280685425
1684206822956752400,9.40375244140625,0.8017171025276184,0.615294873714447,1.2435239553451538
1684206822966777000,9.413777099609375,0.9232243895530701,0.6171753406524658,1.1226154565811157
1684206822976802000,9.423802001953124,1.0009558200836182,0.5654877424240112,0.9282923936843872
1684206822986827000,9.433826904296875,1.0357707738876343,0.4553612470626831,0.7614810466766357
1684206822996852200,9.443852294921875,1.0171018838882446,0.1406068056821823,0.6368593573570251
1684206823006877200,9.453877197265625,0.9274904727935791,-0.29998311400413513,0.5344147086143494
1684206823016903200,9.463903076171874,0.7915037870407104,-0.755896270275116,0.48898932337760925
1684206823026928000,9.47392822265625,0.6164142489433289,-1.1255453824996948,0.4719030261039734
1684206823036953000,9.483953125,0.4594249427318573,-1.2441564798355103,0.4103406071662903
1684206823046978300,9.493978271484375,0.30936169624328613,-1.046631932258606,0.3271400034427643
1684206823057003300,9.504003173828124,0.18199877440929413,-0.7603873610496521,0.23521381616592407
1684206823067028200,9.5140283203125,0.13815702497959137,-0.4303402304649353,0.16876713931560516
1684206823077054200,9.52405419921875,0.13202247023582458,-0.2002219706773758,0.05363031104207039
1684206823087079200,9.5340791015625,0.12429690361022949,-0.14387427270412445,-0.1150449886918068
1684206823097104400,9.5441044921875,0.12486714869737625,-0.2682983875274658,-0.3242798149585724
1684206823107129000,9.554129150390626,0.10848604142665863,-0.4879995882511139,-0.49654239416122437
1684206823117154000,9.564154052734375,0.04791349545121193,-0.7213432788848877,-0.610953152179718
1684206823127180000,9.574179931640625,-0.052538275718688965,-0.8323198556900024,-0.6906402707099915
1684206823137205200,9.584205322265625,-0.13347822427749634,-0.8054778575897217,-0.7242733240127563
1684206823147230200,9.594230224609374,-0.2225409746170044,-0.8107322454452515,-0.7229002118110657
1684206823157255700,9.604255615234376,-0.31187641620635986,-0.9077617526054382,-0.6735653281211853
1684206823167280600,9.61428076171875,-0.3794240355491638,-1.0625249147415161,-0.6154266595840454
1684206823177305300,9.624305419921875,-0.4482026994228363,-1.1633241176605225,-0.5855041742324829
1684206823187331600,9.63433154296875,-0.4638570249080658,-1.1373929977416992,-0.5113876461982727
1684206823197356500,9.6443564453125,-0.434648334980011,-1.0764104127883911,-0.41243308782577515
1684206823207381500,9.654381591796875,-0.35397958755493164,-1.048577904701233,-0.2943141758441925
1684206823217406500,9.664406494140625,-0.2821658253669739,-1.0526565313339233,-0.17810270190238953
1684206823227431400,9.674431396484374,-0.20234768092632294,-1.082409381866455,-0.0643167495727539
1684206823237456600,9.68445654296875,-0.15099133551120758,-1.1756975650787354,0.01182628609240055
1684206823247482600,9.694482666015626,-0.15239828824996948,-1.2362295389175415,0.0794316902756691
1684206823257507600,9.704507568359375,-0.11473344266414642,-1.122053623199463,0.1423128843307495
1684206823267532500,9.714532470703125,-0.01999414712190628,-0.7319282293319702,0.20810121297836304
1684206823277557500,9.7245576171875,0.10346455872058868,-0.19161269068717957,0.2792889177799225
1684206823287582700,9.734582763671876,0.23981493711471558,0.34528058767318726,0.3404737114906311
1684206823297608700,9.744608642578125,0.35641223192214966,0.7699301838874817,0.34727832674980164
1684206823307633700,9.754633544921875,0.45039358735084534,0.9228020310401917,0.2902781665325165
1684206823317658600,9.76465869140625,0.4789620339870453,0.8115491271018982,0.19083447754383087
1684206823327683600,9.77468359375,0.41899189352989197,0.47921085357666016,0.05963651463389397
1684206823337708500,9.78470849609375,0.31118446588516235,0.018972042948007584,-0.05062548816204071
1684206823347733500,9.7947333984375,0.2293655127286911,-0.40006810426712036,-0.14209921658039093
1684206823357759500,9.804759521484375,0.17115497589111328,-0.6454288959503174,-0.27662044763565063
1684206823367784400,9.814784423828126,0.1383134126663208,-0.6306869983673096,-0.39326027035713196
1684206823377809400,9.824809326171875,0.09687582403421402,-0.3520195782184601,-0.38184690475463867
1684206823387834600,9.834834716796875,0.05643944442272186,0.0597248449921608,-0.3321176767349243
1684206823397859600,9.844859619140625,-0.00013469485566020012,0.49842244386672974,-0.31370022892951965
1684206823407885600,9.854885498046874,-0.08366075158119202,0.7853317260742188,-0.32447218894958496
1684206823417910500,9.86491064453125,-0.20908154547214508,0.7985682487487793,-0.32860106229782104
1684206823427935500,9.874935546875,-0.3422670066356659,0.6007510423660278,-0.3481353521347046
1684206823437960700,9.884960693359375,-0.455445796251297,0.3638821840286255,-0.4055074453353882
1684206823447985700,9.894985595703124,-0.5475234985351562,0.16505004465579987,-0.48362860083580017
1684206823458010600,9.9050107421875,-0.6354700922966003,0.0819414034485817,-0.5494785308837891
1684206823468036600,9.91503662109375,-0.7293673157691956,0.1356848031282425,-0.5948705077171326
1684206823478061600,9.9250615234375,-0.8418270945549011,0.2553333640098572,-0.535250186920166
1684206823488086500,9.93508642578125,-0.9363831877708435,0.4098457098007202,-0.32544955611228943
1684206823498111500,9.945111572265626,-1.00571608543396,0.5422340631484985,-0.018735496327280998
1684206823508136400,9.955136474609375,-0.887413740158081,0.5485124588012695,0.2936077415943146
1684206823518161400,9.965161376953125,-0.6359223127365112,0.5017687082290649,0.5743867754936218
1684206823528187400,9.9751875,-0.27400219440460205,0.8133851885795593,0.867343008518219
1684206823538212600,9.985212646484374,0.1139417216181755,1.448716402053833,1.188808560371399
1684206823548237600,9.995237548828126,0.38603660464286804,2.1435039043426514,1.3129366636276245
1684206823558262500,10.005262451171875,0.49908003211021423,2.5270614624023438,1.1558711528778076
1684206823568287500,10.01528759765625,0.4249397814273834,2.4842898845672607,0.9644505977630615
1684206823578313500,10.0253134765625,0.27080386877059937,2.312528371810913,0.8010507822036743
1684206823588338700,10.035338623046876,0.15335741639137268,1.9639846086502075,0.4803800582885742
1684206823598363600,10.04536376953125,0.06354086846113205,1.316725254058838,-0.013209881260991096
1684206823608388600,10.055388671875,0.020383544266223907,0.5594578385353088,-0.43195974826812744
1684206823618413600,10.06541357421875,-0.0808742418885231,0.16668854653835297,-0.4777052700519562
1684206823628438500,10.0754384765625,-0.23619990050792694,0.17242179811000824,-0.2495754361152649
1684206823638464800,10.08546484375,-0.39483126997947693,0.4222080707550049,0.06707454472780228
1684206823648489500,10.095489501953125,-0.5207955837249756,0.8211679458618164,0.3364969491958618
1684206823658514400,10.105514404296875,-0.5759485363960266,1.1200103759765625,0.4867975413799286
1684206823668539600,10.11553955078125,-0.4765748381614685,1.1010273694992065,0.5373350381851196
1684206823678564600,10.125564697265625,-0.34163644909858704,0.8734320998191833,0.5377395153045654
1684206823688590600,10.135590576171875,-0.23420795798301697,0.5361289381980896,0.44749003648757935
1684206823698615600,10.145615478515625,-0.16666914522647858,0.11886371672153473,0.21852067112922668
1684206823708640500,10.155640625,-0.18049201369285583,-0.2943773865699768,-0.01637200079858303
1684206823718665500,10.16566552734375,-0.2078208327293396,-0.6023879647254944,-0.12449376285076141
1684206823728690700,10.175690673828125,-0.2093188613653183,-0.7246496677398682,-0.14990085363388062
1684206823738715600,10.185715576171875,-0.17365026473999023,-0.8702847361564636,-0.18410319089889526
1684206823748741600,10.19574169921875,-0.1345319002866745,-0.9964445233345032,-0.2361898273229599
1684206823758766600,10.2057666015625,-0.11755599826574326,-1.0921599864959717,-0.22754494845867157
1684206823768791600,10.21579150390625,-0.10816968977451324,-1.1505601406097412,-0.2151506096124649
1684206823778816500,10.22581640625,-0.08708854019641876,-1.0692682266235352,-0.19122819602489471
1684206823788841500,10.235841552734374,-0.04322760924696922,-0.8886526823043823,-0.21100670099258423
1684206823798866400,10.245866455078126,0.045316871255636215,-0.7707961201667786,-0.2803940773010254
1684206823808892400,10.255892333984375,0.16355057060718536,-0.8024169206619263,-0.3928833305835724
1684206823818917600,10.265917724609375,0.2497187852859497,-0.8870649933815002,-0.4972677230834961
1684206823828942600,10.275942626953125,0.28133928775787354,-0.8367161154747009,-0.6019847989082336
1684206823838967600,10.285967529296874,0.2660950720310211,-0.6865730285644531,-0.6308256387710571
1684206823848992500,10.295992431640625,0.19378648698329926,-0.5038886666297913,-0.5743466019630432
1684206823859017700,10.306017822265625,0.10697390139102936,-0.43166717886924744,-0.47041192650794983
1684206823869043700,10.316043701171875,0.07185745984315872,-0.5339208841323853,-0.3975214660167694
1684206823879068700,10.326068603515624,0.06789089739322662,-0.7173852920532227,-0.3747095465660095
1684206823889093600,10.33609375,0.08170631527900696,-0.6612192392349243,-0.32244500517845154
1684206823899118600,10.34611865234375,0.17164017260074615,-0.24880091845989227,-0.21362607181072235
1684206823909143800,10.356143798828125,0.2403116524219513,0.15624138712882996,-0.12982384860515594
1684206823919169800,10.366169677734375,0.252816766500473,0.4076037108898163,-0.09299921989440918
1684206823929194800,10.37619482421875,0.26620393991470337,0.5731961727142334,-0.09108041226863861
1684206823939219500,10.386219482421875,0.19869492948055267,0.7207126617431641,-0.11230527609586716
1684206823949244400,10.396244384765625,0.10282167047262192,0.8561359643936157,-0.08847610652446747
1684206823959269600,10.40626953125,0.04817014932632446,0.8402519226074219,-0.04930707812309265
1684206823969294600,10.416294677734374,0.046670254319906235,0.7664594650268555,-0.06546580791473389
1684206823979320600,10.426320556640626,0.06947922706604004,0.6579979062080383,-0.09196026623249054
1684206823989345500,10.436345458984375,0.08520279079675674,0.5066174268722534,-0.06588924676179886
1684206823999370500,10.44637060546875,0.08311594277620316,0.34216004610061646,-0.01957288384437561
1684206824009395700,10.456395751953124,0.051212336868047714,0.1964489221572876,0.018908727914094925
1684206824019420700,10.466420654296876,0.000757243949919939,0.15030397474765778,0.07093972712755203
1684206824029445600,10.476445556640625,-0.10956926643848419,-0.016710037365555763,0.11161338537931442
1684206824039471600,10.4864716796875,-0.1938650757074356,-0.07247698307037354,0.0984429121017456
1684206824049496600,10.49649658203125,-0.22987712919712067,-0.05987384170293808,0.023154014721512794
1684206824059521800,10.506521728515626,-0.17766109108924866,-0.03755684569478035,-0.06492500752210617
1684206824069546500,10.51654638671875,-0.12615983188152313,-0.010626429691910744,-0.13557468354701996
1684206824079571500,10.526571533203125,-0.09007149189710617,0.044706955552101135,-0.20003348588943481
1684206824089597400,10.536597412109375,-0.040101006627082825,0.0875777155160904,-0.2594722807407379
1684206824099622400,10.546622314453124,0.009897380135953426,0.1022104024887085,-0.3013412654399872
1684206824109647600,10.556647705078126,0.03499181196093559,0.09153112769126892,-0.33622413873672485
1684206824119672600,10.566672607421875,0.05603565275669098,0.050833720713853836,-0.403873085975647
1684206824129697500,10.576697509765625,0.08887536078691483,-0.03266197070479393,-0.4486389756202698
1684206824139722500,10.586722412109374,0.13728412985801697,-0.15192730724811554,-0.4525269865989685
1684206824149748500,10.59674853515625,0.1862812340259552,-0.2149001508951187,-0.4004741907119751
1684206824159774000,10.60677392578125,0.18277095258235931,-0.25736209750175476,-0.29902184009552
1684206824169799200,10.616799072265625,0.12168815732002258,-0.2980043292045593,-0.18312746286392212
1684206824179824000,10.62682421875,0.042148612439632416,-0.28822681307792664,-0.052702173590660095
1684206824189849000,10.63684912109375,-0.07193134725093842,-0.21569883823394775,0.03800669312477112
1684206824199874000,10.6468740234375,-0.16888189315795898,-0.11033482849597931,0.06237630546092987
1684206824209900000,10.656900146484375,-0.22818516194820404,-0.016989698633551598,0.06412520259618759
1684206824219925200,10.66692529296875,-0.24397869408130646,0.04111650213599205,0.0447876863181591
1684206824229950200,10.6769501953125,-0.2435017079114914,0.07141315937042236,-0.006877375300973654
1684206824239975200,10.68697509765625,-0.23564670979976654,0.03889292851090431,-0.06726715713739395
1684206824250000100,10.697000244140625,-0.23105141520500183,-0.057905785739421844,-0.12178818881511688
1684206824260026000,10.707026123046875,-0.21133539080619812,-0.17025381326675415,-0.16595374047756195
1684206824270051300,10.71705126953125,-0.24357855319976807,-0.34881290793418884,-0.230524480342865
1684206824280076300,10.727076171875,-0.2680300176143646,-0.4378258287906647,-0.25847598910331726
1684206824290101000,10.73710107421875,-0.29197102785110474,-0.4927990734577179,-0.24595539271831512
1684206824300126000,10.7471259765625,-0.30727720260620117,-0.5353285074234009,-0.23146705329418182
1684206824310151200,10.757151123046874,-0.3390348553657532,-0.5377735495567322,-0.2090831845998764
1684206824320177200,10.76717724609375,-0.34061628580093384,-0.5163971781730652,-0.18605417013168335
1684206824330202000,10.7772021484375,-0.32219547033309937,-0.5041607022285461,-0.159407377243042
1684206824340227000,10.78722705078125,-0.2783489525318146,-0.4113938808441162,-0.16253486275672913
1684206824350252000,10.797251953125,-0.24345916509628296,-0.2808704972267151,-0.18387849628925323
1684206824360277200,10.80727734375,-0.2623259425163269,-0.15489359200000763,-0.20079229772090912
1684206824370302200,10.81730224609375,-0.3048592805862427,-0.06031861901283264,-0.19662418961524963
1684206824380328200,10.827328125,-0.3449938893318176,-0.032572779804468155,-0.20606011152267456
1684206824390353200,10.837353271484375,-0.38686302304267883,-0.03169127181172371,-0.25063052773475647
1684206824400378000,10.847378173828124,-0.41476142406463623,-0.015022991225123405,-0.3044124245643616
1684206824410403300,10.8574033203125,-0.42659199237823486,0.04062535613775253,-0.3682055175304413
1684206824420428300,10.86742822265625,-0.4391632080078125,0.13343200087547302,-0.42769116163253784
1684206824430453000,10.877452880859375,-0.44157150387763977,0.22714543342590332,-0.4764011800289154
1684206824440479000,10.88747900390625,-0.4362141489982605,0.28055137395858765,-0.48903197050094604
1684206824450504200,10.897504150390626,-0.42957329750061035,0.3379427492618561,-0.5002974271774292
1684206824460529200,10.907529052734375,-0.4380021393299103,0.49686697125434875,-0.5060952305793762
1684206824470554000,10.91755419921875,-0.4545300006866455,0.6837010383605957,-0.5031239986419678
1684206824480579000,10.9275791015625,-0.43691447377204895,0.8260005116462708,-0.47840616106987
1684206824490604300,10.937604248046876,-0.40471845865249634,0.7711596488952637,-0.4061649739742279
1684206824500630000,10.947630126953126,-0.48872411251068115,0.5856917500495911,-0.2437613308429718
1684206824510655200,10.9576552734375,-0.5212578177452087,0.49823030829429626,-0.09798549115657806
1684206824520680200,10.96768017578125,-0.48226022720336914,0.28924092650413513,-0.14021609723567963
1684206824530705200,10.977705078125,-0.5040965676307678,0.1415816843509674,-0.2938847243785858
1684206824540730000,10.987730224609376,-0.42901694774627686,-0.008421425707638264,-0.49181920289993286
1684206824550756000,10.997756103515625,-0.29352009296417236,-0.2267865240573883,-0.5977821350097656
1684206824560781300,11.00778125,-0.2049952894449234,-0.3172323703765869,-0.5646584630012512
1684206824570806300,11.01780615234375,-0.11158651858568192,-0.20499104261398315,-0.49255526065826416
1684206824580831000,11.0278310546875,0.00482075335457921,0.029814746230840683,-0.4383150041103363
1684206824590856200,11.037856201171875,0.12587182223796844,0.20740817487239838,-0.3494165539741516
1684206824600881200,11.047881103515625,0.23734095692634583,0.33481305837631226,-0.21077856421470642
1684206824610907100,11.0579072265625,0.3242367208003998,0.4743139445781708,-0.06833459436893463
1684206824620932000,11.06793212890625,0.3884007930755615,0.6037929058074951,0.06489429622888565
1684206824630957000,11.07795703125,0.4348234236240387,0.7136088609695435,0.22540034353733063
1684206824640982300,11.087982177734375,0.46201398968696594,0.8404892086982727,0.4254688620567322
1684206824651007200,11.09800732421875,0.460252046585083,0.9106084108352661,0.6459716558456421
1684206824661032200,11.1080322265625,0.45001402497291565,0.9438827633857727,0.8429384827613831
1684206824671058200,11.11805810546875,0.4309132993221283,1.0091241598129272,1.0342756509780884
1684206824681083100,11.128083251953125,0.43986836075782776,1.1134412288665771,1.1739797592163086
1684206824691108400,11.1381083984375,0.48313912749290466,1.195801854133606,1.2915607690811157
1684206824701133300,11.14813330078125,0.529056966304779,1.1854103803634644,1.3593475818634033
1684206824711158300,11.158158203125,0.5840190052986145,1.0863423347473145,1.3562445640563965
1684206824721184300,11.168184326171875,0.6042898893356323,0.8849420547485352,1.2901809215545654
1684206824731209000,11.178208984375,0.6202440857887268,0.6281965970993042,1.2367442846298218
1684206824741234200,11.188234130859374,0.6200106143951416,0.4260338246822357,1.169874906539917
1684206824751259100,11.198259033203126,0.6567097902297974,0.2642481327056885,1.0836914777755737
1684206824761284000,11.2082841796875,0.7191722393035889,0.106962189078331,0.9852322340011597
1684206824771309000,11.21830908203125,0.7722048163414001,-0.09338262677192688,0.8383735418319702
1684206824781335000,11.2283349609375,0.8047463297843933,-0.14859126508235931,0.6827685236930847
1684206824791360300,11.2383603515625,0.7978047728538513,-0.160345658659935,0.5043191313743591
1684206824801385200,11.24838525390625,0.7401984930038452,-0.4173545241355896,0.3545944392681122
1684206824811410200,11.25841015625,0.6249291300773621,-0.8960103392601013,0.29366663098335266
1684206824821435100,11.26843505859375,0.5016753673553467,-1.4394679069519043,0.31814175844192505
1684206824831460400,11.27846044921875,0.33290529251098633,-1.8690932989120483,0.37072399258613586
1684206824841486300,11.288486328125,0.1462072879076004,-2.028031826019287,0.4231400191783905
1684206824851511300,11.29851123046875,0.006755382753908634,-1.8256438970565796,0.44822460412979126
1684206824861536300,11.308536376953125,-0.0020295537542551756,-1.2128254175186157,0.41229701042175293
1684206824871561000,11.31856103515625,0.06361737102270126,-0.35426363348960876,0.3541162610054016
1684206824881586200,11.328586181640626,0.06599323451519012,0.3583642542362213,0.3355940282344818
1684206824891612200,11.338612060546875,0.07902195304632187,0.5865939259529114,0.31102555990219116
1684206824901637000,11.34863720703125,0.09597451239824295,0.4934932291507721,0.24592240154743195
1684206824911662000,11.358662109375,0.1002637967467308,0.27757957577705383,0.13202700018882751
1684206824921687000,11.36868701171875,0.1218751072883606,0.07448864728212357,-0.016576092690229416
1684206824931712300,11.378712158203125,0.14135906100273132,-0.05444696173071861,-0.16710887849330902
1684206824941737200,11.3887373046875,0.16197215020656586,-0.23178039491176605,-0.3076205551624298
1684206824951763200,11.39876318359375,0.18576376140117645,-0.4319784641265869,-0.44333550333976746
1684206824961788200,11.4087880859375,0.20702894032001495,-0.5605127811431885,-0.5507282614707947
1684206824971813000,11.418813232421876,0.20359478890895844,-0.6606324911117554,-0.5927071571350098
1684206824981838300,11.42883837890625,0.17581725120544434,-0.741412341594696,-0.5999029278755188
1684206824991863300,11.43886328125,0.1143038272857666,-0.8160913586616516,-0.5763243436813354
1684206825001888300,11.44888818359375,0.02061162330210209,-0.9080766439437866,-0.5610365271568298
1684206825011914200,11.458914306640626,-0.07652104645967484,-0.8951992392539978,-0.4997553527355194
1684206825021939000,11.46893896484375,-0.13073977828025818,-0.8914646506309509,-0.36778637766838074
1684206825031964200,11.478964111328125,-0.1680530607700348,-0.9539740681648254,-0.21534384787082672
1684206825041989000,11.488989013671874,-0.19416125118732452,-0.9857784509658813,-0.09111779183149338
1684206825052014000,11.49901416015625,-0.21182787418365479,-0.9384263753890991,-0.0015122713521122932
1684206825062039000,11.5090390625,-0.19579395651817322,-0.8234611749649048,0.07084976881742477
1684206825072065000,11.51906494140625,-0.1630096435546875,-0.6991482377052307,0.11056043207645416
1684206825082090200,11.52909033203125,-0.10123533755540848,-0.533433198928833,0.13762886822223663
1684206825092115200,11.539115234375,0.019097469747066498,-0.36209020018577576,0.13151797652244568
1684206825102140200,11.54914013671875,0.15657542645931244,-0.12398930639028549,0.11169115453958511
1684206825112165000,11.5591650390625,0.31514057517051697,0.21539755165576935,0.09886138141155243
1684206825122191000,11.569191162109375,0.44421425461769104,0.6122823357582092,0.06926540285348892
1684206825132216300,11.57921630859375,0.5020530223846436,0.8761086463928223,0.027091849595308304
1684206825142241300,11.5892412109375,0.5344730615615845,0.8994895219802856,-0.03463563695549965
1684206825152266200,11.599266357421875,0.5208401083946228,0.7249068021774292,-0.1155099868774414
1684206825162290700,11.609290771484375,0.48049962520599365,0.4037759304046631,-0.22562135756015778
1684206825172316000,11.61931591796875,0.4472433924674988,0.05695991963148117,-0.39761683344841003
1684206825182342000,11.629341796875,0.4230767488479614,-0.21791648864746094,-0.5965713262557983
1684206825192366800,11.639366943359375,0.39244505763053894,-0.3329349458217621,-0.7515356540679932
1684206825202391800,11.649391845703125,0.34647807478904724,-0.3145199716091156,-0.8214216828346252
1684206825212416800,11.659416748046874,0.2965525984764099,-0.28594720363616943,-0.810976505279541
1684206825222441700,11.669441650390626,0.23654277622699738,-0.23427920043468475,-0.7508156895637512
1684206825232466700,11.679466796875,0.17902861535549164,-0.1537443995475769,-0.678290605545044
1684206825242492700,11.68949267578125,0.1333410143852234,-0.08422818779945374,-0.6091024875640869
1684206825252517600,11.699517578125,0.07370458543300629,-0.08347504585981369,-0.578314483165741
1684206825262542800,11.70954296875,0.013706265017390251,-0.16910363733768463,-0.5792405009269714
1684206825272567800,11.71956787109375,-0.045484885573387146,-0.3188963234424591,-0.6264681816101074
1684206825282592800,11.7295927734375,-0.11762148141860962,-0.4933781325817108,-0.7018177509307861
1684206825292618800,11.73961865234375,-0.1913633495569229,-0.6134331822395325,-0.7525458931922913
1684206825302643700,11.749643798828124,-0.27513304352760315,-0.6518647074699402,-0.769679605960846
1684206825312669000,11.7596689453125,-0.3534499406814575,-0.5941569209098816,-0.716250479221344
1684206825322694000,11.76969384765625,-0.4241560101509094,-0.44051435589790344,-0.5865663290023804
1684206825332718800,11.77971875,-0.4919486343860626,-0.2623715400695801,-0.43907031416893005
1684206825342743800,11.789743896484374,-0.5622457265853882,-0.10955484956502914,-0.308305948972702
1684206825352769800,11.799769775390626,-0.6102790236473083,0.033000435680150986,-0.20971038937568665
1684206825362794800,11.809794677734375,-0.6381924748420715,0.1551881581544876,-0.15838134288787842
1684206825372820000,11.819820068359375,-0.6468821167945862,0.24163144826889038,-0.13265973329544067
1684206825382844700,11.8298447265625,-0.6465198397636414,0.2764669954776764,-0.12419302016496658
1684206825392869600,11.83986962890625,-0.6289640069007874,0.2496955543756485,-0.12505614757537842
1684206825402894800,11.849894775390625,-0.5948366522789001,0.18861348927021027,-0.09190124273300171
1684206825412920800,11.8599208984375,-0.4966565668582916,0.05353343114256859,0.007905515842139721
1684206825422945800,11.86994580078125,-0.36392056941986084,-0.1747492402791977,0.19076617062091827
1684206825432970800,11.879970703125,-0.2531096339225769,-0.46372753381729126,0.38569119572639465
1684206825442995700,11.88999560546875,-0.1357545405626297,-0.7449273467063904,0.5568587183952332
1684206825453021000,11.90002099609375,-0.08367802202701569,-0.7763071060180664,0.658257246017456
1684206825463047000,11.910046875,-0.06748953461647034,-0.4606335461139679,0.6631991267204285
1684206825473071900,11.92007177734375,-0.04957791045308113,-0.034356530755758286,0.6034130454063416
1684206825483096800,11.930096923828126,-0.09618346393108368,0.21068041026592255,0.5054804086685181
1684206825493121800,11.940121826171875,-0.1398417204618454,0.1271389126777649,0.3660071790218353
1684206825503147000,11.95014697265625,-0.16408765316009521,-0.2620096802711487,0.1251731663942337
1684206825513171700,11.960171630859374,-0.17709746956825256,-0.8444403409957886,-0.20168565213680267
1684206825523198000,11.970197998046874,-0.1746353656053543,-1.3793551921844482,-0.49819010496139526
1684206825533222700,11.98022265625,-0.18008577823638916,-1.6981388330459595,-0.6286519765853882
1684206825543247600,11.99024755859375,-0.18647877871990204,-1.8897913694381714,-0.6476061344146729
1684206825553272800,12.00027294921875,-0.16778232157230377,-1.990322470664978,-0.6434851288795471
1684206825563297800,12.0102978515625,-0.11676888912916183,-2.0506067276000977,-0.6259418725967407
1684206825573322800,12.02032275390625,-0.061886463314294815,-2.0628106594085693,-0.5732507109642029
1684206825583348700,12.0303486328125,-0.022591853514313698,-1.983042597770691,-0.48683813214302063
1684206825593373700,12.040373779296875,-0.03215766325592995,-1.8483662605285645,-0.38677918910980225
1684206825603399000,12.05039892578125,-0.05332150310277939,-1.7659496068954468,-0.33681875467300415
1684206825613423900,12.060423828125,-0.06222178786993027,-1.7103869915008545,-0.35473811626434326
1684206825623448800,12.07044873046875,-0.028516780585050583,-1.6288198232650757,-0.43278464674949646
1684206825633474800,12.080474853515625,0.014146259985864162,-1.5279877185821533,-0.49761688709259033
1684206825643499800,12.090499755859375,0.06151159480214119,-1.3354603052139282,-0.5159081816673279
1684206825653525000,12.10052490234375,0.12202554941177368,-1.0672967433929443,-0.47508880496025085
1684206825663550000,12.110550048828125,0.15748463571071625,-0.8163259625434875,-0.43378040194511414
1684206825673574700,12.12057470703125,0.19079038500785828,-0.604534387588501,-0.3987044394016266
1684206825683599600,12.130599609375,0.13269037008285522,-0.599369466304779,-0.39262863993644714
1684206825693625600,12.14062548828125,0.023969748988747597,-0.7169123291969299,-0.40241628885269165
1684206825703650800,12.15065087890625,-0.08008067309856415,-0.7966843247413635,-0.4064750075340271
1684206825713675800,12.16067578125,-0.1210147961974144,-0.7209629416465759,-0.3685084581375122
1684206825723700700,12.17070068359375,-0.08726281672716141,-0.4859154522418976,-0.2919594347476959
1684206825733725700,12.1807255859375,-0.07705678045749664,-0.19867461919784546,-0.2033403366804123
1684206825743751000,12.1907509765625,-0.06015265733003616,0.10999786108732224,-0.12695473432540894
1684206825753777000,12.20077685546875,-0.03412318974733353,0.3495308458805084,-0.08653061091899872
1684206825763801900,12.2108017578125,-0.0180518701672554,0.4914526045322418,-0.08521238714456558
1684206825773826800,12.220826904296874,-0.01568938046693802,0.5669732093811035,-0.09583999961614609
1684206825783851800,12.230851806640626,-0.022195875644683838,0.6383246779441833,-0.09153584390878677
1684206825793877000,12.240876953125,0.010068321600556374,0.7645207047462463,-0.07596167922019958
1684206825803901700,12.250901611328125,0.06025668978691101,0.8788648843765259,-0.016923630610108376
1684206825813928000,12.260927978515625,0.13330745697021484,0.9453238248825073,-0.02267099916934967
1684206825823952600,12.27095263671875,0.10053431987762451,0.7771019339561462,-0.1572856456041336
1684206825833977600,12.2809775390625,0.14680834114551544,0.5181364417076111,-0.1066371276974678
1684206825844002800,12.2910029296875,0.09467428177595139,0.5270320773124695,-0.14727693796157837
1684206825854027800,12.30102783203125,0.04656161367893219,0.7916200757026672,-0.04669519513845444
1684206825864053800,12.3110537109375,0.059531230479478836,0.9481213688850403,0.047051504254341125
1684206825874078700,12.32107861328125,0.052138831466436386,0.9937732815742493,0.09585019946098328
1684206825884103700,12.331103759765625,0.014685575850307941,0.9920202493667603,0.10015832632780075
1684206825894129000,12.34112890625,0.0011782897636294365,0.9302567839622498,0.0723799616098404
1684206825904153900,12.35115380859375,-0.04899710789322853,0.8194584846496582,0.026307346299290657
1684206825914178800,12.3611787109375,-0.07727322727441788,0.643671989440918,-0.12798741459846497
1684206825924204800,12.371204833984375,-0.11130349338054657,0.5300614237785339,-0.18463115394115448
1684206825934229800,12.381229736328125,-0.12480305880308151,0.5632926225662231,-0.11745451390743256
