time,seconds_elapsed,z,y,x
1684214574723236900,0.03423681640625,-0.025452692061662674,-0.20419469475746155,-0.13048358261585236
1684214574733260000,0.044260009765625,-0.11179743707180023,-0.17311294376850128,-0.13714973628520966
1684214574743283000,0.054282958984375,-0.05086749047040939,-0.18647459149360657,-0.12158538401126862
1684214574753307100,0.06430712890625,-0.009679307229816914,-0.15955029428005219,-0.1325935572385788
1684214574763331000,0.0743310546875,-0.017302393913269043,-0.15712399780750275,-0.1408287137746811
1684214574773355300,0.084355224609375,-0.053845491260290146,-0.1499291956424713,-0.15112769603729248
1684214574783379200,0.094379150390625,-0.13411419093608856,-0.18387790024280548,-0.1576930731534958
1684214574793402000,0.104402099609375,-0.15461839735507965,-0.14606314897537231,-0.19578292965888977
1684214574803426000,0.114426025390625,-0.17444564402103424,-0.17877131700515747,-0.19829913973808289
1684214574813450000,0.124449951171875,-0.1116107627749443,-0.21446485817432404,-0.1792530119419098
1684214574823474200,0.13447412109375,-0.07466155290603638,-0.22138208150863647,-0.1824009269475937
1684214574833498000,0.144498046875,-0.13691933453083038,-0.20825748145580292,-0.196069598197937
1684214574843522000,0.15452197265625,-0.23473350703716278,-0.22041086852550507,-0.1983308643102646
1684214574853545200,0.164545166015625,-0.2160479575395584,-0.22910794615745544,-0.20057004690170288
1684214574863569200,0.174569091796875,-0.11197595298290253,-0.2524951100349426,-0.21502210199832916
1684214574873593000,0.184593017578125,-0.07282456010580063,-0.2572272717952728,-0.2440556138753891
1684214574883617300,0.1946171875,-0.07761631906032562,-0.2642122507095337,-0.24893464148044586
1684214574893641200,0.20464111328125,-0.14587952196598053,-0.2508428990840912,-0.2571829855442047
1684214574903664000,0.2146640625,-0.21809667348861694,-0.26624003052711487,-0.2597711682319641
1684214574913688000,0.22468798828125,-0.2529372274875641,-0.22412027418613434,-0.29214802384376526
1684214574923712300,0.234712158203125,-0.2264379858970642,-0.2707850933074951,-0.2948855459690094
1684214574933736200,0.244736083984375,-0.19269441068172455,-0.2845858633518219,-0.31214281916618347
1684214574943760100,0.254760009765625,-0.11886897683143616,-0.20285043120384216,-0.3583860993385315
1684214574953784300,0.264784423828125,-0.15342669188976288,-0.21948453783988953,-0.38105228543281555
1684214574963807200,0.27480712890625,-0.17596493661403656,-0.23988059163093567,-0.3598804771900177
1684214574973831200,0.2848310546875,-0.18576563894748688,-0.20712052285671234,-0.3131909966468811
1684214574983855400,0.29485546875,-0.18060743808746338,-0.1668168008327484,-0.29507771134376526
1684214574993879000,0.304879150390625,-0.1864781230688095,-0.13181141018867493,-0.2986737787723541
1684214575003903200,0.3149033203125,-0.21567904949188232,-0.08423615247011185,-0.29608258605003357
1684214575013927200,0.32492724609375,-0.19459454715251923,-0.04610047861933708,-0.29660457372665405
1684214575023950000,0.3349501953125,-0.15279462933540344,-0.04141341894865036,-0.2902713119983673
1684214575033974300,0.344974365234375,-0.1075643002986908,-0.051014382392168045,-0.2785017192363739
1684214575043998200,0.354998291015625,-0.07748766243457794,-0.06787627190351486,-0.2702028751373291
1684214575054022100,0.365022216796875,-0.0545426644384861,-0.08222698420286179,-0.25765085220336914
1684214575064046000,0.375046142578125,-0.041494060307741165,-0.08900544047355652,-0.24541647732257843
1684214575074070300,0.3850703125,-0.035664401948451996,-0.08653775602579117,-0.24226541817188263
1684214575084093200,0.39509326171875,-0.020949769765138626,-0.0754460021853447,-0.24505318701267242
1684214575094117000,0.4051171875,-0.01487163919955492,-0.07221558690071106,-0.2471616119146347
1684214575104141300,0.415141357421875,-0.014475375413894653,-0.06633821129798889,-0.23079173266887665
1684214575114165000,0.4251650390625,-0.0128303412348032,-0.05434279888868332,-0.21681253612041473
1684214575124189200,0.435189208984375,-0.012190140783786774,-0.05242561176419258,-0.2153441160917282
1684214575134212400,0.44521240234375,-0.017564399167895317,-0.04989241063594818,-0.2352118343114853
1684214575144236000,0.455236083984375,-0.024007385596632957,-0.048171743750572205,-0.2716577351093292
1684214575154260200,0.46526025390625,-0.04990982264280319,-0.04861169680953026,-0.2925470173358917
1684214575164284200,0.4752841796875,-0.08495046943426132,-0.031220130622386932,-0.29350176453590393
1684214575174308000,0.48530810546875,-0.12855413556098938,0.02252139523625374,-0.26531004905700684
1684214575184332000,0.49533203125,-0.1635242998600006,0.07485689222812653,-0.23845882713794708
1684214575194355200,0.505355224609375,-0.19946631789207458,0.11149133741855621,-0.21145278215408325
1684214575204379100,0.515379150390625,-0.23387543857097626,0.11509057879447937,-0.19808003306388855
1684214575214403000,0.525403076171875,-0.27397680282592773,0.11399761587381363,-0.1924716830253601
1684214575224427300,0.53542724609375,-0.3167705237865448,0.12703336775302887,-0.18922995030879974
1684214575234451000,0.545450927734375,-0.403087317943573,0.15834148228168488,-0.2555064558982849
1684214575244475100,0.55547509765625,-0.5074802041053772,0.11327243596315384,-0.24762533605098724
1684214575254498300,0.565498291015625,-0.5956049561500549,0.04054310917854309,-0.2292143702507019
1684214575264522000,0.57552197265625,-0.6476307511329651,-0.0010447337990626693,-0.23177160322666168
1684214575274546200,0.585546142578125,-0.722507119178772,-0.0359254851937294,-0.2649545967578888
1684214575284570000,0.595570068359375,-0.7929365634918213,-0.06564740836620331,-0.3128698766231537
1684214575294594000,0.605593994140625,-0.8398042321205139,-0.07036040723323822,-0.38517576456069946
1684214575304618200,0.6156181640625,-0.8892269134521484,-0.119904525578022,-0.4616425633430481
1684214575314641200,0.62564111328125,-0.9562994241714478,-0.22304289042949677,-0.569018542766571
1684214575324665000,0.6356650390625,-1.0458998680114746,-0.2420598417520523,-0.6344980001449585
1684214575334689000,0.64568896484375,-1.1060057878494263,-0.2999945282936096,-0.6918987035751343
1684214575344713200,0.655713134765625,-1.2686994075775146,-0.26349207758903503,-0.6507276296615601
1684214575354737200,0.665737060546875,-1.362826943397522,-0.05367332696914673,-0.5170129537582397
1684214575364760000,0.675760009765625,-1.4042795896530151,0.10621077567338943,-0.5001528263092041
1684214575374784300,0.6857841796875,-1.4553697109222412,0.31340789794921875,-0.597139835357666
1684214575384808000,0.695807861328125,-1.5056501626968384,0.44250455498695374,-0.5368186831474304
1684214575394832100,0.70583203125,-1.5701801776885986,0.2724417448043823,-0.4865049123764038
1684214575404856300,0.715856201171875,-1.603529930114746,0.24320486187934875,-0.4746954143047333
1684214575414880000,0.7258798828125,-1.5050475597381592,0.24838630855083466,-0.3755272924900055
1684214575424903200,0.735903076171875,-0.36045435070991516,0.45323193073272705,-0.06841003149747849
1684214575434927000,0.745927001953125,-0.4277692139148712,0.9951955676078796,-0.0838766023516655
1684214575444951000,0.755950927734375,-0.2827018201351166,0.8036024570465088,-0.11271394789218903
1684214575454975200,0.765975341796875,0.15560202300548553,0.570841908454895,-0.038756102323532104
1684214575464999200,0.775999267578125,0.27315691113471985,0.29388323426246643,-0.00674543809145689
1684214575475023000,0.786023193359375,0.27020639181137085,-0.17329272627830505,-0.07287386059761047
1684214575485046300,0.79604638671875,0.24343281984329224,-0.40722766518592834,0.010275645181536674
1684214575495070200,0.8060703125,0.22963258624076843,-0.4655626118183136,0.12344028055667877
1684214575505094100,0.81609423828125,0.1588149219751358,-0.5304586887359619,0.1752905547618866
1684214575515118000,0.8261181640625,-0.19057849049568176,-0.3827781677246094,0.28689032793045044
1684214575525142300,0.836142333984375,-0.24754998087882996,-0.08003097772598267,0.3149619698524475
1684214575535166000,0.846166015625,-0.08036285638809204,0.21017634868621826,0.129718616604805
1684214575545189000,0.856189208984375,-0.09682564437389374,0.31390058994293213,0.04959331825375557
1684214575555213300,0.86621337890625,-0.11020403355360031,0.30308228731155396,0.06104864180088043
1684214575565237000,0.876237060546875,-0.07656990736722946,0.2513945996761322,0.022005099803209305
1684214575575261200,0.88626123046875,-0.05846547335386276,0.2356390655040741,-0.013083378784358501
1684214575585285000,0.89628515625,0.0020052888430655003,0.2506848871707916,0.003337586997076869
1684214575595309300,0.906309326171875,0.019230080768465996,0.21311433613300323,0.035394057631492615
1684214575605332200,0.916332275390625,0.04225737228989601,0.19810038805007935,0.06442784518003464
1684214575615356200,0.926356201171875,0.06716672331094742,0.21143430471420288,0.07698971033096313
1684214575625380000,0.936380126953125,0.05937640741467476,0.24560534954071045,0.08869102597236633
1684214575635404000,0.946404052734375,0.04488108679652214,0.27070537209510803,0.10545429587364197
1684214575645428200,0.95642822265625,0.028645632788538933,0.3065187335014343,0.13244324922561646
1684214575655451100,0.966451171875,0.0065144989639520645,0.345317542552948,0.15267741680145264
1684214575665475000,0.97647509765625,-0.023368768393993378,0.39331185817718506,0.16248996555805206
1684214575675499300,0.986499267578125,-0.0453808568418026,0.4283539950847626,0.13842591643333435
1684214575685523000,0.99652294921875,-0.07206685841083527,0.43037864565849304,0.0776391252875328
1684214575695547100,1.006547119140625,-0.08693315833806992,0.40622377395629883,0.0042037926614284515
1684214575705571000,1.016571044921875,-0.08063151687383652,0.3824162185192108,-0.06339401006698608
1684214575715594000,1.026593994140625,-0.0649833157658577,0.35459578037261963,-0.11797762662172318
1684214575725618200,1.0366181640625,-0.03804205730557442,0.3228384256362915,-0.14492206275463104
1684214575735642000,1.04664208984375,-0.002369011752307415,0.3056708872318268,-0.15959501266479492
1684214575745666300,1.056666259765625,0.03218543529510498,0.3171416223049164,-0.16008511185646057
1684214575755690200,1.066690185546875,0.056165605783462524,0.3520631194114685,-0.14625930786132812
1684214575765714200,1.076714111328125,0.0759761780500412,0.40970683097839355,-0.12659193575382233
1684214575775737300,1.0867373046875,0.10648668557405472,0.48289769887924194,-0.09494505077600479
1684214575785761000,1.096760986328125,0.12390406429767609,0.5373748540878296,-0.04805256798863411
1684214575795785200,1.10678515625,0.1489875763654709,0.5893400311470032,0.0034742706920951605
1684214575805809200,1.11680908203125,0.16183997690677643,0.6369994878768921,0.05164842680096626
1684214575815833300,1.126833251953125,0.1687796413898468,0.6543489098548889,0.08295734226703644
1684214575825857300,1.136857177734375,0.15816445648670197,0.7351701259613037,0.12897764146327972
1684214575835880200,1.146880126953125,0.14157722890377045,0.807115912437439,0.18445181846618652
1684214575845904100,1.156904052734375,0.10851016640663147,0.8453269600868225,0.2212427705526352
1684214575855928000,1.166927978515625,0.06457626819610596,0.8314095735549927,0.23616978526115417
1684214575865952300,1.1769521484375,0.017605582252144814,0.8094314336776733,0.2348686158657074
1684214575875976400,1.1869765625,-0.023045707494020462,0.7969976663589478,0.2085169106721878
1684214575886000000,1.197000244140625,-0.06233963370323181,0.7568351030349731,0.16745270788669586
1684214575896023300,1.207023193359375,-0.09098059684038162,0.7048153281211853,0.12354011088609695
1684214575906047200,1.217047119140625,-0.11373993009328842,0.6378306150436401,0.07197075337171555
1684214575916071200,1.2270712890625,-0.13099056482315063,0.5565205812454224,-0.012515636160969734
1684214575926095400,1.237095458984375,-0.15555259585380554,0.4769282639026642,-0.09808933734893799
1684214575936119300,1.247119384765625,-0.1660132259130478,0.3947465717792511,-0.1777290403842926
1684214575946142200,1.25714208984375,-0.13242147862911224,0.27504274249076843,-0.2873125970363617
1684214575956166100,1.267166259765625,-0.11489495635032654,0.25048014521598816,-0.3534058630466461
1684214575966190300,1.2771904296875,-0.12824535369873047,0.2218477725982666,-0.4265521764755249
1684214575976214300,1.28721435546875,-0.1376447081565857,0.153431698679924,-0.5375737547874451
1684214575986238200,1.29723828125,-0.13102537393569946,0.05111272633075714,-0.6578425765037537
1684214575996262400,1.307262451171875,-0.13193511962890625,-0.0706014633178711,-0.7348254919052124
1684214576006285300,1.317285400390625,-0.09469911456108093,-0.2115858495235443,-0.7738147974014282
1684214576016309200,1.327309326171875,-0.031753167510032654,-0.33687132596969604,-0.7795019745826721
1684214576026333400,1.33733349609375,0.004518771078437567,-0.416138231754303,-0.7521146535873413
1684214576036357000,1.347357177734375,0.013706410303711891,-0.4013233184814453,-0.6409705877304077
1684214576046381300,1.35738134765625,-0.006136251613497734,-0.33155184984207153,-0.46555930376052856
1684214576056405200,1.3674052734375,-0.012367249466478825,-0.23096638917922974,-0.2896929383277893
1684214576066428200,1.37742822265625,0.013776939362287521,-0.07271060347557068,-0.10046083480119705
1684214576076452400,1.387452392578125,0.050977304577827454,0.07186521589756012,0.10161956399679184
1684214576086476300,1.397476318359375,0.09615771472454071,0.16141702234745026,0.26188787817955017
1684214576096500200,1.407500244140625,0.1611820012331009,0.16765281558036804,0.37358802556991577
1684214576106524200,1.417524169921875,0.2631751298904419,0.1839628517627716,0.5072985291481018
1684214576116548400,1.42754833984375,0.3510482609272003,0.2489650398492813,0.6740603446960449
1684214576126571300,1.4375712890625,0.40859973430633545,0.29116490483283997,0.8132798075675964
1684214576136595200,1.44759521484375,0.4322017431259155,0.2577771246433258,0.8774593472480774
1684214576146619400,1.457619384765625,0.4334767758846283,0.18711790442466736,0.8839191794395447
1684214576156643000,1.46764306640625,0.450984925031662,0.12845619022846222,0.8784711956977844
1684214576166667300,1.477667236328125,0.43880975246429443,0.10050588101148605,0.9347714185714722
1684214576176691200,1.487691162109375,0.3698458671569824,0.03043544851243496,1.013183355331421
1684214576186714000,1.497714111328125,0.2756315767765045,0.012930041179060936,1.0805089473724365
1684214576196738300,1.50773828125,0.17685304582118988,0.0004134502960368991,1.1473129987716675
1684214576206762200,1.51776220703125,0.06665914505720139,0.0260691549628973,1.2633094787597656
1684214576216786200,1.5277861328125,-0.03374069184064865,0.24699194729328156,1.4333488941192627
1684214576226810000,1.53781005859375,-0.0559789277613163,0.3680151700973511,1.5001968145370483
1684214576236834300,1.547834228515625,-0.03852510079741478,0.4427464008331299,1.5186103582382202
1684214576246857200,1.557857177734375,-0.07014086097478867,0.757179319858551,1.6105836629867554
1684214576256881200,1.567881103515625,0.009925480000674725,0.8436121940612793,1.5761312246322632
1684214576266905300,1.5779052734375,0.14239490032196045,0.7750813961029053,1.4948256015777588
1684214576276929000,1.587928955078125,0.2253395915031433,0.6727257370948792,1.4494818449020386
1684214576286953200,1.597953125,0.2822763919830322,0.33055442571640015,1.2876102924346924
1684214576296976400,1.607976318359375,0.35043227672576904,-0.040609534829854965,1.0508393049240112
1684214576307000000,1.618,0.38728129863739014,-0.13954906165599823,0.911392331123352
1684214576317024300,1.628024169921875,0.4030187129974365,-0.2097981870174408,0.7818694710731506
1684214576327048200,1.638048095703125,0.4362028241157532,-0.43327295780181885,0.652972936630249
1684214576337072000,1.648072021484375,0.43488457798957825,-0.5393351912498474,0.636978030204773
1684214576347096300,1.658096435546875,0.4191439151763916,-0.5426041483879089,0.6750479936599731
1684214576357119200,1.668119140625,0.4232710301876068,-0.4659362733364105,0.7024232149124146
1684214576367143200,1.67814306640625,0.4766378104686737,-0.3390115201473236,0.6888716220855713
1684214576377167000,1.6881669921875,0.5310203433036804,-0.2118610143661499,0.6266138553619385
1684214576387191300,1.69819140625,0.5919809341430664,-0.223824605345726,0.5014714598655701
1684214576397215200,1.70821533203125,0.6364839673042297,-0.31316301226615906,0.384768009185791
1684214576407239200,1.7182392578125,0.6543157696723938,-0.3677493929862976,0.30638307332992554
1684214576417262300,1.728262451171875,0.6978467106819153,-0.41993775963783264,0.2308986932039261
1684214576427286300,1.738286376953125,0.6719831228256226,-0.4572998583316803,0.1723165363073349
1684214576437310200,1.748310302734375,0.6265671849250793,-0.46305280923843384,0.09819356352090836
1684214576447334400,1.75833447265625,0.5943125486373901,-0.5111410617828369,0.04761314019560814
1684214576457358000,1.768358154296875,0.5276517868041992,-0.5800817608833313,0.019985508173704147
1684214576467382300,1.77838232421875,0.4284040331840515,-0.6364163756370544,-0.004716568626463413
1684214576477405200,1.7884052734375,0.32333141565322876,-0.6660261750221252,-0.015241913497447968
1684214576487429000,1.79842919921875,0.2180364429950714,-0.6542307734489441,-0.004208861850202084
1684214576497453300,1.808453369140625,0.13258253037929535,-0.6199479103088379,0.009166598320007324
1684214576507477200,1.818477294921875,0.059221476316452026,-0.5354312658309937,0.018209561705589294
1684214576517501200,1.828501220703125,-0.0061255707405507565,-0.4376954138278961,0.0284733846783638
1684214576527524400,1.8385244140625,-0.055826786905527115,-0.3198007345199585,0.04078123718500137
1684214576537548300,1.84854833984375,-0.11145250499248505,-0.23107244074344635,0.05895358324050903
1684214576547572200,1.858572265625,-0.14786015450954437,-0.19929946959018707,0.07975903153419495
1684214576557596200,1.86859619140625,-0.17763562500476837,-0.21650561690330505,0.08676447719335556
1684214576567620400,1.878620361328125,-0.2060547173023224,-0.2486080825328827,0.09138033539056778
1684214576577644000,1.88864404296875,-0.23710104823112488,-0.2993793785572052,0.06311860680580139
1684214576587667200,1.898667236328125,-0.26408764719963074,-0.38975247740745544,-0.00847911462187767
1684214576597691400,1.90869140625,-0.23395425081253052,-0.44001832604408264,-0.06483053416013718
1684214576607715000,1.918715087890625,-0.205679789185524,-0.5378862023353577,-0.09667994827032089
1684214576617739300,1.9287392578125,-0.16907650232315063,-0.6488518714904785,-0.1324925571680069
1684214576627763200,1.93876318359375,-0.10832948982715607,-0.7047357559204102,-0.1825290024280548
1684214576637787400,1.948787353515625,-0.027982456609606743,-0.7150978446006775,-0.24775247275829315
1684214576647810300,1.958810302734375,0.07981882989406586,-0.6786630749702454,-0.29125654697418213
1684214576657834200,1.968834228515625,0.20378418266773224,-0.6531169414520264,-0.2899593412876129
1684214576667858200,1.978858154296875,0.31833335757255554,-0.6273710131645203,-0.23364022374153137
1684214576677882000,1.988882080078125,0.42403504252433777,-0.600121796131134,-0.1701352894306183
1684214576687906300,1.99890625,0.5098440051078796,-0.5502357482910156,-0.10593010485172272
1684214576697930200,2.00893017578125,0.5560370683670044,-0.49801456928253174,-0.044200167059898376
1684214576707953200,2.018953125,0.5605958104133606,-0.38164621591567993,0.004682402592152357
1684214576717977300,2.028977294921875,0.5536899566650391,-0.21780908107757568,0.01493796892464161
1684214576728001000,2.0390009765625,0.549134373664856,-0.1218981072306633,-0.018274961039423943
1684214576738025500,2.049025390625,0.5410197377204895,-0.10037124156951904,-0.06556471437215805
1684214576748049400,2.05904931640625,0.5280142426490784,-0.07196953147649765,-0.11866267770528793
1684214576758073600,2.069073486328125,0.5111238956451416,-0.039799343794584274,-0.16883715987205505
1684214576768096500,2.079096435546875,0.5056730508804321,0.011246963404119015,-0.22053271532058716
1684214576778120400,2.089120361328125,0.5012961030006409,0.030411070212721825,-0.2515247166156769
1684214576788144600,2.09914453125,0.4364169239997864,-0.06881632655858994,-0.2892402112483978
1684214576798168300,2.109168212890625,0.4418463110923767,0.01666209101676941,-0.2615838348865509
1684214576808192500,2.119192626953125,0.4560079574584961,0.0404256246984005,-0.2175678163766861
1684214576818215400,2.12921533203125,0.4724910855293274,0.061163391917943954,-0.24029310047626495
1684214576828239400,2.1392392578125,0.4944961369037628,0.061463240534067154,-0.27946704626083374
1684214576838263600,2.149263671875,0.4699963927268982,-0.035158369690179825,-0.31791990995407104
1684214576848287500,2.15928759765625,0.4161207377910614,-0.17648518085479736,-0.3815258741378784
1684214576858311400,2.1693115234375,0.3223359286785126,-0.3294001519680023,-0.4644439220428467
1684214576868335400,2.17933544921875,0.21473221480846405,-0.47946488857269287,-0.5334451198577881
1684214576878358300,2.189358154296875,0.08605865389108658,-0.5866025686264038,-0.5717666745185852
1684214576888382500,2.199382568359375,-0.03714126721024513,-0.5587720274925232,-0.5680435299873352
1684214576898406400,2.209406494140625,-0.17895087599754333,-0.45899131894111633,-0.5866398811340332
1684214576908430600,2.2194306640625,-0.1848444789648056,-0.16916899383068085,-0.4718126356601715
1684214576918454500,2.22945458984375,-0.21393445134162903,0.013382429257035255,-0.3479839265346527
1684214576928478500,2.239478515625,-0.24541254341602325,0.18356305360794067,-0.24293459951877594
1684214576938501400,2.24950146484375,-0.2694704830646515,0.29588720202445984,-0.16763585805892944
1684214576948525300,2.259525390625,-0.2844911515712738,0.32078713178634644,-0.1433759182691574
1684214576958549500,2.269549560546875,-0.27673524618148804,0.26322343945503235,-0.14832593500614166
1684214576968573700,2.27957373046875,-0.2554193437099457,0.15154601633548737,-0.1724100559949875
1684214576978597400,2.289597412109375,-0.22829478979110718,0.09450456500053406,-0.21709948778152466
1684214576988621600,2.29962158203125,-0.21320103108882904,0.08112762868404388,-0.2564348876476288
1684214576998644500,2.30964453125,-0.23589596152305603,0.08774399012327194,-0.29365280270576477
1684214577008668400,2.31966845703125,-0.30467313528060913,0.10918274521827698,-0.3391017019748688
1684214577018692600,2.329692626953125,-0.3985639214515686,0.15136508643627167,-0.39303258061408997
1684214577028716500,2.339716552734375,-0.5030974745750427,0.2404886782169342,-0.4298017621040344
1684214577038740500,2.349740478515625,-0.6035165190696716,0.3506588637828827,-0.4421039819717407
1684214577048763400,2.359763427734375,-0.6701794266700745,0.4915553331375122,-0.4042808711528778
1684214577058787600,2.36978759765625,-0.6591057181358337,0.6353183388710022,-0.32894378900527954
1684214577068811500,2.3798115234375,-0.5557312369346619,0.7264744639396667,-0.2252569943666458
1684214577078835500,2.38983544921875,-0.2904073894023895,0.8149729371070862,-0.0811416283249855
1684214577088859600,2.399859619140625,0.09593689441680908,0.8319290280342102,0.1293928474187851
1684214577098883300,2.40988330078125,0.47004204988479614,0.7831830382347107,0.3700709640979767
1684214577108906500,2.419906494140625,0.6807428002357483,0.7549808621406555,0.6116759777069092
1684214577118930700,2.4299306640625,0.5662454962730408,0.7252218723297119,0.774795651435852
1684214577128954400,2.439954345703125,0.2265632599592209,0.7160785794258118,0.7864890098571777
1684214577138978600,2.449978515625,-0.02124680206179619,0.7059657573699951,0.6146174073219299
1684214577149002500,2.46000244140625,-0.14916665852069855,0.6121648550033569,0.30687668919563293
1684214577159026400,2.4700263671875,-0.239861398935318,0.320235013961792,-0.058432843536138535
1684214577169049600,2.480049560546875,-0.29933658242225647,-0.06497360020875931,-0.3922973871231079
1684214577179073500,2.490073486328125,-0.34007683396339417,-0.35486772656440735,-0.6411144137382507
1684214577189097500,2.500097412109375,-0.3590548038482666,-0.4475463032722473,-0.7909492254257202
1684214577199121400,2.510121337890625,-0.37595656514167786,-0.36423465609550476,-0.8768129944801331
1684214577209145600,2.5201455078125,-0.3015891909599304,-0.1710214912891388,-0.9014119505882263
1684214577219169300,2.530169189453125,-0.21725940704345703,0.1532745510339737,-0.7977119088172913
1684214577229192400,2.5401923828125,-0.04785940423607826,0.41089123487472534,-0.5004260540008545
1684214577239216600,2.550216552734375,0.20839740335941315,0.493146687746048,-0.09652414917945862
1684214577249240300,2.560240234375,0.37263163924217224,0.5439971685409546,0.26642081141471863
1684214577259264500,2.570264404296875,0.3014986217021942,0.7708609700202942,0.46042731404304504
1684214577269288400,2.580288330078125,0.13114942610263824,1.0246059894561768,0.5265072584152222
1684214577279311400,2.590311279296875,-0.011340880766510963,0.9881448745727539,0.4528394937515259
1684214577289335600,2.60033544921875,-0.08742820471525192,0.72953861951828,0.2960730195045471
1684214577299359500,2.610359375,-0.11865376681089401,0.36117732524871826,0.09600198268890381
1684214577309383400,2.620383544921875,-0.07531991600990295,-0.003720247885212302,-0.12195281684398651
1684214577319407400,2.630407470703125,-0.005494231358170509,-0.32473716139793396,-0.33735063672065735
1684214577329431600,2.640431640625,0.03898698464035988,-0.574773907661438,-0.5638585090637207
1684214577339454500,2.650454345703125,-0.009487339295446873,-0.6255508065223694,-0.6835241913795471
1684214577349478400,2.660478515625,-0.098656564950943,-0.5102405548095703,-0.6712894439697266
1684214577359502600,2.670502685546875,-0.09632176905870438,-0.4027322232723236,-0.5737251043319702
1684214577369526300,2.6805263671875,-0.0828251764178276,-0.2755107283592224,-0.4135781526565552
1684214577379550500,2.690550537109375,-0.15050409734249115,-0.06987982988357544,-0.1793009340763092
1684214577389574400,2.700574462890625,-0.20995034277439117,0.0864158496260643,0.007254638709127903
1684214577399597300,2.710597412109375,-0.26017701625823975,0.15962056815624237,0.09710489958524704
1684214577409621500,2.72062158203125,-0.3087989389896393,0.17643940448760986,0.10002630949020386
1684214577419645400,2.7306455078125,-0.3204185664653778,0.10395747423171997,0.016964184120297432
1684214577429669400,2.74066943359375,-0.29325631260871887,0.0034770069178193808,-0.11951879411935806
1684214577439693600,2.750693603515625,-0.2534484267234802,-0.1061946302652359,-0.2510363459587097
1684214577449717500,2.760717529296875,-0.21644100546836853,-0.23528458178043365,-0.34971389174461365
1684214577459740400,2.770740478515625,-0.19300465285778046,-0.3826521933078766,-0.398255318403244
1684214577469764400,2.780764404296875,-0.20562748610973358,-0.4747001528739929,-0.3808920085430145
1684214577479788500,2.79078857421875,-0.22442594170570374,-0.45272135734558105,-0.3231666684150696
1684214577489812500,2.8008125,-0.22980532050132751,-0.3571009933948517,-0.30647993087768555
1684214577499836400,2.81083642578125,-0.2181939333677292,-0.2688766121864319,-0.28658026456832886
1684214577509859600,2.820859619140625,-0.2066429853439331,-0.24182020127773285,-0.23386508226394653
1684214577519883500,2.830883544921875,-0.2000015825033188,-0.2895808219909668,-0.1890893578529358
1684214577529907500,2.840907470703125,-0.19969923794269562,-0.2837091386318207,-0.14893239736557007
1684214577539931600,2.850931640625,-0.22848773002624512,-0.2869901657104492,-0.16712577641010284
1684214577549955300,2.860955322265625,-0.2501976191997528,-0.3184678256511688,-0.22513705492019653
1684214577559979500,2.8709794921875,-0.2657155990600586,-0.3281228542327881,-0.2864488661289215
1684214577570002400,2.88100244140625,-0.2794814705848694,-0.3218851685523987,-0.3298594057559967
1684214577580026400,2.8910263671875,-0.27369362115859985,-0.29959559440612793,-0.33667710423469543
1684214577590050600,2.901050537109375,-0.23888561129570007,-0.28597861528396606,-0.3160227835178375
1684214577600074500,2.911074462890625,-0.20103809237480164,-0.25589075684547424,-0.29006707668304443
1684214577610098400,2.921098388671875,-0.15634514391422272,-0.22456873953342438,-0.27280595898628235
1684214577620122400,2.931122314453125,-0.11597269028425217,-0.23020611703395844,-0.2556839883327484
1684214577630145500,2.9411455078125,-0.10152348130941391,-0.2329707145690918,-0.23410527408123016
1684214577640169500,2.95116943359375,-0.10415974259376526,-0.19970011711120605,-0.2012687623500824
1684214577650193400,2.961193359375,-0.11217925697565079,-0.140112042427063,-0.14867040514945984
1684214577660217600,2.971217529296875,-0.15845541656017303,-0.12887510657310486,-0.14134804904460907
1684214577670241500,2.981241455078125,-0.1964443176984787,-0.06836317479610443,-0.14492036402225494
1684214577680265500,2.991265380859375,-0.22063274681568146,-0.007040162570774555,-0.13720650970935822
1684214577690288600,3.00128857421875,-0.233615443110466,0.03647152706980705,-0.12201304733753204
1684214577700312300,3.011312255859375,-0.25638070702552795,0.05144381895661354,-0.10622848570346832
1684214577710336500,3.02133642578125,-0.28055840730667114,0.054989323019981384,-0.10106398165225983
1684214577720360400,3.0313603515625,-0.3010737895965576,0.056928906589746475,-0.10204429179430008
1684214577730384600,3.041384521484375,-0.29651910066604614,0.19515536725521088,-0.07608264684677124
1684214577740408000,3.051407958984375,-0.30876749753952026,0.20977824926376343,-0.08921416103839874
1684214577750431200,3.06143115234375,-0.30599305033683777,0.2015688717365265,-0.09970388561487198
1684214577760455400,3.071455322265625,-0.30162733793258667,0.2000974714756012,-0.07774851471185684
1684214577770479000,3.08147900390625,-0.29906976222991943,0.19500400125980377,-0.037344157695770264
1684214577780503300,3.09150341796875,-0.2870709002017975,0.20823058485984802,0.0015861992724239826
1684214577790527200,3.10152734375,-0.28338196873664856,0.19342994689941406,0.0139103252440691
1684214577800550100,3.111550048828125,-0.2788234353065491,0.20000208914279938,0.023340046405792236
1684214577810574300,3.12157421875,-0.27163776755332947,0.19959528744220734,0.026064902544021606
1684214577820598300,3.131598388671875,-0.26382777094841003,0.1974104344844818,0.026410315185785294
1684214577830622200,3.141622314453125,-0.2645726203918457,0.20739589631557465,0.021473724395036697
1684214577840646100,3.151646240234375,-0.2586670517921448,0.21181780099868774,0.013224317692220211
1684214577850670300,3.16167041015625,-0.2523023188114166,0.21239648759365082,0.011242210865020752
1684214577860693200,3.171693359375,-0.25756633281707764,0.2408534288406372,0.013466216623783112
1684214577870717200,3.18171728515625,-0.26395049691200256,0.30898934602737427,0.011300449259579182
1684214577880741400,3.191741455078125,-0.26431775093078613,0.38042277097702026,0.017783913761377335
1684214577890765300,3.201765380859375,-0.25805383920669556,0.43714508414268494,0.03239778056740761
1684214577900789200,3.211789306640625,-0.23040971159934998,0.4856244921684265,0.06470698118209839
1684214577910813400,3.2218134765625,-0.18909189105033875,0.5100758671760559,0.1095971018075943
1684214577920836000,3.231836181640625,-0.13774241507053375,0.5317736864089966,0.15473900735378265
1684214577930860300,3.2418603515625,-0.08814606815576553,0.5745200514793396,0.1798417568206787
1684214577940884200,3.25188427734375,-0.05259207263588905,0.6258748769760132,0.1886214017868042
1684214577950908200,3.261908203125,-0.026218369603157043,0.67362380027771,0.19714005291461945
1684214577960932400,3.271932373046875,-0.021814566105604172,0.692002534866333,0.21534809470176697
1684214577970956300,3.281956298828125,-0.022997817024588585,0.6935335397720337,0.21899312734603882
1684214577980979200,3.291979248046875,-0.023540303111076355,0.7209736704826355,0.2335105538368225
1684214577991003400,3.30200341796875,-0.05055643245577812,0.646467924118042,0.21081307530403137
1684214578001027300,3.31202734375,-0.11113215982913971,0.5108523368835449,0.17314265668392181
1684214578011051300,3.32205126953125,-0.15239353477954865,0.4361729323863983,0.11721612513065338
1684214578021075200,3.3320751953125,-0.18559329211711884,0.38758596777915955,0.049536943435668945
1684214578031099400,3.342099365234375,-0.22171062231063843,0.35004740953445435,-0.01867130771279335
1684214578041122300,3.352122314453125,-0.25655117630958557,0.3092499077320099,-0.08269689977169037
1684214578051146200,3.362146240234375,-0.29366612434387207,0.277642160654068,-0.13341671228408813
1684214578061170400,3.37217041015625,-0.33581092953681946,0.2722910940647125,-0.16566653549671173
1684214578071194000,3.382194091796875,-0.37006399035453796,0.2749950885772705,-0.17753009498119354
1684214578081218300,3.39221826171875,-0.3957642912864685,0.291398286819458,-0.16799011826515198
1684214578091241500,3.402241455078125,-0.4131371080875397,0.3198697566986084,-0.13179609179496765
1684214578101265200,3.41226513671875,-0.4219210147857666,0.3573644161224365,-0.09189875423908234
1684214578111289300,3.422289306640625,-0.4110134541988373,0.4146600663661957,-0.06605454534292221
1684214578121313300,3.432313232421875,-0.3902205526828766,0.49049943685531616,-0.029386015608906746
1684214578131337200,3.442337158203125,-0.3794997036457062,0.5567654967308044,0.017031636089086533
1684214578141361200,3.452361083984375,-0.37940195202827454,0.6012448072433472,0.06797763705253601
1684214578151384300,3.46238427734375,-0.3778786063194275,0.6008807420730591,0.10065684467554092
1684214578161408300,3.472408203125,-0.3426172733306885,0.5394360423088074,0.1088455319404602
1684214578171432200,3.48243212890625,-0.27860456705093384,0.4090639650821686,0.06293690949678421
1684214578181456400,3.492456298828125,-0.2046659141778946,0.26162391901016235,-0.015723546966910362
1684214578191480000,3.50247998046875,-0.1313892900943756,0.1599646359682083,-0.10286267846822739
1684214578201504300,3.512504150390625,-0.07467193901538849,0.12035703659057617,-0.16148577630519867
1684214578211527400,3.52252734375,-0.06484194844961166,0.07722954452037811,-0.2003690004348755
1684214578221551000,3.532551025390625,-0.08280255645513535,0.027028383687138557,-0.2043123096227646
1684214578231575300,3.5425751953125,-0.09989311546087265,-0.017434462904930115,-0.17230933904647827
1684214578241599200,3.55259912109375,-0.12723951041698456,-0.09488771110773087,-0.13469403982162476
1684214578251623200,3.562623046875,-0.15173660218715668,-0.17439797520637512,-0.14182066917419434
1684214578261647000,3.572647216796875,-0.18417178094387054,-0.1970180720090866,-0.1788729578256607
1684214578271670300,3.582670166015625,-0.2328321933746338,-0.1849716305732727,-0.20216454565525055
1684214578281694200,3.592694091796875,-0.26941096782684326,-0.1677313894033432,-0.2095409780740738
1684214578291718100,3.60271826171875,-0.2879311442375183,-0.14345566928386688,-0.18530356884002686
1684214578301742300,3.612742431640625,-0.28297072649002075,-0.10513544827699661,-0.1607324481010437
1684214578311766300,3.622766357421875,-0.27913662791252136,-0.02329118363559246,-0.128714457154274
1684214578321790200,3.632790283203125,-0.26873326301574707,0.0974125936627388,-0.09801220893859863
1684214578331813400,3.6428134765625,-0.2620319128036499,0.23391693830490112,-0.06432396918535233
1684214578341837000,3.652837158203125,-0.24984771013259888,0.35064223408699036,-0.023006893694400787
1684214578351861200,3.662861328125,-0.22426217794418335,0.4341505765914917,0.027398766949772835
1684214578361885200,3.67288525390625,-0.1847861409187317,0.48274633288383484,0.08755958080291748
1684214578371909400,3.682909423828125,-0.13210760056972504,0.48725035786628723,0.14176319539546967
1684214578381933300,3.692933349609375,-0.07385040819644928,0.43991824984550476,0.21137955784797668
1684214578391956200,3.702956298828125,-0.00838659517467022,0.4028110206127167,0.27663660049438477
1684214578401980200,3.712980224609375,0.044470760971307755,0.37068742513656616,0.33306819200515747
1684214578412004400,3.72300439453125,0.09815555810928345,0.3673454225063324,0.38849493861198425
1684214578422028300,3.7330283203125,0.16330528259277344,0.42698797583580017,0.4669005572795868
1684214578432052500,3.743052490234375,0.2438080608844757,0.5157773494720459,0.575904130935669
1684214578442076200,3.753076171875,0.35913145542144775,0.6151862144470215,0.6953458189964294
1684214578452099300,3.763099365234375,0.4948919713497162,0.7423416972160339,0.8306105732917786
1684214578462123300,3.773123291015625,0.6378345489501953,0.9017582535743713,0.9866214990615845
1684214578472147200,3.783147216796875,0.7546198964118958,0.9322831630706787,1.0518341064453125
1684214578482171400,3.79317138671875,0.8650912642478943,0.9431238174438477,1.0785365104675293
1684214578492195300,3.8031953125,0.9422692656517029,0.9404038786888123,1.0673997402191162
1684214578502219300,3.81321923828125,1.0091429948806763,0.8121615052223206,0.9619619250297546
1684214578512242400,3.823242431640625,1.0730745792388916,0.6955193281173706,0.800324022769928
1684214578522266400,3.833266357421875,1.1118509769439697,0.6798559427261353,0.6453810930252075
1684214578532290300,3.843290283203125,1.2011253833770752,0.6473226547241211,0.45128148794174194
1684214578542314200,3.853314208984375,1.3415786027908325,0.528532087802887,0.2098611444234848
1684214578552338400,3.86333837890625,1.4148750305175781,0.31928667426109314,0.007957501336932182
1684214578562362000,3.873362060546875,1.3734395503997803,-0.13690508902072906,-0.18274986743927002
1684214578572385300,3.88338525390625,1.194029688835144,-0.8007171154022217,-0.287229061126709
1684214578582409500,3.893409423828125,0.9557256698608398,-1.3930059671401978,-0.3383026421070099
1684214578592433200,3.90343310546875,0.7089075446128845,-1.8147777318954468,-0.37041783332824707
1684214578602457300,3.913457275390625,0.4500478208065033,-2.0274341106414795,-0.4023304879665375
1684214578612481300,3.923481201171875,0.21826088428497314,-2.0379152297973633,-0.36139294505119324
1684214578622505200,3.933505126953125,0.011730093508958817,-1.947460412979126,-0.25363320112228394
1684214578632528400,3.9435283203125,-0.14177899062633514,-1.7795374393463135,-0.10057827830314636
1684214578642552300,3.95355224609375,-0.21146218478679657,-1.498517394065857,0.095529705286026
1684214578652576300,3.963576171875,-0.23875586688518524,-1.1820262670516968,0.27839088439941406
1684214578662600200,3.97360009765625,-0.2539318799972534,-0.7960332632064819,0.4428570568561554
1684214578672624400,3.983624267578125,-0.24909454584121704,-0.34987375140190125,0.5538841485977173
1684214578682648000,3.99364794921875,-0.2062235176563263,0.0946967825293541,0.5860127806663513
1684214578692671200,4.003671142578125,-0.13235920667648315,0.42777132987976074,0.5809622406959534
1684214578702695400,4.0136953125,-0.07422240078449249,0.6781800985336304,0.6642691493034363
1684214578712719000,4.023718994140625,-0.051674894988536835,0.8082404732704163,0.7734251618385315
1684214578722743300,4.033743408203125,-0.034577399492263794,0.8547235131263733,0.8403554558753967
1684214578732767200,4.043767333984375,-0.008532045409083366,0.8958389163017273,0.8445683717727661
1684214578742792200,4.053792236328125,0.0264083631336689,0.8523526787757874,0.7593746185302734
1684214578752815000,4.063815185546875,0.13752001523971558,0.7028957605361938,0.6349475979804993
1684214578762839000,4.073839111328125,0.2440887987613678,0.6840235590934753,0.5579244494438171
1684214578772863200,4.08386328125,0.2895236313343048,0.7160136699676514,0.4614814519882202
1684214578782887200,4.09388720703125,0.32377827167510986,0.7226329445838928,0.37481632828712463
1684214578792911000,4.1039111328125,0.3443775773048401,0.6157414317131042,0.2721824049949646
1684214578802934300,4.113934326171875,0.3434705138206482,0.40297508239746094,0.17204463481903076
1684214578812958000,4.1239580078125,0.30819132924079895,0.08398645371198654,0.11059432476758957
1684214578822982100,4.133982177734375,0.2396833896636963,-0.26851966977119446,0.027042968198657036
1684214578833006000,4.144006103515625,0.1785193681716919,-0.5371702909469604,-0.09148314595222473
1684214578843030300,4.1540302734375,0.14008834958076477,-0.7308744788169861,-0.20453166961669922
1684214578853054000,4.164053955078125,0.08642089366912842,-0.8810280561447144,-0.2918049693107605
1684214578863077000,4.1740771484375,0.03158002346754074,-0.9750608205795288,-0.33938100934028625
1684214578873101000,4.18410107421875,-0.024877743795514107,-1.0679173469543457,-0.3734568655490875
1684214578883125000,4.194125,-0.08232105523347855,-1.1383854150772095,-0.3951514959335327
1684214578893149200,4.204149169921875,-0.13880397379398346,-1.1707478761672974,-0.38999810814857483
1684214578903173000,4.214173095703125,-0.18079109489917755,-1.2000492811203003,-0.35240438580513
1684214578913197000,4.224197021484375,-0.1808905303478241,-1.1997359991073608,-0.29591310024261475
1684214578923220200,4.23422021484375,-0.15923848748207092,-1.2018111944198608,-0.2606714963912964
1684214578933244000,4.244243896484375,-0.12039406597614288,-1.1847089529037476,-0.23134614527225494
1684214578943268000,4.25426806640625,-0.07652434706687927,-1.1774885654449463,-0.2040807008743286
1684214578953292000,4.2642919921875,-0.03694789484143257,-1.2084081172943115,-0.15760186314582825
1684214578963316200,4.274316162109375,0.005990252830088139,-1.2763792276382446,-0.10208053886890411
1684214578973340200,4.284340087890625,0.05085838958621025,-1.2742154598236084,-0.016211707144975662
1684214578983363000,4.294363037109375,0.11833543330430984,-1.0609476566314697,0.10370004922151566
1684214578993387000,4.304386962890625,0.21383370459079742,-0.7181617617607117,0.2410772740840912
1684214579003411000,4.314410888671875,0.3248286545276642,-0.33180344104766846,0.35559213161468506
1684214579013435100,4.32443505859375,0.436226487159729,0.05116908252239227,0.42798176407814026
1684214579023459000,4.334458984375,0.5179072618484497,0.3535752594470978,0.4291037321090698
1684214579033483000,4.34448291015625,0.5399414300918579,0.5251637101173401,0.3702158033847809
1684214579043507200,4.354507080078125,0.5268046259880066,0.5661764144897461,0.2841759920120239
1684214579053530000,4.364530029296875,0.47153976559638977,0.4084598124027252,0.1822386085987091
1684214579063554000,4.374553955078125,0.4234289526939392,0.09019766002893448,0.07753882557153702
1684214579073578200,4.384578125,0.3860104978084564,-0.28507375717163086,-0.03639061003923416
1684214579083602200,4.394602294921875,0.3716858923435211,-0.6428561210632324,-0.1547849029302597
1684214579093626000,4.404626220703125,0.3885461091995239,-0.9103504419326782,-0.2945670187473297
1684214579103649000,4.41464892578125,0.44121837615966797,-1.002630591392517,-0.4071931838989258
1684214579113673200,4.424673095703125,0.4988343119621277,-0.931388258934021,-0.4777151942253113
1684214579123697200,4.434697265625,0.5298526883125305,-0.8041538596153259,-0.5180572867393494
1684214579133721000,4.44472119140625,0.546262800693512,-0.48132583498954773,-0.4602479934692383
1684214579143745300,4.454745361328125,0.5258030295372009,-0.15324382483959198,-0.36234086751937866
1684214579153769000,4.46476904296875,0.49729734659194946,0.16152240335941315,-0.24658168852329254
1684214579163793200,4.474793212890625,0.454974889755249,0.34489408135414124,-0.16774386167526245
1684214579173816300,4.48481640625,0.38308265805244446,0.44795870780944824,-0.13676583766937256
1684214579183840000,4.494840087890625,0.2827874720096588,0.5404595732688904,-0.14089719951152802
1684214579193864200,4.5048642578125,0.14389294385910034,0.5815521478652954,-0.1871257722377777
1684214579203888000,4.51488818359375,-0.03517507389187813,0.6213235259056091,-0.2713730037212372
1684214579213912000,4.524912109375,-0.2387729436159134,0.660021960735321,-0.36177241802215576
1684214579223936000,4.53493603515625,-0.4655805230140686,0.7083482146263123,-0.4470263123512268
1684214579233959200,4.544959228515625,-0.6855541467666626,0.7557587027549744,-0.5455936193466187
1684214579243983000,4.554983154296875,-0.8551282286643982,0.7609146237373352,-0.6088279485702515
1684214579254007000,4.565007080078125,-0.9504139423370361,0.658623456954956,-0.5511033535003662
1684214579264031200,4.57503125,-0.8258855938911438,0.46316686272621155,-0.3758699595928192
1684214579274055000,4.585054931640625,-0.4458984434604645,0.2248418927192688,-0.18153637647628784
1684214579284079000,4.5950791015625,0.013704298064112663,0.13902126252651215,0.026420822367072105
1684214579294102300,4.605102294921875,0.39303067326545715,0.219282329082489,0.31600886583328247
1684214579304126000,4.6151259765625,0.45970502495765686,0.4401180148124695,0.6945345997810364
1684214579314150100,4.625150146484375,0.3029223680496216,0.919903576374054,0.8565002083778381
1684214579324174000,4.635174072265625,0.1914786845445633,1.4177792072296143,0.764685332775116
1684214579334198000,4.645197998046875,0.13259819149971008,1.6262034177780151,0.5834712386131287
1684214579344222000,4.655221923828125,0.05618996173143387,1.3503153324127197,0.32905256748199463
1684214579354245000,4.6652451171875,-0.10324276983737946,0.7910183072090149,0.06076427549123764
1684214579364269000,4.67526904296875,-0.3049178421497345,0.29417553544044495,-0.10924579948186874
1684214579374293000,4.68529296875,-0.4818655252456665,0.014322299510240555,-0.20743028819561005
1684214579384317200,4.695317138671875,-0.6127276420593262,-0.0874868854880333,-0.27325883507728577
1684214579394340900,4.7053408203125,-0.7211653590202332,0.06099036708474159,-0.3125956952571869
1684214579404365000,4.715364990234375,-0.6930314898490906,0.27983030676841736,-0.22854742407798767
1684214579414388200,4.72538818359375,-0.5139903426170349,0.4801345467567444,-0.0007534758187830448
1684214579424412000,4.735411865234375,-0.32262948155403137,0.6706448793411255,0.2858162522315979
1684214579434436000,4.74543603515625,-0.21517358720302582,0.777490496635437,0.4977077543735504
1684214579444460000,4.7554599609375,-0.19148662686347961,0.7626383304595947,0.559795081615448
1684214579454484000,4.76548388671875,-0.18404629826545715,0.6655867695808411,0.49485817551612854
1684214579464508200,4.775508056640625,-0.14552100002765656,0.503693699836731,0.3428657054901123
1684214579474531000,4.785531005859375,-0.11579139530658722,0.28834179043769836,0.136664479970932
1684214579484555000,4.795554931640625,-0.09686856716871262,0.21721810102462769,-0.06834086775779724
1684214579494579200,4.8055791015625,-0.09959905594587326,0.36181312799453735,-0.1937706023454666
1684214579504603100,4.81560302734375,-0.08005677908658981,0.5144226551055908,-0.2454947829246521
1684214579514627300,4.82562744140625,-0.04095809534192085,0.5357451438903809,-0.18884076178073883
1684214579524651000,4.835651123046875,-0.04805462062358856,0.485010027885437,-0.04523753374814987
1684214579534675200,4.84567529296875,-0.09737644344568253,0.4774726331233978,0.10766102373600006
1684214579544698000,4.855697998046875,-0.14652188122272491,0.536746084690094,0.23988349735736847
1684214579554722000,4.86572216796875,-0.21758954226970673,0.5605442523956299,0.28485551476478577
1684214579564746200,4.875746337890625,-0.2893662452697754,0.5728421807289124,0.27496907114982605
1684214579574770200,4.885770263671875,-0.3029792606830597,0.4565350115299225,0.21330252289772034
1684214579584794000,4.895794189453125,-0.29131489992141724,0.2971368134021759,0.1399175226688385
1684214579594818000,4.905818115234375,-0.260593980550766,0.29454025626182556,0.12761132419109344
1684214579604841000,4.915841064453125,-0.23572726547718048,0.2593918442726135,0.09616577625274658
1684214579614865200,4.925865234375,-0.19052360951900482,0.20256514847278595,0.04196825623512268
1684214579624889000,4.93588916015625,-0.08896448463201523,0.1062881350517273,-0.013387945480644703
1684214579634913300,4.945913330078125,0.016984816640615463,0.03175629675388336,-0.06675218045711517
1684214579644937000,4.95593701171875,0.09317758679389954,0.16542647778987885,-0.043036725372076035
1684214579654961200,4.965961181640625,0.09289614111185074,0.3184696137905121,0.009091032668948174
1684214579664984000,4.975984130859375,0.04394031688570976,0.3837314248085022,0.03801189735531807
1684214579675008000,4.986008056640625,0.02608935721218586,0.3299970030784607,0.07001763582229614
1684214579685032200,4.9960322265625,0.024918098002672195,0.24281547963619232,0.1054331511259079
1684214579695056100,5.00605615234375,-0.008809983730316162,0.17866945266723633,0.13087764382362366
1684214579705080000,5.016080078125,-0.02564568817615509,0.21606557071208954,0.14104293286800385
1684214579715104000,5.02610400390625,-0.03468421846628189,0.31264543533325195,0.1371581107378006
1684214579725127200,5.036127197265625,-0.033503107726573944,0.37807798385620117,0.13013190031051636
1684214579735151000,5.046151123046875,-0.032990407198667526,0.39171645045280457,0.14975948631763458
1684214579745175000,5.056175048828125,-0.03366232290863991,0.410740464925766,0.19137299060821533
1684214579755199200,5.06619921875,-0.03766108304262161,0.4178982079029083,0.21162466704845428
1684214579765223200,5.07622314453125,-0.05514020845293999,0.4361512362957001,0.21806950867176056
1684214579775247400,5.086247314453125,-0.0798039585351944,0.4170953035354614,0.21267512440681458
1684214579785270300,5.096270263671875,-0.10886064171791077,0.36802923679351807,0.19495178759098053
1684214579795294200,5.106294189453125,-0.13838259875774384,0.2788894474506378,0.16393525898456573
1684214579805318100,5.116318115234375,-0.1684989482164383,0.18488572537899017,0.1335485875606537
1684214579815342000,5.126342041015625,-0.1833440363407135,0.07863036543130875,0.09258391708135605
1684214579825366300,5.1363662109375,-0.18698137998580933,-0.010026531293988228,0.05652498081326485
1684214579835390200,5.14639013671875,-0.18104441463947296,-0.06034494936466217,0.018224423751235008
1684214579845413000,5.1564130859375,-0.18183456361293793,-0.08779335767030716,-0.013008331879973412
1684214579855437300,5.166437255859375,-0.18915317952632904,-0.08854029327630997,-0.05252264067530632
1684214579865461000,5.1764609375,-0.19625608623027802,-0.06450259685516357,-0.07317891716957092
1684214579875485200,5.186485107421875,-0.2075769305229187,-0.03121224418282509,-0.0934370830655098
1684214579885509400,5.19650927734375,-0.2578049600124359,-0.05872322991490364,-0.1100379005074501
1684214579895533300,5.206533203125,-0.28320035338401794,-0.07034039497375488,-0.10531884431838989
1684214579905556200,5.21655615234375,-0.27855047583580017,-0.070612832903862,-0.10226792097091675
1684214579915580200,5.226580078125,-0.2512716054916382,0.006659301929175854,-0.0657951757311821
1684214579925604400,5.236604248046875,-0.19050386548042297,0.039600472897291183,-0.061486974358558655
1684214579935628300,5.246628173828125,-0.20278316736221313,0.009920342825353146,-0.07807234674692154
1684214579945652200,5.25665234375,-0.2637160122394562,0.08404330909252167,-0.018479852005839348
1684214579955676400,5.266676513671875,-0.28787311911582947,0.25723370909690857,0.05712661147117615
1684214579965700000,5.2767001953125,-0.316601425409317,0.2510024607181549,0.0031296899542212486
1684214579975723300,5.28672314453125,-0.3472747802734375,0.1691189706325531,-0.05484657734632492
1684214579985747500,5.29674755859375,-0.3852027356624603,0.057455822825431824,-0.09892642498016357
1684214579995771100,5.306771240234375,-0.3782106637954712,0.11430424451828003,-0.09264015406370163
1684214580005795300,5.31679541015625,-0.3972189724445343,0.00004638568498194218,-0.15031491219997406
1684214580015819300,5.3268193359375,-0.4390764832496643,-0.09251870214939117,-0.17523211240768433
1684214580025842200,5.33684228515625,-0.4809187352657318,-0.14578191936016083,-0.20114679634571075
1684214580035866400,5.346866455078125,-0.5217806100845337,-0.20646464824676514,-0.23642420768737793
1684214580045890300,5.356890380859375,-0.5287647247314453,-0.2693328261375427,-0.256188303232193
1684214580055914200,5.366914306640625,-0.5056676864624023,-0.3349580764770508,-0.24962331354618073
1684214580065938200,5.376938232421875,-0.4790264666080475,-0.3712463080883026,-0.22542768716812134
1684214580075962400,5.38696240234375,-0.4220471680164337,-0.3647596836090088,-0.21559174358844757
1684214580085986000,5.396986083984375,-0.3501487374305725,-0.29808637499809265,-0.1709587723016739
1684214580096009200,5.40700927734375,-0.29657256603240967,-0.265543669462204,-0.14642488956451416
1684214580106033400,5.417033447265625,-0.2610446512699127,-0.21639741957187653,-0.16140784323215485
1684214580116057000,5.42705712890625,-0.2723878026008606,-0.28733688592910767,-0.2249826341867447
1684214580126081300,5.437081298828125,-0.3064166009426117,-0.3366445302963257,-0.28455328941345215
1684214580136105200,5.447105224609375,-0.3354216516017914,-0.2803373336791992,-0.3359729051589966
1684214580146129200,5.457129150390625,-0.3252345323562622,-0.17816515266895294,-0.379721462726593
1684214580156152300,5.46715234375,-0.2960023581981659,-0.18458394706249237,-0.43570613861083984
1684214580166176300,5.47717626953125,-0.2973349988460541,-0.22571328282356262,-0.43600013852119446
1684214580176200200,5.4872001953125,-0.30226606130599976,-0.26207268238067627,-0.3908906877040863
1684214580186224000,5.49722412109375,-0.2379600703716278,-0.2861785292625427,-0.25619199872016907
1684214580196248300,5.507248291015625,-0.1768626570701599,-0.3499686121940613,-0.06025904789566994
1684214580206271200,5.517271240234375,-0.13659778237342834,-0.4075853228569031,0.18532034754753113
1684214580216295200,5.527295166015625,-0.06353449076414108,-0.4783894419670105,0.40832388401031494
1684214580226319400,5.5373193359375,0.045133400708436966,-0.40441375970840454,0.5513997673988342
1684214580236343000,5.547343017578125,0.19109435379505157,-0.20728547871112823,0.5963782668113708
1684214580246367200,5.5573671875,0.3802206218242645,-0.0058069550432264805,0.5878736972808838
1684214580256391200,5.56739111328125,0.5550632476806641,0.12080222368240356,0.559619128704071
1684214580266415000,5.5774150390625,0.664899468421936,0.22777661681175232,0.5215444564819336
1684214580276438300,5.587438232421875,0.7205718159675598,0.29899904131889343,0.5050563216209412
1684214580286462200,5.597462158203125,0.7339369058609009,0.24262286722660065,0.5523349046707153
1684214580296486100,5.607486083984375,0.6889168620109558,0.03753717988729477,0.6158769726753235
1684214580306510300,5.61751025390625,0.627927303314209,-0.19370348751544952,0.6642184257507324
1684214580316534300,5.6275341796875,0.6063863635063171,-0.3156653344631195,0.6440848112106323
1684214580326558200,5.63755810546875,0.6238684058189392,-0.290566623210907,0.5158796906471252
1684214580336581000,5.6475810546875,0.7074881792068481,-0.0786239504814148,0.39223191142082214
1684214580346605300,5.657605224609375,0.7692697644233704,0.10193411260843277,0.2882605195045471
1684214580356629200,5.667629150390625,0.7733559608459473,0.019085779786109924,0.11404560506343842
1684214580366653200,5.677653076171875,0.719877302646637,-0.44160085916519165,-0.10345529019832611
1684214580376677400,5.687677490234375,0.626115620136261,-1.1464157104492188,-0.2427757829427719
1684214580386701300,5.697701416015625,0.5856347680091858,-1.8058021068572998,-0.26829206943511963
1684214580396724200,5.70772412109375,0.58271723985672,-2.34041690826416,-0.29149940609931946
1684214580406748400,5.71774853515625,0.5594606995582581,-2.5822913646698,-0.2867933213710785
1684214580416772000,5.727772216796875,0.5181861519813538,-2.516310691833496,-0.2287762612104416
1684214580426796300,5.73779638671875,0.5122103095054626,-2.2126400470733643,-0.1694018840789795
1684214580436820200,5.7478203125,0.5562763810157776,-1.833986520767212,-0.13792720437049866
1684214580446844400,5.757844482421875,0.6110765337944031,-1.441333532333374,-0.13200967013835907
1684214580456867300,5.767867431640625,0.6772165894508362,-1.1018528938293457,-0.13437797129154205
1684214580466891300,5.777891357421875,0.7350404858589172,-0.8091946244239807,-0.14318877458572388
1684214580476915200,5.787915283203125,0.7503470182418823,-0.5689576864242554,-0.14853771030902863
1684214580486939100,5.797939208984375,0.7405081987380981,-0.48769956827163696,-0.1902310997247696
1684214580496963300,5.80796337890625,0.6726772785186768,-0.6881868243217468,-0.25311121344566345
1684214580506987300,5.8179873046875,0.6376169919967651,-1.07686448097229,-0.2809881269931793
1684214580517011200,5.82801123046875,0.6425885558128357,-1.4060142040252686,-0.26716679334640503
1684214580527034400,5.838034423828125,0.6270380616188049,-1.6482555866241455,-0.2996203303337097
1684214580537058000,5.84805810546875,0.6041961908340454,-1.7350249290466309,-0.41534242033958435
1684214580547082200,5.858082275390625,0.5830602645874023,-1.666736125946045,-0.5516473054885864
1684214580557106200,5.868106201171875,0.5636248588562012,-1.599297285079956,-0.6807979941368103
1684214580567130400,5.87813037109375,0.5395501255989075,-1.5633184909820557,-0.7802673578262329
1684214580577154000,5.888154052734375,0.5048347115516663,-1.574379563331604,-0.8453072309494019
1684214580587177200,5.89817724609375,0.4686761498451233,-1.5892400741577148,-0.8723178505897522
1684214580597201200,5.908201171875,0.43132469058036804,-1.5803982019424438,-0.8539587259292603
1684214580607225000,5.91822509765625,0.41170358657836914,-1.507542610168457,-0.8284062147140503
1684214580617249300,5.928249267578125,0.40079373121261597,-1.3519469499588013,-0.8038368225097656
1684214580627273200,5.938273193359375,0.40399593114852905,-1.1273643970489502,-0.7772097587585449
1684214580637297200,5.948297119140625,0.3961084485054016,-0.909159243106842,-0.7549864649772644
1684214580647320300,5.9583203125,0.37251657247543335,-0.798952579498291,-0.7570576071739197
1684214580657344300,5.96834423828125,0.31648632884025574,-0.9036087393760681,-0.7907652854919434
1684214580667368200,5.9783681640625,0.2462203949689865,-1.144423484802246,-0.8345902562141418
1684214580677392100,5.98839208984375,0.20771507918834686,-1.3521915674209595,-0.8713370561599731
1684214580687416300,5.998416259765625,0.20186571776866913,-1.502760410308838,-0.9299582839012146
1684214580697440300,6.008440185546875,0.20607545971870422,-1.5636954307556152,-0.9789594411849976
1684214580707463200,6.018463134765625,0.19835282862186432,-1.5651707649230957,-1.0017346143722534
1684214580717487400,6.0284873046875,0.1748141199350357,-1.5524680614471436,-1.0091785192489624
1684214580727511000,6.038510986328125,0.14498566091060638,-1.523066759109497,-0.9990289807319641
1684214580737535200,6.04853515625,0.11886543780565262,-1.5080946683883667,-0.9714062809944153
1684214580747558400,6.058558349609375,0.11717406660318375,-1.5120174884796143,-0.9496176242828369
1684214580757582300,6.068582275390625,0.1299327313899994,-1.538534164428711,-0.9471153020858765
1684214580767605200,6.078605224609375,0.15355071425437927,-1.5867253541946411,-0.9417674541473389
1684214580777629400,6.08862939453125,0.17833170294761658,-1.6415926218032837,-0.915542483329773
1684214580787653400,6.0986533203125,0.1874769926071167,-1.7040290832519531,-0.9147962927818298
1684214580797677300,6.10867724609375,0.20388659834861755,-1.7992981672286987,-0.9196085929870605
1684214580807701200,6.118701171875,0.22120407223701477,-1.9341670274734497,-0.9166173338890076
1684214580817725400,6.128725341796875,0.24319323897361755,-2.0531654357910156,-0.9255154728889465
1684214580827749400,6.138749267578125,0.24731849133968353,-2.1305859088897705,-0.9571487903594971
1684214580837772300,6.148772216796875,0.2423335164785385,-2.166179656982422,-0.9854298233985901
1684214580847796500,6.15879638671875,0.21353675425052643,-2.176156997680664,-0.986861526966095
1684214580857820200,6.168820068359375,0.1665213704109192,-2.245134115219116,-0.9898973703384399
1684214580867844400,6.17884423828125,0.09922249615192413,-2.3879623413085938,-1.0093488693237305
1684214580877868300,6.188868408203125,0.028804022818803787,-2.5144574642181396,-1.0052025318145752
1684214580887892200,6.198892333984375,-0.051168043166399,-2.6352949142456055,-1.011420488357544
1684214580897915400,6.208915283203125,-0.11010942608118057,-2.727498769760132,-1.0066173076629639
1684214580907939300,6.218939208984375,-0.17973405122756958,-2.81144380569458,-1.0291755199432373
1684214580917963300,6.22896337890625,-0.20704728364944458,-2.8251211643218994,-1.050418496131897
1684214580927987500,6.238987548828125,-0.21883177757263184,-2.8606276512145996,-1.071397304534912
1684214580938011400,6.249011474609375,-0.21427205204963684,-2.9229133129119873,-1.1017389297485352
1684214580948035300,6.259035400390625,-0.17702853679656982,-2.9680376052856445,-1.1412533521652222
1684214580958058200,6.269058349609375,-0.1298309564590454,-2.9913904666900635,-1.1818211078643799
1684214580968082400,6.27908251953125,-0.06078903749585152,-2.996730089187622,-1.201102614402771
1684214580978106400,6.2891064453125,-0.0194721557199955,-3.0020973682403564,-1.1914585828781128
1684214580988130300,6.29913037109375,0.01909174770116806,-3.0119380950927734,-1.1825692653656006
1684214580998154500,6.309154541015625,0.05013492703437805,-3.0139851570129395,-1.1623560190200806
1684214581008178200,6.31917822265625,0.024529697373509407,-2.989931583404541,-1.1195456981658936
1684214581018202400,6.329202392578125,0.07016980648040771,-3.077033042907715,-1.128477931022644
1684214581028225500,6.3392255859375,0.08917812258005142,-3.1421597003936768,-1.1291271448135376
1684214581038249200,6.349249267578125,0.061297837644815445,-3.141040086746216,-1.1124584674835205
1684214581048273400,6.3592734375,0.02751643769443035,-3.0537755489349365,-1.1326854228973389
1684214581058297300,6.36929736328125,-0.027012363076210022,-2.943232774734497,-1.2042537927627563
1684214581068321500,6.379321533203125,-0.05042367801070213,-2.8110790252685547,-1.2876285314559937
1684214581078345200,6.38934521484375,-0.04288241267204285,-2.6910653114318848,-1.3381255865097046
1684214581088368400,6.399368408203125,-0.08824563026428223,-2.6361701488494873,-1.359023928642273
1684214581098392300,6.409392333984375,-0.1564345508813858,-2.5872325897216797,-1.3563249111175537
1684214581108416300,6.419416259765625,-0.21871177852153778,-2.5332627296447754,-1.3389147520065308
1684214581118440400,6.4294404296875,-0.3013507127761841,-2.444181442260742,-1.3023550510406494
1684214581128464400,6.43946435546875,-0.29639482498168945,-2.3345274925231934,-1.2535816431045532
1684214581138488300,6.44948828125,-0.28296419978141785,-2.2547032833099365,-1.2359535694122314
1684214581148512300,6.45951220703125,-0.2840084135532379,-2.1720566749572754,-1.1973135471343994
1684214581158535200,6.46953515625,-0.26327183842658997,-2.0556061267852783,-1.1317496299743652
1684214581168559400,6.479559326171875,-0.16824783384799957,-1.8737642765045166,-1.0757931470870972
1684214581178583300,6.489583251953125,-0.017702504992485046,-1.5581426620483398,-1.0718908309936523
1684214581188607500,6.499607421875,0.16482096910476685,-1.157241940498352,-1.1023105382919312
1684214581198631200,6.509631103515625,0.34288373589515686,-0.7618832588195801,-1.1342294216156006
1684214581208655400,6.5196552734375,0.4506048560142517,-0.4136432409286499,-1.1231703758239746
1684214581218678300,6.52967822265625,0.41963544487953186,-0.20677566528320312,-1.0064973831176758
1684214581228702200,6.5397021484375,0.270195871591568,-0.21000394225120544,-0.7425578236579895
1684214581238726400,6.549726318359375,0.08392665535211563,-0.49383947253227234,-0.3865568935871124
1684214581248750300,6.559750244140625,-0.08207563310861588,-0.9575695991516113,-0.11045046150684357
1684214581258774300,6.569774169921875,-0.1858411282300949,-1.4209645986557007,-0.009840111248195171
1684214581268798500,6.579798583984375,-0.22906742990016937,-1.7087655067443848,-0.006698646582663059
1684214581278821400,6.5898212890625,-0.23936142027378082,-1.6771024465560913,0.008615415543317795
1684214581288845300,6.59984521484375,-0.2270733267068863,-1.4326553344726562,0.023371191695332527
1684214581298869200,6.609869140625,-0.2376483976840973,-1.179804801940918,-0.08510264754295349
1684214581308893400,6.6198935546875,-0.2677362561225891,-1.103394627571106,-0.33587920665740967
1684214581318917400,6.62991748046875,-0.2905203700065613,-1.2218800783157349,-0.6504671573638916
1684214581328941300,6.63994140625,-0.2834169268608093,-1.3199129104614258,-0.9201676249504089
1684214581338965500,6.649965576171875,-0.2032255083322525,-1.26289963722229,-1.0737285614013672
1684214581348988400,6.659988525390625,-0.08023726940155029,-1.097693681716919,-1.080291748046875
1684214581359012400,6.670012451171875,0.013314015232026577,-1.0019559860229492,-0.9694956541061401
1684214581369036500,6.68003662109375,0.07843310385942459,-1.098734974861145,-0.8373644948005676
1684214581379060200,6.690060302734375,0.11319088935852051,-1.2773102521896362,-0.7196603417396545
1684214581389084400,6.70008447265625,0.12634530663490295,-1.3814963102340698,-0.6235042214393616
1684214581399108400,6.7101083984375,0.10712781548500061,-1.437527060508728,-0.5451120138168335
1684214581409131300,6.72013134765625,0.05267629027366638,-1.4789406061172485,-0.5075616836547852
1684214581419155500,6.730155517578125,-0.021487807855010033,-1.5966413021087646,-0.5310461521148682
1684214581429179400,6.740179443359375,-0.024501441046595573,-1.7576216459274292,-0.5982246398925781
1684214581439203300,6.750203369140625,0.009521542116999626,-1.88002347946167,-0.6469794511795044
1684214581449227300,6.760227294921875,0.059521324932575226,-1.933889627456665,-0.6528021693229675
1684214581459251500,6.77025146484375,0.12150329351425171,-1.9647794961929321,-0.6341363787651062
1684214581469275100,6.780275146484375,0.19574131071567535,-1.9834187030792236,-0.6108949780464172
1684214581479298300,6.79029833984375,0.26360246539115906,-1.9811136722564697,-0.5994107723236084
1684214581489322500,6.800322509765625,0.3200838267803192,-1.9668729305267334,-0.6076676249504089
1684214581499346200,6.81034619140625,0.36308184266090393,-1.9491896629333496,-0.6220751404762268
1684214581509370400,6.820370361328125,0.3732295632362366,-1.922776460647583,-0.6482151746749878
1684214581519394300,6.830394287109375,0.354710191488266,-1.8938524723052979,-0.6932728290557861
1684214581529418500,6.84041845703125,0.3335191607475281,-1.8847157955169678,-0.7356685400009155
1684214581539441400,6.85044140625,0.2903501093387604,-1.9440157413482666,-0.7854049801826477
1684214581549465300,6.86046533203125,0.25109830498695374,-1.9951497316360474,-0.8192033767700195
1684214581559489300,6.8704892578125,0.219994455575943,-2.037630796432495,-0.8441655039787292
1684214581569513200,6.88051318359375,0.18411369621753693,-2.0874197483062744,-0.8831579089164734
1684214581579537400,6.890537353515625,0.15262247622013092,-2.1188807487487793,-0.9375563859939575
1684214581589561300,6.900561279296875,0.13136886060237885,-2.1095058917999268,-0.9692762494087219
1684214581599585300,6.910585205078125,0.10536304861307144,-2.089765787124634,-0.9787800908088684
1684214581609608400,6.9206083984375,0.06615786254405975,-2.048858642578125,-0.968731164932251
1684214581619632000,6.930632080078125,0.035943303257226944,-2.0087108612060547,-0.9355446100234985
1684214581629656300,6.94065625,0.014987689442932606,-1.9750431776046753,-0.8855118155479431
1684214581639680500,6.950680419921875,0.0019603969994932413,-1.9665087461471558,-0.8209618926048279
1684214581649704400,6.960704345703125,-0.0037978901527822018,-1.973771095275879,-0.7629947662353516
1684214581659728400,6.970728271484375,-0.009561650454998016,-1.9903364181518555,-0.7221950888633728
1684214581669751300,6.980751220703125,-0.0022837636061012745,-2.001756191253662,-0.7025444507598877
1684214581679775200,6.990775146484375,-0.0044526527635753155,-2.0193495750427246,-0.7233591675758362
1684214581689799400,7.00079931640625,-0.0158629659563303,-2.092200756072998,-0.7926346659660339
1684214581699823400,7.0108232421875,-0.061128247529268265,-2.23006534576416,-0.906762957572937
1684214581709847600,7.02084765625,-0.11409745365381241,-2.3617868423461914,-1.043986201286316
1684214581719871200,7.030871337890625,-0.146544948220253,-2.462278366088867,-1.1747050285339355
1684214581729895400,7.0408955078125,-0.16448692977428436,-2.5630452632904053,-1.2896686792373657
1684214581739918600,7.050918701171875,-0.18190284073352814,-2.682767391204834,-1.3806945085525513
1684214581749942500,7.060942626953125,-0.19611293077468872,-2.793741226196289,-1.437651515007019
1684214581759966500,7.070966552734375,-0.19416648149490356,-2.88248610496521,-1.4713510274887085
1684214581769990400,7.080990478515625,-0.1774279773235321,-2.9418346881866455,-1.4896882772445679
1684214581780014600,7.0910146484375,-0.1426587551832199,-2.9361791610717773,-1.478690505027771
1684214581790038500,7.10103857421875,-0.08843573182821274,-2.870746612548828,-1.4466966390609741
1684214581800061400,7.1110615234375,-0.015168517827987671,-2.715968132019043,-1.3801593780517578
1684214581810085600,7.121085693359375,0.06083890050649643,-2.4543373584747314,-1.2712445259094238
1684214581820109300,7.131109375,0.12143977731466293,-2.089960813522339,-1.1040244102478027
1684214581830133500,7.141133544921875,0.18669095635414124,-1.689320683479309,-0.8789018988609314
1684214581840157400,7.151157470703125,0.2633744180202484,-1.3259481191635132,-0.5985934734344482
1684214581850181600,7.161181640625,0.3231392204761505,-1.061641812324524,-0.3262906074523926
1684214581860204500,7.17120458984375,0.3768354654312134,-0.7297680974006653,-0.027337200939655304
1684214581870228500,7.181228515625,0.4725995361804962,-0.46354708075523376,0.23822256922721863
1684214581880252400,7.19125244140625,0.5472091436386108,-0.246334969997406,0.483763188123703
1684214581890276400,7.2012763671875,0.6079548001289368,-0.1985733062028885,0.7063568234443665
1684214581900300500,7.211300537109375,0.6524782776832581,-0.307453453540802,0.8949909210205078
1684214581910324500,7.221324462890625,0.6601964235305786,-0.5373497605323792,0.9173092842102051
1684214581920348400,7.231348388671875,0.5975519418716431,-0.7772099375724792,0.807377278804779
1684214581930371600,7.24137158203125,0.527104914188385,-1.0341277122497559,0.6166781187057495
1684214581940395500,7.2513955078125,0.5120247602462769,-1.2007273435592651,0.4611276090145111
1684214581950419500,7.26141943359375,0.5158706307411194,-1.1014478206634521,0.41142213344573975
1684214581960443400,7.271443359375,0.5057841539382935,-0.8470354080200195,0.3611280024051666
1684214581970467600,7.281467529296875,0.48355770111083984,-0.652953028678894,0.2453976720571518
1684214581980491500,7.291491455078125,0.41458919644355774,-0.632206916809082,0.12257552146911621
1684214581990514400,7.301514404296875,0.32168108224868774,-0.8619343638420105,0.021291250362992287
1684214582000538600,7.31153857421875,0.21928931772708893,-1.1311383247375488,-0.019681302830576897
1684214582010562300,7.321562255859375,0.12625205516815186,-1.1904621124267578,0.005868265405297279
1684214582020586500,7.33158642578125,0.12734071910381317,-1.0075806379318237,0.0852956548333168
1684214582030610700,7.341610595703125,0.1975986361503601,-0.7547822594642639,0.1295829564332962
1684214582040634400,7.35163427734375,0.28450849652290344,-0.5189672708511353,0.11685114353895187
1684214582050658600,7.361658447265625,0.3504193425178528,-0.2944934368133545,0.04605713486671448
1684214582060681500,7.371681396484375,0.3888716697692871,-0.13918936252593994,-0.021938925608992577
1684214582070705400,7.381705322265625,0.42028045654296875,-0.09464985877275467,-0.07618538290262222
1684214582080729600,7.3917294921875,0.46878841519355774,-0.20839686691761017,-0.1336522102355957
1684214582090753500,7.40175341796875,0.5196276307106018,-0.30317452549934387,-0.14354665577411652
1684214582100777500,7.411777587890625,0.5585014820098877,-0.469778835773468,-0.15364687144756317
1684214582110801400,7.421801513671875,0.5620943307876587,-0.6348189115524292,-0.1714538335800171
1684214582120825600,7.43182568359375,0.5449404716491699,-0.7683895826339722,-0.20355357229709625
1684214582130848500,7.4418486328125,0.5310366153717041,-0.9060944318771362,-0.21698202192783356
1684214582140872400,7.45187255859375,0.5271429419517517,-1.039352536201477,-0.2079162746667862
1684214582150896600,7.461896728515625,0.518378496170044,-1.1052024364471436,-0.18911196291446686
1684214582160920300,7.47192041015625,0.5084500312805176,-1.1056430339813232,-0.18464155495166779
1684214582170944500,7.481944580078125,0.5052827000617981,-1.0550332069396973,-0.189426451921463
1684214582180968400,7.491968505859375,0.5091310143470764,-0.9760921001434326,-0.1976989209651947
1684214582190991400,7.501991455078125,0.5344025492668152,-0.7992150783538818,-0.2234269231557846
1684214582201015600,7.512015625,0.5415874719619751,-0.5489700436592102,-0.28521981835365295
1684214582211039500,7.52203955078125,0.5322557687759399,-0.32358354330062866,-0.34824591875076294
1684214582221063400,7.5320634765625,0.494025856256485,-0.134224534034729,-0.3870253562927246
1684214582231087400,7.54208740234375,0.4305347800254822,-0.05788475647568703,-0.3987714946269989
1684214582241111600,7.552111572265625,0.3673591911792755,-0.052996426820755005,-0.3851935565471649
1684214582251135500,7.562135498046875,0.32037222385406494,-0.06922706216573715,-0.3732982873916626
1684214582261158400,7.572158447265625,0.2867310643196106,-0.0842573344707489,-0.3632362484931946
1684214582271182600,7.5821826171875,0.277813196182251,-0.1089075580239296,-0.3491497039794922
1684214582281206300,7.592206298828125,0.27895450592041016,-0.15142613649368286,-0.3231181204319
1684214582291230500,7.60223046875,0.269216388463974,-0.19005422294139862,-0.30808910727500916
1684214582301254400,7.61225439453125,0.2793203890323639,-0.2551046311855316,-0.3204561173915863
1684214582311278600,7.622278564453125,0.295038104057312,-0.33297571539878845,-0.3381091356277466
1684214582321302500,7.632302490234375,0.29683518409729004,-0.3986978828907013,-0.35507065057754517
1684214582331325400,7.642325439453125,0.2783754765987396,-0.4683060050010681,-0.38564878702163696
1684214582341349400,7.652349365234375,0.2507215440273285,-0.4989837408065796,-0.39297688007354736
1684214582351373300,7.662373291015625,0.22226406633853912,-0.4567420184612274,-0.38933631777763367
1684214582361397500,7.6723974609375,0.18401281535625458,-0.3654050827026367,-0.38617008924484253
1684214582371421700,7.682421630859375,0.15193983912467957,-0.2756008803844452,-0.3650112748146057
1684214582381445400,7.6924453125,0.10333739966154099,-0.18905949592590332,-0.33356496691703796
1684214582391468500,7.702468505859375,0.06891471147537231,-0.08632033318281174,-0.30086880922317505
1684214582401492500,7.712492431640625,0.03411519154906273,0.021386051550507545,-0.29249101877212524
1684214582411516400,7.722516357421875,0.01829335279762745,0.14715330302715302,-0.30595114827156067
1684214582421540600,7.73254052734375,0.011394450441002846,0.2535231113433838,-0.33771970868110657
1684214582431564500,7.742564453125,0.005911267362535,0.3533397316932678,-0.3716854155063629
1684214582441588500,7.75258837890625,-0.007975821383297443,0.4665868282318115,-0.37954074144363403
1684214582451612400,7.7626123046875,-0.032257724553346634,0.5589662790298462,-0.34771037101745605
1684214582461635600,7.772635498046875,-0.076011061668396,0.5858936905860901,-0.31256037950515747
1684214582471659500,7.782659423828125,-0.11846663802862167,0.5752953886985779,-0.30356767773628235
1684214582481683500,7.792683349609375,-0.1697879433631897,0.5504420399665833,-0.3331848084926605
1684214582491707600,7.802707763671875,-0.19967766106128693,0.5524479746818542,-0.3681390583515167
1684214582501731300,7.8127314453125,-0.23281896114349365,0.5181674361228943,-0.40557345747947693
1684214582511755500,7.822755615234375,-0.25015589594841003,0.46433112025260925,-0.4486333131790161
1684214582521778700,7.83277880859375,-0.2586236596107483,0.40824568271636963,-0.4929235875606537
1684214582531802400,7.84280224609375,-0.26166632771492004,0.33062437176704407,-0.5248258709907532
1684214582541826600,7.85282666015625,-0.2567328214645386,0.23159319162368774,-0.5431329607963562
1684214582551850500,7.8628505859375,-0.2572702467441559,0.11878354847431183,-0.5452378988265991
1684214582561874400,7.87287451171875,-0.27556493878364563,0.04651244357228279,-0.5467618107795715
1684214582571898400,7.8828984375,-0.293201208114624,0.004611064679920673,-0.5669354796409607
1684214582581922600,7.892922607421875,-0.3072420358657837,-0.03438284993171692,-0.6111265420913696
1684214582591945500,7.902945556640625,-0.3443151116371155,-0.10782110691070557,-0.6839930415153503
1684214582601969400,7.912969482421875,-0.40328213572502136,-0.27478256821632385,-0.7402291893959045
1684214582611993600,7.92299365234375,-0.48287710547447205,-0.537595808506012,-0.7197596430778503
1684214582622017300,7.933017333984375,-0.4514288008213043,-0.7868598103523254,-0.6298143267631531
1684214582632041500,7.94304150390625,-0.2025471031665802,-0.9468836188316345,-0.42010024189949036
1684214582642065400,7.9530654296875,0.2047727257013321,-1.038313627243042,-0.14582104980945587
1684214582652089600,7.963089599609375,0.46164101362228394,-0.7796942591667175,0.0715261772274971
1684214582662112500,7.973112548828125,0.6689994931221008,-0.36230939626693726,0.2804953455924988
1684214582672136400,7.983136474609375,0.7230358123779297,-0.021572310477495193,0.47610265016555786
1684214582682160400,7.993160400390625,0.4072248339653015,0.3596252202987671,0.7048375010490417
1684214582692184600,8.0031845703125,0.02637123316526413,0.6101834177970886,0.7681013941764832
1684214582702208500,8.01320849609375,-0.23195616900920868,0.6449992060661316,0.6114055514335632
1684214582712232700,8.023232666015625,-0.39560768008232117,0.4783537685871124,0.2517624497413635
1684214582722255400,8.03325537109375,-0.5062870383262634,0.13345816731452942,-0.19067327678203583
1684214582732279600,8.043279541015625,-0.5092138648033142,-0.21486732363700867,-0.48131605982780457
1684214582742303200,8.05330322265625,-0.5136231184005737,-0.4309482276439667,-0.5336378216743469
1684214582752327200,8.0633271484375,-0.4817264676094055,-0.5425599813461304,-0.5105338096618652
1684214582762351400,8.073351318359375,-0.36060887575149536,-0.6389802694320679,-0.5276024341583252
1684214582772375300,8.083375244140624,-0.11403558403253555,-0.5642974972724915,-0.550567626953125
1684214582782399200,8.093399169921875,0.13767924904823303,-0.3397968113422394,-0.5774319767951965
1684214582792422400,8.10342236328125,0.24976079165935516,-0.22155620157718658,-0.49067413806915283
1684214582802446000,8.113446044921876,0.21771809458732605,-0.30059897899627686,-0.3244200348854065
1684214582812470300,8.12347021484375,0.1583072394132614,-0.46668168902397156,-0.260457307100296
1684214582822494200,8.133494140625,0.10091029852628708,-0.5922861099243164,-0.2794356942176819
1684214582832518400,8.143518310546876,0.039276763796806335,-0.6908156275749207,-0.33320170640945435
1684214582842542000,8.1535419921875,-0.03921879082918167,-0.831634521484375,-0.4209274351596832
1684214582852566300,8.163566162109374,-0.12372808158397675,-1.0445281267166138,-0.5208458304405212
1684214582862589200,8.173589111328125,-0.24949097633361816,-1.274107575416565,-0.6380106210708618
1684214582872613000,8.183613037109374,-0.36527934670448303,-1.3614928722381592,-0.7059984803199768
1684214582882637300,8.19363720703125,-0.4113796055316925,-1.4442533254623413,-0.7384639382362366
1684214582892661200,8.2036611328125,-0.40943920612335205,-1.4644678831100464,-0.7249528765678406
1684214582902685200,8.213685302734374,-0.42078378796577454,-1.4138809442520142,-0.6779162287712097
1684214582912709000,8.223709228515625,-0.3988768756389618,-1.2964893579483032,-0.6139071583747864
1684214582922733300,8.2337333984375,-0.3596174120903015,-1.1431406736373901,-0.5723720788955688
1684214582932756200,8.243756103515626,-0.2937752902507782,-0.9852045178413391,-0.5669706463813782
1684214582942780200,8.2537802734375,-0.20615248382091522,-0.7785248756408691,-0.5594171285629272
1684214582952804400,8.263804443359374,-0.09045971184968948,-0.45913460850715637,-0.5122477412223816
1684214582962828000,8.273828125,0.013357475399971008,-0.10555136948823929,-0.41640543937683105
1684214582972852200,8.283852294921875,0.09583637863397598,0.2860584855079651,-0.23591794073581696
1684214582982876400,8.29387646484375,0.1395002156496048,0.6181100606918335,-0.016127314418554306
1684214582992899000,8.303899169921875,0.10931088775396347,0.8867183327674866,0.18632139265537262
1684214583002923300,8.31392333984375,0.04127906635403633,1.1239951848983765,0.3426099717617035
1684214583012947200,8.323947265625,-0.010217946954071522,1.2677502632141113,0.41005265712738037
1684214583022971100,8.33397119140625,-0.046783775091171265,1.3674628734588623,0.4167477488517761
1684214583032995300,8.343995361328124,-0.09089957177639008,1.4467103481292725,0.39046022295951843
1684214583043019300,8.354019287109375,-0.13093970715999603,1.4900883436203003,0.36233097314834595
1684214583053043200,8.364043212890625,-0.15592947602272034,1.5007668733596802,0.320109486579895
1684214583063066400,8.37406640625,-0.1564674824476242,1.365160346031189,0.23808084428310394
1684214583073090300,8.38409033203125,-0.1358487606048584,1.1318552494049072,0.16754835844039917
1684214583083114200,8.3941142578125,-0.14725163578987122,0.8680557608604431,0.15388096868991852
1684214583093138200,8.40413818359375,-0.20339080691337585,0.6706907749176025,0.16991905868053436
1684214583103162400,8.414162353515625,-0.2695263922214508,0.5908001661300659,0.19550387561321259
1684214583113186000,8.42418603515625,-0.29935193061828613,0.6329412460327148,0.1923629492521286
1684214583123210200,8.434210205078125,-0.2993854582309723,0.6564098596572876,0.1384132355451584
1684214583133233400,8.4442333984375,-0.28166744112968445,0.6185527443885803,0.05938205495476723
1684214583143257000,8.454257080078126,-0.2634623348712921,0.5132080316543579,-0.02270404063165188
1684214583153281300,8.46428125,-0.23556704819202423,0.38052189350128174,-0.09683100134134293
1684214583163305200,8.47430517578125,-0.21551565825939178,0.2685486674308777,-0.14600805938243866
1684214583173329200,8.4843291015625,-0.220001220703125,0.201149120926857,-0.1475100815296173
1684214583183353000,8.49435302734375,-0.24542690813541412,0.1631985753774643,-0.12437213957309723
1684214583193377300,8.504377197265624,-0.26876604557037354,0.15454836189746857,-0.10776840150356293
1684214583203400200,8.514400146484375,-0.28752535581588745,0.17969457805156708,-0.10883554071187973
1684214583213424000,8.524424072265624,-0.2841905355453491,0.2832880914211273,-0.1250603199005127
1684214583223448300,8.5344482421875,-0.25223445892333984,0.3341681957244873,-0.14570513367652893
1684214583233472000,8.544471923828125,-0.21835294365882874,0.3863709568977356,-0.11142465472221375
1684214583243496200,8.55449609375,-0.20174580812454224,0.39591795206069946,-0.07938539981842041
1684214583253520100,8.56452001953125,-0.181738018989563,0.4384222626686096,-0.05684361234307289
1684214583263544300,8.57454443359375,-0.14298361539840698,0.539698600769043,-0.03251570835709572
1684214583273567200,8.584567138671876,-0.12998232245445251,0.6488988995552063,-0.020038533955812454
1684214583283591200,8.594591064453125,-0.11901780962944031,0.7396934628486633,-0.01335422694683075
1684214583293615400,8.604615478515624,-0.13707563281059265,0.792921245098114,0.023691408336162567
1684214583303639300,8.614639404296875,-0.15049532055854797,0.7733798027038574,0.06158868223428726
1684214583313663200,8.624663330078125,-0.14590322971343994,0.7254874110221863,0.087160624563694
1684214583323687400,8.6346875,-0.13981258869171143,0.6986002922058105,0.1023067906498909
1684214583333711000,8.644711181640625,-0.1299668848514557,0.6867026090621948,0.1050434559583664
1684214583343734300,8.654734375,-0.12194273620843887,0.7049648761749268,0.10704440623521805
1684214583353758200,8.66475830078125,-0.11755172163248062,0.7101985216140747,0.11868801712989807
1684214583363782100,8.6747822265625,-0.1180659830570221,0.716609537601471,0.14354939758777618
1684214583373806300,8.684806396484374,-0.12843874096870422,0.7048319578170776,0.1649785339832306
1684214583383830300,8.694830322265625,-0.1599670946598053,0.6742085218429565,0.1908348947763443
1684214583393854200,8.704854248046875,-0.20696869492530823,0.6482381820678711,0.19849653542041779
1684214583403878100,8.714878173828126,-0.25782182812690735,0.6414820551872253,0.20409703254699707
1684214583413901300,8.7249013671875,-0.28274819254875183,0.6476123929023743,0.19987431168556213
1684214583423925200,8.73492529296875,-0.2713854908943176,0.6616869568824768,0.175619438290596
1684214583433949200,8.74494921875,-0.2386142462491989,0.6814497709274292,0.15623882412910461
1684214583443973400,8.754973388671875,-0.1957637518644333,0.7167665958404541,0.14606836438179016
1684214583453997000,8.7649970703125,-0.15389007329940796,0.767074465751648,0.1498415172100067
1684214583464021200,8.775021240234375,-0.11352665722370148,0.8042173981666565,0.19369825720787048
1684214583474045200,8.785045166015625,-0.0895821750164032,0.8342239856719971,0.28202733397483826
1684214583484068000,8.795068115234375,-0.06586591899394989,0.8767030239105225,0.38711249828338623
1684214583494092300,8.80509228515625,-0.06327492743730545,0.9388963580131531,0.46048203110694885
1684214583504116200,8.8151162109375,-0.0924411416053772,1.044569730758667,0.4666214883327484
1684214583514140200,8.82514013671875,-0.14240604639053345,1.0696133375167847,0.436469167470932
1684214583524164000,8.8351640625,-0.19673579931259155,0.9821018576622009,0.39238259196281433
1684214583534188300,8.845188232421876,-0.24487510323524475,0.8369548320770264,0.3008641302585602
1684214583544212200,8.855212158203125,-0.2538028657436371,0.7232363820075989,0.16160595417022705
1684214583554235100,8.865235107421874,-0.23575542867183685,0.6573143601417542,0.030110500752925873
1684214583564259300,8.87525927734375,-0.21066440641880035,0.623310387134552,-0.07129433006048203
1684214583574283000,8.885282958984375,-0.20606006681919098,0.5914150476455688,-0.09766681492328644
1684214583584307200,8.89530712890625,-0.21075975894927979,0.5826292634010315,-0.061902690678834915
1684214583594331400,8.905331298828125,-0.23177768290042877,0.5960558652877808,-0.016300851479172707
1684214583604355300,8.915355224609375,-0.2346239686012268,0.6648823618888855,0.02481277659535408
1684214583614379300,8.925379150390626,-0.21810518205165863,0.761469304561615,0.061251744627952576
1684214583624402200,8.935402099609375,-0.20934395492076874,0.8193783760070801,0.08204157650470734
1684214583634426000,8.945426025390624,-0.29700538516044617,0.8087097406387329,0.08707921206951141
1684214583644450300,8.9554501953125,-0.4407823085784912,0.7639801502227783,0.07500319927930832
1684214583654474200,8.96547412109375,-0.3294810950756073,0.7322834730148315,0.07112324237823486
1684214583664498400,8.97549853515625,-0.22191351652145386,0.7606104016304016,0.18471981585025787
1684214583674522000,8.985522216796875,-0.21742954850196838,0.8743846416473389,0.3944173753261566
1684214583684546300,8.99554638671875,-0.15635181963443756,0.9163756966590881,0.5351660251617432
1684214583694569200,9.0055693359375,0.14483678340911865,0.8024166226387024,0.5110089778900146
1684214583704593200,9.01559326171875,0.3566935956478119,0.5708708167076111,0.42566391825675964
1684214583714617300,9.025617431640624,0.4911544620990753,0.29830509424209595,0.337956964969635
1684214583724641300,9.035641357421875,0.5909982323646545,0.054525937885046005,0.23673968017101288
1684214583734665200,9.045665283203125,0.6249399185180664,-0.14504095911979675,0.15723979473114014
1684214583744689700,9.055689697265626,0.6279668211936951,-0.23526988923549652,0.13374722003936768
1684214583754713600,9.065713623046875,0.6992596387863159,-0.24616648256778717,0.16375358402729034
1684214583764736800,9.07573681640625,0.7890540361404419,-0.24642251431941986,0.2383149117231369
1684214583774760700,9.0857607421875,0.8626286387443542,-0.12147444486618042,0.40203461050987244
1684214583784784600,9.09578466796875,0.9364203214645386,0.035866234451532364,0.5604386329650879
1684214583794808600,9.10580859375,0.9843180775642395,0.20940953493118286,0.7093650102615356
1684214583804832800,9.115832763671875,1.0020978450775146,0.32872113585472107,0.8490121960639954
1684214583814856400,9.1258564453125,0.980684220790863,0.3529452681541443,0.9694560170173645
1684214583824880600,9.135880615234376,0.9367660880088806,0.22144119441509247,1.0241106748580933
1684214583834903800,9.14590380859375,0.8748723268508911,0.07701636105775833,1.0565922260284424
1684214583844927500,9.155927490234374,0.7576369643211365,0.2339392453432083,1.1830227375030518
1684214583854951700,9.16595166015625,0.6469245553016663,0.29734885692596436,1.2375293970108032
1684214583864975600,9.1759755859375,0.614467442035675,-0.03710668534040451,1.1300060749053955
1684214583874999800,9.185999755859376,0.5587761998176575,-0.24146699905395508,1.1033717393875122
1684214583885023500,9.1960234375,0.49455952644348145,-0.33532917499542236,1.1062474250793457
1684214583895047700,9.206047607421874,0.42057693004608154,-0.32846274971961975,1.1258032321929932
1684214583905070600,9.216070556640625,0.3584102392196655,-0.29531562328338623,1.0775601863861084
1684214583915094500,9.226094482421875,0.3445066809654236,-0.2836986482143402,0.9487584233283997
1684214583925118700,9.23611865234375,0.3483898639678955,-0.2734326124191284,0.7876591682434082
1684214583935142700,9.246142578125,0.31480899453163147,-0.3076379895210266,0.6497500538825989
1684214583945166600,9.25616650390625,0.2957642674446106,-0.31367921829223633,0.6221376657485962
1684214583955190800,9.266190673828126,0.31634756922721863,-0.27674463391304016,0.6709176898002625
1684214583965214700,9.276214599609375,0.3612985610961914,-0.23628336191177368,0.6791552305221558
1684214583975237600,9.286237548828124,0.376944899559021,-0.09651987999677658,0.6652881503105164
1684214583985261600,9.296261474609375,0.38233983516693115,0.012976819649338722,0.6204115152359009
1684214583995285800,9.30628564453125,0.3789818584918976,0.1540931910276413,0.5584533214569092
1684214584005309700,9.316309814453126,0.44678595662117004,0.01070467196404934,0.38541367650032043
1684214584015333600,9.326333740234375,0.5351501107215881,0.03356178477406502,0.3093194365501404
1684214584025357800,9.33635791015625,0.5788861513137817,0.101188063621521,0.25016769766807556
1684214584035381500,9.346381591796876,0.6102390289306641,0.14236879348754883,0.17355415225028992
1684214584045404700,9.35640478515625,0.6414332389831543,0.18260347843170166,0.05394526571035385
1684214584055428900,9.366428955078124,0.6810136437416077,0.16041162610054016,-0.08417292684316635
1684214584065452500,9.37645263671875,0.702735185623169,0.08682543784379959,-0.2010314166545868
1684214584075476700,9.386476806640625,0.7058284282684326,-0.11107751727104187,-0.3144266903400421
1684214584085500700,9.396500732421876,0.674671471118927,-0.3590596616268158,-0.4136653542518616
1684214584095524600,9.406524658203125,0.6213270425796509,-0.553803026676178,-0.49526676535606384
1684214584105548500,9.416548583984374,0.5734597444534302,-0.6894646883010864,-0.5793027281761169
1684214584115571700,9.42657177734375,0.5197797417640686,-0.7920646071434021,-0.666734516620636
1684214584125595600,9.436595703125,0.45748305320739746,-0.8592997789382935,-0.7257511615753174
1684214584135619600,9.44661962890625,0.3958692252635956,-0.924564003944397,-0.7569037675857544
1684214584145643800,9.456643798828125,0.32436931133270264,-0.9874855279922485,-0.7679675817489624
1684214584155667500,9.46666748046875,0.24472986161708832,-1.0688204765319824,-0.7596473693847656
1684214584165691600,9.476691650390626,0.17289286851882935,-1.1668899059295654,-0.7178045511245728
1684214584175715600,9.486715576171875,0.11886557191610336,-1.2802470922470093,-0.6522665619850159
1684214584185738500,9.496738525390626,0.0929189994931221,-1.4024077653884888,-0.5596163868904114
1684214584195762700,9.5067626953125,0.0756305530667305,-1.4935773611068726,-0.46258676052093506
1684214584205786600,9.51678662109375,0.06720159202814102,-1.5600095987319946,-0.3655027151107788
1684214584215810600,9.526810546875,0.060046467930078506,-1.6195738315582275,-0.2515633702278137
1684214584225834500,9.53683447265625,0.06032933294773102,-1.654437780380249,-0.12583331763744354
1684214584235858700,9.546858642578124,0.07861592620611191,-1.5895922183990479,0.010556220076978207
1684214584245882600,9.556882568359375,0.14272548258304596,-1.4099444150924683,0.11872013658285141
1684214584255906600,9.566906494140625,0.2639957070350647,-1.026895523071289,0.19738778471946716
1684214584265929700,9.5769296875,0.41318732500076294,-0.48573994636535645,0.21572741866111755
1684214584275953400,9.586953369140625,0.5375944972038269,0.12000402808189392,0.12650619447231293
1684214584285977600,9.5969775390625,0.624151885509491,0.7188835144042969,-0.020423853769898415
1684214584296001800,9.607001708984376,0.6555774807929993,1.1316028833389282,-0.1775229126214981
1684214584306025700,9.617025634765625,0.6185027956962585,1.2682732343673706,-0.30063775181770325
1684214584316049700,9.627049560546874,0.5069533586502075,1.115351915359497,-0.38051900267601013
1684214584326073600,9.637073486328125,0.3925231695175171,0.7953755855560303,-0.45508062839508057
1684214584336096500,9.647096435546874,0.29465892910957336,0.36275944113731384,-0.521779477596283
1684214584346120700,9.65712060546875,0.19616366922855377,-0.0701737031340599,-0.5984997749328613
1684214584356144600,9.66714453125,0.13552775979042053,-0.30052700638771057,-0.7137365937232971
1684214584366168800,9.6771689453125,0.0741216316819191,-0.3241262137889862,-0.8261873126029968
1684214584376192500,9.687192626953125,-0.012899290770292282,-0.29395151138305664,-0.8998569846153259
1684214584386216700,9.697216796875,-0.1565171778202057,-0.315034419298172,-0.9256313443183899
1684214584396240600,9.70724072265625,-0.3087216317653656,-0.41852301359176636,-0.9304015636444092
1684214584406263600,9.717263671875,-0.41246530413627625,-0.5376303195953369,-0.942255973815918
1684214584416287700,9.727287841796874,-0.48439809679985046,-0.5926799774169922,-0.9738653302192688
1684214584426311700,9.737311767578126,-0.5472769737243652,-0.5992894768714905,-0.9978981018066406
1684214584436335600,9.747335693359375,-0.5988227128982544,-0.5687384605407715,-0.9978669881820679
1684214584446359600,9.757359619140624,-0.6491795778274536,-0.5012251138687134,-1.0023449659347534
1684214584456383700,9.7673837890625,-0.7258653044700623,-0.40649649500846863,-1.003334879875183
1684214584466407400,9.777407470703125,-0.8192368149757385,-0.30634430050849915,-0.9753311276435852
1684214584476430600,9.7874306640625,-0.9390750527381897,-0.22926469147205353,-0.907126784324646
1684214584486454800,9.797454833984375,-1.060912013053894,-0.180167555809021,-0.8283736109733582
1684214584496478500,9.807478515625,-1.1685253381729126,-0.10462938249111176,-0.7877492308616638
1684214584506502700,9.817502685546875,-1.2537071704864502,-0.005605568177998066,-0.7874953746795654
1684214584516526600,9.827526611328125,-1.297589898109436,0.030153494328260422,-0.8227511048316956
1684214584526550500,9.837550537109376,-1.2743263244628906,-0.0251788180321455,-0.9054238200187683
1684214584536574700,9.84757470703125,-1.2021591663360596,-0.2681206464767456,-0.9364922642707825
1684214584546598700,9.8575986328125,-1.0127414464950562,-0.6778780221939087,-0.7221862077713013
1684214584556621600,9.86762158203125,-0.5744361877441406,-1.0344786643981934,-0.26258769631385803
1684214584566645500,9.8776455078125,0.03002818301320076,-1.3896286487579346,0.2548310160636902
1684214584576669700,9.887669677734374,0.43937763571739197,-1.505258560180664,0.8501514196395874
1684214584586693600,9.897693603515625,0.6591753959655762,-0.8517676591873169,1.1673651933670044
1684214584596717600,9.907717529296875,0.572963535785675,0.15940555930137634,1.2217501401901245
1684214584606741800,9.91774169921875,0.2988298237323761,0.8209342956542969,1.1605827808380127
1684214584616765700,9.927765625,0.014251354150474072,1.02789306640625,0.9585732221603394
1684214584626788600,9.93778857421875,-0.1490711122751236,0.875033974647522,0.5988065600395203
1684214584636812800,9.947812744140625,-0.2740018665790558,0.34077218174934387,0.0852804183959961
1684214584646836700,9.957836669921875,-0.45367512106895447,-0.3397173285484314,-0.4232766628265381
1684214584656860700,9.967860595703126,-0.7114307880401611,-0.8272545337677002,-0.6954128742218018
1684214584666884600,9.977884521484375,-0.8746387958526611,-1.0194520950317383,-0.7005054950714111
1684214584676908800,9.98790869140625,-0.8969504833221436,-1.0544096231460571,-0.5990369319915771
1684214584686932500,9.997932373046876,-0.812950074672699,-1.0407867431640625,-0.4900698661804199
1684214584696955600,10.00795556640625,-0.6255266666412354,-0.9977988600730896,-0.40972498059272766
1684214584706979800,10.017979736328124,-0.4159972369670868,-0.9026861190795898,-0.37555235624313354
1684214584717003500,10.02800341796875,-0.2926071286201477,-0.7249760627746582,-0.31881821155548096
1684214584727027700,10.03802783203125,-0.2650979161262512,-0.5881764888763428,-0.1738533228635788
1684214584737051600,10.0480517578125,-0.2000371664762497,-0.5127384662628174,-0.040637221187353134
1684214584747075300,10.058075439453125,-0.09020611643791199,-0.44541338086128235,-0.007602011319249868
1684214584757099300,10.068099365234374,-0.015165957622230053,-0.383685827255249,-0.045856453478336334
1684214584767123500,10.07812353515625,-0.013671401888132095,-0.3601076006889343,-0.156559020280838
1684214584777146400,10.088146484375,-0.04736225679516792,-0.5083513259887695,-0.29961472749710083
1684214584787170300,10.09817041015625,-0.10396740585565567,-0.7575724124908447,-0.4475667178630829
1684214584797194500,10.108194580078125,-0.13919010758399963,-1.0990753173828125,-0.5945566892623901
1684214584807218400,10.118218505859375,-0.18608547747135162,-1.3831892013549805,-0.7197147011756897
1684214584817242400,10.128242431640626,-0.22415855526924133,-1.4843968152999878,-0.7753772139549255
1684214584827266600,10.1382666015625,-0.21942070126533508,-1.5011566877365112,-0.7826935052871704
1684214584837290200,10.148290283203124,-0.22155176103115082,-1.4568389654159546,-0.7717300653457642
1684214584847314400,10.158314453125,-0.23258419334888458,-1.3660551309585571,-0.7850631475448608
1684214584857337600,10.168337646484375,-0.2197488248348236,-1.264519453048706,-0.7908675074577332
1684214584867361300,10.178361328125,-0.17033103108406067,-1.1226645708084106,-0.7653554677963257
1684214584877385500,10.188385498046875,-0.07593289017677307,-0.9227257966995239,-0.68494713306427
1684214584887409400,10.198409423828124,0.011590266600251198,-0.6690588593482971,-0.5805076956748962
1684214584897433300,10.208433349609376,0.0772198736667633,-0.41644468903541565,-0.4756864607334137
1684214584907457300,10.218457275390625,0.11993784457445145,-0.23766496777534485,-0.37541162967681885
1684214584917481500,10.2284814453125,0.11072277277708054,-0.1611102819442749,-0.2847490906715393
1684214584927504400,10.23850439453125,0.08276735246181488,-0.1051650121808052,-0.22005678713321686
1684214584937528300,10.2485283203125,0.05255645513534546,-0.04550914093852043,-0.17169564962387085
1684214584947552500,10.258552490234376,0.028996985405683517,0.007435398176312447,-0.14480164647102356
1684214584957576200,10.268576171875,0.04608622565865517,0.09918103367090225,-0.10997229814529419
1684214584967600400,10.278600341796874,0.04327523708343506,0.05095372349023819,-0.12679553031921387
1684214584977624300,10.288624267578125,0.0139841940253973,-0.09984856843948364,-0.18538214266300201
1684214584987648500,10.2986484375,0.004232008941471577,-0.21550382673740387,-0.23919308185577393
1684214584997671400,10.30867138671875,-0.004691178910434246,-0.2577516734600067,-0.2737196385860443
1684214585007695400,10.3186953125,-0.011956004425883293,-0.27559107542037964,-0.29511651396751404
1684214585017719600,10.328719482421874,-0.018001645803451538,-0.2459372878074646,-0.30300372838974
1684214585027743200,10.3387431640625,-0.016969358548521996,-0.2421228587627411,-0.3056508004665375
1684214585037767400,10.348767333984375,-0.015452688559889793,-0.24276761710643768,-0.30154234170913696
1684214585047791400,10.358791259765624,-0.01890023797750473,-0.2231369912624359,-0.29001423716545105
1684214585057815300,10.368815185546875,-0.037283238023519516,-0.19873417913913727,-0.2628779709339142
1684214585067839500,10.378839599609375,-0.038292739540338516,-0.19699856638908386,-0.2366407811641693
1684214585077862400,10.3888623046875,-0.046286486089229584,-0.12871192395687103,-0.18356211483478546
1684214585087886300,10.39888623046875,-0.04486330226063728,-0.034215573221445084,-0.12122607976198196
1684214585097910500,10.40891064453125,-0.04465344548225403,0.03841761499643326,-0.06784061342477798
1684214585107934500,10.4189345703125,-0.04649272561073303,0.11291233450174332,-0.03015953116118908
1684214585117958400,10.42895849609375,-0.05169707536697388,0.1879306435585022,0.010008927434682846
1684214585127982300,10.438982421875,-0.06159356236457825,0.27417585253715515,0.04533383250236511
1684214585138006500,10.449006591796875,-0.07884471863508224,0.3571125268936157,0.0749356672167778
1684214585148030200,10.4590302734375,-0.10126456618309021,0.44025754928588867,0.06907880306243896
1684214585158053400,10.469053466796876,-0.12388359010219574,0.47307726740837097,0.045489322394132614
1684214585168077600,10.47907763671875,-0.1408071666955948,0.4885614812374115,0.004188514314591885
1684214585178101200,10.489101318359374,-0.16277557611465454,0.4873143434524536,-0.02969621680676937
1684214585188125400,10.49912548828125,-0.17558223009109497,0.4761731028556824,-0.053490884602069855
1684214585198149400,10.5091494140625,-0.17280589044094086,0.5143556594848633,-0.046222321689128876
1684214585208173300,10.51917333984375,-0.1643763929605484,0.5583139657974243,-0.05628278851509094
1684214585218197200,10.529197265625,-0.18116895854473114,0.5067618489265442,-0.06514765322208405
1684214585228220400,10.539220458984374,-0.19371645152568817,0.45706915855407715,-0.041596297174692154
1684214585238244400,10.549244384765625,-0.17697130143642426,0.47590649127960205,0.008872201666235924
1684214585248268300,10.559268310546875,-0.15868224203586578,0.5569575428962708,0.08536102622747421
1684214585258292500,10.56929248046875,-0.14584393799304962,0.6405336260795593,0.15338587760925293
1684214585268316400,10.57931640625,-0.14875754714012146,0.6840258240699768,0.19752565026283264
1684214585278340400,10.58934033203125,-0.16156095266342163,0.7130489349365234,0.21616937220096588
1684214585288364300,10.5993642578125,-0.1624174267053604,0.7544646263122559,0.21387876570224762
1684214585298388500,10.609388427734375,-0.15814678370952606,0.8343632221221924,0.22187943756580353
1684214585308411400,10.619411376953124,-0.132307231426239,0.9509104490280151,0.20959769189357758
1684214585318435300,10.629435302734375,-0.15156108140945435,0.9179549217224121,0.16490106284618378
1684214585328459500,10.63945947265625,-0.16713060438632965,0.8744601607322693,0.12550999224185944
1684214585338483500,10.6494833984375,-0.17858166992664337,0.876266598701477,0.11162081360816956
1684214585348507400,10.65950732421875,-0.1683034598827362,0.9148608446121216,0.13190343976020813
1684214585358531600,10.669531494140625,-0.14078767597675323,0.944190263748169,0.18294452130794525
1684214585368555300,10.67955517578125,-0.11545652151107788,0.9697831869125366,0.2269609272480011
1684214585378579500,10.689579345703125,-0.0947195515036583,0.9665653109550476,0.2364596128463745
1684214585388602400,10.699602294921876,-0.08302103728055954,0.9654644727706909,0.21590755879878998
1684214585398626300,10.709626220703125,-0.07483235001564026,0.96165931224823,0.18110217154026031
1684214585408650500,10.719650390625,-0.0653119832277298,0.9788942337036133,0.15726658701896667
1684214585418674400,10.72967431640625,-0.04843553155660629,0.997744619846344,0.13877680897712708
1684214585428698400,10.739698486328125,-0.039168987423181534,1.086525321006775,0.14065560698509216
1684214585438722300,10.749722412109374,-0.022795604541897774,1.146974802017212,0.1581648290157318
1684214585448746500,10.75974658203125,0.007058524992316961,1.2056671380996704,0.1703755110502243
1684214585458769400,10.769769287109375,0.04808558523654938,1.241481065750122,0.17309778928756714
1684214585468793300,10.77979345703125,0.09524165093898773,1.243410587310791,0.16935153305530548
1684214585478817500,10.789817626953125,0.15225647389888763,1.2322067022323608,0.14364244043827057
1684214585488841200,10.79984130859375,0.21218661963939667,1.2188068628311157,0.10363878309726715
1684214585498865400,10.809865478515626,0.26645413041114807,1.205567479133606,0.07676269859075546
1684214585508889300,10.819889404296875,0.30217239260673523,1.1891683340072632,0.08461222052574158
1684214585518913500,10.82991357421875,0.30155932903289795,1.1740511655807495,0.0921444371342659
1684214585528937200,10.839937255859375,0.2952748239040375,1.1557707786560059,0.11973624676465988
1684214585538960400,10.84996044921875,0.3081842362880707,1.1053805351257324,0.16836103796958923
1684214585548984300,10.859984375,0.3591371476650238,0.9960772395133972,0.269614577293396
1684214585559008300,10.87000830078125,0.45791006088256836,0.8708921670913696,0.40293535590171814
1684214585569032400,10.880032470703124,0.5839158296585083,0.7423034906387329,0.5036311745643616
1684214585579056400,10.890056396484376,0.7077874541282654,0.6222047805786133,0.5415724515914917
1684214585589080300,10.900080322265625,0.8379340767860413,0.605168879032135,0.5668302774429321
1684214585599104500,10.9101044921875,0.8944596648216248,0.6773983240127563,0.5893976092338562
1684214585609128400,10.92012841796875,0.9298661947250366,0.7175245881080627,0.5871610641479492
1684214585619151400,10.9301513671875,0.8888015747070312,0.7479530572891235,0.6196033954620361
1684214585629175600,10.940175537109376,0.7928270697593689,0.8160799145698547,0.692584753036499
1684214585639199500,10.950199462890625,0.687088668346405,0.9793769717216492,0.7747936248779297
1684214585649223400,10.960223388671874,0.6066114902496338,1.150262475013733,0.8306254744529724
1684214585659247400,10.970247314453125,0.5346084237098694,1.2766482830047607,0.8733524084091187
1684214585669271600,10.980271484375,0.48970675468444824,1.3235429525375366,0.9064537286758423
1684214585679295200,10.990295166015626,0.47236931324005127,1.3194797039031982,0.9517109394073486
1684214585689319400,11.0003193359375,0.5030370354652405,1.2453815937042236,1.0004156827926636
1684214585699342600,11.010342529296874,0.5571298599243164,1.1568769216537476,1.0559241771697998
1684214585709366300,11.0203662109375,0.6208853721618652,1.1216384172439575,1.1432315111160278
1684214585719390500,11.030390380859375,0.6797412633895874,1.0640981197357178,1.2320367097854614
1684214585729414400,11.040414306640624,0.7115644812583923,0.9949121475219727,1.2999683618545532
1684214585739438300,11.050438232421875,0.7214773297309875,0.8906962275505066,1.3192435503005981
1684214585749462800,11.060462890625,0.75343918800354,0.7826086282730103,1.2457258701324463
1684214585759487000,11.070487060546874,0.7708216309547424,0.784055233001709,1.136661171913147
1684214585769510000,11.080510009765625,0.7693321704864502,0.8553062677383423,1.0253932476043701
1684214585779533800,11.090533935546874,0.7591772675514221,0.8119089603424072,0.8933542370796204
1684214585789558000,11.10055810546875,0.7840203046798706,0.5996126532554626,0.6938897967338562
1684214585799582000,11.11058203125,0.8284250497817993,0.32125502824783325,0.4658859670162201
1684214585809606000,11.12060595703125,0.8769955039024353,0.03352947160601616,0.26439815759658813
1684214585819629800,11.1306298828125,0.9158182740211487,-0.21165791153907776,0.1258208304643631
1684214585829654000,11.140654052734375,0.9443490505218506,-0.46291598677635193,0.04161419719457626
1684214585839677700,11.150677734375,0.9538203477859497,-0.7326343059539795,-0.034255269914865494
1684214585849700900,11.160700927734375,0.945698082447052,-1.0008716583251953,-0.1289052963256836
1684214585859725000,11.17072509765625,0.9129955768585205,-1.1706665754318237,-0.2011222392320633
1684214585869748700,11.180748779296875,0.8821452260017395,-1.3126907348632812,-0.2553015649318695
1684214585879773000,11.19077294921875,0.81791752576828,-1.447129726409912,-0.2965576648712158
1684214585889796900,11.200796875,0.7315891981124878,-1.5427885055541992,-0.32770732045173645
1684214585899820800,11.21082080078125,0.6324583888053894,-1.4984610080718994,-0.348027765750885
1684214585909845000,11.220844970703125,0.5191912055015564,-1.3137640953063965,-0.35494640469551086
1684214585919868000,11.230867919921875,0.41144976019859314,-1.0845234394073486,-0.3320160210132599
1684214585929891800,11.240891845703125,0.3034532368183136,-0.9045063257217407,-0.2993399500846863
1684214585939915800,11.250915771484374,0.20045705139636993,-0.7940658330917358,-0.2786189615726471
1684214585949940000,11.26093994140625,0.11322900652885437,-0.6514247059822083,-0.25900623202323914
1684214585959964000,11.2709638671875,0.07608562707901001,-0.5305140018463135,-0.2568533420562744
1684214585969987800,11.28098779296875,0.06381872296333313,-0.48613178730010986,-0.2749796211719513
1684214585980012000,11.291011962890625,0.07823601365089417,-0.49943453073501587,-0.30455854535102844
1684214585990036000,11.301035888671874,0.1014801636338234,-0.5132491588592529,-0.3296826183795929
1684214586000059000,11.311058837890625,0.1204216331243515,-0.5263612270355225,-0.3356190621852875
1684214586010083000,11.3210830078125,0.13319729268550873,-0.5359892249107361,-0.32996824383735657
1684214586020106800,11.331106689453126,0.13235200941562653,-0.5321596264839172,-0.29916107654571533
1684214586030131000,11.341130859375,0.10439547151327133,-0.5169760584831238,-0.2794308066368103
1684214586040155000,11.35115478515625,0.07763868570327759,-0.5010660290718079,-0.29259052872657776
1684214586050179000,11.361178955078126,0.06728917360305786,-0.44139331579208374,-0.26914283633232117
1684214586060202800,11.37120263671875,0.04164612293243408,-0.391050785779953,-0.2173725962638855
1684214586070227000,11.38122705078125,0.02143341675400734,-0.3578253984451294,-0.15958814322948456
1684214586080249900,11.391249755859375,0.003775860881432891,-0.31590935587882996,-0.08737466484308243
1684214586090273800,11.401273681640625,-0.016649877652525902,-0.28957659006118774,-0.009024562314152718
1684214586100298000,11.411298095703126,-0.03491543233394623,-0.30988478660583496,0.05120522528886795
1684214586110322000,11.421322021484375,-0.04813600331544876,-0.3169950246810913,0.10847943276166916
1684214586120345900,11.431345947265624,-0.0652817040681839,-0.33324137330055237,0.15292653441429138
1684214586130369800,11.441369873046876,-0.07898865640163422,-0.36363476514816284,0.1881192922592163
1684214586140394000,11.45139404296875,-0.0903044268488884,-0.3936200737953186,0.22760598361492157
1684214586150418000,11.46141796875,-0.09330122172832489,-0.4428589642047882,0.26405709981918335
1684214586160440800,11.47144091796875,-0.08384833484888077,-0.4812087416648865,0.3022441565990448
1684214586170465000,11.481465087890625,-0.056445855647325516,-0.4845620095729828,0.31348663568496704
1684214586180488700,11.49148876953125,-0.016329331323504448,-0.4177049398422241,0.30041956901550293
1684214586190513000,11.501512939453125,0.02786448411643505,-0.3158361613750458,0.2546970844268799
1684214586200537000,11.511537109375,0.05879044160246849,-0.19879958033561707,0.18214859068393707
1684214586210560800,11.521560791015625,0.08506923168897629,-0.08453533798456192,0.11153711378574371
1684214586220585000,11.5315849609375,0.13034722208976746,-0.011702942661941051,0.03554887697100639
1684214586230609000,11.54160888671875,0.19425129890441895,0.023725183680653572,-0.03865658491849899
1684214586240631800,11.5516318359375,0.25274762511253357,0.013527673669159412,-0.11532952636480331
1684214586250656000,11.561656005859374,0.29742369055747986,-0.01428269688040018,-0.21952344477176666
1684214586260680000,11.571679931640626,0.3448401987552643,-0.09123367071151733,-0.33201563358306885
1684214586270703900,11.581703857421875,0.42003530263900757,-0.22702915966510773,-0.4749198257923126
1684214586280727800,11.591727783203124,0.4606335759162903,-0.4199956953525543,-0.6313379406929016
1684214586290752000,11.601751953125,0.42435404658317566,-0.6014015078544617,-0.7562580108642578
1684214586300776000,11.61177587890625,0.39219558238983154,-0.7559023499488831,-0.8017269372940063
1684214586310800000,11.6217998046875,0.3369024693965912,-0.9450426697731018,-0.7436900734901428
1684214586320823000,11.631822998046875,0.20770107209682465,-1.087213397026062,-0.6436702609062195
1684214586330846700,11.6418466796875,0.055111829191446304,-1.1138896942138672,-0.5870042443275452
1684214586340871000,11.651870849609375,-0.07850401848554611,-1.0407578945159912,-0.5689011216163635
1684214586350894800,11.661894775390625,-0.17879125475883484,-0.9236658811569214,-0.605048656463623
1684214586360919000,11.6719189453125,-0.24645684659481049,-0.8025200366973877,-0.665802538394928
1684214586370942700,11.681942626953125,-0.2829495668411255,-0.6866169571876526,-0.7098450064659119
1684214586380967000,11.691966796875,-0.31032872200012207,-0.5666018724441528,-0.7282854914665222
1684214586390990800,11.701990966796876,-0.33804476261138916,-0.423184335231781,-0.7118803262710571
1684214586401013800,11.712013671875,-0.3649967312812805,-0.25938183069229126,-0.6710354089736938
1684214586411038000,11.722037841796874,-0.39408981800079346,-0.10064282268285751,-0.6140094995498657
1684214586421062000,11.732061767578125,-0.4239651560783386,0.02333158440887928,-0.5384825468063354
1684214586431085800,11.7420859375,-0.45754846930503845,0.11111008375883102,-0.47142183780670166
1684214586441110000,11.752110107421874,-0.4825550317764282,0.17531011998653412,-0.4247371554374695
1684214586451134000,11.762134033203125,-0.4984820485115051,0.23957109451293945,-0.39605432748794556
1684214586461158000,11.772157958984375,-0.5062035918235779,0.29741761088371277,-0.378986656665802
1684214586471181800,11.782181884765626,-0.5041264891624451,0.348479688167572,-0.37067851424217224
1684214586481205000,11.792205078125,-0.499869704246521,0.39823395013809204,-0.35280337929725647
1684214586491229000,11.80222900390625,-0.5015178322792053,0.4365055561065674,-0.32014718651771545
1684214586501252900,11.8122529296875,-0.4927680194377899,0.4432729184627533,-0.28136199712753296
1684214586511277000,11.822277099609375,-0.4878409504890442,0.42419523000717163,-0.25141778588294983
1684214586521300700,11.83230078125,-0.502720832824707,0.42400482296943665,-0.2168276011943817
1684214586531325000,11.842324951171875,-0.5035668611526489,0.3983105719089508,-0.17827026546001434
1684214586541348900,11.852348876953124,-0.511996865272522,0.3305107355117798,-0.16984374821186066
1684214586551371800,11.862371826171875,-0.5361354351043701,0.21301285922527313,-0.184758260846138
1684214586561396000,11.87239599609375,-0.5434975028038025,0.02913517691195011,-0.19530650973320007
1684214586571420000,11.882419921875,-0.4600428342819214,-0.2688339054584503,-0.15876412391662598
1684214586581443800,11.89244384765625,-0.22475172579288483,-0.6452701091766357,-0.11642333120107651
1684214586591467800,11.9024677734375,0.11982668191194534,-1.213854432106018,0.023449337109923363
1684214586601492000,11.912491943359376,0.4352472126483917,-1.600239634513855,0.39303457736968994
1684214586611516000,11.922515869140625,0.6159102320671082,-1.129722237586975,0.6497794389724731
1684214586621539800,11.932539794921874,0.6645177602767944,-0.08255050331354141,0.6176015138626099
1684214586631563800,11.942563720703125,0.6000848412513733,1.0243273973464966,0.4514572322368622
1684214586641586700,11.952586669921875,0.43820804357528687,1.7778871059417725,0.2846706211566925
1684214586651611000,11.96261083984375,0.2104889154434204,1.6646027565002441,0.13665175437927246
1684214586661634800,11.972634765625,-0.07994689792394638,0.9529948234558105,0.039887934923172
1684214586671659000,11.982658935546874,-0.44043365120887756,0.1246563121676445,-0.10987398773431778
1684214586681683000,11.992682861328126,-0.6896272301673889,-0.6191134452819824,-0.3854067623615265
1684214586691707000,12.002706787109375,-0.7429482936859131,-1.0893937349319458,-0.6377264857292175
1684214586701731000,12.01273095703125,-0.824317216873169,-1.2758147716522217,-0.7015366554260254
1684214586711754800,12.022754638671875,-0.9499297142028809,-1.199859857559204,-0.5712217688560486
1684214586721778000,12.03277783203125,-0.9006844162940979,-0.9665112495422363,-0.35851427912712097
1684214586731802000,12.042802001953126,-0.6921566128730774,-0.7471834421157837,-0.18042868375778198
1684214586741825800,12.05282568359375,-0.5096685886383057,-0.7084469795227051,-0.1312105357646942
1684214586751849500,12.062849365234374,-0.450067400932312,-0.8164892196655273,-0.1703922599554062
1684214586761873400,12.072873291015625,-0.4710398018360138,-1.0696958303451538,-0.24028240144252777
1684214586771897600,12.082897705078125,-0.43793535232543945,-1.1773613691329956,-0.3239367604255676
1684214586781921300,12.09292138671875,-0.3442046046257019,-0.994891881942749,-0.4205211102962494
1684214586791944400,12.1029443359375,-0.37082090973854065,-0.7902094721794128,-0.5455682277679443
1684214586801968600,12.11296875,-0.47058454155921936,-0.5432449579238892,-0.6295148134231567
1684214586811992300,12.122992431640625,-0.41642051935195923,-0.5988041758537292,-0.7430928349494934
1684214586822016500,12.1330166015625,-0.39263421297073364,-0.7328847050666809,-0.7044423818588257
1684214586832040400,12.14304052734375,-0.3986464738845825,-0.7703344225883484,-0.5602980256080627
1684214586842064400,12.153064453125,-0.49162331223487854,-0.8327757120132446,-0.4943302273750305
1684214586852088600,12.163088623046875,-0.36114293336868286,-0.89051353931427,-0.4816078543663025
1684214586862112500,12.173112548828126,-0.3028210401535034,-0.7386637926101685,-0.3862674832344055
1684214586872136700,12.18313671875,-0.22291766107082367,-0.5349922180175781,-0.33478906750679016
1684214586882159400,12.193159423828124,-0.19569802284240723,-0.3681911826133728,-0.3034396767616272
1684214586892183600,12.20318359375,-0.18456055223941803,-0.12934891879558563,-0.2399759143590927
1684214586902207500,12.21320751953125,-0.08026529848575592,-0.11631833016872406,-0.2594345808029175
1684214586912231400,12.2232314453125,-0.026616033166646957,-0.09038236737251282,-0.23663181066513062
1684214586922255600,12.233255615234375,0.04991389438509941,-0.06996683776378632,-0.20087142288684845
1684214586932279600,12.243279541015625,0.1378072053194046,-0.008788550272583961,-0.15833690762519836
1684214586942303500,12.253303466796876,0.16357700526714325,0.14076311886310577,-0.03346768394112587
1684214586952327400,12.263327392578125,0.14540551602840424,0.3016994893550873,0.09504890441894531
1684214586962350300,12.273350341796874,0.1157272532582283,0.3422729969024658,0.14427903294563293
1684214586972374500,12.28337451171875,0.07089914381504059,0.36775389313697815,0.1716727763414383
1684214586982398500,12.2933984375,0.09715311974287033,0.44330883026123047,0.20914451777935028
1684214586992422700,12.303422607421876,0.14393657445907593,0.5367447733879089,0.24516209959983826
1684214587002446300,12.3134462890625,0.1274377554655075,0.5555527806282043,0.21698185801506042
1684214587012470500,12.323470458984374,0.13018399477005005,0.4984535872936249,0.11234009265899658
1684214587022494500,12.333494384765626,0.14708493649959564,0.31049755215644836,-0.038136765360832214
1684214587032518400,12.343518310546875,0.12773914635181427,0.05961955711245537,-0.1830858737230301
1684214587042541600,12.35354150390625,0.1378069669008255,-0.17626486718654633,-0.313275009393692
1684214587052565500,12.3635654296875,0.12806729972362518,-0.39799603819847107,-0.42007696628570557
1684214587062589400,12.37358935546875,0.08845251053571701,-0.5675835013389587,-0.4867095351219177
1684214587072613400,12.38361328125,0.03894835710525513,-0.6500160098075867,-0.4994324743747711
