time,seconds_elapsed,z,y,x
1684201093511179300,0.03717919921875,0.0023953404743224382,-0.15520811080932617,0.04990242049098015
1684201093521203200,0.047203125,-0.010791568085551262,-0.16480587422847748,0.011989926919341087
1684201093531228400,0.057228515625,-0.006460192613303661,-0.14681853353977203,-0.018664473667740822
1684201093541253400,0.06725341796875,-0.1936737596988678,-0.05882555618882179,-0.09879046678543091
1684201093551278300,0.0772783203125,-0.2652456760406494,-0.04058155417442322,-0.1412259042263031
1684201093561302500,0.087302490234375,-0.2932994067668915,-0.0004770135274156928,-0.1443825364112854
1684201093571327200,0.0973271484375,-0.3218676745891571,0.027981415390968323,-0.15212024748325348
1684201093581352200,0.107352294921875,-0.3526146709918976,0.02310064062476158,-0.16822251677513123
1684201093591377200,0.117377197265625,-0.3860195279121399,0.014011068269610405,-0.19870565831661224
1684201093601402400,0.12740234375,-0.3374447822570801,-0.09222189337015152,-0.15240687131881714
1684201093611426300,0.13742626953125,-0.3360559344291687,-0.17777884006500244,-0.07827994972467422
1684201093621451300,0.147451171875,-0.47994571924209595,-0.16655173897743225,-0.08062273263931274
1684201093631476500,0.1574765625,-0.7482147216796875,-0.07071977108716965,-0.1583736389875412
1684201093641501400,0.16750146484375,-0.9938303232192993,-0.009130171500146389,-0.2551449239253998
1684201093651526100,0.177526123046875,-1.1632825136184692,-0.02941366843879223,-0.3288869261741638
1684201093661550300,0.18755029296875,-1.1185160875320435,-0.10366898775100708,-0.3513357639312744
1684201093671575300,0.1975751953125,-0.8784385323524475,-0.17960497736930847,-0.3387603759765625
1684201093681600300,0.207600341796875,-0.6230884790420532,-0.17416387796401978,-0.29639187455177307
1684201093691625500,0.21762548828125,-0.3973081409931183,-0.08951391279697418,-0.24108022451400757
1684201093701649400,0.2276494140625,-0.14336185157299042,-0.023464055731892586,-0.17076824605464935
1684201093711674000,0.237674072265625,0.10806318372488022,0.004822629503905773,-0.10534828156232834
1684201093721699300,0.24769921875,0.17628884315490723,-0.0025902793277055025,-0.042374104261398315
1684201093731724300,0.257724365234375,-0.05149665102362633,-0.07962041348218918,-0.0544106662273407
1684201093741749200,0.267749267578125,-0.3260650932788849,-0.22763091325759888,-0.1901397407054901
1684201093751773400,0.2777734375,-0.49017226696014404,-0.3175354599952698,-0.3288232386112213
1684201093761798400,0.28779833984375,-0.5945444703102112,-0.3696231544017792,-0.4113743007183075
1684201093771823400,0.2978232421875,-0.6814969182014465,-0.3906514048576355,-0.4632091522216797
1684201093781848300,0.307848388671875,-0.702966570854187,-0.34973275661468506,-0.46340784430503845
1684201093791872300,0.317872314453125,-0.6241894364356995,-0.2890247404575348,-0.4077579379081726
1684201093801897200,0.327897216796875,-0.4815702438354492,-0.24103698134422302,-0.3372129499912262
1684201093811922400,0.33792236328125,-0.3541140556335449,-0.16608275473117828,-0.23727726936340332
1684201093821947400,0.347947509765625,-0.27830982208251953,-0.11657139658927917,-0.12999635934829712
1684201093831972400,0.357972412109375,-0.26902738213539124,-0.1295512467622757,-0.06555284559726715
1684201093841996500,0.36799658203125,-0.3137091100215912,-0.14159885048866272,-0.09388914704322815
1684201093852021200,0.378021240234375,-0.3914414644241333,-0.1581176221370697,-0.2068002074956894
1684201093862046200,0.388046142578125,-0.46112093329429626,-0.20099957287311554,-0.29102611541748047
1684201093872071200,0.3980712890625,-0.5232095718383789,-0.24760566651821136,-0.3044067919254303
1684201093882095400,0.408095458984375,-0.5481604337692261,-0.2792418897151947,-0.31992316246032715
1684201093892120300,0.418120361328125,-0.5231722593307495,-0.2824136018753052,-0.33784765005111694
1684201093902145300,0.428145263671875,-0.48490771651268005,-0.23959314823150635,-0.3528617322444916
1684201093912170500,0.43817041015625,-0.4468511939048767,-0.2044854611158371,-0.33752816915512085
1684201093922195200,0.4481953125,-0.42817923426628113,-0.18425075709819794,-0.29820525646209717
1684201093932219400,0.458219482421875,-0.4313637912273407,-0.16787149012088776,-0.25609666109085083
1684201093942244400,0.468244384765625,-0.44695475697517395,-0.13456547260284424,-0.22090193629264832
1684201093952269300,0.478269287109375,-0.46776095032691956,-0.12470714747905731,-0.22655850648880005
1684201093962294300,0.488294189453125,-0.47719520330429077,-0.14665772020816803,-0.2523655891418457
1684201093972318500,0.498318359375,-0.4554705023765564,-0.15530718863010406,-0.29258647561073303
1684201093982343200,0.50834326171875,-0.43150871992111206,-0.20307204127311707,-0.3050135672092438
1684201093992368000,0.5183681640625,-0.3988407552242279,-0.25974270701408386,-0.3084666430950165
1684201094002392600,0.528392578125,-0.4009483754634857,-0.2988373637199402,-0.31085124611854553
1684201094012417500,0.53841748046875,-0.43171027302742004,-0.34810370206832886,-0.31650519371032715
1684201094022441700,0.548441650390625,-0.4493321478366852,-0.3931981921195984,-0.3190421462059021
1684201094032466700,0.558466796875,-0.43546801805496216,-0.41807156801223755,-0.3124515414237976
1684201094042491600,0.56849169921875,-0.3946627974510193,-0.4562876522541046,-0.3245047330856323
1684201094052516600,0.5785166015625,-0.3675430417060852,-0.45104047656059265,-0.3355346918106079
1684201094062541800,0.588541748046875,-0.3620516061782837,-0.46481993794441223,-0.37010064721107483
1684201094072565500,0.5985654296875,-0.3936777114868164,-0.45163658261299133,-0.3869848847389221
1684201094082590500,0.608590576171875,-0.42331069707870483,-0.4770466089248657,-0.39835843443870544
1684201094092615700,0.61861572265625,-0.4355899691581726,-0.5346677899360657,-0.43540430068969727
1684201094102640600,0.628640625,-0.4317600727081299,-0.4805624783039093,-0.40792953968048096
1684201094112664600,0.63866455078125,-0.46034592390060425,-0.33720818161964417,-0.35776424407958984
1684201094122689800,0.648689697265625,-0.45789819955825806,-0.345703125,-0.36237257719039917
1684201094132714800,0.65871484375,-0.4317265450954437,-0.3821991980075836,-0.33357304334640503
1684201094142739500,0.668739501953125,-0.4717024564743042,-0.35807573795318604,-0.3157658278942108
1684201094152764700,0.6787646484375,-0.5345479846000671,-0.3557925820350647,-0.3608039319515228
1684201094162788600,0.68878857421875,-0.4128125011920929,-0.407772421836853,-0.3766859471797943
1684201094172813600,0.6988134765625,-0.21268527209758759,-0.35902392864227295,-0.2972016930580139
1684201094182838800,0.7088388671875,-0.05102793499827385,-0.20668311417102814,-0.22909855842590332
1684201094192863700,0.71886376953125,0.0000016908161342144012,-0.2314457893371582,-0.2605934143066406
1684201094202888700,0.728888671875,0.004859562963247299,-0.3330715000629425,-0.26079875230789185
1684201094212912600,0.73891259765625,0.006562124937772751,-0.36344194412231445,-0.23596914112567902
1684201094222937600,0.7489375,0.0023945446591824293,-0.37506717443466187,-0.18808098137378693
1684201094232962600,0.758962646484375,-0.0030465438030660152,-0.37203529477119446,-0.10565866529941559
1684201094242987500,0.768987548828125,-0.029730884358286858,-0.3083993196487427,-0.011888762004673481
1684201094253011700,0.77901171875,-0.06506411731243134,-0.1538218855857849,0.08457407355308533
1684201094263036700,0.78903662109375,-0.022040223702788353,-0.035252366214990616,0.03940792754292488
1684201094273061600,0.7990615234375,-0.0037507046945393085,0.03352133557200432,-0.02117902971804142
1684201094283086600,0.809086669921875,-0.030031045898795128,0.027987822890281677,0.009283805266022682
1684201094293110500,0.819110595703125,-0.04981086775660515,-0.0024167352821677923,0.06997349858283997
1684201094303135700,0.8291357421875,-0.0726461410522461,-0.026368940249085426,0.06887627393007278
1684201094313160700,0.83916064453125,-0.092023566365242,-0.04862135648727417,0.060508210211992264
1684201094323185700,0.849185546875,-0.11424817889928818,-0.09025188535451889,0.055753398686647415
1684201094333210600,0.859210693359375,-0.12259772419929504,-0.1431494504213333,0.028189949691295624
1684201094343234600,0.869234619140625,-0.12792298197746277,-0.1924416422843933,-0.014693869277834892
1684201094353259500,0.879259521484375,-0.11581944674253464,-0.21447975933551788,-0.06812454015016556
1684201094363284500,0.889284423828125,-0.10181920975446701,-0.2700306475162506,-0.128787100315094
1684201094373309700,0.899309814453125,-0.06064113974571228,-0.2624368965625763,-0.13452115654945374
1684201094383334700,0.909334716796875,-0.01949210651218891,-0.22706584632396698,-0.15084660053253174
1684201094393358600,0.919358642578125,0.029284484684467316,-0.20330405235290527,-0.20642897486686707
1684201094403383800,0.9293837890625,0.06386536359786987,-0.12462681531906128,-0.25021401047706604
1684201094413408800,0.93940869140625,0.08070053160190582,-0.027856282889842987,-0.26321712136268616
1684201094423433500,0.94943359375,0.08755310624837875,0.008980026468634605,-0.2543030083179474
1684201094433457700,0.959457763671875,0.09435616433620453,0.008505483157932758,-0.22418394684791565
1684201094443482600,0.969482666015625,0.09365202486515045,-0.030912227928638458,-0.19154877960681915
1684201094453507600,0.979507568359375,0.08015751838684082,-0.07653314620256424,-0.15840549767017365
1684201094463532800,0.98953271484375,0.06962231546640396,-0.0597136914730072,-0.11966556310653687
1684201094473557800,0.999557861328125,0.06838899850845337,-0.02295348420739174,-0.08164553344249725
1684201094483581400,1.00958154296875,0.08554162085056305,-0.05137953162193298,-0.09138818085193634
1684201094493606700,1.019606689453125,0.11486809700727463,-0.13239073753356934,-0.15469007194042206
1684201094503631600,1.029631591796875,0.1430874764919281,-0.2188742309808731,-0.21813428401947021
1684201094513656600,1.039656494140625,0.15592046082019806,-0.2279837727546692,-0.21667562425136566
1684201094523680800,1.0496806640625,0.16188806295394897,-0.25010716915130615,-0.16137321293354034
1684201094533705700,1.059705810546875,0.1569761335849762,-0.3136552572250366,-0.09677498787641525
1684201094543730700,1.069730712890625,0.15491057932376862,-0.3162752687931061,-0.08033370226621628
1684201094553755600,1.079755615234375,0.12589171528816223,-0.24017512798309326,-0.12665897607803345
1684201094563780600,1.089780517578125,0.1421380639076233,-0.10199861228466034,-0.07724562287330627
1684201094573804500,1.099804443359375,0.12542486190795898,-0.05954700708389282,-0.0029416463803499937
1684201094583829800,1.109829833984375,0.10391876846551895,0.008495958521962166,0.029005102813243866
1684201094593854700,1.119854736328125,0.1047201156616211,0.13210339844226837,-0.030527077615261078
1684201094603879700,1.129879638671875,0.10866373032331467,0.2831624150276184,-0.09047695994377136
1684201094613904000,1.13990380859375,0.13400930166244507,0.3160269558429718,-0.08299684524536133
1684201094623928600,1.149928466796875,0.15909308195114136,0.2830367684364319,-0.04736721143126488
1684201094633953500,1.15995361328125,0.1712173968553543,0.23980486392974854,-0.019222980365157127
1684201094643978500,1.169978515625,0.16653795540332794,0.11035232990980148,-0.05179157853126526
1684201094654003700,1.180003662109375,0.136661559343338,0.07071617990732193,-0.08511904627084732
1684201094664027600,1.190027587890625,0.09256572276353836,0.009038696065545082,-0.09600018709897995
1684201094674052600,1.200052490234375,0.08486013859510422,0.11340644210577011,-0.035165730863809586
1684201094684077800,1.210077880859375,0.08013169467449188,0.25221413373947144,-0.003072507446631789
1684201094694102800,1.220102783203125,0.0501498281955719,0.25659415125846863,-0.017784131690859795
1684201094704126700,1.230126708984375,0.007415412925183773,0.23749582469463348,-0.038060642778873444
1684201094714151700,1.240151611328125,-0.03426839038729668,0.24053260684013367,-0.05254143849015236
1684201094724176600,1.2501767578125,-0.07587229460477829,0.29045727849006653,-0.05479740351438522
1684201094734201600,1.26020166015625,-0.09239055961370468,0.33849456906318665,-0.05298817530274391
1684201094744226800,1.270226806640625,-0.11201619356870651,0.45896345376968384,-0.011367227882146835
1684201094754250800,1.280250732421875,-0.14078497886657715,0.5803080201148987,0.03176536783576012
1684201094764275500,1.290275390625,-0.18362538516521454,0.6443042755126953,0.04870813339948654
1684201094774300700,1.30030078125,-0.22383058071136475,0.642516553401947,0.011780068278312683
1684201094784325600,1.31032568359375,-0.2677394449710846,0.5867587327957153,-0.05361199006438255
1684201094794349600,1.320349609375,-0.3008683919906616,0.47752270102500916,-0.1780945509672165
1684201094804374800,1.330374755859375,-0.3244922161102295,0.3622158169746399,-0.3023272752761841
1684201094814399700,1.340399658203125,-0.3252922296524048,0.39671048521995544,-0.30531004071235657
1684201094824424700,1.3504248046875,-0.2870638966560364,0.5792286396026611,-0.1907765418291092
1684201094834449400,1.360449462890625,-0.1899844855070114,0.6808526515960693,-0.11951032280921936
1684201094844473600,1.3704736328125,-0.10329379886388779,0.5678129196166992,-0.15875519812107086
1684201094854498600,1.38049853515625,-0.07262564450502396,0.2865034341812134,-0.2357276976108551
1684201094864523800,1.390523681640625,-0.10897886008024216,0.054238226264715195,-0.2609446346759796
1684201094874548700,1.400548828125,-0.19720591604709625,-0.047135110944509506,-0.21707826852798462
1684201094884572700,1.41057275390625,-0.2687578797340393,0.05871036276221275,-0.10485133528709412
1684201094894597600,1.42059765625,-0.2940320670604706,0.23095965385437012,-0.018010877072811127
1684201094904622600,1.43062255859375,-0.2943226099014282,0.3330268859863281,0.01289563998579979
1684201094914647600,1.4406474609375,-0.2783356308937073,0.3276152014732361,-0.012856049463152885
1684201094924672500,1.450672607421875,-0.2544388175010681,0.3770133852958679,-0.024208571761846542
1684201094934696700,1.46069677734375,-0.20195168256759644,0.46785208582878113,-0.017428385093808174
1684201094944721700,1.4707216796875,-0.12287896871566772,0.5815903544425964,-0.006143772043287754
1684201094954746600,1.48074658203125,-0.021139804273843765,0.7116304636001587,-0.006271538324654102
1684201094964771800,1.490771728515625,0.06439879536628723,0.8200780749320984,0.00006065983325242996
1684201094974795500,1.50079541015625,0.1490638703107834,0.8364551067352295,0.05770132318139076
1684201094984820500,1.510820556640625,0.18552173674106598,0.8509607911109924,0.11651510000228882
1684201094994845700,1.520845703125,0.21389001607894897,0.9277018904685974,0.1902293562889099
1684201095004871200,1.53087109375,0.22487342357635498,1.0007261037826538,0.28968513011932373
1684201095014895900,1.540895751953125,0.18264421820640564,1.0100457668304443,0.39166978001594543
1684201095024920000,1.550920166015625,0.09531889855861664,0.9394279718399048,0.4982089698314667
1684201095034945000,1.560945068359375,-0.009318305179476738,0.828079342842102,0.540455162525177
1684201095044970000,1.570969970703125,-0.090865358710289,0.7215360999107361,0.48394161462783813
1684201095054995000,1.580994873046875,-0.12312902510166168,0.6462025046348572,0.374329149723053
1684201095065019100,1.59101904296875,-0.10471752285957336,0.6078649759292603,0.27499642968177795
1684201095075043800,1.6010439453125,-0.06741835176944733,0.5754542350769043,0.23091815412044525
1684201095085069000,1.611069091796875,-0.027391307055950165,0.5034056305885315,0.23474672436714172
1684201095095094000,1.621093994140625,0.00971556082367897,0.37071692943573,0.2586037814617157
1684201095105118000,1.631117919921875,0.03338360786437988,0.19934384524822235,0.28228113055229187
1684201095115143200,1.64114306640625,0.033365778625011444,0.013437501154839993,0.30563560128211975
1684201095125168000,1.651168212890625,0.01703207939863205,-0.1348654180765152,0.3362462520599365
1684201095135193000,1.661193115234375,0.022031892091035843,-0.21523211896419525,0.3777249753475189
1684201095145218000,1.671218017578125,0.01647493988275528,-0.2607306241989136,0.41937097907066345
1684201095155242000,1.681241943359375,0.030134297907352448,-0.26733168959617615,0.49593234062194824
1684201095165267000,1.691266845703125,0.13018526136875153,-0.19606974720954895,0.565299928188324
1684201095175292000,1.7012919921875,0.2032078206539154,-0.08959408104419708,0.6619464755058289
1684201095185317000,1.711317138671875,0.2648754417896271,-0.012666003778576851,0.8136870265007019
1684201095195341000,1.721341064453125,0.34264588356018066,-0.021706653758883476,0.9996240139007568
1684201095205366000,1.731365966796875,0.39913445711135864,-0.08230661600828171,1.2055641412734985
1684201095215391000,1.741390869140625,0.38344818353652954,-0.058473266661167145,1.4583423137664795
1684201095225416000,1.751416015625,0.5116154551506042,-0.023511821404099464,1.6808222532272339
1684201095235441000,1.76144091796875,0.6504055857658386,0.009646882303059101,1.8599363565444946
1684201095245465000,1.771465087890625,0.73496013879776,-0.007193616591393948,1.9620760679244995
1684201095255490000,1.781489990234375,0.7821947336196899,0.028285738080739975,2.0145905017852783
1684201095265515000,1.791514892578125,0.7522706985473633,0.1848314106464386,2.0879251956939697
1684201095275540200,1.801540283203125,0.8620235323905945,0.28388720750808716,2.1167171001434326
1684201095285564000,1.81156396484375,1.0244208574295044,0.32431691884994507,2.077427625656128
1684201095295588900,1.8215888671875,1.1805644035339355,0.3636895716190338,1.9844212532043457
1684201095305614000,1.831614013671875,1.3018271923065186,0.4923460781574249,1.8863027095794678
1684201095315639000,1.84163916015625,1.4040955305099487,0.7936980128288269,1.7964189052581787
1684201095325664000,1.8516640625,1.5075631141662598,0.968596875667572,1.55855393409729
1684201095335688200,1.861688232421875,1.6139062643051147,0.9517595767974854,1.253749132156372
1684201095345713200,1.871713134765625,1.717953085899353,0.8292475342750549,0.9686286449432373
1684201095355737900,1.88173779296875,1.766753077507019,0.3991123139858246,0.6614510416984558
1684201095365763000,1.89176318359375,1.7084858417510986,-0.38593590259552,0.36428409814834595
1684201095375787000,1.901787109375,1.5421255826950073,-1.2799198627471924,0.13891060650348663
1684201095385812000,1.91181201171875,1.3643451929092407,-2.039594888687134,-0.03729237616062164
1684201095395837200,1.921837158203125,1.207947850227356,-2.56923246383667,-0.0983164981007576
1684201095405862100,1.931862060546875,1.1193552017211914,-2.6321988105773926,-0.060735031962394714
1684201095415885800,1.9418857421875,1.0273650884628296,-2.1283020973205566,0.07388101518154144
1684201095425911000,1.9519111328125,1.0328212976455688,-1.2570019960403442,0.23511597514152527
1684201095435936000,1.96193603515625,1.056569218635559,-0.5324348211288452,0.2820252776145935
1684201095445961000,1.9719609375,0.8957247734069824,-0.31053438782691956,0.193191796541214
1684201095455986000,1.98198583984375,0.665769636631012,-0.5255901217460632,0.0926007553935051
1684201095466010000,1.992010009765625,0.4947408437728882,-0.8410772681236267,-0.0013084285892546177
1684201095476035000,2.00203515625,0.4194602072238922,-0.9497344493865967,-0.04502282664179802
1684201095486060000,2.01206005859375,0.39477774500846863,-0.9645262360572815,-0.0584491528570652
1684201095496085000,2.0220849609375,0.33237242698669434,-0.9758065342903137,-0.06308887153863907
1684201095506109000,2.03210888671875,0.26255208253860474,-1.0262696743011475,-0.07583103328943253
1684201095516134100,2.042134033203125,0.16152320802211761,-0.9963890910148621,-0.08070205897092819
1684201095526159000,2.0521591796875,0.07549698650836945,-0.8669277429580688,-0.131572425365448
1684201095536184000,2.06218408203125,0.00465263519436121,-0.6942989230155945,-0.23351067304611206
1684201095546209000,2.072208984375,-0.038430649787187576,-0.5209380984306335,-0.3746368885040283
1684201095556233000,2.08223291015625,-0.06474880129098892,-0.2753697335720062,-0.4922725260257721
1684201095566258000,2.0922578125,-0.11779523640871048,-0.019975269213318825,-0.573292076587677
1684201095576283000,2.102282958984375,-0.20182889699935913,0.2132168561220169,-0.6242304444313049
1684201095586308000,2.11230810546875,-0.31782448291778564,0.40090662240982056,-0.6523089408874512
1684201095596332000,2.12233203125,-0.46898600459098816,0.5357484221458435,-0.6594038605690002
1684201095606357000,2.13235693359375,-0.6280744671821594,0.6915191411972046,-0.6308771371841431
1684201095616382200,2.14238232421875,-0.7960988879203796,0.8325148224830627,-0.5647621750831604
1684201095626407000,2.152406982421875,-0.9681159257888794,0.9018790125846863,-0.46497613191604614
1684201095636432000,2.162431884765625,-1.108161449432373,0.7980947494506836,-0.35669833421707153
1684201095646456000,2.1724560546875,-1.1566776037216187,0.5563412308692932,-0.20958426594734192
1684201095656481000,2.18248095703125,-1.0889841318130493,0.2611933648586273,0.038603369146585464
1684201095666506000,2.192506103515625,-0.9016841650009155,0.02683439292013645,0.2827169895172119
1684201095676531200,2.20253125,-0.6911999583244324,-0.00878343265503645,0.38446182012557983
1684201095686555000,2.212554931640625,-0.46722036600112915,0.27030786871910095,0.37490904331207275
1684201095696579800,2.222579833984375,-0.266477108001709,0.800029456615448,0.2902843654155731
1684201095706605000,2.23260498046875,-0.0800718367099762,1.475897192955017,0.10515977442264557
1684201095716630000,2.242630126953125,0.08361057192087173,2.1700520515441895,-0.14270830154418945
1684201095726654000,2.252654052734375,0.19490887224674225,2.6538679599761963,-0.407505065202713
1684201095736679200,2.26267919921875,0.2375577986240387,2.750882625579834,-0.643111526966095
1684201095746704100,2.2727041015625,0.15404292941093445,2.18092679977417,-0.8610726594924927
1684201095756729000,2.28272900390625,-0.014612664468586445,0.9678893685340881,-0.9931126236915588
1684201095766753800,2.29275390625,-0.06262493133544922,-0.19059820473194122,-1.047951340675354
1684201095776778000,2.302778076171875,-0.01958267018198967,-0.8398668766021729,-1.094162106513977
1684201095786803000,2.312802978515625,0.08965832740068436,-0.9652615189552307,-1.1001741886138916
1684201095796828000,2.322827880859375,0.13858702778816223,-0.7780418395996094,-1.0195459127426147
1684201095806853000,2.33285302734375,0.05738484114408493,-0.3358769416809082,-0.9220448732376099
1684201095816877000,2.342876953125,-0.14086835086345673,0.12419293075799942,-0.9070923924446106
1684201095826902000,2.352902099609375,-0.3881593644618988,0.3474648892879486,-0.9397674798965454
1684201095836927000,2.362927001953125,-0.6431114673614502,0.3164544999599457,-0.9856004118919373
1684201095846952000,2.372951904296875,-0.7988235950469971,-0.017450513318181038,-0.989067554473877
1684201095856977000,2.382976806640625,-0.7688486576080322,-0.6420082449913025,-0.8890761137008667
1684201095867001000,2.3930009765625,-0.7412404417991638,-1.2506978511810303,-0.5561306476593018
1684201095877026000,2.403026123046875,-0.7522557973861694,-1.6663486957550049,-0.1002890020608902
1684201095887051000,2.413051025390625,-0.6380434632301331,-1.6188011169433594,0.10727937519550323
1684201095897076200,2.423076171875,-0.38936126232147217,-0.8148758411407471,0.06362651288509369
1684201095907100000,2.433099853515625,-0.19590149819850922,0.07246968895196915,-0.12542462348937988
1684201095917124900,2.443124755859375,-0.10847071558237076,0.5074573159217834,-0.18694761395454407
1684201095927150000,2.453150146484375,-0.08767489343881607,0.6174852848052979,-0.004449977073818445
1684201095937175000,2.463175048828125,-0.05394569784402847,0.47060784697532654,0.19988030195236206
1684201095947200000,2.473199951171875,-0.07103972882032394,0.15754184126853943,0.36252567172050476
1684201095957224200,2.48322412109375,-0.11546844244003296,-0.23870287835597992,0.4898798167705536
1684201095967249000,2.493248779296875,-0.1456548422574997,-0.6221134066581726,0.4941706955432892
1684201095977273900,2.50327392578125,-0.16574439406394958,-0.8929649591445923,0.33548712730407715
1684201095987299000,2.513299072265625,-0.1615549772977829,-0.9995366930961609,0.09506864845752716
1684201095997322800,2.52332275390625,-0.18695168197155,-1.072281837463379,-0.23451882600784302
1684201096007347700,2.53334765625,-0.12146108597517014,-1.0431530475616455,-0.587476372718811
1684201096017373000,2.543373046875,-0.0004169577732682228,-0.9200418591499329,-0.8565955758094788
1684201096027398000,2.55339794921875,0.05901041626930237,-0.780156135559082,-1.0415332317352295
1684201096037421800,2.563421875,0.08626148849725723,-0.7386156320571899,-1.014237403869629
1684201096047447000,2.573447021484375,0.06156519800424576,-0.9282063245773315,-0.7154658436775208
1684201096057472000,2.583471923828125,-0.0827251449227333,-1.0595948696136475,-0.29694169759750366
1684201096067497000,2.5934970703125,-0.2634160816669464,-1.0142481327056885,-0.09282826632261276
1684201096077522000,2.60352197265625,-0.3725513815879822,-0.606650710105896,-0.1323067545890808
1684201096087545900,2.6135458984375,-0.38282132148742676,-0.10088393837213516,-0.19902214407920837
1684201096097570800,2.62357080078125,-0.459060400724411,0.3690577745437622,-0.1558579057455063
1684201096107596000,2.633595947265625,-0.601353645324707,0.6723254919052124,-0.01488853245973587
1684201096117621000,2.64362109375,-0.7533873915672302,0.8313148021697998,0.12602689862251282
1684201096127644700,2.653644775390625,-0.8792150616645813,0.8899964690208435,0.21484757959842682
1684201096137670000,2.663669921875,-0.8887372016906738,0.8303059935569763,0.21229049563407898
1684201096147694800,2.67369482421875,-0.8342103362083435,0.7098970413208008,0.12169376015663147
1684201096157719800,2.6837197265625,-0.7693067193031311,0.5770391821861267,-0.011473644524812698
1684201096167744000,2.693743896484375,-0.7076449394226074,0.46126386523246765,-0.14828182756900787
1684201096177769000,2.70376904296875,-0.5995174050331116,0.3888569176197052,-0.2858390808105469
1684201096187794000,2.7137939453125,-0.45433783531188965,0.28228068351745605,-0.39917653799057007
1684201096197819000,2.72381884765625,-0.3030298352241516,0.16698874533176422,-0.44985198974609375
1684201096207843800,2.73384375,-0.1363108903169632,-0.02042960934340954,-0.4682064950466156
1684201096217867800,2.74386767578125,0.03610403090715408,-0.24886958301067352,-0.453596293926239
1684201096227893000,2.75389306640625,0.18018050491809845,-0.4229985177516937,-0.41857972741127014
1684201096237918000,2.76391796875,0.2694787085056305,-0.43541577458381653,-0.38566696643829346
1684201096247943000,2.77394287109375,0.2907874584197998,-0.4955962896347046,-0.34928497672080994
1684201096257967000,2.783967041015625,0.28165146708488464,-0.5699005722999573,-0.28860676288604736
1684201096267991800,2.79399169921875,0.24008513987064362,-0.5700366497039795,-0.2328372448682785
1684201096278016800,2.804016845703125,0.15323996543884277,-0.5376957058906555,-0.2230326384305954
1684201096288041700,2.814041748046875,0.08014100044965744,-0.47069668769836426,-0.24433819949626923
1684201096298067000,2.82406689453125,0.011581121943891048,-0.41913923621177673,-0.26198115944862366
1684201096308091000,2.8340908203125,-0.03385347127914429,-0.277008980512619,-0.24052034318447113
1684201096318115800,2.84411572265625,-0.07767366617918015,-0.10791143774986267,-0.21695910394191742
1684201096328141000,2.85414111328125,-0.08847731351852417,0.07932742685079575,-0.18560251593589783
1684201096338166000,2.864166015625,-0.088409923017025,0.07715705782175064,-0.2021033614873886
1684201096348190000,2.87418994140625,-0.08702481538057327,-0.020229944959282875,-0.24328036606311798
1684201096358215000,2.88421484375,-0.05732310935854912,-0.12893405556678772,-0.276698499917984
1684201096368239900,2.894239990234375,-0.0181642547249794,-0.23519818484783173,-0.3315873146057129
1684201096378264800,2.904264892578125,0.001179337501525879,-0.25523775815963745,-0.3973599374294281
1684201096388289000,2.9142890625,0.012304958887398243,-0.28434398770332336,-0.4074658155441284
1684201096398314000,2.92431396484375,0.04158642143011093,-0.23349323868751526,-0.3969416618347168
1684201096408338700,2.934338623046875,0.05972733721137047,-0.2534016966819763,-0.37912672758102417
1684201096418364000,2.944364013671875,0.08239909261465073,-0.307488352060318,-0.35199078917503357
1684201096428388900,2.954388916015625,0.09198141098022461,-0.32423830032348633,-0.3345241844654083
1684201096438412800,2.964412841796875,0.08523855358362198,-0.2566324770450592,-0.2978094518184662
1684201096448438000,2.97443798828125,0.08383187651634216,-0.10643098503351212,-0.22928448021411896
1684201096458463000,2.984462890625,0.08780398964881897,0.03681900352239609,-0.15765385329723358
1684201096468488000,2.994488037109375,0.10568897426128387,0.09607833623886108,-0.0923030823469162
1684201096478511900,3.004511962890625,0.10172964632511139,0.18060725927352905,-0.0634063258767128
1684201096488536800,3.014536865234375,0.12154170125722885,0.32465603947639465,-0.004434614442288876
1684201096498561800,3.024561767578125,0.16409076750278473,0.443758100271225,0.048497870564460754
1684201096508587000,3.0345869140625,0.20656445622444153,0.5168504118919373,0.08047417551279068
1684201096518611000,3.04461083984375,0.2527111768722534,0.5607550144195557,0.09921848773956299
1684201096528636000,3.054635986328125,0.27886155247688293,0.5805415511131287,0.11270313709974289
1684201096538661000,3.0646611328125,0.2802261710166931,0.5729659795761108,0.12740519642829895
1684201096548685800,3.074685791015625,0.25301745533943176,0.5462774038314819,0.14914271235466003
1684201096558710800,3.084710693359375,0.1989869624376297,0.49917587637901306,0.17753969132900238
1684201096568735000,3.09473486328125,0.12391191720962524,0.461748868227005,0.1937173306941986
1684201096578760000,3.104760009765625,0.033649664372205734,0.39715003967285156,0.19447925686836243
1684201096588785000,3.114784912109375,-0.06216554716229439,0.2700871527194977,0.1797064244747162
1684201096598809900,3.124809814453125,-0.1465531289577484,0.07792768627405167,0.12918969988822937
1684201096608833800,3.134833740234375,-0.20170772075653076,-0.1510314643383026,0.06361015886068344
1684201096618858800,3.144858642578125,-0.22044600546360016,-0.28841057419776917,-0.02628703974187374
1684201096628883700,3.1548837890625,-0.22190114855766296,-0.2644951343536377,-0.1041802391409874
1684201096638909000,3.164908935546875,-0.2067786455154419,-0.10770665109157562,-0.15755002200603485
1684201096648934000,3.174933837890625,-0.176548570394516,0.06632852554321289,-0.19230426847934723
1684201096658958000,3.1849580078125,-0.13822144269943237,0.19161514937877655,-0.22418440878391266
1684201096668983000,3.194983154296875,-0.11624210327863693,0.30249693989753723,-0.23356007039546967
1684201096679008000,3.205008056640625,-0.11332912743091583,0.41798871755599976,-0.21053637564182281
1684201096689032700,3.21503271484375,-0.11762560904026031,0.5252901315689087,-0.16856229305267334
1684201096699057000,3.225056884765625,-0.12360252439975739,0.6038329005241394,-0.14890730381011963
1684201096709081900,3.235081787109375,-0.11497069150209427,0.7198559045791626,-0.1410328596830368
1684201096719106800,3.24510693359375,-0.10159312188625336,0.7492157816886902,-0.0934838354587555
1684201096729132000,3.255132080078125,-0.10579505562782288,0.6681699752807617,-0.022020040079951286
1684201096739156000,3.265156005859375,-0.11525246500968933,0.5886004567146301,-0.007659913040697575
1684201096749180700,3.2751806640625,-0.11548496037721634,0.5866374373435974,-0.044697027653455734
1684201096759206000,3.285205810546875,-0.11758166551589966,0.607056736946106,-0.08730177581310272
1684201096769230800,3.29523095703125,-0.12398763746023178,0.6250799894332886,-0.09512374550104141
1684201096779255800,3.305255859375,-0.1465991884469986,0.6243638396263123,-0.08696027845144272
1684201096789280000,3.315280029296875,-0.18838313221931458,0.596808671951294,-0.08493946492671967
1684201096799305000,3.325304931640625,-0.23053830862045288,0.6213809251785278,-0.1242179274559021
1684201096809330000,3.335329833984375,-0.26546168327331543,0.6757165789604187,-0.1797107458114624
1684201096819355100,3.345355224609375,-0.28711020946502686,0.7167682647705078,-0.2490372657775879
1684201096829378800,3.35537890625,-0.28915953636169434,0.6945170164108276,-0.332047700881958
1684201096839403800,3.36540380859375,-0.3164670765399933,0.5321627855300903,-0.40538129210472107
1684201096849429000,3.375428955078125,-0.3649970591068268,0.38404715061187744,-0.4372159242630005
1684201096859454000,3.385453857421875,-0.43399104475975037,0.23353999853134155,-0.46262267231941223
1684201096869478000,3.395477783203125,-0.5462174415588379,0.03721095994114876,-0.4708513021469116
1684201096879503000,3.405503173828125,-0.6457869410514832,-0.12247918546199799,-0.4317411780357361
1684201096889527800,3.41552783203125,-0.7186837792396545,-0.22813530266284943,-0.396515816450119
1684201096899552800,3.425552734375,-0.7342307567596436,-0.32126539945602417,-0.42623642086982727
1684201096909577700,3.43557763671875,-0.6804231405258179,-0.19442541897296906,-0.40408584475517273
1684201096919602000,3.445601806640625,-0.5690737366676331,0.0055817849934101105,-0.34364962577819824
1684201096929627000,3.455626953125,-0.5072228908538818,0.00667581195011735,-0.325254887342453
1684201096939651800,3.46565185546875,-0.5081986784934998,-0.21687568724155426,-0.34567445516586304
1684201096949677000,3.475677001953125,-0.5229403376579285,-0.5162858366966248,-0.3715968430042267
1684201096959700700,3.48570068359375,-0.5116866230964661,-0.7090048789978027,-0.35789474844932556
1684201096969726000,3.495725830078125,-0.47524741291999817,-0.6862564086914062,-0.3084414303302765
1684201096979751000,3.5057509765625,-0.40965187549591064,-0.459025114774704,-0.26946091651916504
1684201096989776000,3.51577587890625,-0.3170015811920166,-0.1668473184108734,-0.2653985321521759
1684201096999799800,3.5257998046875,-0.21424323320388794,0.11417601257562637,-0.2797008454799652
1684201097009824800,3.53582470703125,-0.07932829111814499,0.37846440076828003,-0.30002209544181824
1684201097019849700,3.545849609375,0.06751227378845215,0.5509746074676514,-0.31707140803337097
1684201097029874700,3.555874755859375,0.21360796689987183,0.5506829619407654,-0.29060065746307373
1684201097039900000,3.56589990234375,0.35479387640953064,0.40802597999572754,-0.18798840045928955
1684201097049923600,3.575923583984375,0.4646783173084259,0.2144370675086975,-0.04107857495546341
1684201097059948800,3.58594873046875,0.5283457040786743,0.02934304066002369,0.10770717263221741
1684201097069973800,3.595973876953125,0.5638709664344788,-0.08434224128723145,0.2039511501789093
1684201097079998700,3.605998779296875,0.5537413358688354,-0.1308644711971283,0.31262511014938354
1684201097090023000,3.61602294921875,0.5224654674530029,-0.12647931277751923,0.46124735474586487
1684201097100048000,3.6260478515625,0.48366156220436096,-0.14406053721904755,0.626287043094635
1684201097110072800,3.63607275390625,0.4146265685558319,-0.2204597145318985,0.7663298845291138
1684201097120097800,3.646097900390625,0.3492366671562195,-0.3020961582660675,0.8562855124473572
1684201097130122800,3.656122802734375,0.310341477394104,-0.40974754095077515,0.9331609010696411
1684201097140146700,3.666146728515625,0.28490930795669556,-0.40878286957740784,1.0436416864395142
1684201097150171600,3.676171630859375,0.2698259651660919,-0.3177560269832611,1.1878677606582642
1684201097160196900,3.68619677734375,0.254016637802124,-0.3115369975566864,1.2631815671920776
1684201097170221800,3.696221923828125,0.19843141734600067,-0.28366753458976746,1.3338913917541504
1684201097180245800,3.706245849609375,0.14539110660552979,-0.3632751703262329,1.3584516048431396
1684201097190270700,3.716270751953125,0.14659404754638672,-0.5439053773880005,1.325920820236206
1684201097200295700,3.726295654296875,0.21523170173168182,-0.732002317905426,1.2649610042572021
1684201097210320600,3.736320556640625,0.2927597761154175,-0.6796355247497559,1.2431066036224365
1684201097220344800,3.7463447265625,0.3807234764099121,-0.44743603467941284,1.2249047756195068
1684201097230369800,3.756369873046875,0.4697689414024353,-0.13061653077602386,1.2005765438079834
1684201097240394800,3.766394775390625,0.550346851348877,0.15714280307292938,1.13670015335083
1684201097250420000,3.776419921875,0.6659429669380188,0.27962663769721985,1.0309412479400635
1684201097260445000,3.78644482421875,0.7468881607055664,0.3229442238807678,0.9301773309707642
1684201097270468600,3.796468505859375,0.770677387714386,0.2499602884054184,0.8521264791488647
1684201097280493800,3.806493896484375,0.7721652984619141,0.11707698553800583,0.7836392521858215
1684201097290518800,3.816518798828125,0.7424153685569763,0.12367496639490128,0.8586887121200562
1684201097300543700,3.826543701171875,0.7007092237472534,-0.045531388372182846,0.8850610256195068
1684201097310568000,3.83656787109375,0.6801517605781555,-0.29585734009742737,0.8301069736480713
1684201097320593000,3.846593017578125,0.6547787189483643,-0.43439796566963196,0.7595133185386658
1684201097330617600,3.85661767578125,0.6191323399543762,-0.38983821868896484,0.7246999144554138
1684201097340642800,3.866642822265625,0.6539075970649719,-0.2044810652732849,0.6687485575675964
1684201097350666800,3.876666748046875,0.7150716185569763,0.07886780798435211,0.5848855972290039
1684201097360691700,3.886691650390625,0.7637401223182678,0.3509261906147003,0.5023433566093445
1684201097370717000,3.896717041015625,0.7628681659698486,0.47497355937957764,0.43185538053512573
1684201097380742000,3.906741943359375,0.6872578263282776,0.455898642539978,0.3856853246688843
1684201097390766800,3.916766845703125,0.6368444561958313,0.2559863328933716,0.2937029302120209
1684201097400790800,3.926790771484375,0.6384495496749878,0.03302457928657532,0.19462670385837555
1684201097410815700,3.936815673828125,0.6510812044143677,-0.09082838892936707,0.10354126989841461
1684201097420840700,3.9468408203125,0.6320265531539917,-0.19422879815101624,0.015628913417458534
1684201097430865700,3.95686572265625,0.5770695805549622,-0.20870441198349,-0.04938923567533493
1684201097440889900,3.966889892578125,0.48818492889404297,-0.23160092532634735,-0.10590825974941254
1684201097450914800,3.976914794921875,0.36670804023742676,-0.31860533356666565,-0.13680358231067657
1684201097460939800,3.986939697265625,0.24064624309539795,-0.4039418399333954,-0.14150376617908478
1684201097470964700,3.99696484375,0.11730753630399704,-0.4576660692691803,-0.1300116926431656
1684201097480988700,4.00698876953125,0.006106456741690636,-0.482011079788208,-0.1195177435874939
1684201097491014000,4.017013916015625,-0.07404857128858566,-0.46601375937461853,-0.1012500524520874
1684201097501038800,4.027038818359375,-0.13105885684490204,-0.3936764895915985,-0.07866711914539337
1684201097511063800,4.037063720703125,-0.1650322675704956,-0.29521676898002625,-0.04789961874485016
1684201097521088000,4.047087890625,-0.160816490650177,-0.18128149211406708,0.0005112690851092339
1684201097531112700,4.05711279296875,-0.15121953189373016,-0.09849394112825394,0.04121023043990135
1684201097541137700,4.0671376953125,-0.14772173762321472,-0.05615243315696716,0.06652359664440155
1684201097551162600,4.07716259765625,-0.11806529760360718,-0.0016047698445618153,0.10334393382072449
1684201097561186800,4.087186767578125,-0.07447069138288498,0.019671723246574402,0.14285561442375183
1684201097571211800,4.097211669921875,-0.018251091241836548,-0.013827914372086525,0.19697903096675873
1684201097581236700,4.10723681640625,0.06590907275676727,-0.05179182067513466,0.26690196990966797
1684201097591262000,4.117261962890625,0.18278056383132935,-0.10798584669828415,0.33427515625953674
1684201097601287000,4.127286865234375,0.31801852583885193,-0.09859490394592285,0.3879038989543915
1684201097611310800,4.137310791015625,0.5221924781799316,-0.009917231276631355,0.40146657824516296
1684201097621335800,4.147335693359375,0.7095836400985718,0.2434368133544922,0.33869147300720215
1684201097631360800,4.15736083984375,0.835161566734314,0.6487395763397217,0.23074156045913696
1684201097641385700,4.1673857421875,0.879567563533783,1.123976469039917,0.12014002352952957
1684201097651410000,4.177409912109375,0.7636215686798096,1.599159598350525,0.021277355030179024
1684201097661435000,4.187434814453125,0.5433480739593506,1.7929719686508179,-0.04210500046610832
1684201097671459600,4.19745947265625,0.30681487917900085,1.6032187938690186,-0.04322752356529236
1684201097681484800,4.20748486328125,0.0961788147687912,1.09925377368927,-0.03521990031003952
1684201097691509800,4.217509765625,-0.015639331191778183,0.4696334898471832,-0.13286817073822021
1684201097701533700,4.22753369140625,-0.06755337864160538,-0.04375958442687988,-0.3214223384857178
1684201097711559000,4.237558837890625,-0.05811087042093277,-0.4813033640384674,-0.5987213253974915
1684201097721583900,4.247583984375,-0.04689471051096916,-0.8589369058609009,-0.9252148270606995
1684201097731608800,4.25760888671875,-0.06830919533967972,-1.0885436534881592,-1.2028424739837646
1684201097741632800,4.2676328125,-0.1474895030260086,-1.184462308883667,-1.3460259437561035
1684201097751657700,4.27765771484375,-0.23119957745075226,-1.2050162553787231,-1.3397136926651
1684201097761682700,4.2876826171875,-0.313610315322876,-1.2099107503890991,-1.2321932315826416
1684201097771707600,4.297707763671875,-0.3891045153141022,-1.2182927131652832,-1.0987012386322021
1684201097781731800,4.30773193359375,-0.4472368061542511,-1.1874178647994995,-0.9805591106414795
1684201097791756800,4.3177568359375,-0.4873277544975281,-1.07538640499115,-0.8923520445823669
1684201097801781800,4.32778173828125,-0.5132549405097961,-0.9278169870376587,-0.8352592587471008
1684201097811806700,4.337806640625,-0.5268759727478027,-0.7725355625152588,-0.808578610420227
1684201097821831700,4.347831787109375,-0.5281726121902466,-0.6236628293991089,-0.7982211112976074
1684201097831855900,4.35785595703125,-0.536872148513794,-0.47170552611351013,-0.8376095294952393
1684201097841880800,4.367880859375,-0.6456974148750305,-0.27328842878341675,-0.9363135695457458
1684201097851905800,4.37790576171875,-0.8423657417297363,-0.07591382414102554,-1.0122144222259521
1684201097861930800,4.3879306640625,-1.0812742710113525,-0.08932429552078247,-1.0546103715896606
1684201097871956000,4.3979560546875,-1.241007924079895,-0.32325825095176697,-1.0010368824005127
1684201097881979600,4.407979736328125,-1.155524492263794,-0.5339630246162415,-0.7671231627464294
1684201097892004600,4.418004638671875,-0.9778189063072205,-0.5810626149177551,-0.38398879766464233
1684201097902029800,4.42802978515625,-0.9994370937347412,-0.662367582321167,0.10437089949846268
1684201097912054800,4.4380546875,-1.0401432514190674,-1.0764374732971191,0.49582788348197937
1684201097922078700,4.44807861328125,-0.8883313536643982,-1.04874849319458,0.6063485741615295
1684201097932104000,4.45810400390625,-0.4405360221862793,-0.19099953770637512,0.4259279668331146
1684201097942128600,4.468128662109375,0.019895777106285095,0.7550584077835083,0.10014134645462036
1684201097952153600,4.478153564453125,0.1565023511648178,1.5670639276504517,0.02298796735703945
1684201097962178800,4.4881787109375,-0.011915977112948895,1.9736158847808838,0.2441009283065796
1684201097972202800,4.49820263671875,-0.05582910403609276,1.959619402885437,0.5232508182525635
1684201097982227700,4.508227783203125,-0.12202567607164383,1.7754346132278442,0.8249540328979492
1684201097992253000,4.5182529296875,-0.23393437266349792,1.4306105375289917,1.1386661529541016
1684201098002277600,4.528277587890625,-0.2771737277507782,0.9123172163963318,1.2836474180221558
1684201098012301600,4.538301513671875,-0.18621797859668732,0.3656783699989319,1.1246854066848755
1684201098022326800,4.548326904296875,0.015334845520555973,-0.10062959045171738,0.7292571067810059
1684201098032351700,4.558351806640625,0.25548192858695984,-0.23134979605674744,0.38074442744255066
1684201098042376700,4.568376708984375,0.377602756023407,-0.14242345094680786,0.11008657515048981
1684201098052401700,4.578401611328125,0.4001416265964508,0.08370155841112137,-0.18402788043022156
1684201098062425600,4.588425537109375,0.3807849884033203,0.3488181233406067,-0.4703776240348816
1684201098072450600,4.598450439453125,0.34602779150009155,0.5463010668754578,-0.5843912959098816
1684201098082475800,4.608475830078125,0.24531584978103638,0.6166364550590515,-0.580463171005249
1684201098092500700,4.618500732421875,0.07779262959957123,0.5346766114234924,-0.4762350022792816
1684201098102524700,4.628524658203125,-0.12943992018699646,0.2493538111448288,-0.2655688226222992
1684201098112549600,4.638549560546875,-0.31133967638015747,-0.1703268140554428,0.006028846837580204
1684201098122574600,4.64857470703125,-0.43366026878356934,-0.5693609118461609,0.1746731400489807
1684201098132599600,4.658599609375,-0.5486251711845398,-0.6031164526939392,0.2173449695110321
1684201098142623700,4.668623779296875,-0.6574941277503967,-0.44290417432785034,0.12869872152805328
1684201098152648700,4.678648681640625,-0.6982793807983398,-0.1788414716720581,0.04454159364104271
1684201098162673700,4.688673583984375,-0.6572576761245728,-0.01954457350075245,-0.00538078136742115
1684201098172698600,4.69869873046875,-0.5656701922416687,0.0847991406917572,-0.07881158590316772
1684201098182723800,4.708723876953125,-0.40823668241500854,0.1048780307173729,-0.17423677444458008
1684201098192747500,4.71874755859375,-0.2793647050857544,0.09073664247989655,-0.26018282771110535
1684201098202772700,4.728772705078125,-0.16801686584949493,0.14495748281478882,-0.34092602133750916
1684201098212797700,4.738797607421875,-0.09885378181934357,0.2637366056442261,-0.37073585391044617
1684201098222822700,4.74882275390625,-0.07177715748548508,0.3227882385253906,-0.33913102746009827
1684201098232846800,4.758846923828125,-0.06586574018001556,0.30384543538093567,-0.27710121870040894
1684201098242871800,4.768871826171875,-0.08647194504737854,0.2670038044452667,-0.24784593284130096
1684201098252896500,4.778896484375,-0.13448821008205414,0.1270482987165451,-0.2952975928783417
1684201098262921500,4.78892138671875,-0.18127836287021637,-0.021260876208543777,-0.3535248935222626
1684201098272945700,4.798945556640625,-0.2330707162618637,-0.12258270382881165,-0.37183865904808044
1684201098282970600,4.808970703125,-0.26277801394462585,-0.19638967514038086,-0.3495515286922455
1684201098292995600,4.81899560546875,-0.26430854201316833,-0.25773319602012634,-0.30347883701324463
1684201098303020800,4.829020751953125,-0.2716010808944702,-0.30352357029914856,-0.24816854298114777
1684201098313045800,4.839045654296875,-0.2863461971282959,-0.3640359044075012,-0.22385895252227783
1684201098323069700,4.849069580078125,-0.33886826038360596,-0.503200113773346,-0.25735846161842346
1684201098333094700,4.8590947265625,-0.3661257028579712,-0.6185528039932251,-0.36539891362190247
1684201098343119600,4.86911962890625,-0.37597164511680603,-0.7818095088005066,-0.445692241191864
1684201098353144600,4.87914453125,-0.353893518447876,-0.880929708480835,-0.528687059879303
1684201098363168800,4.889168701171875,-0.35750824213027954,-0.9003704190254211,-0.5508281588554382
1684201098373193700,4.89919384765625,-0.3428909480571747,-0.9126555919647217,-0.5393986701965332
1684201098383218700,4.90921875,-0.308083713054657,-0.9684654474258423,-0.5436733961105347
1684201098393243600,4.91924365234375,-0.286377876996994,-1.0157136917114258,-0.571825385093689
1684201098403267600,4.929267578125,-0.28480154275894165,-0.9037328958511353,-0.5472769737243652
1684201098413292500,4.93929248046875,-0.29573196172714233,-0.8082002401351929,-0.5211175680160522
1684201098423317800,4.94931787109375,-0.2719810903072357,-0.7398249506950378,-0.5544768571853638
1684201098433342700,4.9593427734375,-0.23528645932674408,-0.6489035487174988,-0.5957057476043701
1684201098443367700,4.96936767578125,-0.19536752998828888,-0.570453405380249,-0.6305360198020935
1684201098453391600,4.9793916015625,-0.15550799667835236,-0.54527348279953,-0.6216330528259277
1684201098463416600,4.98941650390625,-0.15462544560432434,-0.5711562037467957,-0.5258328914642334
1684201098473441500,4.999441650390625,-0.17306144535541534,-0.5795584917068481,-0.3710419535636902
1684201098483466800,5.009466796875,-0.18569731712341309,-0.5301353335380554,-0.22215209901332855
1684201098493490700,5.01949072265625,-0.18734820187091827,-0.44104087352752686,-0.10368163883686066
1684201098503515600,5.029515625,-0.17557598650455475,-0.31826117634773254,-0.026678865775465965
1684201098513540900,5.039540771484375,-0.14993692934513092,-0.1435738056898117,0.015798553824424744
1684201098523565600,5.049565673828125,-0.12718768417835236,0.00929526798427105,0.050200048834085464
1684201098533589500,5.059589599609375,-0.09534692019224167,0.1180606260895729,0.07342734187841415
1684201098543614700,5.06961474609375,-0.0781911090016365,0.2152988761663437,0.10010944306850433
1684201098553639700,5.0796396484375,-0.06106458231806755,0.28827935457229614,0.11041215062141418
1684201098563664600,5.08966455078125,-0.043360158801078796,0.34321096539497375,0.08581326901912689
1684201098573689600,5.099689697265625,-0.014236627146601677,0.4214911162853241,0.05852492153644562
1684201098583713500,5.109713623046875,0.009952059015631676,0.4607768654823303,0.04508074000477791
1684201098593738500,5.119738525390625,0.05462765321135521,0.48762020468711853,0.049325551837682724
1684201098603763500,5.129763427734375,0.1080131083726883,0.4599815905094147,0.06957430392503738
1684201098613788700,5.13978857421875,0.12278086692094803,0.3239542543888092,0.08084693551063538
1684201098623812600,5.1498125,0.11821781098842621,0.1892440766096115,0.03799063339829445
1684201098633837800,5.159837890625,0.10039646923542023,0.055490270256996155,-0.03865540772676468
1684201098643862800,5.16986279296875,0.0844300165772438,-0.04461311176419258,-0.09588459879159927
1684201098653887700,5.1798876953125,0.061262909322977066,-0.07783365249633789,-0.11747777462005615
1684201098663912400,5.189912353515625,0.03165097162127495,-0.012283777818083763,-0.15115737915039062
1684201098673936600,5.1999365234375,-0.008133458904922009,0.1367778778076172,-0.1671999990940094
1684201098683961600,5.209961669921875,-0.03673607483506203,0.2900705933570862,-0.16183535754680634
1684201098693986600,5.219986572265625,-0.08326602727174759,0.44753211736679077,-0.15491513907909393
1684201098704011800,5.23001171875,-0.14231763780117035,0.5872663855552673,-0.15072587132453918
1684201098714035700,5.24003564453125,-0.1997702717781067,0.6527963876724243,-0.14069055020809174
1684201098724060400,5.250060302734375,-0.2627798914909363,0.6659436225891113,-0.15864920616149902
1684201098734085600,5.260085693359375,-0.31008002161979675,0.6831559538841248,-0.19566181302070618
1684201098744110600,5.270110595703125,-0.31855309009552,0.6824861168861389,-0.21898895502090454
1684201098754134500,5.280134521484375,-0.30837368965148926,0.6477478742599487,-0.22269846498966217
1684201098764159700,5.29015966796875,-0.28789082169532776,0.6014761924743652,-0.22976148128509521
1684201098774184700,5.300184814453125,-0.2614850401878357,0.5878514647483826,-0.24733488261699677
1684201098784209700,5.310209716796875,-0.22720110416412354,0.6544836163520813,-0.28343436121940613
1684201098794233600,5.320233642578125,-0.195340096950531,0.7067875862121582,-0.3001752495765686
1684201098804258600,5.330258544921875,-0.1772412806749344,0.7061282396316528,-0.3191235363483429
1684201098814283500,5.340283447265625,-0.1548595428466797,0.7265664339065552,-0.3085036277770996
1684201098824308700,5.350308837890625,-0.13104820251464844,0.7204586267471313,-0.3020883798599243
1684201098834333700,5.360333740234375,-0.08772362768650055,0.7186628580093384,-0.3210870921611786
1684201098844357600,5.370357666015625,-0.0574679858982563,0.7479164600372314,-0.32647809386253357
1684201098854382800,5.3803828125,-0.056102316826581955,0.7234164476394653,-0.34071215987205505
1684201098864407600,5.390407470703125,-0.1025523915886879,0.6331284046173096,-0.3462655544281006
1684201098874432500,5.4004326171875,-0.19405540823936462,0.4438077211380005,-0.3398585319519043
1684201098884456700,5.410456787109375,-0.26330745220184326,0.22242069244384766,-0.3171491026878357
1684201098894481700,5.420481689453125,-0.2837456166744232,0.11177592724561691,-0.33611321449279785
1684201098904506600,5.430506591796875,-0.24302828311920166,0.1340007781982422,-0.3480589985847473
1684201098914531600,5.440531494140625,-0.1841588318347931,0.1309109926223755,-0.34664618968963623
1684201098924555500,5.450555419921875,-0.14628680050373077,0.011114802211523056,-0.3798712193965912
1684201098934580500,5.46058056640625,-0.12263607233762741,-0.10325437784194946,-0.42873889207839966
1684201098944605700,5.470605712890625,-0.08497364819049835,-0.08920025825500488,-0.45036113262176514
1684201098954630700,5.480630615234375,-0.009615780785679817,0.06156608462333679,-0.41844475269317627
1684201098964655600,5.490655517578125,0.09758923202753067,0.2543560862541199,-0.2916402518749237
1684201098974679800,5.5006796875,0.18820887804031372,0.3964077830314636,-0.06665083765983582
1684201098984704800,5.510704833984375,0.251478910446167,0.4698432981967926,0.22495320439338684
1684201098994729700,5.520729736328125,0.27177485823631287,0.4263001084327698,0.49128690361976624
1684201099004755200,5.530755126953125,0.2724459767341614,0.38632771372795105,0.7069162130355835
1684201099014779100,5.540779052734375,0.3260660767555237,0.5149743556976318,0.8710974454879761
1684201099024804000,5.55080419921875,0.4234682619571686,0.7058996558189392,0.9667242169380188
1684201099034829000,5.5608291015625,0.4851262867450714,0.8953843712806702,1.0389928817749023
1684201099044854300,5.570854248046875,0.6239861845970154,1.0995584726333618,1.0809983015060425
1684201099054878200,5.580878173828125,0.6904515027999878,1.1054949760437012,1.1157480478286743
1684201099064903200,5.590903076171875,0.7362804412841797,0.9907950162887573,1.1382787227630615
1684201099074928000,5.60092822265625,0.7989004254341125,0.7151495814323425,1.170750617980957
1684201099084953000,5.610953125,0.8166070580482483,0.45987609028816223,1.211585521697998
1684201099094978000,5.62097802734375,0.7801028490066528,0.4189063012599945,1.3353646993637085
1684201099105002200,5.631002197265625,0.6521398425102234,0.5430765151977539,1.5488959550857544
1684201099115027200,5.641027099609375,0.4929325580596924,0.5498246550559998,1.629346251487732
1684201099125052200,5.65105224609375,0.3444698452949524,0.4756951332092285,1.5680285692214966
1684201099135077000,5.6610771484375,0.27652037143707275,0.42684850096702576,1.5414584875106812
1684201099145101000,5.67110107421875,0.24359464645385742,0.3241153657436371,1.5363494157791138
1684201099155126000,5.6811259765625,0.28339293599128723,0.201484814286232,1.5158084630966187
1684201099165151200,5.691151123046875,0.3500606119632721,0.1503077894449234,1.4538235664367676
1684201099175176200,5.70117626953125,0.4236123263835907,0.211942657828331,1.3195693492889404
1684201099185200000,5.7112001953125,0.4853540360927582,0.16400748491287231,1.106933355331421
1684201099195225300,5.721225341796875,0.5492629408836365,-0.020428413525223732,0.8188248872756958
1684201099205250300,5.731250244140625,0.609218180179596,-0.03237093612551689,0.5538188815116882
1684201099215275000,5.74127490234375,0.6706394553184509,0.06823210418224335,0.3506218492984772
1684201099225300000,5.751300048828125,0.7533732056617737,0.09523486346006393,0.1775108128786087
1684201099235324200,5.76132421875,0.8179916143417358,0.015584778040647507,0.011844348162412643
1684201099245349000,5.77134912109375,0.9133895039558411,-0.13853946328163147,-0.11979426443576813
1684201099255374000,5.7813740234375,0.9614049792289734,-0.43026798963546753,-0.27663713693618774
1684201099265399300,5.7913994140625,0.9313613176345825,-0.7441602349281311,-0.41519805788993835
1684201099275423000,5.801423095703125,0.8614110350608826,-1.0739456415176392,-0.5058203935623169
1684201099285448200,5.8114482421875,0.7944562435150146,-1.4098421335220337,-0.5311897397041321
1684201099295473200,5.82147314453125,0.738028347492218,-1.6721693277359009,-0.4940234124660492
1684201099305498000,5.831498046875,0.679227352142334,-1.8301806449890137,-0.48374882340431213
1684201099315522300,5.841522216796875,0.6589628458023071,-1.8593204021453857,-0.4941639304161072
1684201099325547300,5.85154736328125,0.697533130645752,-1.879685640335083,-0.5232592821121216
1684201099335572200,5.861572265625,0.7298359274864197,-1.8923397064208984,-0.5552324056625366
1684201099345597000,5.871596923828125,0.7613192796707153,-1.8670144081115723,-0.5790897607803345
1684201099355622100,5.8816220703125,0.8084364533424377,-1.8204644918441772,-0.6384151577949524
1684201099365646000,5.89164599609375,0.8103345036506653,-1.7960031032562256,-0.7121114134788513
1684201099375671000,5.901671142578125,0.8154190182685852,-1.8581931591033936,-0.7764131426811218
1684201099385696300,5.9116962890625,0.7879652976989746,-2.046286106109619,-0.8218163847923279
1684201099395721200,5.92172119140625,0.7382808327674866,-2.310006618499756,-0.8810059428215027
1684201099405745200,5.9317451171875,0.699465274810791,-2.562722682952881,-0.9584510922431946
1684201099415770000,5.94177001953125,0.6334726810455322,-2.742959976196289,-1.0082104206085205
1684201099425795000,5.951795166015625,0.5784698724746704,-2.8828043937683105,-1.0587458610534668
1684201099435820000,5.961820068359375,0.5362374186515808,-2.9821949005126953,-1.0997769832611084
1684201099445844200,5.97184423828125,0.48938390612602234,-2.97993540763855,-1.109730839729309
1684201099455869200,5.981869140625,0.4405234158039093,-2.8965225219726562,-1.1265732049942017
1684201099465894100,5.99189404296875,0.3872988224029541,-2.7966232299804688,-1.1391724348068237
1684201099475919400,6.00191943359375,0.31438466906547546,-2.745166301727295,-1.1564276218414307
1684201099485944000,6.011944091796875,0.22416262328624725,-2.7430903911590576,-1.1634732484817505
1684201099495968000,6.021968017578125,0.12329832464456558,-2.785383462905884,-1.1557329893112183
1684201099505993200,6.0319931640625,0.029426688328385353,-2.882319688796997,-1.1266440153121948
1684201099516018200,6.04201806640625,-0.07691066712141037,-3.0598554611206055,-1.0979052782058716
1684201099526043100,6.052043212890625,-0.1538137048482895,-3.1833369731903076,-1.0261472463607788
1684201099536067300,6.0620673828125,-0.20807267725467682,-3.248544692993164,-0.9496815204620361
1684201099546092000,6.072092041015625,-0.24723179638385773,-3.3185737133026123,-0.9294277429580688
1684201099556117000,6.082116943359375,-0.2632019817829132,-3.3290436267852783,-0.9881541728973389
1684201099566142200,6.09214208984375,-0.25403910875320435,-3.295579671859741,-1.1097066402435303
1684201099576166100,6.102166259765625,-0.27478593587875366,-3.2636921405792236,-1.247374415397644
1684201099586191000,6.112191162109375,-0.32540035247802734,-3.2212300300598145,-1.3779734373092651
1684201099596216300,6.12221630859375,-0.38009077310562134,-3.1590116024017334,-1.5092651844024658
1684201099606241300,6.1322412109375,-0.4400883615016937,-3.071617841720581,-1.6701290607452393
1684201099616266200,6.142266357421875,-0.5383965373039246,-2.9835097789764404,-1.8628265857696533
1684201099626290200,6.152290283203125,-0.6405966281890869,-2.9754798412323,-2.024242401123047
1684201099636315100,6.162315185546875,-0.6920340061187744,-3.1558401584625244,-2.066897392272949
1684201099646340000,6.172340087890625,-0.6771852970123291,-3.6260762214660645,-1.9689171314239502
1684201099656365000,6.182364990234375,-0.6276419758796692,-4.327216625213623,-1.7667142152786255
1684201099666389200,6.19238916015625,-0.5996971726417542,-5.107151985168457,-1.5521883964538574
1684201099676414200,6.202414306640625,-0.5352199077606201,-5.790647983551025,-1.3453377485275269
1684201099686439000,6.21243896484375,-0.49497076869010925,-6.140369415283203,-1.1689268350601196
1684201099696464100,6.222464111328125,-0.4400680959224701,-6.073853492736816,-1.0534398555755615
1684201099706489000,6.232489013671875,-0.3403324484825134,-5.688787460327148,-1.0394872426986694
1684201099716513300,6.24251318359375,-0.31621620059013367,-5.183834552764893,-1.0372637510299683
1684201099726538200,6.252538330078125,-0.28462979197502136,-4.746118545532227,-1.0624867677688599
1684201099736563200,6.262563232421875,-0.31335383653640747,-4.326507091522217,-1.1583036184310913
1684201099746588200,6.272588134765625,-0.3742928206920624,-4.048980236053467,-1.3112553358078003
1684201099756612000,6.282612060546875,-0.39549025893211365,-3.826784133911133,-1.46819007396698
1684201099766637000,6.292636962890625,-0.29651013016700745,-3.4029414653778076,-1.6220169067382812
1684201099776662000,6.302662109375,-0.185381218791008,-3.1030080318450928,-1.76863431930542
1684201099786687200,6.312687255859375,-0.11091817915439606,-3.084272623062134,-1.8887304067611694
1684201099796711200,6.322711181640625,-0.04624544084072113,-3.4502086639404297,-1.8972320556640625
1684201099806736100,6.332736083984375,0.08585694432258606,-4.0657782554626465,-1.81293785572052
1684201099816761300,6.34276123046875,0.2096819430589676,-4.608053684234619,-1.7303048372268677
1684201099826786000,6.3527861328125,0.32338160276412964,-4.6811909675598145,-1.6848433017730713
1684201099836810000,6.36281005859375,0.3275499939918518,-4.496043682098389,-1.681935429573059
1684201099846835200,6.372835205078125,0.23386505246162415,-4.277560234069824,-1.6441296339035034
1684201099856860200,6.382860107421875,0.21050859987735748,-4.245975971221924,-1.6103018522262573
1684201099866885000,6.392885009765625,0.2859061360359192,-4.242790222167969,-1.5386378765106201
1684201099876910300,6.402910400390625,0.2843252718448639,-4.205279350280762,-1.4228489398956299
1684201099886934000,6.41293408203125,0.2143898755311966,-4.192074775695801,-1.3753145933151245
1684201099896959000,6.422958984375,0.16154371201992035,-4.269333839416504,-1.4744377136230469
1684201099906984200,6.432984130859375,0.10572519898414612,-4.451236724853516,-1.6810542345046997
1684201099917009200,6.443009033203125,0.04244103655219078,-4.7013325691223145,-1.8312541246414185
1684201099927033000,6.453033203125,0.004588195122778416,-4.892168998718262,-1.832406759262085
1684201099937058300,6.463058349609375,-0.014576178044080734,-4.9705071449279785,-1.681860327720642
1684201099947083300,6.473083251953125,-0.03213120996952057,-4.94114351272583,-1.431527853012085
1684201099957108200,6.483108154296875,-0.09488381445407867,-4.803922176361084,-1.1686769723892212
1684201099967133000,6.4931328125,-0.1818288415670395,-4.522806644439697,-0.9831206202507019
1684201099977157000,6.5031572265625,-0.2782038450241089,-4.199015140533447,-0.8966115713119507
1684201099987182000,6.51318212890625,-0.32651838660240173,-3.9074618816375732,-0.8620423078536987
1684201099997207000,6.52320703125,-0.3172156810760498,-3.682145357131958,-0.8732640743255615
1684201100007231700,6.533231689453125,-0.27341362833976746,-3.5187532901763916,-0.924897313117981
1684201100017255400,6.54325537109375,-0.22757047414779663,-3.493917942047119,-1.0178046226501465
1684201100027280600,6.55328076171875,-0.20217056572437286,-3.6325571537017822,-1.1612794399261475
1684201100037305600,6.5633056640625,-0.1984056532382965,-3.916656255722046,-1.3029348850250244
1684201100047330600,6.57333056640625,-0.22238530218601227,-4.146257400512695,-1.3440678119659424
1684201100057354800,6.583354736328125,-0.2633894681930542,-4.304000377655029,-1.3118259906768799
1684201100067379700,6.593379638671875,-0.2805223762989044,-4.273021697998047,-1.2095564603805542
1684201100077404700,6.60340478515625,-0.2606789171695709,-4.039600372314453,-1.0308864116668701
1684201100087430000,6.613429931640625,-0.19985708594322205,-3.708587884902954,-0.8330128192901611
1684201100097453600,6.62345361328125,-0.12335699051618576,-3.434396505355835,-0.6080039143562317
1684201100107478500,6.633478515625,-0.033079300075769424,-3.290341377258301,-0.3415226936340332
1684201100117503700,6.643503662109375,0.029565706849098206,-3.1809499263763428,-0.12921364605426788
1684201100127528700,6.65352880859375,0.16822558641433716,-3.0931317806243896,-0.015779415145516396
1684201100137553700,6.6635537109375,0.49545350670814514,-2.8803861141204834,0.13916249573230743
1684201100147577900,6.673577880859375,1.1789369583129883,-2.546856641769409,0.4527220129966736
1684201100157602600,6.6836025390625,1.902211308479309,-2.311124563217163,0.78130704164505
1684201100167627500,6.69362744140625,2.4498119354248047,-2.3042099475860596,0.8971090912818909
1684201100177652500,6.703652587890625,2.6545660495758057,-1.8325207233428955,0.8217434883117676
1684201100187676700,6.7136767578125,2.3099889755249023,-1.097169041633606,0.5920503735542297
1684201100197701600,6.72370166015625,1.690382957458496,-0.23830491304397583,0.39584362506866455
1684201100207726600,6.7337265625,1.3121600151062012,0.48217126727104187,0.24689306318759918
1684201100217751800,6.743751708984375,1.0088526010513306,0.6453444957733154,0.11741230636835098
1684201100227775500,6.753775390625,0.9009051322937012,0.49486538767814636,0.23754753172397614
1684201100237800700,6.76380078125,0.8937010169029236,0.28437286615371704,0.4009561836719513
1684201100247825700,6.77382568359375,0.7884318828582764,0.3044368326663971,0.46428707242012024
1684201100257850600,6.7838505859375,0.6833938956260681,0.43386247754096985,0.41076794266700745
1684201100267875600,6.79387548828125,0.6178699731826782,0.38603675365448,0.2789442837238312
1684201100277899800,6.803899658203125,0.4437918961048126,-0.03753609582781792,0.18980586528778076
1684201100287924500,6.813924560546875,0.2080630213022232,-0.4455641508102417,0.29356738924980164
1684201100297949400,6.823949462890625,-0.037635963410139084,-0.5678258538246155,0.43891340494155884
1684201100307974700,6.833974609375,-0.18624648451805115,-0.5280014276504517,0.5071023106575012
1684201100317998600,6.84399853515625,-0.2705206274986267,-0.6601101756095886,0.5587289929389954
1684201100328023600,6.8540234375,-0.2993951439857483,-0.8574845194816589,0.6235870718955994
1684201100338048800,6.864048828125,-0.28155702352523804,-0.9925219416618347,0.6510387063026428
1684201100348073700,6.87407373046875,-0.19917960464954376,-0.9731782674789429,0.6067816615104675
1684201100358098700,6.8840986328125,-0.029549013823270798,-0.8537600040435791,0.5460453033447266
1684201100368122600,6.89412255859375,0.1161501333117485,-0.7729507088661194,0.47916752099990845
1684201100378147600,6.904147705078125,0.19851665198802948,-0.675545334815979,0.4187757968902588
1684201100388172500,6.914172607421875,0.2116186022758484,-0.5645037889480591,0.33313536643981934
1684201100398197800,6.92419775390625,0.19830839335918427,-0.37008023262023926,0.2111564576625824
1684201100408221700,6.9342216796875,0.22512666881084442,-0.003994158003479242,0.0700879767537117
1684201100418246700,6.94424658203125,0.23979216814041138,0.4549750089645386,-0.0523039810359478
1684201100428271600,6.954271728515625,0.20283523201942444,0.9020357131958008,-0.1386304348707199
1684201100438296600,6.964296630859375,0.12735672295093536,1.2594984769821167,-0.2107568234205246
1684201100448320500,6.974320556640625,-0.06569157540798187,1.2613105773925781,-0.34257569909095764
1684201100458345700,6.984345703125,-0.27175578474998474,0.9522667527198792,-0.4687919616699219
1684201100468370700,6.99437060546875,-0.39645084738731384,0.3896593153476715,-0.5664465427398682
1684201100478395600,7.004395751953125,-0.4819180965423584,-0.35086244344711304,-0.6401466131210327
1684201100488420600,7.014420654296875,-0.5448179244995117,-0.9642165899276733,-0.6741830110549927
1684201100498444500,7.024444580078125,-0.5506366491317749,-1.1840189695358276,-0.5725898146629333
1684201100508469500,7.034469482421875,-0.4837862551212311,-0.8529588580131531,-0.34523534774780273
1684201100518494700,7.04449462890625,-0.3289639353752136,-0.13315355777740479,-0.2371930480003357
1684201100528519700,7.054519775390625,-0.1399998813867569,0.37914207577705383,-0.4183865785598755
1684201100538543600,7.064543701171875,-0.01552320271730423,0.42133668065071106,-0.690762460231781
1684201100548568800,7.07456884765625,0.04563681036233902,0.08039409667253494,-0.7465541362762451
1684201100558593800,7.08459375,0.060287922620773315,-0.5083485245704651,-0.5302444696426392
1684201100568618500,7.094618408203125,0.09676551818847656,-0.9882574081420898,-0.24685707688331604
1684201100578642700,7.104642578125,0.10102523863315582,-0.8912650942802429,0.01447279192507267
1684201100588667600,7.114667724609375,0.04125512018799782,-0.27306121587753296,0.32526859641075134
1684201100598692600,7.124692626953125,-0.12336019426584244,0.27385592460632324,0.5536593794822693
1684201100608717600,7.134717529296875,-0.23616263270378113,0.4541221261024475,0.6277824640274048
1684201100618742800,7.14474267578125,-0.28797414898872375,0.3603724539279938,0.5225460529327393
1684201100628766500,7.154766357421875,-0.3348444700241089,0.21194379031658173,0.37291011214256287
1684201100638791700,7.164791748046875,-0.3423876166343689,0.12550397217273712,0.224984273314476
1684201100648816600,7.174816650390625,-0.32989922165870667,0.03988584131002426,0.0717887282371521
1684201100658841600,7.184841552734375,-0.3263396620750427,-0.04486739635467529,-0.10776425153017044
1684201100668865800,7.19486572265625,-0.36548706889152527,-0.12014812976121902,-0.2964346706867218
1684201100678890800,7.204890869140625,-0.4036019742488861,-0.28151917457580566,-0.40401598811149597
1684201100688915700,7.214915771484375,-0.3899034857749939,-0.49254557490348816,-0.4346064031124115
1684201100698940700,7.224940673828125,-0.32787978649139404,-0.6829876899719238,-0.40711966156959534
1684201100708965600,7.234965576171875,-0.26734399795532227,-0.7347520589828491,-0.3876889646053314
1684201100718989600,7.244989501953125,-0.21188952028751373,-0.7293578386306763,-0.3678281605243683
1684201100729014500,7.2550146484375,-0.1529494971036911,-0.721851110458374,-0.32962727546691895
1684201100739039700,7.265039794921875,-0.12553200125694275,-0.7152510285377502,-0.2759651243686676
1684201100749064700,7.275064697265625,-0.12824870645999908,-0.6828286051750183,-0.2216673046350479
1684201100759088600,7.285088623046875,-0.13896046578884125,-0.6018144488334656,-0.15751121938228607
1684201100769113600,7.295113525390625,-0.1275826245546341,-0.4864204227924347,-0.10211864113807678
1684201100779138600,7.305138671875,-0.09981730580329895,-0.38866057991981506,-0.051625367254018784
1684201100789163500,7.31516357421875,-0.08024920523166656,-0.346261590719223,-0.00987633503973484
1684201100799187700,7.325187744140625,-0.05440323054790497,-0.2810620665550232,0.011136004701256752
1684201100809212700,7.335212646484375,0.009915309026837349,-0.14919212460517883,0.03971586003899574
1684201100819237600,7.345237548828125,0.1330351084470749,0.011387962847948074,0.06823883950710297
1684201100829262800,7.355262939453125,0.3035418689250946,0.10720665007829666,0.13210588693618774
1684201100839286500,7.36528662109375,0.45667895674705505,0.1891840696334839,0.26705440878868103
1684201100849311500,7.3753115234375,0.6390058994293213,0.3519415259361267,0.44698792695999146
1684201100859336700,7.385336669921875,0.7905730605125427,0.5628132820129395,0.6258977055549622
1684201100869361700,7.395361572265625,0.90285325050354,0.7496940493583679,0.7933501601219177
1684201100879386600,7.40538671875,0.983241856098175,0.8620378971099854,0.8861178755760193
1684201100889410800,7.415410888671875,1.019493579864502,0.8704774379730225,0.8692956566810608
1684201100899435800,7.425435791015625,1.0071144104003906,0.7543417811393738,0.7547411322593689
1684201100909460500,7.43546044921875,0.9442297220230103,0.5035933256149292,0.5635851621627808
1684201100919485700,7.445485595703125,0.90217125415802,0.18106430768966675,0.3569883406162262
1684201100929509600,7.455509521484375,0.8777122497558594,0.11746671050786972,0.23523730039596558
1684201100939534600,7.46553466796875,0.8521498441696167,0.14780651032924652,0.15843571722507477
1684201100949559800,7.475559814453125,0.7727456092834473,0.1103697344660759,0.12999875843524933
1684201100959584800,7.485584716796875,0.6514796018600464,0.030097797513008118,0.11488158255815506
1684201100969609700,7.495609619140625,0.5090029239654541,-0.024858899414539337,0.0634867325425148
1684201100979633700,7.505633544921875,0.37821635603904724,-0.015400949865579605,-0.0169812124222517
1684201100989658600,7.51565869140625,0.26452547311782837,-0.010762331075966358,-0.12160654366016388
1684201100999683600,7.52568359375,0.17949315905570984,0.03314627334475517,-0.23327288031578064
1684201101009709000,7.535708984375,0.07848051935434341,0.09984327852725983,-0.2938576638698578
1684201101019733000,7.54573291015625,0.009186400100588799,0.1353173851966858,-0.30900996923446655
1684201101029758000,7.555758056640625,-0.010261870920658112,0.12572799623012543,-0.30049392580986023
1684201101039783000,7.565782958984375,0.012790718115866184,0.12523557245731354,-0.27199169993400574
1684201101049808100,7.57580810546875,0.05060306936502457,0.11024896055459976,-0.24435323476791382
1684201101059832000,7.58583203125,0.10454859584569931,0.08077628910541534,-0.23456238210201263
1684201101069857000,7.59585693359375,0.1511501967906952,0.05231405794620514,-0.24312126636505127
1684201101079882000,7.605882080078125,0.16068990528583527,0.005899956449866295,-0.3097498118877411
1684201101089907000,7.615906982421875,0.1381973922252655,0.018773537129163742,-0.3951149880886078
1684201101099932000,7.625931884765625,0.07536941021680832,0.024554459378123283,-0.45286989212036133
1684201101109956000,7.6359560546875,0.02272804267704487,0.04951706528663635,-0.4937717914581299
1684201101119981000,7.64598095703125,-0.041145745664834976,0.10398244112730026,-0.5240500569343567
1684201101130006000,7.656006103515625,-0.09279376268386841,0.1650894731283188,-0.5331716537475586
1684201101140031000,7.666031005859375,-0.15182457864284515,0.20730163156986237,-0.5346004366874695
1684201101150055000,7.676054931640625,-0.21667681634426117,0.23832353949546814,-0.5361908674240112
1684201101160080000,7.686079833984375,-0.28578799962997437,0.24492551386356354,-0.5511434078216553
1684201101170105000,7.69610498046875,-0.3500327467918396,0.22499607503414154,-0.5588637590408325
1684201101180130000,7.706130126953125,-0.38058188557624817,0.17801232635974884,-0.5498673319816589
1684201101190154000,7.716154052734375,-0.41303783655166626,0.11618231236934662,-0.5223138332366943
1684201101200179200,7.72617919921875,-0.4261331260204315,0.05385662615299225,-0.5139831900596619
1684201101210204200,7.7362041015625,-0.4374707341194153,0.05904911831021309,-0.5666179060935974
1684201101220228900,7.746228759765625,-0.4642125964164734,0.10927766561508179,-0.6601119041442871
1684201101230253800,7.75625390625,-0.47357627749443054,0.09530545026063919,-0.7637653946876526
1684201101240278000,7.766278076171875,-0.5098814964294434,0.02195826731622219,-0.8821285367012024
1684201101250303000,7.776302978515625,-0.5752237439155579,-0.06624224036931992,-0.9706321358680725
1684201101260328000,7.786327880859375,-0.6463820934295654,-0.17530640959739685,-1.006820797920227
1684201101270353200,7.796353271484375,-0.687729001045227,-0.36530178785324097,-0.928821861743927
1684201101280376800,7.806376953125,-0.6889612674713135,-0.6353362202644348,-0.7266125679016113
1684201101290402000,7.816402099609375,-0.6446486711502075,-0.9477439522743225,-0.43600907921791077
1684201101300427000,7.826427001953125,-0.5925545692443848,-1.1822110414505005,-0.1566147357225418
1684201101310452000,7.836451904296875,-0.45636823773384094,-1.1441230773925781,0.07070841640233994
1684201101320476200,7.84647607421875,-0.23295727372169495,-0.8033838272094727,0.22023211419582367
1684201101330501000,7.856501220703125,-0.08617182075977325,-0.28150081634521484,0.3179878294467926
1684201101340526000,7.866526123046875,-0.02446051687002182,0.18254433572292328,0.3944104313850403
1684201101350551000,7.876551025390625,0.031375057995319366,0.41231676936149597,0.4571872353553772
1684201101360576000,7.886575927734375,0.04932689294219017,0.49161025881767273,0.48052772879600525
1684201101370600000,7.896599853515625,0.028307907283306122,0.5217711329460144,0.46057817339897156
1684201101380625000,7.906625,-0.010376106947660446,0.426550030708313,0.333299845457077
1684201101390650000,7.916650146484375,-0.009526567533612251,0.10029308497905731,0.011527013964951038
1684201101400674000,7.926674072265625,0.009930221363902092,-0.35648804903030396,-0.4333638846874237
1684201101410699000,7.936698974609375,-0.07802120596170425,-0.6023666858673096,-0.727702796459198
1684201101420724000,7.946723876953125,-0.18671680986881256,-0.6649379134178162,-0.7763875126838684
1684201101430749000,7.9567490234375,-0.30121564865112305,-0.6671887040138245,-0.5948077440261841
1684201101440774000,7.96677392578125,-0.4368177056312561,-0.5981470346450806,-0.21974408626556396
1684201101450798000,7.976798095703125,-0.5586623549461365,-0.4349702298641205,0.09094750881195068
1684201101460823000,7.986822998046875,-0.5565038919448853,-0.22706444561481476,0.16567553579807281
1684201101470848000,7.996847900390625,-0.3979603350162506,-0.06077881529927254,-0.025873299688100815
1684201101480873200,8.006873291015625,-0.19250570237636566,0.0010592532344162464,-0.291657030582428
1684201101490897000,8.01689697265625,-0.03218500688672066,-0.04577058553695679,-0.48633986711502075
1684201101500921900,8.026921875,0.050876591354608536,-0.0907396525144577,-0.5616439580917358
1684201101510947000,8.036947021484375,0.05697149783372879,-0.11110837757587433,-0.5333155393600464
1684201101520972000,8.046971923828124,0.035948239266872406,-0.06366176158189774,-0.43557029962539673
1684201101530996000,8.056995849609375,0.038930971175432205,0.029735010117292404,-0.33375993371009827
1684201101541021200,8.067021240234375,0.05002676323056221,0.16020141541957855,-0.23327434062957764
1684201101551046100,8.077046142578125,0.06086663901805878,0.22651201486587524,-0.17420299351215363
1684201101561070800,8.08707080078125,0.09072466939687729,0.21955503523349762,-0.16009728610515594
1684201101571096000,8.097095947265625,0.1175277903676033,0.19345538318157196,-0.18715783953666687
1684201101581120000,8.1071201171875,0.08822876214981079,0.13936658203601837,-0.26314446330070496
1684201101591145000,8.11714501953125,0.07899237424135208,-0.008716145530343056,-0.35844671726226807
1684201101601170200,8.127170166015626,0.11017799377441406,-0.12497537583112717,-0.4585442841053009
1684201101611195100,8.137195068359375,0.16556216776371002,-0.09827986359596252,-0.49441778659820557
1684201101621218800,8.14721875,0.17785051465034485,-0.17430245876312256,-0.515975832939148
1684201101631244000,8.157244140625,0.15956231951713562,-0.22014303505420685,-0.5200516581535339
1684201101641269000,8.16726904296875,0.14873097836971283,-0.24063153564929962,-0.5035349726676941
1684201101651294000,8.1772939453125,0.10120528191328049,-0.2150377631187439,-0.45962339639663696
1684201101661318100,8.187318115234374,0.031796377152204514,-0.17037175595760345,-0.4093594253063202
1684201101671343000,8.197343017578126,-0.04337693750858307,-0.2137853503227234,-0.38271933794021606
1684201101681368000,8.2073681640625,-0.10818016529083252,-0.26886406540870667,-0.3398110270500183
1684201101691393000,8.21739306640625,-0.1641124188899994,-0.30131715536117554,-0.33363354206085205
1684201101701418000,8.22741796875,-0.2238180935382843,-0.3721790909767151,-0.35342642664909363
1684201101711442000,8.23744189453125,-0.2715248763561249,-0.45023322105407715,-0.3825078308582306
1684201101721467100,8.247467041015625,-0.2966448664665222,-0.5251761674880981,-0.39058172702789307
1684201101731492000,8.2574921875,-0.3001871705055237,-0.522236704826355,-0.3940071165561676
1684201101741517000,8.26751708984375,-0.2664598226547241,-0.4821561276912689,-0.377122700214386
1684201101751541200,8.277541259765625,-0.21674606204032898,-0.4445774555206299,-0.351931095123291
1684201101761566000,8.28756591796875,-0.1840701401233673,-0.35864338278770447,-0.3234456479549408
1684201101771591000,8.2975908203125,-0.16150996088981628,-0.2876313626766205,-0.27451834082603455
1684201101781615900,8.307615966796876,-0.14767511188983917,-0.19590440392494202,-0.21512506902217865
1684201101791641000,8.31764111328125,-0.1244100034236908,-0.11260069906711578,-0.18576093018054962
1684201101801665000,8.3276650390625,-0.09083154052495956,-0.03628755360841751,-0.17958799004554749
1684201101811690000,8.33768994140625,-0.06485134363174438,0.05255556106567383,-0.16112010180950165
1684201101821715200,8.347715087890625,-0.04122484102845192,0.14946505427360535,-0.11658885329961777
1684201101831740000,8.357739990234375,-0.022565674036741257,0.2641858160495758,-0.0654027909040451
1684201101841764000,8.36776416015625,-0.008691670373082161,0.3995788097381592,-0.014424831606447697
1684201101851789000,8.3777890625,-0.011700776405632496,0.5175521969795227,0.04184397682547569
1684201101861814000,8.38781396484375,-0.028771638870239258,0.5822579860687256,0.08931561559438705
1684201101871839000,8.3978388671875,-0.06340418756008148,0.6103242635726929,0.10970675200223923
1684201101881864200,8.4078642578125,-0.1106547936797142,0.6104127168655396,0.12155701965093613
1684201101891887900,8.417887939453125,-0.16158533096313477,0.5947508215904236,0.13503959774971008
1684201101901912800,8.427912841796875,-0.20740476250648499,0.5757688879966736,0.13647104799747467
1684201101911938000,8.43793798828125,-0.2475748211145401,0.5901596546173096,0.1339808851480484
1684201101921963000,8.447962890625,-0.27204662561416626,0.47935113310813904,0.10001333057880402
1684201101931987000,8.457987060546875,-0.2878846824169159,0.33625349402427673,0.03938509151339531
1684201101942012200,8.46801220703125,-0.2777915596961975,0.27439039945602417,-0.0710519328713417
1684201101952037000,8.478037109375,-0.26679378747940063,0.2095559984445572,-0.13585999608039856
1684201101962062000,8.48806201171875,-0.2631383538246155,0.09524513781070709,-0.08547324687242508
1684201101972086800,8.498086669921875,-0.26046183705329895,0.07684122771024704,-0.03826071321964264
1684201101982111000,8.508111083984375,-0.25335171818733215,0.20436856150627136,-0.04778391122817993
1684201101992136000,8.518135986328126,-0.23854988813400269,0.3676905632019043,-0.058384496718645096
1684201102002161200,8.5281611328125,-0.22692438960075378,0.5167862772941589,-0.016858626157045364
1684201102012185300,8.538185302734375,-0.23208506405353546,0.6564162969589233,0.024136323481798172
1684201102022209300,8.548209228515624,-0.23200224339962006,0.7752161622047424,0.017461908981204033
1684201102032234500,8.558234375,-0.2217802256345749,0.8547397255897522,-0.016356732696294785
1684201102042259500,8.568259521484375,-0.190838024020195,0.904751718044281,-0.045949775725603104
1684201102052284400,8.578284423828125,-0.16188573837280273,0.9487068057060242,-0.053509581834077835
1684201102062308600,8.58830859375,-0.12754294276237488,0.9813422560691833,-0.040568217635154724
1684201102072333300,8.598333251953125,-0.11056448519229889,1.0273820161819458,-0.04557022452354431
1684201102082358300,8.608358154296875,-0.10761982947587967,1.0567885637283325,-0.061786212027072906
1684201102092383500,8.618383544921874,-0.12600870430469513,1.0720382928848267,-0.060164034366607666
1684201102102408400,8.628408447265626,-0.16150492429733276,1.0739855766296387,-0.07372352480888367
1684201102112432400,8.638432373046875,-0.20266354084014893,1.0615673065185547,-0.09128692001104355
1684201102122457600,8.64845751953125,-0.23835550248622894,1.0184179544448853,-0.11556403338909149
1684201102132482600,8.658482666015624,-0.2531890273094177,0.9854572415351868,-0.12740567326545715
1684201102142507500,8.668507568359376,-0.2673378884792328,0.920132577419281,-0.14110924303531647
1684201102152531500,8.678531494140625,-0.2842734456062317,0.89643794298172,-0.1500941962003708
1684201102162556400,8.688556396484374,-0.312979131937027,0.8328185081481934,-0.16872672736644745
1684201102172581400,8.698581298828126,-0.3662838637828827,0.7108039855957031,-0.1593705117702484
1684201102182606300,8.7086064453125,-0.4192512035369873,0.5282616019248962,-0.1471617966890335
1684201102192631600,8.718631591796875,-0.4676840305328369,0.34683549404144287,-0.1602468192577362
1684201102202655500,8.728655517578124,-0.4975969195365906,0.16914165019989014,-0.20058013498783112
1684201102212680400,8.738680419921875,-0.5050635933876038,-0.011564959771931171,-0.25430282950401306
1684201102222705400,8.748705322265625,-0.4788171052932739,-0.07997704297304153,-0.25702032446861267
1684201102232730400,8.75873046875,-0.43988141417503357,-0.04843062907457352,-0.19432885944843292
1684201102242754600,8.768754638671876,-0.38991251587867737,-0.13857996463775635,-0.17491388320922852
1684201102252779500,8.778779541015625,-0.3337123692035675,-0.3308379054069519,-0.19758836925029755
1684201102262804500,8.788804443359375,-0.2630499303340912,-0.5565506815910339,-0.2049485445022583
1684201102272829400,8.798829345703124,-0.17034955322742462,-0.7113363742828369,-0.20948322117328644
1684201102282853400,8.808853271484375,-0.06720424443483353,-0.6757988929748535,-0.21369659900665283
1684201102292878300,8.81887841796875,0.04729063808917999,-0.5006166696548462,-0.24132201075553894
1684201102302903300,8.8289033203125,0.17205174267292023,-0.2835640013217926,-0.2666401267051697
1684201102312928500,8.838928466796874,0.30438023805618286,-0.05434955283999443,-0.25572672486305237
1684201102322953500,8.848953369140625,0.41284945607185364,0.16992802917957306,-0.1665015071630478
1684201102332977400,8.858977294921875,0.4663342237472534,0.2945255637168884,-0.028055353090167046
1684201102343002400,8.86900244140625,0.4837198853492737,0.35177525877952576,0.14535771310329437
1684201102353027300,8.87902734375,0.47806599736213684,0.4013364911079407,0.3502553105354309
1684201102363052300,8.88905224609375,0.4775211215019226,0.5533667802810669,0.5831394195556641
1684201102373076500,8.899076416015625,0.4896627366542816,0.8502252101898193,0.8340100049972534
1684201102383101400,8.909101318359374,0.5125963091850281,1.1244463920593262,1.0652620792388916
1684201102393126400,8.91912646484375,0.5095205903053284,1.1782251596450806,1.206992506980896
1684201102403151600,8.929151611328125,0.49909695982933044,1.0559672117233276,1.207373857498169
1684201102413175300,8.93917529296875,0.43989118933677673,0.8534308075904846,1.1525812149047852
1684201102423200300,8.9492001953125,0.37413960695266724,0.6086141467094421,1.0597255229949951
1684201102433225500,8.9592255859375,0.3190787434577942,0.28742653131484985,0.9599789381027222
1684201102443250400,8.96925048828125,0.27371153235435486,0.03807983919978142,0.8691126704216003
1684201102453275400,8.979275390625,0.26283037662506104,-0.08207324892282486,0.7887518405914307
1684201102463299600,8.989299560546876,0.2826288640499115,-0.12716110050678253,0.7470278143882751
1684201102473324500,8.999324462890625,0.3448043465614319,-0.09493964165449142,0.7002197504043579
1684201102483349200,9.009349365234375,0.3961833715438843,0.12855203449726105,0.6671142578125
1684201102493374500,9.01937451171875,0.4533718228340149,0.4232913851737976,0.6047887802124023
1684201102503398400,9.0293984375,0.4858948886394501,0.5978487730026245,0.5019487142562866
1684201102513423400,9.03942333984375,0.46660828590393066,0.6017016768455505,0.44190189242362976
1684201102523448600,9.049448486328124,0.3267427682876587,0.432390421628952,0.44377169013023376
1684201102533473500,9.0594736328125,0.184207484126091,0.04828554391860962,0.47250229120254517
1684201102543498500,9.06949853515625,0.09542116522789001,-0.5554778575897217,0.49318549036979675
1684201102553522400,9.0795224609375,0.04062554985284805,-1.0285868644714355,0.5609712600708008
1684201102563547400,9.08954736328125,0.02959287352859974,-1.078535795211792,0.6767079830169678
1684201102573572400,9.099572265625,-0.07410823553800583,-0.6300916075706482,0.7922606468200684
1684201102583597300,9.109597412109375,-0.1304362267255783,-0.06016125902533531,0.8644541501998901
1684201102593621500,9.11962158203125,-0.1010650098323822,0.5001932382583618,0.9298254251480103
1684201102603646500,9.129646484375,-0.06344226002693176,0.8333656191825867,0.9904581308364868
1684201102613671400,9.13967138671875,-0.07661878317594528,0.8385416269302368,0.9972890615463257
1684201102623696400,9.1496962890625,-0.071781687438488,0.7415711283683777,0.9257875084877014
1684201102633720300,9.15972021484375,-0.018248941749334335,0.6761655807495117,0.8209396004676819
1684201102643745500,9.16974560546875,0.08414854109287262,0.6094504594802856,0.6972330808639526
1684201102653770500,9.1797705078125,0.20061922073364258,0.6279993653297424,0.600495457649231
1684201102663795500,9.18979541015625,0.318864643573761,0.688258707523346,0.5211199522018433
1684201102673820400,9.1998203125,0.416745662689209,0.661320686340332,0.45392554998397827
1684201102683844400,9.20984423828125,0.451895147562027,0.48496055603027344,0.39751768112182617
1684201102693869300,9.219869384765625,0.4488319754600525,0.2615351676940918,0.37109777331352234
1684201102703894300,9.229894287109374,0.4403687119483948,0.07181131839752197,0.3662545680999756
1684201102713919500,9.23991943359375,0.43173447251319885,-0.0764981210231781,0.3782879710197449
1684201102723943400,9.249943359375,0.4094238579273224,-0.1692320555448532,0.39136916399002075
1684201102733968400,9.259968505859375,0.39941245317459106,-0.291020929813385,0.3889089822769165
1684201102743993600,9.26999365234375,0.3833274841308594,-0.34743812680244446,0.38783732056617737
1684201102754018600,9.2800185546875,0.36626437306404114,-0.27945396304130554,0.3774593770503998
1684201102764042500,9.29004248046875,0.3211698532104492,-0.21998824179172516,0.3600330054759979
1684201102774067500,9.3000673828125,0.2662368416786194,-0.2038586288690567,0.3631281554698944
1684201102784092400,9.310092529296876,0.21542851626873016,-0.1987011432647705,0.37578269839286804
1684201102794117400,9.320117431640625,0.18180212378501892,-0.21222347021102905,0.3825632929801941
1684201102804142600,9.330142578125,0.1417870670557022,-0.25296318531036377,0.38173025846481323
1684201102814166500,9.34016650390625,0.13661038875579834,-0.31789782643318176,0.3857400715351105
1684201102824191200,9.350191162109375,0.13479411602020264,-0.3563930094242096,0.36282411217689514
1684201102834216400,9.360216552734375,0.1643799990415573,-0.3578014373779297,0.34170103073120117
1684201102844241400,9.370241455078125,0.1998240053653717,-0.37391409277915955,0.31486061215400696
1684201102854265300,9.380265380859376,0.22087706625461578,-0.3259600102901459,0.2904152572154999
1684201102864290600,9.39029052734375,0.24219994246959686,-0.15901364386081696,0.27398380637168884
1684201102874315500,9.4003154296875,0.2615012228488922,0.027781756594777107,0.23494283854961395
1684201102884340500,9.410340576171874,0.3039267063140869,0.21733145415782928,0.16917261481285095
1684201102894364400,9.420364501953125,0.34143197536468506,0.40215200185775757,0.09456898272037506
1684201102904389400,9.430389404296875,0.3400026559829712,0.5217580199241638,0.017476066946983337
1684201102914414300,9.440414306640625,0.3203384280204773,0.48318713903427124,-0.04373537376523018
1684201102924439600,9.450439453125,0.2661753296852112,0.382522314786911,-0.0913337916135788
1684201102934464500,9.460464599609375,0.18346606194972992,0.22090202569961548,-0.15946774184703827
1684201102944488400,9.470488525390625,0.10415206849575043,0.050396066159009933,-0.2408299744129181
1684201102954513700,9.480513671875,0.05650384724140167,-0.07622582465410233,-0.3434671461582184
1684201102964538400,9.490538330078126,0.04541550576686859,-0.1079201027750969,-0.4802902638912201
1684201102974563300,9.500563232421875,0.05722929537296295,-0.07420435547828674,-0.6380599141120911
1684201102984587500,9.51058740234375,0.0562114343047142,0.0037556886672973633,-0.7881770133972168
1684201102994612500,9.520612548828124,0.04035390168428421,0.0561806857585907,-0.9251660108566284
1684201103004637200,9.53063720703125,0.019736243411898613,0.04582205414772034,-1.048783540725708
1684201103014662100,9.540662109375,0.006788225844502449,-0.0669313445687294,-1.1420294046401978
1684201103024687400,9.550687255859375,-0.012443259358406067,-0.22992372512817383,-1.1697696447372437
1684201103034711300,9.560711181640626,-0.03410673886537552,-0.42517340183258057,-1.1443246603012085
1684201103044736500,9.570736572265625,-0.035413820296525955,-0.6700990200042725,-1.097818374633789
1684201103054761500,9.580761474609375,-0.04154255613684654,-0.784234881401062,-1.0337947607040405
1684201103064786200,9.5907861328125,-0.07644274830818176,-0.8252206444740295,-1.0129268169403076
1684201103074810400,9.600810302734375,-0.13589783012866974,-0.8219867944717407,-1.0287691354751587
1684201103084835300,9.61083544921875,-0.24571087956428528,-0.8115261793136597,-1.0742751359939575
1684201103094860300,9.6208603515625,-0.4031856954097748,-0.8349257111549377,-1.1399399042129517
1684201103104885200,9.63088525390625,-0.618916928768158,-0.9089373350143433,-1.2253139019012451
1684201103114909400,9.640909423828125,-0.823272705078125,-1.0051871538162231,-1.2624684572219849
1684201103124934100,9.65093408203125,-0.9383111596107483,-1.2653753757476807,-1.2127197980880737
1684201103134959000,9.660958984375,-0.8974481225013733,-1.6139601469039917,-1.0103005170822144
1684201103144984300,9.670984375,-0.717849612236023,-1.8717964887619019,-0.82794189453125
1684201103155009300,9.68100927734375,-0.5934008955955505,-1.8932406902313232,-0.7364277243614197
1684201103165033200,9.691033203125,-0.5361932516098022,-1.8607240915298462,-0.56193608045578
1684201103175058400,9.701058349609376,-0.36099088191986084,-1.6109110116958618,-0.18578220903873444
1684201103185083400,9.71108349609375,-0.04441718012094498,-0.8326982855796814,0.18466056883335114
1684201103195108400,9.7211083984375,0.20817780494689941,0.23311847448349,0.4090316891670227
1684201103205132300,9.73113232421875,0.30826711654663086,1.1398329734802246,0.5288203954696655
1684201103215157200,9.7411572265625,0.36979228258132935,1.3707053661346436,0.5597443580627441
1684201103225182200,9.75118212890625,0.430677205324173,1.0385572910308838,0.5410274267196655
1684201103235207400,9.76120751953125,0.473726361989975,0.5223133563995361,0.42328721284866333
1684201103245231400,9.7712314453125,0.45732051134109497,0.07950346171855927,0.13584528863430023
1684201103255256300,9.78125634765625,0.40478596091270447,-0.12662507593631744,-0.20089943706989288
1684201103265281300,9.79128125,0.29728052020072937,-0.10960667580366135,-0.46040529012680054
1684201103275306200,9.80130615234375,0.11612537503242493,-0.09697696566581726,-0.49388349056243896
1684201103285331200,9.811331298828126,-0.16698968410491943,-0.2176053822040558,-0.2532607614994049
1684201103295355400,9.82135546875,-0.5229320526123047,-0.2737344205379486,0.11053235083818436
1684201103305380400,9.83138037109375,-0.8143415451049805,-0.13275733590126038,0.3645510673522949
1684201103315405300,9.8414052734375,-0.9849920868873596,0.09341844916343689,0.423677533864975
1684201103325430300,9.85143017578125,-0.9602561593055725,0.2503074109554291,0.394952654838562
1684201103335454200,9.8614541015625,-0.8774528503417969,0.29890257120132446,0.3367922902107239
1684201103345479200,9.871479248046874,-0.7321308255195618,0.2827576994895935,0.27211448550224304
1684201103355504400,9.88150439453125,-0.5334851145744324,0.344796746969223,0.15190114080905914
1684201103365529300,9.891529296875,-0.36003077030181885,0.3976176381111145,0.00423817802220583
1684201103375553300,9.90155322265625,-0.18156862258911133,0.3594529628753662,-0.1689397692680359
1684201103385578500,9.91157861328125,-0.05474356189370155,0.1060478612780571,-0.2611945867538452
1684201103395603500,9.921603515625,0.00866149552166462,-0.32986098527908325,-0.26975002884864807
1684201103405628200,9.931628173828125,0.04373745620250702,-0.6349116563796997,-0.2783363163471222
1684201103415653000,9.941653076171875,0.09458360075950623,-0.8055117726325989,-0.3045358955860138
1684201103425677300,9.95167724609375,0.14438576996326447,-0.879483163356781,-0.3034602403640747
1684201103435702300,9.961702392578125,0.19014953076839447,-0.9181197285652161,-0.2968412935733795
1684201103445727200,9.971727294921875,0.21364474296569824,-0.9068806767463684,-0.28899669647216797
1684201103455752400,9.98175244140625,0.2352224737405777,-0.8518336415290833,-0.3090392053127289
1684201103465776000,9.991776123046876,0.22322013974189758,-0.8326572775840759,-0.3493216335773468
1684201103475801300,10.00180126953125,0.19564923644065857,-0.768428385257721,-0.3640824556350708
1684201103485826300,10.011826416015625,0.18111450970172882,-0.6171496510505676,-0.34517747163772583
1684201103495851300,10.021851318359374,0.16671665012836456,-0.479587197303772,-0.3257128596305847
1684201103505875500,10.03187548828125,0.12772077322006226,-0.297236829996109,-0.3168807625770569
1684201103515900400,10.041900390625,0.07562960684299469,-0.043241243809461594,-0.324811726808548
1684201103525925400,10.05192529296875,-0.009537490084767342,0.10834828019142151,-0.344204843044281
1684201103535950300,10.061950439453126,-0.11183775216341019,0.14587736129760742,-0.33377590775489807
1684201103545975300,10.071975341796875,-0.19477763772010803,0.10530490428209305,-0.31607869267463684
1684201103555999200,10.081999267578125,-0.2335660457611084,0.04276860132813454,-0.30291199684143066
1684201103566024200,10.092024169921874,-0.25059911608695984,0.015554557554423809,-0.28527575731277466
1684201103576049400,10.10204931640625,-0.2566109001636505,-0.002049108734354377,-0.26680120825767517
1684201103586074400,10.112074462890625,-0.2630078196525574,-0.05066165328025818,-0.2637960910797119
1684201103596098300,10.122098388671875,-0.2750897705554962,-0.07454157620668411,-0.24975311756134033
1684201103606123300,10.132123291015626,-0.26992565393447876,-0.07514744251966476,-0.257323682308197
1684201103616148200,10.142148193359375,-0.2571869492530823,-0.0944652184844017,-0.27122989296913147
1684201103626173200,10.152173095703125,-0.2405339479446411,-0.08963530510663986,-0.2743183672428131
1684201103636197400,10.162197265625,-0.2184092104434967,-0.04914764687418938,-0.2645244300365448
1684201103646222300,10.172222412109376,-0.18450716137886047,-0.012106537818908691,-0.262493759393692
1684201103656247300,10.182247314453125,-0.15731708705425262,0.014820480719208717,-0.27037978172302246
1684201103666272500,10.1922724609375,-0.10724646598100662,-0.0004301107837818563,-0.2689951956272125
1684201103676297500,10.20229736328125,-0.09065870195627213,-0.008650035597383976,-0.2941831648349762
1684201103686321200,10.212321044921875,-0.03665564954280853,0.0044915988110005856,-0.27645131945610046
1684201103696346400,10.222346435546875,0.020995650440454483,0.002320133149623871,-0.21220724284648895
1684201103706371300,10.232371337890624,0.08756003528833389,-0.03528716415166855,-0.1438867747783661
1684201103716396300,10.242396240234376,0.14057877659797668,-0.06056763976812363,-0.09076966345310211
1684201103726420500,10.25242041015625,0.19785432517528534,0.008466022089123726,-0.03744864463806152
1684201103736445400,10.262445556640625,0.2318306714296341,0.009237476624548435,-0.014385277405381203
1684201103746470100,10.27247021484375,0.23481926321983337,-0.06433101743459702,-0.023188356310129166
1684201103756495400,10.282495361328126,0.22940026223659515,-0.13618303835391998,-0.08517622202634811
1684201103766519300,10.292519287109375,0.20737512409687042,-0.14207980036735535,-0.18838542699813843
1684201103776544300,10.302544189453124,0.15787895023822784,-0.06588086485862732,-0.2438868135213852
1684201103786569500,10.312569580078126,0.07657875865697861,-0.057251960039138794,-0.20543716847896576
1684201103796594400,10.322594482421875,-0.005102513357996941,-0.11839957535266876,-0.12858621776103973
1684201103806619400,10.332619384765625,-0.08283219486474991,-0.15787294507026672,-0.12669643759727478
1684201103816643300,10.342643310546874,-0.14515072107315063,-0.10900121927261353,-0.18037724494934082
1684201103826668300,10.352668212890626,-0.18014171719551086,-0.04069700092077255,-0.21387901902198792
1684201103836693200,10.362693359375,-0.21041306853294373,-0.006648074835538864,-0.20327283442020416
1684201103846718200,10.37271826171875,-0.24054300785064697,0.0132950060069561,-0.1813584864139557
1684201103856742400,10.382742431640626,-0.2583555281162262,0.07286246865987778,-0.16575342416763306
1684201103866767400,10.392767333984375,-0.2693229615688324,0.15347608923912048,-0.1564214527606964
1684201103876792300,10.402792236328125,-0.2707049250602722,0.29179733991622925,-0.14333921670913696
1684201103886817300,10.4128173828125,-0.27457955479621887,0.44104862213134766,-0.1190011128783226
1684201103896841200,10.42284130859375,-0.2801825702190399,0.5261333584785461,-0.09248710423707962
1684201103906866400,10.432866455078125,-0.28428810834884644,0.5569373369216919,-0.08252368867397308
1684201103916891400,10.442891357421875,-0.2891145348548889,0.5620853900909424,-0.07978697866201401
1684201103926916400,10.452916259765624,-0.28374162316322327,0.5363190174102783,-0.07839201390743256
1684201103936941300,10.46294140625,-0.26413729786872864,0.47220858931541443,-0.09732323884963989
1684201103946965200,10.47296533203125,-0.2344134896993637,0.41287919878959656,-0.11170963943004608
1684201103956990200,10.482990234375,-0.19786851108074188,0.3760206997394562,-0.1141011118888855
1684201103967015200,10.49301513671875,-0.15630881488323212,0.3830759525299072,-0.12337689846754074
1684201103977040400,10.503040283203125,-0.11848261952400208,0.4099842607975006,-0.13871976733207703
1684201103987064300,10.513064208984375,-0.08743362873792648,0.44654810428619385,-0.15751022100448608
1684201103997089300,10.52308935546875,-0.0712442696094513,0.49719998240470886,-0.1817966252565384
1684201104007115000,10.533114990234376,-0.07239662110805511,0.5094420313835144,-0.206684410572052
1684201104017140200,10.54314013671875,-0.08697980642318726,0.526494562625885,-0.22629965841770172
1684201104027164200,10.5531640625,-0.11851482838392258,0.5678734183311462,-0.25161805748939514
1684201104037189000,10.563189208984374,-0.168702632188797,0.6370495557785034,-0.26762858033180237
1684201104047214000,10.573214111328125,-0.2210819572210312,0.7123690843582153,-0.26279014348983765
1684201104057239000,10.583239013671875,-0.28258153796195984,0.7663663625717163,-0.24302101135253906
1684201104067264000,10.593263916015625,-0.3262816369533539,0.8529396057128906,-0.22883754968643188
1684201104077288200,10.6032880859375,-0.36854732036590576,0.907289981842041,-0.24902567267417908
1684201104087313200,10.613313232421875,-0.4161590337753296,0.8369596600532532,-0.28263288736343384
1684201104097338000,10.623338134765625,-0.44863149523735046,0.7139136791229248,-0.2815881073474884
1684201104107363300,10.63336328125,-0.45740607380867004,0.6027626395225525,-0.24788528680801392
1684201104117387000,10.643386962890625,-0.44478639960289,0.5407405495643616,-0.2143755853176117
1684201104127412000,10.653411865234375,-0.38617822527885437,0.48269107937812805,-0.19315072894096375
1684201104137437200,10.663437255859375,-0.29181739687919617,0.4254970848560333,-0.17484280467033386
1684201104147462100,10.673462158203124,-0.18253882229328156,0.3425033986568451,-0.17588330805301666
1684201104157487000,10.683487060546875,-0.08848902583122253,0.23068875074386597,-0.20182080566883087
1684201104167511300,10.69351123046875,-0.003776805242523551,0.1353292167186737,-0.21258822083473206
1684201104177536300,10.703536376953124,0.0731739029288292,0.057812828570604324,-0.20132750272750854
1684201104187561000,10.71356103515625,0.14367283880710602,0.009209074079990387,-0.18249762058258057
1684201104197586200,10.723586181640625,0.18844082951545715,0.03442450612783432,-0.16138990223407745
1684201104207610000,10.733610107421875,0.23673246800899506,0.12152798473834991,-0.11347803473472595
1684201104217635000,10.743635009765624,0.30095329880714417,0.2644740343093872,-0.019284037873148918
1684201104227660300,10.753660400390626,0.37206023931503296,0.3600381016731262,0.1501752883195877
1684201104237685200,10.763685302734375,0.45336228609085083,0.386162132024765,0.3519234359264374
1684201104247709000,10.773708984375,0.5529295802116394,0.36173373460769653,0.5474867820739746
1684201104257734100,10.783734130859376,0.6290352940559387,0.2818783223628998,0.7065474987030029
1684201104267759000,10.793759033203125,0.6963014006614685,0.23426367342472076,0.8380914330482483
1684201104277784000,10.8037841796875,0.7274630665779114,0.22405558824539185,0.9335906505584717
1684201104287809000,10.81380908203125,0.7550257444381714,0.24168969690799713,0.9955938458442688
1684201104297833200,10.823833251953126,0.7866283655166626,0.23911650478839874,1.0332080125808716
1684201104307858200,10.833858154296875,0.8361754417419434,0.20221921801567078,1.0635536909103394
1684201104317883100,10.843883056640625,0.8366220593452454,0.12068761140108109,1.09995698928833
1684201104327908000,10.853908203125,0.784572184085846,-0.08929358422756195,1.1754176616668701
1684201104337932000,10.86393212890625,0.7364994287490845,-0.35959598422050476,1.2862271070480347
1684201104347957200,10.873957275390625,0.6612869501113892,-0.5093410015106201,1.4845439195632935
1684201104357982200,10.883982177734374,0.5189104080200195,-0.5097994804382324,1.69588303565979
1684201104368007200,10.894007080078126,0.39833199977874756,-0.3796396553516388,1.885063648223877
1684201104378032000,10.9040322265625,0.33510324358940125,-0.03203310817480087,1.989907145500183
1684201104388056000,10.91405615234375,0.39285707473754883,0.2916853129863739,1.940590500831604
1684201104398081000,10.9240810546875,0.4872898757457733,0.5987655520439148,1.8442093133926392
1684201104408106000,10.93410595703125,0.5695237517356873,0.881926953792572,1.7318451404571533
1684201104418131200,10.944131103515625,0.7060576677322388,1.1240957975387573,1.5866823196411133
1684201104428155100,10.954155029296874,0.9004396200180054,1.331932544708252,1.4386950731277466
1684201104438180000,10.96418017578125,1.0450310707092285,1.4795955419540405,1.283220887184143
1684201104448205300,10.974205322265625,1.1159406900405884,1.6336345672607422,1.0662620067596436
1684201104458230300,10.984230224609375,1.1532180309295654,1.6341750621795654,0.8466739654541016
1684201104468254200,10.994254150390624,1.1204984188079834,1.1894629001617432,0.7138538956642151
1684201104478279200,11.004279052734375,1.0119959115982056,0.3224005699157715,0.6469036936759949
1684201104488304000,11.01430419921875,0.9259005188941956,-0.8190369009971619,0.5186642408370972
1684201104498329000,11.0243291015625,0.87310791015625,-1.735011339187622,0.3743700087070465
1684201104508353300,11.034353271484376,0.8530300259590149,-2.001270294189453,0.3120829463005066
1684201104518378200,11.044378173828125,0.8760544061660767,-1.7371646165847778,0.29799503087997437
1684201104528403000,11.05440283203125,0.9288981556892395,-1.1193207502365112,0.35354748368263245
1684201104538428200,11.06442822265625,0.9623517394065857,-0.43863925337791443,0.41422149538993835
1684201104548453000,11.074453125,0.8943926692008972,-0.17029167711734772,0.40220558643341064
1684201104558477000,11.08447705078125,0.7055169939994812,-0.3756904900074005,0.31269049644470215
1684201104568502300,11.094502197265625,0.6112062335014343,-0.7068995237350464,0.16916689276695251
1684201104578527200,11.10452734375,0.585383415222168,-0.89584881067276,0.0749625563621521
1684201104588552200,11.11455224609375,0.5979679226875305,-0.9194856882095337,0.0230314489454031
1684201104598576000,11.124576171875,0.6004071235656738,-0.8253988027572632,-0.004867322277277708
1684201104608601000,11.13460107421875,0.546013355255127,-0.706831157207489,-0.040417060256004333
1684201104618626000,11.1446259765625,0.48366209864616394,-0.6131369471549988,-0.09160444140434265
1684201104628651300,11.1546513671875,0.42938661575317383,-0.5397087931632996,-0.16243654489517212
1684201104638676200,11.16467626953125,0.3860045373439789,-0.47634637355804443,-0.23870328068733215
1684201104648700200,11.1747001953125,0.33011889457702637,-0.41598474979400635,-0.31922394037246704
1684201104658725400,11.184725341796875,0.24471770226955414,-0.41044795513153076,-0.41709357500076294
1684201104668750000,11.19475,0.16358716785907745,-0.3072661757469177,-0.4642821252346039
1684201104678775000,11.204775146484375,0.07927707582712173,-0.200929194688797,-0.5196972489356995
1684201104688799200,11.21479931640625,-0.010555874556303024,-0.0982092097401619,-0.5659385323524475
1684201104698824200,11.22482421875,-0.10664858669042587,-0.002410500543192029,-0.6032452583312988
1684201104708849200,11.23484912109375,-0.22224308550357819,0.07830644398927689,-0.6365121006965637
1684201104718874000,11.2448740234375,-0.35793301463127136,0.10416972637176514,-0.6446080803871155
1684201104728898000,11.25489794921875,-0.48616769909858704,0.10053424537181854,-0.6297987699508667
1684201104738923000,11.264923095703125,-0.608376681804657,0.04288569837808609,-0.5875581502914429
1684201104748948200,11.2749482421875,-0.7354323267936707,-0.05773571878671646,-0.5261544585227966
1684201104758973200,11.28497314453125,-0.8508455157279968,-0.19112823903560638,-0.41165199875831604
1684201104768998100,11.294998046875,-0.9409154653549194,-0.30823248624801636,-0.25487491488456726
1684201104779022300,11.305022216796875,-0.9925094246864319,-0.37822502851486206,-0.07892493903636932
1684201104789047300,11.31504736328125,-1.0268155336380005,-0.3614758551120758,0.07208268344402313
1684201104799072000,11.325072021484376,-1.008015751838684,-0.2610481381416321,0.1767663061618805
1684201104809097000,11.335096923828125,-0.9650282859802246,-0.08564755320549011,0.2139509618282318
1684201104819121200,11.34512109375,-0.8617879152297974,0.12685106694698334,0.20249789953231812
1684201104829146000,11.35514599609375,-0.7074249386787415,0.45261186361312866,0.13183651864528656
1684201104839171000,11.365171142578125,-0.5251070857048035,0.8123936057090759,-0.07243753224611282
1684201104849196300,11.3751962890625,-0.3766949772834778,1.144758701324463,-0.36154815554618835
1684201104859220000,11.385219970703124,-0.2686140537261963,1.3836925029754639,-0.585858941078186
1684201104869245000,11.395244873046876,-0.19729380309581757,1.4052493572235107,-0.7838194370269775
1684201104879270100,11.405270263671875,-0.1947249174118042,1.1482675075531006,-0.8450881242752075
1684201104889295000,11.415295166015625,-0.12241075932979584,0.5561367273330688,-0.8360440731048584
1684201104899320000,11.425320068359374,-0.04788194224238396,0.04282711446285248,-0.8103681206703186
1684201104909344300,11.43534423828125,-0.016342926770448685,-0.13292846083641052,-0.7401445508003235
1684201104919369200,11.445369140625,-0.017863856628537178,-0.08945441246032715,-0.6150352954864502
1684201104929394200,11.455394287109375,-0.08450546115636826,0.05210857465863228,-0.47274017333984375
1684201104939419100,11.465419189453126,-0.17186620831489563,0.20040000975131989,-0.34671610593795776
1684201104949443000,11.475443115234375,-0.31368887424468994,0.31019312143325806,-0.27819058299064636
1684201104959468000,11.485468017578125,-0.4503942131996155,0.34269386529922485,-0.26607000827789307
1684201104969493200,11.4954931640625,-0.5207834243774414,0.23810327053070068,-0.29227206110954285
1684201104979518200,11.505518310546876,-0.6230102181434631,0.14717218279838562,-0.2985808253288269
1684201104989543200,11.515543212890625,-0.8441372513771057,0.009321633726358414,-0.3647609055042267
1684201104999567000,11.525567138671875,-0.999224066734314,-0.4096672236919403,-0.41305893659591675
1684201105009591600,11.535591552734376,-0.9947688579559326,-1.3803311586380005,-0.31261569261550903
1684201105019616500,11.545616455078125,-0.6307573318481445,-3.0696775913238525,-0.0975201353430748
1684201105029641700,11.555641845703125,-0.03512246161699295,-3.686060667037964,0.4705726206302643
1684201105039665400,11.56566552734375,0.815879762172699,-1.0905474424362183,1.4431662559509277
1684201105049690400,11.5756904296875,1.6053823232650757,2.003218650817871,1.2317368984222412
1684201105059715600,11.585715576171875,1.7002134323120117,2.800328254699707,1.0956759452819824
1684201105069740500,11.595740478515625,1.1943892240524292,2.4517574310302734,0.8509136438369751
1684201105079764500,11.605764404296876,0.8768786787986755,1.7683628797531128,0.09574918448925018
1684201105089789700,11.615789794921875,0.6741897463798523,1.6738176345825195,-0.48914623260498047
1684201105099814700,11.625814697265625,0.5145449638366699,1.865543007850647,-0.4585317373275757
1684201105109839600,11.635839599609374,0.3280240297317505,0.9285260438919067,-0.2988451421260834
1684201105119864600,11.645864501953126,-0.013850729912519455,-0.35182878375053406,-0.059463273733854294
1684201105129888500,11.655888427734375,-0.2730412781238556,-1.0319691896438599,0.09754578769207001
1684201105139913500,11.66591357421875,-0.5528974533081055,-1.1267567873001099,-0.02763996832072735
1684201105149938700,11.675938720703124,-0.510278582572937,-0.9979138970375061,-0.3215067386627197
1684201105159963600,11.685963623046876,-0.338650107383728,-0.8660548329353333,-0.4335707426071167
1684201105169987600,11.695987548828125,-0.24374304711818695,-0.6631515026092529,-0.29954981803894043
1684201105180012500,11.706012451171874,-0.20135247707366943,-0.3691205382347107,-0.1683042347431183
1684201105190037500,11.71603759765625,-0.19386285543441772,0.032259389758110046,-0.1463286280632019
1684201105200062500,11.7260625,-0.20202544331550598,0.24817302823066711,-0.19080205261707306
1684201105210086700,11.736086669921875,-0.2728561758995056,0.14438724517822266,-0.25693604350090027
1684201105220111600,11.746111572265624,-0.3744712173938751,-0.04745367169380188,-0.27454477548599243
1684201105230136600,11.756136474609375,-0.4298814833164215,-0.1676514446735382,-0.27285924553871155
1684201105240161500,11.76616162109375,-0.4159204065799713,-0.20676802098751068,-0.2670094966888428
1684201105250186800,11.776186767578125,-0.3394165635108948,-0.19191797077655792,-0.28897178173065186
1684201105260210400,11.78621044921875,-0.26193270087242126,-0.17024049162864685,-0.33152100443840027
1684201105270235600,11.796235595703125,-0.18215319514274597,-0.20175181329250336,-0.3428463637828827
1684201105280260600,11.806260498046875,-0.14745141565799713,-0.21994127333164215,-0.3184549808502197
1684201105290285600,11.81628564453125,-0.07138993591070175,-0.22280442714691162,-0.32820695638656616
1684201105300309800,11.826309814453126,0.06749258935451508,-0.2884539067745209,-0.3556627929210663
1684201105310334500,11.83633447265625,0.1545286923646927,-0.37098684906959534,-0.40626978874206543
1684201105320359400,11.846359375,0.1879521608352661,-0.37952739000320435,-0.49687686562538147
1684201105330384400,11.85638427734375,0.20468373596668243,-0.3087219297885895,-0.5650777816772461
1684201105340409600,11.86640966796875,0.1710709035396576,-0.18005108833312988,-0.5622281432151794
1684201105350433500,11.87643359375,0.13232643902301788,-0.08736402541399002,-0.5072852969169617
1684201105360458500,11.88645849609375,0.07328230142593384,0.05951869487762451,-0.4270065724849701
1684201105370483700,11.896483642578126,0.04074912518262863,0.26330164074897766,-0.34421637654304504
1684201105380508700,11.9065087890625,0.06734505295753479,0.37237516045570374,-0.31781014800071716
1684201105390532600,11.91653271484375,0.12987446784973145,0.2500971853733063,-0.3261234760284424
1684201105400557600,11.9265576171875,0.15850450098514557,0.11660239100456238,-0.3376108407974243
1684201105410582500,11.93658251953125,-0.0009346797596663237,0.24942807853221893,-0.2486322522163391
1684201105420607500,11.946607421875,-0.15965373814105988,0.545323371887207,-0.07734820991754532
1684201105430631700,11.956631591796874,-0.04006423428654671,0.9131091237068176,0.010335038416087627
1684201105440656600,11.96665673828125,-0.03472220525145531,0.8195290565490723,-0.1062818169593811
1684201105450681300,11.976681396484375,-0.19986562430858612,0.1674678772687912,-0.3167452812194824
1684201105460706600,11.98670654296875,-0.21025380492210388,-0.5503620505332947,-0.3981640040874481
1684201105470730500,11.99673046875,-0.27419549226760864,-0.6408493518829346,-0.4121732711791992
1684201105480755500,12.00675537109375,-0.18836714327335358,-0.3596533238887787,-0.25029534101486206
1684201105490780700,12.01678076171875,-0.16393929719924927,-0.20727337896823883,-0.1349961906671524
1684201105500805600,12.0268056640625,-0.17067736387252808,-0.18152520060539246,-0.09350321441888809
1684201105510829600,12.03682958984375,-0.15180353820323944,-0.2085898518562317,-0.03023555688560009
1684201105520854500,12.0468544921875,-0.09913899749517441,-0.14027540385723114,0.039492569863796234
1684201105530879500,12.05687939453125,-0.08441171050071716,-0.053312014788389206,0.10611900687217712
1684201105540904400,12.066904541015624,-0.11487003415822983,-0.0002965315361507237,0.1292567253112793
