time,seconds_elapsed,z,y,x
1684213742070701600,0.02870166015625,-0.6511956453323364,0.4060996472835541,-0.4726177155971527
1684213742080726500,0.0387265625,-0.9237267374992371,0.599445641040802,-0.5430964231491089
1684213742090750500,0.04875048828125,-1.1355355978012085,0.6037073731422424,-0.4565839171409607
1684213742100774400,0.0587744140625,-1.2469782829284668,0.5265867710113525,-0.40064582228660583
1684213742110799600,0.068799560546875,-1.3253488540649414,0.4198491871356964,-0.38726237416267395
1684213742120823600,0.078823486328125,-1.378090739250183,0.22923822700977325,-0.35474249720573425
1684213742130848800,0.088848876953125,-1.4097800254821777,-0.027620954439044,-0.3802471458911896
1684213742140872400,0.09887255859375,-1.3224835395812988,-0.2304728627204895,-0.4050494134426117
1684213742150896600,0.108896728515625,-1.1677024364471436,-0.33560124039649963,-0.46611288189888
1684213742160921600,0.118921630859375,-0.8617364168167114,-0.32251685857772827,-0.5044586658477783
1684213742170945500,0.128945556640625,-0.41305625438690186,-0.23239266872406006,-0.43043774366378784
1684213742180969500,0.138969482421875,-0.1408606767654419,-0.2325146347284317,-0.402286559343338
1684213742190994400,0.148994384765625,-0.0243977177888155,-0.2745785415172577,-0.42016443610191345
1684213742201018600,0.1590185546875,-0.028879018500447273,-0.33204448223114014,-0.4301965832710266
1684213742211043000,0.16904296875,-0.03844694048166275,-0.34034621715545654,-0.4386765658855438
1684213742221067300,0.1790673828125,0.03139472380280495,-0.2942087948322296,-0.47184625267982483
1684213742231091200,0.18909130859375,0.09208019822835922,-0.23813383281230927,-0.497172474861145
1684213742241116200,0.1991162109375,0.09174463897943497,-0.15629249811172485,-0.5125343799591064
1684213742251140000,0.20914013671875,0.04788966476917267,-0.10030756145715714,-0.5223696231842041
1684213742261164300,0.219164306640625,-0.012499110773205757,-0.10026175528764725,-0.49145591259002686
1684213742271189200,0.229189208984375,-0.06449125707149506,-0.07452987879514694,-0.43434375524520874
1684213742281213000,0.239212890625,-0.11874277889728546,-0.02643931657075882,-0.3201897442340851
1684213742291238100,0.249238037109375,-0.1253487467765808,-0.034114938229322433,-0.2051159292459488
1684213742301262000,0.259261962890625,-0.06714269518852234,-0.031481873244047165,-0.16373653709888458
1684213742311286300,0.269286376953125,0.0366414338350296,0.007802967447787523,-0.19190789759159088
1684213742321311200,0.279311279296875,0.1296243667602539,-0.05732649937272072,-0.2319093644618988
1684213742331335200,0.289335205078125,0.17567221820354462,-0.1854001134634018,-0.21064750850200653
1684213742341359000,0.299359130859375,0.14734549820423126,-0.23365765810012817,-0.20767836272716522
1684213742351384000,0.309384033203125,-0.0448053702712059,-0.2152247279882431,-0.27827417850494385
1684213742361408300,0.319408203125,-0.2082909792661667,-0.20077893137931824,-0.38416439294815063
1684213742371433200,0.32943310546875,-0.2706553637981415,-0.2350093275308609,-0.4335201382637024
1684213742381457200,0.33945703125,-0.3067918121814728,-0.2814692556858063,-0.403437077999115
1684213742391481000,0.349481201171875,-0.31629854440689087,-0.2784682810306549,-0.34681424498558044
1684213742401506300,0.35950634765625,-0.292936772108078,-0.26714399456977844,-0.31861135363578796
1684213742411530200,0.3695302734375,-0.2307358831167221,-0.2497100830078125,-0.30995047092437744
1684213742421555000,0.379554931640625,-0.11552407592535019,-0.21048465371131897,-0.3108823001384735
1684213742431579100,0.3895791015625,0.04648996889591217,-0.17883558571338654,-0.2871015965938568
1684213742441603000,0.39960302734375,0.04956112802028656,-0.1718066930770874,-0.22782309353351593
1684213742451628300,0.409628173828125,0.03840699419379234,-0.18609978258609772,-0.1619730293750763
1684213742461652000,0.41965185546875,0.04725108668208122,-0.1847386360168457,-0.1366809904575348
1684213742471676200,0.42967626953125,0.055021725594997406,-0.1568903625011444,-0.13826800882816315
1684213742481701000,0.439701171875,0.0961766168475151,-0.10402101278305054,-0.13901714980602264
1684213742491725300,0.449725341796875,0.10387902706861496,-0.05627363175153732,-0.09510035067796707
1684213742501750300,0.459750244140625,0.12663467228412628,-0.020782748237252235,-0.07141126692295074
1684213742511774000,0.46977392578125,0.18284481763839722,0.004301333334296942,-0.12344871461391449
1684213742521798100,0.479798095703125,0.1506301611661911,-0.03683305159211159,-0.12912817299365997
1684213742531823000,0.489822998046875,0.09579797089099884,-0.026978252455592155,-0.08547370135784149
1684213742541847300,0.499847412109375,-0.011919176205992699,0.014635770581662655,-0.07418962568044662
1684213742551872300,0.509872314453125,-0.14809533953666687,0.11866288632154465,-0.09246422350406647
1684213742561896200,0.519896240234375,-0.2928756773471832,0.14995050430297852,-0.12021009624004364
1684213742571920100,0.529920166015625,-0.4211273789405823,0.12997467815876007,-0.1440829336643219
1684213742581945000,0.539945068359375,-0.5669612884521484,0.10132837295532227,-0.17438384890556335
1684213742591969300,0.54996923828125,-0.7501140832901001,0.09017105400562286,-0.19058705866336823
1684213742601993000,0.559992919921875,-0.9226357936859131,0.12191779911518097,-0.1763407438993454
1684213742612018200,0.57001806640625,-1.043912649154663,0.12850214540958405,-0.19649823009967804
1684213742622042000,0.5800419921875,-1.1386890411376953,0.02258930169045925,-0.25730645656585693
1684213742632067300,0.5900673828125,-1.3917853832244873,-0.007163317874073982,-0.29785165190696716
1684213742642091000,0.600091064453125,-1.5600212812423706,0.1493232250213623,-0.20901793241500854
1684213742652115200,0.610115234375,-1.5295101404190063,0.1358465701341629,-0.24131739139556885
1684213742662140200,0.62014013671875,-1.4733043909072876,0.09701340645551682,-0.3335016369819641
1684213742672164000,0.6301640625,-1.5339375734329224,0.11003881692886353,-0.3965328335762024
1684213742682188000,0.64018798828125,-1.685631513595581,0.11222287267446518,-0.43329671025276184
1684213742692213000,0.650212890625,-1.8380944728851318,0.010040022432804108,-0.4222361743450165
1684213742702237200,0.6602373046875,-1.9368791580200195,-0.009912911802530289,-0.4288701117038727
1684213742712262100,0.67026220703125,-2.004283905029297,0.058716580271720886,-0.4453926980495453
1684213742722286300,0.680286376953125,-2.044107675552368,0.078449547290802,-0.4165098965167999
1684213742732310000,0.69031005859375,-1.9892749786376953,0.07487920671701431,-0.42120233178138733
1684213742742335000,0.7003349609375,-1.9231699705123901,0.1532863974571228,-0.3626042604446411
1684213742752359200,0.710359130859375,-1.107792854309082,0.3005155324935913,-0.10088992863893509
1684213742762384100,0.720384033203125,-0.29483574628829956,0.44930899143218994,-0.035705599933862686
1684213742772408300,0.730408203125,-0.7562951445579529,0.5829355120658875,-0.5055360198020935
1684213742782432000,0.740431884765625,-0.43303877115249634,0.28937795758247375,-0.4734385311603546
1684213742792457200,0.750457275390625,-0.21139419078826904,-0.07826070487499237,-0.27365583181381226
1684213742802481200,0.760481201171875,-0.029831314459443092,-0.17608606815338135,-0.10407236218452454
1684213742812505300,0.77050537109375,0.2516945004463196,-0.20447959005832672,-0.1053486317396164
1684213742822530300,0.7805302734375,0.24695834517478943,-0.228367879986763,-0.09716766327619553
1684213742832554000,0.790553955078125,0.23021940886974335,-0.20112858712673187,0.00750315934419632
1684213742842579200,0.8005791015625,0.27694404125213623,-0.1916527897119522,0.08560515195131302
1684213742852603100,0.81060302734375,0.2735019326210022,-0.13194604218006134,0.14884884655475616
1684213742862627300,0.82062744140625,0.2108830213546753,0.0015022963052615523,0.16538786888122559
1684213742872652000,0.830652099609375,0.1221921518445015,0.17857670783996582,0.10603312402963638
1684213742882676200,0.84067626953125,0.014195102266967297,0.3717038035392761,0.10020346194505692
1684213742892700200,0.8507001953125,-0.045935966074466705,0.5328556299209595,0.15450583398342133
1684213742902725000,0.86072509765625,-0.047073133289813995,0.6198989152908325,0.16360771656036377
1684213742912749000,0.8707490234375,-0.05280400067567825,0.6231164336204529,0.12182491272687912
1684213742922774000,0.88077392578125,-0.0726725161075592,0.5569440722465515,0.0816095769405365
1684213742932798200,0.890798095703125,-0.10130971670150757,0.46689704060554504,0.03228277340531349
1684213742942822100,0.900822265625,-0.09910515695810318,0.3737383186817169,-0.002050169510766864
1684213742952847400,0.910847412109375,-0.09177855402231216,0.31903547048568726,-0.025736648589372635
1684213742962871000,0.92087109375,-0.08643945306539536,0.32782843708992004,-0.058221086859703064
1684213742972896000,0.93089599609375,-0.0469597652554512,0.39344123005867004,-0.08444631844758987
1684213742982920200,0.940920166015625,-0.035360902547836304,0.36272406578063965,-0.1070174127817154
1684213742992944000,0.950944091796875,-0.02921297773718834,0.4170266091823578,-0.08796962350606918
1684213743002969300,0.96096923828125,-0.036058634519577026,0.49035248160362244,-0.051145829260349274
1684213743012993000,0.970992919921875,-0.02245287597179413,0.480374813079834,-0.048898614943027496
1684213743023017200,0.981017333984375,-0.03565549850463867,0.46032652258872986,-0.014063403941690922
1684213743033042200,0.991042236328125,-0.047172486782073975,0.46296560764312744,0.01633112132549286
1684213743043066400,1.00106640625,-0.058850981295108795,0.4822234511375427,0.03981088101863861
1684213743053091000,1.011091064453125,-0.06494175642728806,0.5096250176429749,0.051566530019044876
1684213743063115000,1.021114990234375,-0.06408661603927612,0.4934745132923126,0.05562811717391014
1684213743073139200,1.03113916015625,-0.06908877193927765,0.454774409532547,0.05025834962725639
1684213743083164200,1.0411640625,-0.07639382034540176,0.42146438360214233,0.036258913576602936
1684213743093188000,1.05118798828125,-0.08646902441978455,0.42306506633758545,0.03444487601518631
1684213743103213000,1.061213134765625,-0.09802048653364182,0.4615064561367035,0.04567942023277283
1684213743113237200,1.0712373046875,-0.09941859543323517,0.5073934197425842,0.055436503142118454
1684213743123261200,1.08126123046875,-0.09350504726171494,0.5425082445144653,0.07257048040628433
1684213743133286100,1.0912861328125,-0.08022238314151764,0.5574195384979248,0.08828257769346237
1684213743143310000,1.10131005859375,-0.07156231254339218,0.5746086239814758,0.08486947417259216
1684213743153334000,1.111333984375,-0.06646459549665451,0.6482679843902588,0.060869790613651276
1684213743163359200,1.121359130859375,-0.05732382461428642,0.7189701199531555,0.027976019307971
1684213743173383200,1.131383056640625,-0.03911552578210831,0.7532420754432678,0.02340576983988285
1684213743183408400,1.141408447265625,-0.028331855311989784,0.7219065427780151,0.022596966475248337
1684213743193432000,1.15143212890625,-0.04385873302817345,0.6467759609222412,0.004859496373683214
1684213743203456300,1.161456298828125,-0.05345064029097557,0.6135612726211548,-0.03199279308319092
1684213743213481000,1.17148095703125,-0.05761411041021347,0.5792026519775391,-0.0595032274723053
1684213743223505000,1.1815048828125,-0.05978032574057579,0.5441128015518188,-0.07027597725391388
1684213743233529000,1.191529052734375,-0.05539509654045105,0.5095424652099609,-0.07256501168012619
1684213743243554000,1.201553955078125,-0.040454763919115067,0.5002583861351013,-0.07679037749767303
1684213743253578000,1.211577880859375,-0.018212592229247093,0.5129252672195435,-0.09417422115802765
1684213743263603000,1.22160302734375,0.009295731782913208,0.5410780906677246,-0.12493399530649185
1684213743273627100,1.231627197265625,0.030668284744024277,0.5810768604278564,-0.1477501094341278
1684213743283651000,1.241651123046875,0.048465922474861145,0.6477823853492737,-0.13774888217449188
1684213743293676000,1.251676025390625,0.06858900189399719,0.7166582942008972,-0.11541465669870377
1684213743303700000,1.261699951171875,0.04979667067527771,0.7672637104988098,-0.0784558430314064
1684213743313724200,1.27172412109375,0.013156202621757984,0.7945890426635742,-0.03800075128674507
1684213743323749000,1.2817490234375,-0.006582081783562899,0.7488338351249695,0.0036857095547020435
1684213743333773000,1.29177294921875,-0.03731544315814972,0.66647869348526,0.05737227946519852
1684213743343798000,1.301798095703125,-0.050533510744571686,0.6025719046592712,0.1723231077194214
1684213743353822000,1.311822021484375,-0.01968669891357422,0.5359076857566833,0.29685553908348083
1684213743363846100,1.32184619140625,0.10569226741790771,0.41438496112823486,0.4103243052959442
1684213743373871000,1.33187109375,0.2976342439651489,0.25533080101013184,0.4738917052745819
1684213743383895000,1.34189501953125,0.4910769462585449,0.0818447545170784,0.48899024724960327
1684213743393919000,1.3519189453125,0.6150432229042053,-0.03514678031206131,0.46664100885391235
1684213743403944000,1.36194384765625,0.626053512096405,-0.09931963682174683,0.3929300308227539
1684213743413968100,1.371968017578125,0.4652824103832245,-0.14077447354793549,0.387909859418869
1684213743423993000,1.3819931640625,0.34914782643318176,-0.10793078690767288,0.37749531865119934
1684213743434017000,1.39201708984375,0.363678514957428,-0.051390983164310455,0.3148707449436188
1684213743444041000,1.402041015625,0.3324612081050873,-0.10033296048641205,0.2829144299030304
1684213743454066000,1.41206591796875,0.32048267126083374,-0.1528521031141281,0.28450024127960205
1684213743464090000,1.422090087890625,0.34174269437789917,-0.133600115776062,0.3192448914051056
1684213743474115000,1.432114990234375,0.3635997772216797,-0.06647976487874985,0.4097903072834015
1684213743484139000,1.442138916015625,0.3767414093017578,0.00797289703041315,0.5588221549987793
1684213743494163000,1.452162841796875,0.3749403953552246,0.03828464075922966,0.761681854724884
1684213743504188200,1.462188232421875,0.37675559520721436,-0.016160758212208748,0.9647958278656006
1684213743514212000,1.472212158203125,0.3872629702091217,-0.042298413813114166,1.1505054235458374
1684213743524236000,1.482236083984375,0.4219343960285187,-0.005107901059091091,1.2869466543197632
1684213743534261000,1.492260986328125,0.46973916888237,0.1370859146118164,1.4208734035491943
1684213743544285200,1.50228515625,0.5292991995811462,0.20357544720172882,1.5265271663665771
1684213743554310100,1.51231005859375,0.5921934843063354,0.15901543200016022,1.6178394556045532
1684213743564333800,1.522333740234375,0.6299206018447876,0.19929467141628265,1.7750234603881836
1684213743574358000,1.53235791015625,0.6494753956794739,0.2615151107311249,1.9085971117019653
1684213743584383000,1.542383056640625,0.6732712984085083,0.2274167835712433,2.0054821968078613
1684213743594407200,1.5524072265625,0.710477888584137,0.36042776703834534,2.1594624519348145
1684213743604430800,1.562430908203125,0.7662444710731506,0.2812346816062927,2.2196168899536133
1684213743614456000,1.5724560546875,0.7810688018798828,0.23380917310714722,2.243851900100708
1684213743624480000,1.58247998046875,0.7668834328651428,0.30278798937797546,2.2931108474731445
1684213743634505000,1.5925048828125,0.7539528608322144,0.3780127465724945,2.280642032623291
1684213743644529200,1.602529052734375,0.7862639427185059,0.28599226474761963,2.162877321243286
1684213743654552800,1.612552734375,0.8536779880523682,0.05418749153614044,2.001899003982544
1684213743664578000,1.622578125,0.9114539623260498,0.027298884466290474,1.955993890762329
1684213743674602000,1.63260205078125,0.9004272818565369,-0.09198839217424393,1.9012047052383423
1684213743684626200,1.642626220703125,0.9243618845939636,-0.3781123161315918,1.743721842765808
1684213743694651100,1.652651123046875,0.992094874382019,-0.5352677702903748,1.5754362344741821
1684213743704675000,1.662675048828125,1.0593773126602173,-0.5667497515678406,1.4327267408370972
1684213743714700000,1.672699951171875,1.1321256160736084,-0.6904481053352356,1.3011465072631836
1684213743724724000,1.682723876953125,1.1881519556045532,-0.9261661171913147,1.1499974727630615
1684213743734748200,1.692748046875,1.2512723207473755,-1.1749218702316284,1.0092977285385132
1684213743744772900,1.70277294921875,1.3092727661132812,-1.3608629703521729,0.914646565914154
1684213743754797000,1.712797119140625,1.3026505708694458,-1.5830498933792114,0.8602045178413391
1684213743764822000,1.722822021484375,1.2630687952041626,-1.8225882053375244,0.818527340888977
1684213743774846000,1.732845947265625,1.2227349281311035,-2.068009376525879,0.7768430709838867
1684213743784870100,1.7428701171875,1.1383998394012451,-2.2094006538391113,0.7258765697479248
1684213743794894800,1.752894775390625,1.0275321006774902,-2.2210514545440674,0.6845380067825317
1684213743804919000,1.7629189453125,0.914411723613739,-2.1014246940612793,0.6433088183403015
1684213743814943000,1.77294287109375,0.8205129504203796,-1.9316318035125732,0.6063671112060547
1684213743824968200,1.78296826171875,0.7679530382156372,-1.774086594581604,0.5723060965538025
1684213743834991900,1.792991943359375,0.7045107483863831,-1.6388264894485474,0.5321974158287048
1684213743845016800,1.803016845703125,0.625387966632843,-1.4736814498901367,0.4855579733848572
1684213743855041000,1.813041015625,0.5567453503608704,-1.2833476066589355,0.4118860960006714
1684213743865065200,1.823065185546875,0.49710386991500854,-1.160698413848877,0.3299366235733032
1684213743875090200,1.833090087890625,0.460189551115036,-1.033158540725708,0.24202720820903778
1684213743885113900,1.84311376953125,0.4208059310913086,-0.9164878726005554,0.14329956471920013
1684213743895138000,1.853137939453125,0.40850216150283813,-0.7752001285552979,0.02688705548644066
1684213743905163000,1.8631630859375,0.3697257339954376,-0.5999431014060974,-0.04200279712677002
1684213743915187200,1.873187255859375,0.3489533066749573,-0.4647930860519409,-0.10646472126245499
1684213743925212200,1.883212158203125,0.2963718771934509,-0.3265651762485504,-0.17558786273002625
1684213743935236000,1.893236083984375,0.24515612423419952,-0.18238191306591034,-0.25034448504447937
1684213743945260000,1.903260009765625,0.1957952380180359,-0.03199641779065132,-0.31874433159828186
1684213743955285000,1.913284912109375,0.1394888311624527,0.09915637224912643,-0.3882419764995575
1684213743965309200,1.92330908203125,0.07910937815904617,0.1603425145149231,-0.48776617646217346
1684213743975332900,1.933332763671875,0.0267949178814888,0.30181771516799927,-0.5460914969444275
1684213743985358000,1.943358154296875,-0.014256910420954227,0.40199437737464905,-0.5931167602539062
1684213743995382000,1.953382080078125,-0.06916630268096924,0.4790135622024536,-0.6777529120445251
1684213744005407000,1.963406982421875,-0.1271907240152359,0.5076380372047424,-0.8140790462493896
1684213744015431000,1.973430908203125,-0.17686276137828827,0.6532220840454102,-0.9073157906532288
1684213744025455000,1.983455078125,-0.2221655249595642,0.7353747487068176,-1.0392755270004272
1684213744035480000,1.99347998046875,-0.3039417862892151,0.7765849232673645,-1.125491738319397
1684213744045504000,2.00350390625,-0.3863855302333832,0.788432240486145,-1.1939435005187988
1684213744055529200,2.013529296875,-0.4799184501171112,0.7613592743873596,-1.2277474403381348
1684213744065553000,2.023552978515625,-0.5719048380851746,0.6927956938743591,-1.2394260168075562
1684213744075577000,2.0335771484375,-0.6188132762908936,0.6138356924057007,-1.2126084566116333
1684213744085602000,2.04360205078125,-0.617436945438385,0.5150672793388367,-1.2108211517333984
1684213744095626200,2.053626220703125,-0.6342182159423828,0.42479947209358215,-1.1650477647781372
1684213744105650000,2.06364990234375,-0.6294609904289246,0.3547373116016388,-1.1143076419830322
1684213744115675000,2.0736748046875,-0.6140267252922058,0.2791621685028076,-1.0736055374145508
1684213744125699000,2.083698974609375,-0.5871477127075195,0.24906472861766815,-0.982574999332428
1684213744135724000,2.09372412109375,-0.5484328269958496,0.351535439491272,-0.8494867086410522
1684213744145748200,2.103748291015625,-0.5126194357872009,0.43357276916503906,-0.7509356141090393
1684213744155772000,2.11377197265625,-0.4957715570926666,0.5187779068946838,-0.6773916482925415
1684213744165797000,2.123797119140625,-0.4528246223926544,0.6749064922332764,-0.5724300742149353
1684213744175821000,2.133821044921875,-0.4032374918460846,0.8319883942604065,-0.45406603813171387
1684213744185845200,2.14384521484375,-0.33237317204475403,1.0204102993011475,-0.3595259487628937
1684213744195870000,2.153869873046875,-0.22015263140201569,1.20253324508667,-0.28804969787597656
1684213744205894000,2.163893798828125,-0.12293607741594315,1.350098729133606,-0.2507086992263794
1684213744215920000,2.173920166015625,-0.06723108142614365,1.512601375579834,-0.22683176398277283
1684213744225944000,2.183944091796875,-0.039857782423496246,1.645138144493103,-0.23462310433387756
1684213744235968000,2.193968017578125,-0.04728267341852188,1.621514081954956,-0.3728227913379669
1684213744245993200,2.2039931640625,-0.12478812038898468,1.3845158815383911,-0.6009640693664551
1684213744256017200,2.21401708984375,-0.23880720138549805,0.9174840450286865,-0.8137558102607727
1684213744266041000,2.224041015625,-0.34113889932632446,0.33456334471702576,-0.8869711756706238
1684213744276066000,2.234066162109375,-0.4401949644088745,-0.1753387153148651,-0.919600784778595
1684213744286090200,2.24409033203125,-0.48953214287757874,-0.4618612825870514,-1.0090904235839844
1684213744296115200,2.254115234375,-0.47936710715293884,-0.4416830539703369,-1.057431697845459
1684213744306139100,2.26413916015625,-0.5001810193061829,-0.28772783279418945,-1.0607284307479858
1684213744316163000,2.2741630859375,-0.5536162853240967,-0.05875049903988838,-1.0324596166610718
1684213744326188000,2.28418798828125,-0.6494733095169067,0.21194037795066833,-1.0083497762680054
1684213744336212200,2.294212158203125,-0.7210606932640076,0.3784804046154022,-0.9871593713760376
1684213744346236200,2.304236083984375,-0.7571425437927246,0.42238980531692505,-0.9334452748298645
1684213744356261400,2.314261474609375,-0.7457774877548218,0.367851197719574,-0.8242852687835693
1684213744366285000,2.32428515625,-0.7234625220298767,0.3038470447063446,-0.6945378184318542
1684213744376310000,2.33431005859375,-0.6749362349510193,0.3097459375858307,-0.5875649452209473
1684213744386334200,2.344334228515625,-0.6550195217132568,0.38178151845932007,-0.5046684741973877
1684213744396358100,2.354358154296875,-0.666016697883606,0.5148826837539673,-0.4476950168609619
1684213744406383000,2.364383056640625,-0.658307671546936,0.6925709247589111,-0.3857163190841675
1684213744416407000,2.374406982421875,-0.6196756362915039,0.8118939995765686,-0.3298596739768982
1684213744426431200,2.38443115234375,-0.580438494682312,0.8521232008934021,-0.27094709873199463
1684213744436456200,2.394456298828125,-0.5574148297309875,0.8599812984466553,-0.23688094317913055
1684213744446480100,2.404480224609375,-0.5381852388381958,0.829671323299408,-0.22641925513744354
1684213744456505000,2.414505126953125,-0.517578661441803,0.7417387962341309,-0.24401600658893585
1684213744466529000,2.424529052734375,-0.48228615522384644,0.6110955476760864,-0.26785343885421753
1684213744476553200,2.43455322265625,-0.43417665362358093,0.4216543138027191,-0.2664405107498169
1684213744486578200,2.444578125,-0.3611738085746765,0.19534286856651306,-0.2486998587846756
1684213744496602000,2.45460205078125,-0.2804250121116638,0.006369940936565399,-0.20455515384674072
1684213744506626000,2.4646259765625,-0.2149711400270462,-0.09727656096220016,-0.13486474752426147
1684213744516651300,2.4746513671875,-0.17926757037639618,-0.1792660802602768,-0.04936941713094711
1684213744526675200,2.48467529296875,-0.1651698499917984,-0.22829674184322357,0.024464059621095657
1684213744536700200,2.4947001953125,-0.14225387573242188,-0.29389068484306335,0.08106119185686111
1684213744546724000,2.50472412109375,-0.08936294913291931,-0.36622294783592224,0.09066960960626602
1684213744556748000,2.514748046875,-0.033948689699172974,-0.44722506403923035,0.048792582005262375
1684213744566773200,2.524773193359375,0.02174333482980728,-0.4824959933757782,-0.04679865390062332
1684213744576797200,2.534797119140625,0.06162700057029724,-0.4604592025279999,-0.20713801681995392
1684213744586822100,2.544822265625,0.10400215536355972,-0.4046414792537689,-0.35197004675865173
1684213744596846000,2.55484619140625,0.1055593341588974,-0.49976810812950134,-0.4428715109825134
1684213744606870300,2.564870361328125,-0.009766193106770515,-0.7107061743736267,-0.477422297000885
1684213744616895200,2.574895263671875,-0.0796356201171875,-0.8064194917678833,-0.46689572930336
1684213744626919200,2.584919189453125,-0.06934463232755661,-0.7535884976387024,-0.43244826793670654
1684213744636943000,2.594943115234375,-0.023178188130259514,-0.6182993054389954,-0.3951238691806793
1684213744646968000,2.604968017578125,0.024035662412643433,-0.5626940727233887,-0.38240647315979004
1684213744656992300,2.6149921875,0.04251345619559288,-0.6021028161048889,-0.37092339992523193
1684213744667017200,2.625017333984375,0.05725245550274849,-0.6894825100898743,-0.33248385787010193
1684213744677041200,2.635041259765625,0.10484755039215088,-0.7997260093688965,-0.2902771532535553
1684213744687065000,2.645065185546875,0.14627622067928314,-0.872307300567627,-0.22038888931274414
1684213744697090000,2.655090087890625,0.16282089054584503,-0.9118099808692932,-0.14272427558898926
1684213744707114200,2.6651142578125,0.1717832237482071,-0.8304711580276489,-0.0670769214630127
1684213744717138200,2.67513818359375,0.1697390377521515,-0.6701345443725586,-0.041420385241508484
1684213744727163100,2.6851630859375,0.1538362354040146,-0.5113134384155273,-0.04807722195982933
1684213744737187000,2.69518701171875,0.15224920213222504,-0.3950057029724121,-0.08657099306583405
1684213744747212300,2.70521240234375,0.1675591915845871,-0.2618364691734314,-0.08872441947460175
1684213744757236200,2.715236328125,0.1905483901500702,-0.09734819829463959,-0.08500345051288605
1684213744767260200,2.72526025390625,0.1776493787765503,-0.05066404864192009,-0.1326226443052292
1684213744777285000,2.73528515625,0.16826507449150085,-0.02471160516142845,-0.13428765535354614
1684213744787309000,2.74530908203125,0.1492903232574463,-0.04075422137975693,-0.0832551047205925
1684213744797333200,2.755333251953125,0.14226585626602173,-0.006101928651332855,-0.03238481283187866
1684213744807358200,2.765358154296875,0.13328301906585693,0.06657733768224716,-0.0066442945972085
1684213744817382100,2.775382080078125,0.12761300802230835,0.16666102409362793,0.024253245443105698
1684213744827407000,2.785406982421875,0.10581079125404358,0.3088272213935852,0.07179786264896393
1684213744837431300,2.795431396484375,0.10047934204339981,0.36664170026779175,0.07264543324708939
1684213744847455200,2.805455322265625,0.10065191239118576,0.38465797901153564,0.05323391407728195
1684213744857480000,2.81547998046875,0.09127356857061386,0.37448740005493164,0.031655751168727875
1684213744867504000,2.825504150390625,0.06525342166423798,0.36580947041511536,-0.0021437592804431915
1684213744877529000,2.835529052734375,0.04554473236203194,0.3602110743522644,-0.053577009588479996
1684213744887553300,2.84555322265625,0.06356128305196762,0.3402690589427948,-0.07697394490242004
1684213744897577000,2.855576904296875,0.08568989485502243,0.3362872004508972,-0.06327007710933685
1684213744907602200,2.865602294921875,0.12049021571874619,0.31593185663223267,-0.0423797070980072
1684213744917626000,2.875626220703125,0.13284613192081451,0.30954068899154663,-0.03701650723814964
1684213744927650300,2.885650390625,0.14645807445049286,0.29816925525665283,-0.0614057332277298
1684213744937675300,2.89567529296875,0.16487325727939606,0.28115540742874146,-0.08119399100542068
1684213744947699000,2.905698974609375,0.1800767183303833,0.3176870346069336,-0.078117236495018
1684213744957724200,2.91572412109375,0.20518247783184052,0.3722652494907379,-0.06046370044350624
1684213744967748000,2.925748046875,0.21868842840194702,0.39695116877555847,-0.05041985213756561
1684213744977772300,2.935772216796875,0.212910458445549,0.4251531660556793,-0.04645940661430359
1684213744987797200,2.94579736328125,0.20310017466545105,0.445505827665329,-0.0712723433971405
1684213744997821200,2.9558212890625,0.16755881905555725,0.43551895022392273,-0.07793603092432022
1684213745007845000,2.96584521484375,0.10302510112524033,0.3869609832763672,-0.06548015773296356
1684213745017870000,2.9758701171875,0.028832582756876945,0.3303816318511963,-0.049090441316366196
1684213745027894300,2.985894287109375,-0.0430125817656517,0.2700607478618622,-0.047878701239824295
1684213745037919000,2.9959189453125,-0.1133059486746788,0.20053282380104065,-0.05271020531654358
1684213745047943200,3.005943115234375,-0.16866907477378845,0.12740853428840637,-0.07330310344696045
1684213745057967000,3.015967041015625,-0.2142750769853592,0.06063871458172798,-0.08251447975635529
1684213745067992300,3.025992431640625,-0.24329207837581635,0.020353347063064575,-0.0853949561715126
1684213745078016000,3.03601611328125,-0.2653018534183502,0.023222383111715317,-0.06992562115192413
1684213745088040200,3.046040283203125,-0.24425595998764038,0.004486246965825558,-0.05720529705286026
1684213745098065200,3.056065185546875,-0.21549464762210846,0.026873840019106865,-0.042551517486572266
1684213745108089000,3.066089111328125,-0.18969526886940002,0.04453379288315773,-0.04014987871050835
1684213745118114300,3.0761142578125,-0.15896861255168915,0.040219951421022415,-0.0487242117524147
1684213745128138000,3.086137939453125,-0.12478453665971756,0.041778966784477234,-0.07363942265510559
1684213745138162200,3.096162109375,-0.08861682564020157,0.05063643306493759,-0.08983860909938812
1684213745148187100,3.106187255859375,-0.0643591582775116,0.06835576891899109,-0.0703812912106514
1684213745158211300,3.11621142578125,-0.04621637612581253,0.09266776591539383,-0.015737751498818398
1684213745168236300,3.126236328125,-0.041197650134563446,0.11444336920976639,0.06813477724790573
1684213745178260000,3.136260009765625,-0.03170404210686684,0.137343630194664,0.1426399201154709
1684213745188284200,3.1462841796875,-0.034520335495471954,0.20679034292697906,0.2014683485031128
1684213745198309000,3.15630908203125,-0.011466204188764095,0.30796748399734497,0.20833127200603485
1684213745208333300,3.166333251953125,0.020384136587381363,0.4149480164051056,0.21284081041812897
1684213745218356200,3.176356201171875,0.04285527393221855,0.5149791836738586,0.21763740479946136
1684213745228381200,3.186381103515625,0.0702139288187027,0.596168041229248,0.21196460723876953
1684213745238405000,3.196405029296875,0.08170891553163528,0.673311173915863,0.19620183110237122
1684213745248430300,3.206430419921875,0.07034334540367126,0.7507942914962769,0.1801064908504486
1684213745258454000,3.2164541015625,0.038750264793634415,0.783509373664856,0.19100213050842285
1684213745268478200,3.226478271484375,-0.02162892557680607,0.7311758399009705,0.21844254434108734
1684213745278503200,3.236503173828125,-0.08128872513771057,0.6385599374771118,0.2335599809885025
1684213745288527400,3.24652734375,-0.13455195724964142,0.6128013134002686,0.20742131769657135
1684213745298551000,3.256551025390625,-0.15468712151050568,0.6318161487579346,0.15239965915679932
1684213745308576000,3.266575927734375,-0.137384295463562,0.635444164276123,0.08145437389612198
1684213745318600200,3.27660009765625,-0.11914940923452377,0.5863592624664307,0.01120118796825409
1684213745328625200,3.286625244140625,-0.08578319847583771,0.5353929996490479,-0.06356146186590195
1684213745338649000,3.296649169921875,-0.04999307170510292,0.4516737163066864,-0.13876643776893616
1684213745348673000,3.306673095703125,-0.04230079799890518,0.418343186378479,-0.2133549153804779
1684213745358698200,3.3166982421875,-0.04335186257958412,0.4026535153388977,-0.27904415130615234
1684213745368722200,3.32672216796875,-0.050588205456733704,0.37232887744903564,-0.3002021908760071
1684213745378746400,3.336746337890625,-0.07904426753520966,0.32157808542251587,-0.2890159487724304
1684213745388771000,3.34677099609375,-0.12418963760137558,0.24539649486541748,-0.27083346247673035
1684213745398795000,3.356794921875,-0.17982938885688782,0.2065894901752472,-0.24146144092082977
1684213745408820200,3.3668203125,-0.24879354238510132,0.1857590526342392,-0.20427626371383667
1684213745418844200,3.37684423828125,-0.31417685747146606,0.170502170920372,-0.19785986840724945
1684213745428868000,3.3868681640625,-0.3715285658836365,0.13771386444568634,-0.20348340272903442
1684213745438893000,3.39689306640625,-0.3921886086463928,0.04301362484693527,-0.23129020631313324
1684213745448917200,3.406917236328125,-0.3861328363418579,-0.0782824456691742,-0.28830981254577637
1684213745458941200,3.416941162109375,-0.3687463700771332,-0.2054641991853714,-0.34843406081199646
1684213745468966100,3.426966064453125,-0.34177467226982117,-0.34982404112815857,-0.4332925081253052
1684213745478990000,3.436989990234375,-0.32695072889328003,-0.48748743534088135,-0.5259128212928772
1684213745489015000,3.44701513671875,-0.3240888714790344,-0.5723757147789001,-0.6092231273651123
1684213745499039200,3.457039306640625,-0.3357720971107483,-0.5980262756347656,-0.6639130115509033
1684213745509063200,3.467063232421875,-0.36053016781806946,-0.5603129863739014,-0.674390435218811
1684213745519088400,3.47708837890625,-0.3941040635108948,-0.4794202148914337,-0.6510980725288391
1684213745529112000,3.487112060546875,-0.43267303705215454,-0.40030035376548767,-0.5938348174095154
1684213745539137000,3.497136962890625,-0.4492742419242859,-0.30942291021347046,-0.5262995362281799
1684213745549161200,3.5071611328125,-0.4880834221839905,-0.26949119567871094,-0.4291918873786926
1684213745559185200,3.51718505859375,-0.5007423758506775,-0.26959848403930664,-0.3595830500125885
1684213745569210000,3.527210205078125,-0.48823195695877075,-0.2866578996181488,-0.3270655870437622
1684213745579234000,3.537234130859375,-0.42483001947402954,-0.24625541269779205,-0.2801640033721924
1684213745589258200,3.54725830078125,-0.3227262794971466,-0.1203017309308052,-0.19409488141536713
1684213745599283200,3.557283203125,-0.21015052497386932,-0.01038046833127737,-0.1225682944059372
1684213745609307100,3.56730712890625,-0.09769748151302338,0.09488363564014435,-0.04749910533428192
1684213745619332000,3.57733203125,-0.007163568399846554,0.21088337898254395,0.03185729309916496
1684213745629356000,3.58735595703125,0.07494168728590012,0.373122900724411,0.144775852560997
1684213745639380200,3.597380126953125,0.14902842044830322,0.4697820544242859,0.2859324514865875
1684213745649405200,3.6074052734375,0.22831766307353973,0.49636465311050415,0.42937830090522766
1684213745659429000,3.61742919921875,0.3236863613128662,0.527512788772583,0.5628937482833862
1684213745669453000,3.627453125,0.36928555369377136,0.5557950735092163,0.6457329988479614
1684213745679478300,3.637478271484375,0.3580251932144165,0.5836338996887207,0.6718237996101379
1684213745689502200,3.647502197265625,0.34833502769470215,0.5162926912307739,0.6536802053451538
1684213745699527200,3.657527099609375,0.3642059564590454,0.34192395210266113,0.6402686834335327
1684213745709551000,3.667551025390625,0.4053637683391571,0.12208746373653412,0.6290162801742554
1684213745719575000,3.677574951171875,0.4299006462097168,-0.11174458265304565,0.6514552235603333
1684213745729600300,3.687600341796875,0.44513630867004395,-0.28190138936042786,0.7191320061683655
1684213745739624200,3.697624267578125,0.4620329737663269,-0.3283965587615967,0.7959579825401306
1684213745749649200,3.707649169921875,0.4578757882118225,-0.28137683868408203,0.8656395673751831
1684213745759673000,3.717673095703125,0.45620596408843994,-0.15627022087574005,0.9721862077713013
1684213745769697300,3.727697265625,0.45695191621780396,0.05746736377477646,1.120518684387207
1684213745779722200,3.73772216796875,0.4092499613761902,0.3583420515060425,1.2376219034194946
1684213745789746000,3.747745849609375,0.3720450699329376,0.6332005262374878,1.3071123361587524
1684213745799770000,3.75777001953125,0.37715157866477966,0.8504390716552734,1.4511656761169434
1684213745809795000,3.767795166015625,0.3634661138057709,1.037139654159546,1.6485424041748047
1684213745819819300,3.7778193359375,0.38982895016670227,1.0396920442581177,1.7297292947769165
1684213745829844200,3.78784423828125,0.4363469183444977,0.9449871182441711,1.7439287900924683
1684213745839868200,3.7978681640625,0.44550764560699463,0.940018355846405,1.8031580448150635
1684213745849892000,3.80789208984375,0.4106806814670563,0.8842067718505859,1.8502088785171509
1684213745859917000,3.8179169921875,0.3929637372493744,0.6962540745735168,1.7790348529815674
1684213745869941200,3.827941162109375,0.4387245774269104,0.5346800684928894,1.6416043043136597
1684213745879965200,3.837965087890625,0.4816180169582367,0.5346406102180481,1.498581051826477
1684213745889990100,3.847990234375,0.5540680289268494,0.5021846890449524,1.36894953250885
1684213745900014000,3.85801416015625,0.6312481760978699,0.3244089186191559,1.1878312826156616
1684213745910039300,3.868039306640625,0.6570355296134949,0.11576754599809647,1.0257371664047241
1684213745920063200,3.878063232421875,0.6362403035163879,-0.20794259011745453,0.8998475670814514
1684213745930087200,3.888087158203125,0.6097636818885803,-0.7813496589660645,0.7681084275245667
1684213745940112100,3.898112060546875,0.5942644476890564,-1.319876790046692,0.7010377645492554
1684213745950136000,3.908135986328125,0.5444161891937256,-1.3799399137496948,0.7248727679252625
1684213745960160300,3.91816015625,0.5781682133674622,-1.1704909801483154,0.7195659279823303
1684213745970185000,3.92818505859375,0.6693090200424194,-0.7725263237953186,0.6576559543609619
1684213745980209200,3.938209228515625,0.7142261862754822,-0.32242274284362793,0.6393612027168274
1684213745990234000,3.948234130859375,0.7324416637420654,-0.08840785920619965,0.5680425763130188
1684213746000258300,3.95825830078125,0.7064951658248901,-0.07594659924507141,0.4357689619064331
1684213746010282000,3.968281982421875,0.6499389410018921,-0.2989344298839569,0.30552202463150024
1684213746020307000,3.978306884765625,0.602283239364624,-0.40165865421295166,0.2240348756313324
1684213746030331100,3.9883310546875,0.5987564325332642,-0.4060227870941162,0.16032087802886963
1684213746040356000,3.998356201171875,0.5300955176353455,-0.39145901799201965,0.13444668054580688
1684213746050380300,4.00838037109375,0.4424717128276825,-0.312237411737442,0.09367367625236511
1684213746060404000,4.018404052734375,0.36186692118644714,-0.22545291483402252,0.05326750874519348
1684213746070429200,4.02842919921875,0.2808210849761963,-0.1984575241804123,0.005146851297467947
1684213746080453000,4.038453125,0.19175440073013306,-0.2110803872346878,-0.052243299782276154
1684213746090477300,4.048477294921875,0.11558506637811661,-0.17588697373867035,-0.07912338525056839
1684213746100502300,4.058502197265625,0.046111129224300385,-0.13251101970672607,-0.1078607514500618
1684213746110526200,4.068526123046875,-0.01637675240635872,-0.04735937714576721,-0.13099509477615356
1684213746120551200,4.07855126953125,-0.06994149833917618,0.06912244111299515,-0.1578294038772583
1684213746130575000,4.0885751953125,-0.11309616267681122,0.17129728198051453,-0.18514278531074524
1684213746140599300,4.098599365234375,-0.15418741106987,0.2486199587583542,-0.2139796018600464
1684213746150624000,4.1086240234375,-0.20696194469928741,0.2928289771080017,-0.22715319693088531
1684213746160648200,4.118648193359375,-0.2627886235713959,0.32938140630722046,-0.23267880082130432
1684213746170672000,4.128672119140625,-0.31421905755996704,0.3380497395992279,-0.22485361993312836
1684213746180697000,4.138697021484375,-0.34053128957748413,0.3225754201412201,-0.20944680273532867
1684213746190721000,4.148720947265625,-0.384662002325058,0.2562589943408966,-0.17875440418720245
1684213746200746000,4.15874609375,-0.41623029112815857,0.17426559329032898,-0.13529455661773682
1684213746210770200,4.168770263671875,-0.44207680225372314,0.1222979873418808,-0.058847978711128235
1684213746220793900,4.1787939453125,-0.4556891620159149,0.054489944130182266,0.025392796844244003
1684213746230819000,4.188819091796875,-0.4458722174167633,0.07063749432563782,0.10428468137979507
1684213746240843000,4.198843017578125,-0.4297584593296051,0.08559637516736984,0.17342519760131836
1684213746250868000,4.208867919921875,-0.3834567368030548,0.05626139044761658,0.217706099152565
1684213746260892000,4.218891845703125,-0.28031957149505615,0.06289420276880264,0.20737674832344055
1684213746270916000,4.228916015625,-0.11778176575899124,0.13085994124412537,0.12475589662790298
1684213746280941000,4.238941162109375,0.07798884063959122,0.3795969486236572,-0.0030211778357625008
1684213746290964700,4.24896484375,0.2570270299911499,0.7652320265769958,-0.15359631180763245
1684213746300989000,4.258989013671875,0.3650289475917816,1.1295028924942017,-0.2776714861392975
1684213746311014000,4.269013916015625,0.38671401143074036,1.3285102844238281,-0.35008949041366577
1684213746321038000,4.2790380859375,0.3869578540325165,1.2920200824737549,-0.3878299295902252
1684213746331063000,4.28906298828125,0.38847053050994873,1.0637390613555908,-0.4183500409126282
1684213746341087000,4.2990869140625,0.37970685958862305,0.7307750582695007,-0.45156893134117126
1684213746351111000,4.30911083984375,0.35552507638931274,0.34257271885871887,-0.49693214893341064
1684213746361135900,4.319135986328125,0.31430405378341675,-0.05556229129433632,-0.5798895955085754
1684213746371160000,4.32916015625,0.26519644260406494,-0.4594229459762573,-0.7401913404464722
1684213746381185000,4.33918505859375,0.23502621054649353,-0.7900956273078918,-0.9701735377311707
1684213746391209000,4.349208984375,0.2673857510089874,-0.9315763115882874,-1.2261953353881836
1684213746401233000,4.35923291015625,0.31783920526504517,-0.8990858793258667,-1.4577982425689697
1684213746411257900,4.3692578125,0.2808002233505249,-0.7688080668449402,-1.5339595079421997
1684213746421282000,4.379281982421875,0.10697520524263382,-0.8627102971076965,-1.4436736106872559
1684213746431306800,4.389306640625,-0.19837218523025513,-1.1805570125579834,-1.2816780805587769
1684213746441331000,4.3993310546875,-0.5821491479873657,-1.5589120388031006,-1.1627520322799683
1684213746451355000,4.40935498046875,-0.8987518548965454,-1.8534613847732544,-1.09995436668396
1684213746461380000,4.419380126953125,-1.0577234029769897,-2.067035436630249,-1.0708727836608887
1684213746471403800,4.42940380859375,-1.0615170001983643,-1.962217926979065,-0.9865984320640564
1684213746481428000,4.439427978515625,-1.0000436305999756,-1.524891972541809,-0.870525598526001
1684213746491453000,4.449452880859375,-0.8445906043052673,-0.870016872882843,-0.7484321594238281
1684213746501477000,4.45947705078125,-0.663854718208313,-0.15153898298740387,-0.5943920016288757
1684213746511502000,4.469502197265625,-0.6523685455322266,0.4548334777355194,-0.41728225350379944
1684213746521525800,4.47952587890625,-0.7171858549118042,0.9662973880767822,-0.2283947467803955
1684213746531550000,4.489550048828125,-0.7590206265449524,1.3386507034301758,-0.04082725569605827
1684213746541575000,4.499574951171875,-0.7712461352348328,1.5746736526489258,0.17314453423023224
1684213746551599000,4.50959912109375,-0.7173206210136414,1.6704308986663818,0.38882195949554443
1684213746561624000,4.5196240234375,-0.5100817680358887,1.7106434106826782,0.6094971299171448
1684213746571648000,4.52964794921875,-0.2387290894985199,1.706322193145752,0.8050069808959961
1684213746581672000,4.539671875,0.023158887401223183,1.723451852798462,0.956834077835083
1684213746591697000,4.54969677734375,0.2966061234474182,1.765066385269165,0.9555304646492004
1684213746601721000,4.55972119140625,0.514409601688385,1.7778866291046143,0.7782875895500183
1684213746611744800,4.569744873046875,0.5835325121879578,1.7293169498443604,0.4948582351207733
1684213746621770000,4.57977001953125,0.4554915726184845,1.5170458555221558,0.19572743773460388
1684213746631794000,4.5897939453125,0.3510306775569916,1.0420771837234497,-0.12165078520774841
1684213746641819000,4.59981884765625,0.26323050260543823,0.37798187136650085,-0.3900468945503235
1684213746651842800,4.6098427734375,0.10567736625671387,-0.3271462321281433,-0.5562854409217834
1684213746661867000,4.619866943359375,-0.03986057639122009,-0.9065565466880798,-0.6382383108139038
1684213746671892000,4.62989208984375,-0.11768852919340134,-1.242775321006775,-0.6588359475135803
1684213746681916000,4.639916015625,-0.1467912793159485,-1.2924071550369263,-0.6467186212539673
1684213746691941000,4.649941162109375,-0.16160111129283905,-1.1201459169387817,-0.5547043085098267
1684213746701964800,4.65996484375,-0.20956732332706451,-0.8432087302207947,-0.424728125333786
1684213746711989000,4.669989013671875,-0.30425652861595154,-0.5033510327339172,-0.29848259687423706
1684213746722014000,4.680013916015625,-0.31516095995903015,-0.20365135371685028,-0.18125350773334503
1684213746732038100,4.6900380859375,-0.2739378809928894,-0.02697831764817238,-0.08433229476213455
1684213746742061800,4.700061767578125,-0.20278185606002808,0.027087008580565453,-0.026249738410115242
1684213746752086800,4.710086669921875,-0.2158513218164444,0.05986678972840309,-0.013059101998806
1684213746762111000,4.720111083984375,-0.23310329020023346,0.07832153141498566,-0.037257708609104156
1684213746772136000,4.730135986328125,-0.1987711489200592,0.08210082352161407,-0.09771759063005447
1684213746782160100,4.74016015625,-0.13918212056159973,0.0352688692510128,-0.18006040155887604
1684213746792183800,4.750183837890625,-0.0917658656835556,-0.06556852906942368,-0.28107622265815735
1684213746802209000,4.760208984375,-0.04967495799064636,-0.1787737011909485,-0.35399094223976135
1684213746812233000,4.77023291015625,-0.0107834842056036,-0.2809903621673584,-0.4154857099056244
1684213746822258000,4.7802578125,0.03313455730676651,-0.34630826115608215,-0.4965982735157013
1684213746832281900,4.79028173828125,0.09677451848983765,-0.37004154920578003,-0.5570778846740723
1684213746842305800,4.800305908203125,0.15280455350875854,-0.3891814947128296,-0.5426264405250549
1684213746852331000,4.8103310546875,0.19257032871246338,-0.42281773686408997,-0.5164946913719177
1684213746862355000,4.82035498046875,0.2221374213695526,-0.4402358829975128,-0.4746605157852173
1684213746872379000,4.83037890625,0.24282698333263397,-0.4010911285877228,-0.43452879786491394
1684213746882403800,4.84040380859375,0.2452462613582611,-0.3758900761604309,-0.39538341760635376
1684213746892428000,4.850427978515625,0.19623345136642456,-0.2980421483516693,-0.3279932141304016
1684213746902453000,4.860452880859375,0.1441102772951126,-0.26332756876945496,-0.2960498332977295
1684213746912477000,4.870476806640625,0.10779620707035065,-0.250360369682312,-0.25497668981552124
1684213746922500900,4.8805009765625,0.06161772459745407,-0.23739998042583466,-0.19069166481494904
1684213746932525800,4.89052587890625,0.015531456097960472,-0.22286976873874664,-0.1605665236711502
1684213746942550000,4.900550048828125,-0.03667411953210831,-0.15550588071346283,-0.13794197142124176
1684213746952575000,4.910574951171875,-0.09618964046239853,-0.04658924415707588,-0.1297154575586319
1684213746962599000,4.920598876953125,-0.14970387518405914,0.059315845370292664,-0.10671340674161911
1684213746972622800,4.930622802734375,-0.17761459946632385,0.13465960323810577,-0.06849437952041626
1684213746982647800,4.940647705078125,-0.19549785554409027,0.20586749911308289,-0.011876716278493404
1684213746992672000,4.950672119140625,-0.20495714247226715,0.2693599462509155,0.022568607702851295
1684213747002696000,4.960696044921875,-0.24889664351940155,0.3298891484737396,0.028503671288490295
1684213747012721200,4.97072119140625,-0.28499820828437805,0.35440781712532043,0.024227434769272804
1684213747022744800,4.980744873046875,-0.2888887822628021,0.32554516196250916,0.010766278021037579
1684213747032769800,4.990769775390625,-0.2654585540294647,0.29123300313949585,-0.02668735384941101
1684213747042794000,5.0007939453125,-0.23758664727210999,0.2668576240539551,-0.07894719392061234
1684213747052818200,5.010818115234375,-0.20086723566055298,0.2282460331916809,-0.13728773593902588
1684213747062843000,5.0208427734375,-0.1704276204109192,0.230474054813385,-0.1874019354581833
1684213747072866800,5.03086669921875,-0.16873838007450104,0.22914673388004303,-0.2119823843240738
1684213747082892000,5.04089208984375,-0.16728870570659637,0.22828266024589539,-0.2211693525314331
1684213747092916000,5.050916015625,-0.16915398836135864,0.2585196793079376,-0.22192862629890442
1684213747102940000,5.06093994140625,-0.16760630905628204,0.30062809586524963,-0.2295115739107132
1684213747112964900,5.07096484375,-0.18153676390647888,0.3469495475292206,-0.22473599016666412
1684213747122989000,5.080989013671875,-0.1923079639673233,0.33874309062957764,-0.1954958587884903
1684213747133013000,5.091012939453125,-0.1975506693124771,0.3458947241306305,-0.16864453256130219
1684213747143038000,5.101037841796875,-0.2065405547618866,0.3626266419887543,-0.15043863654136658
1684213747153062000,5.111061767578125,-0.21812769770622253,0.4221988916397095,-0.12244561314582825
1684213747163086800,5.1210869140625,-0.2294662594795227,0.523221492767334,-0.07243184745311737
1684213747173111000,5.131111083984375,-0.21960856020450592,0.5842462182044983,-0.030760565772652626
1684213747183135000,5.141135009765625,-0.17975696921348572,0.6010318994522095,-0.001275205286219716
1684213747193160000,5.151159912109375,-0.13100221753120422,0.602950394153595,0.024478094652295113
1684213747203183900,5.161183837890625,-0.08922795206308365,0.6186571717262268,0.022596407681703568
1684213747213209600,5.171209716796875,-0.06073532626032829,0.6510939598083496,0.01022256352007389
1684213747223233800,5.18123388671875,-0.05916757881641388,0.6319423317909241,0.01138074230402708
1684213747233257700,5.1912578125,-0.07145034521818161,0.5672592520713806,0.002743045100942254
1684213747243282400,5.201282470703125,-0.08909869939088821,0.513549268245697,-0.02918013371527195
1684213747253306600,5.211306640625,-0.10020460933446884,0.46586617827415466,-0.07784141600131989
1684213747263330800,5.221330810546875,-0.12038497626781464,0.40476903319358826,-0.1610749214887619
1684213747273355800,5.231355712890625,-0.1326906532049179,0.31886932253837585,-0.28037068247795105
1684213747283379500,5.24137939453125,-0.11678206920623779,0.1693008840084076,-0.4041956067085266
1684213747293404700,5.25140478515625,-0.06615857034921646,-0.004745740443468094,-0.4799273908138275
1684213747303428600,5.2614287109375,0.0005300594493746758,-0.11993637681007385,-0.46953558921813965
1684213747313452800,5.271452880859375,0.039609018713235855,-0.18816709518432617,-0.4010646641254425
1684213747323477800,5.281477783203125,0.053733475506305695,-0.2427663505077362,-0.3050134778022766
1684213747333501700,5.291501708984375,0.04774508997797966,-0.2506474554538727,-0.18088273704051971
1684213747343526700,5.301526611328125,0.026959480717778206,-0.233723983168602,-0.07280079275369644
1684213747353550600,5.311550537109375,-0.00960518792271614,-0.254064679145813,-0.024121403694152832
1684213747363574800,5.32157470703125,-0.05200818553566933,-0.2594907283782959,-0.024408889934420586
1684213747373599700,5.331599853515625,-0.09187224507331848,-0.24275782704353333,-0.05725125968456268
1684213747383623700,5.341623779296875,-0.12501299381256104,-0.2507518231868744,-0.12761425971984863
1684213747393647600,5.351647705078125,-0.15036602318286896,-0.23266123235225677,-0.1901569962501526
1684213747403672600,5.361672607421875,-0.18593762814998627,-0.22206369042396545,-0.2341776341199875
1684213747413696800,5.37169677734375,-0.2299620807170868,-0.24610936641693115,-0.27364328503608704
1684213747423721500,5.381721435546875,-0.27318450808525085,-0.2585817873477936,-0.30404001474380493
1684213747433745700,5.39174560546875,-0.3133167624473572,-0.2910028398036957,-0.3249434232711792
1684213747443769600,5.40176953125,-0.35424450039863586,-0.3732052147388458,-0.33692610263824463
1684213747453794800,5.411794921875,-0.3977600336074829,-0.5041536092758179,-0.3513638973236084
1684213747463818500,5.421818603515625,-0.43851912021636963,-0.6156447529792786,-0.3644068241119385
1684213747473843500,5.431843505859375,-0.44850996136665344,-0.6504043340682983,-0.3777458071708679
1684213747483867600,5.44186767578125,-0.44064247608184814,-0.592308521270752,-0.3940243721008301
1684213747493891800,5.451891845703125,-0.4356229603290558,-0.524971604347229,-0.40937376022338867
1684213747503916800,5.461916748046875,-0.41888564825057983,-0.5084041953086853,-0.4193711280822754
1684213747513940500,5.4719404296875,-0.4086274206638336,-0.5417344570159912,-0.40686386823654175
1684213747523964700,5.481964599609375,-0.37413740158081055,-0.5882091522216797,-0.3817440867424011
1684213747533989600,5.49198974609375,-0.34439361095428467,-0.6363271474838257,-0.3510383665561676
1684213747544013800,5.502013916015625,-0.3265296518802643,-0.6507746577262878,-0.313546359539032
1684213747554038800,5.512038818359375,-0.3264697194099426,-0.6140562891960144,-0.25313547253608704
1684213747564062700,5.522062744140625,-0.3137389123439789,-0.5017576217651367,-0.16889332234859467
1684213747574086700,5.532086669921875,-0.2814483642578125,-0.40813148021698,-0.09748279303312302
1684213747584111600,5.542111572265625,-0.2291247397661209,-0.36075374484062195,-0.03148333355784416
1684213747594135800,5.5521357421875,-0.1561993956565857,-0.3893486559391022,0.01637820154428482
1684213747604160500,5.562160400390625,-0.08411715179681778,-0.3903750479221344,0.0028883961495012045
1684213747614184700,5.572184814453125,-0.007036751136183739,-0.4593067169189453,-0.04280824959278107
1684213747624208600,5.582208740234375,0.046174392104148865,-0.5090962648391724,-0.017575465142726898
1684213747634233600,5.592233642578125,0.14551296830177307,-0.4764392375946045,0.0859389454126358
1684213747644257500,5.602257568359375,0.20282182097434998,-0.44244682788848877,0.2130890190601349
1684213747654281700,5.61228173828125,0.14847123622894287,-0.646776020526886,0.41343995928764343
1684213747664306700,5.622306640625,0.16303959488868713,-1.0318877696990967,0.5989279747009277
1684213747674330600,5.63233056640625,0.3250409960746765,-1.3880906105041504,0.5878934860229492
1684213747684355800,5.64235595703125,0.6375768780708313,-1.7490965127944946,0.22318212687969208
1684213747694379500,5.652379638671875,0.910086452960968,-2.0238046646118164,-0.08961253613233566
1684213747704403700,5.66240380859375,0.8638074398040771,-2.123521327972412,-0.07403421401977539
1684213747714428700,5.6724287109375,0.5527473092079163,-2.4515609741210938,-0.1996683031320572
1684213747724452600,5.68245263671875,0.2475699484348297,-2.458141565322876,-0.4854077696800232
1684213747734477800,5.692477783203125,0.08183156698942184,-1.9917963743209839,-0.5171324014663696
1684213747744501500,5.70250146484375,-0.10951560735702515,-1.2317434549331665,-0.1727171093225479
1684213747754525700,5.712525634765625,-0.30065038800239563,-0.3989116847515106,0.3508686125278473
1684213747764550700,5.722550537109375,-0.310330331325531,0.19925563037395477,0.7100213766098022
1684213747774574800,5.732574951171875,-0.370213121175766,0.46993958950042725,0.8200583457946777
1684213747784598500,5.7425986328125,-0.47417959570884705,0.5883108377456665,0.833426833152771
1684213747794623500,5.75262353515625,-0.4996362328529358,0.5446078181266785,0.794187605381012
1684213747804647700,5.762647705078125,-0.40583789348602295,0.38303396105766296,0.690943717956543
1684213747814672600,5.772672607421875,-0.2331944853067398,0.05265765264630318,0.5431398749351501
1684213747824696600,5.782696533203125,-0.1488378942012787,-0.4189477264881134,0.3707921504974365
1684213747834720500,5.792720458984375,-0.16330498456954956,-0.9676579236984253,0.2676151692867279
1684213747844745700,5.802745849609375,-0.15402355790138245,-1.5136910676956177,0.2842242121696472
1684213747854769700,5.812769775390625,-0.10034382343292236,-1.778832197189331,0.4173780083656311
1684213747864794600,5.822794677734375,-0.0364532433450222,-1.7287938594818115,0.5408493876457214
1684213747874818600,5.832818603515625,-0.04804624989628792,-1.7152082920074463,0.5803067684173584
1684213747884842800,5.8428427734375,-0.06995274871587753,-1.6539151668548584,0.6179604530334473
1684213747894867700,5.85286767578125,-0.08980927616357803,-1.429045557975769,0.72907954454422
1684213747904891600,5.8628916015625,-0.059141963720321655,-1.188689947128296,0.8730522990226746
1684213747914915600,5.87291552734375,-0.015306064859032631,-1.151877760887146,0.9568145275115967
1684213747924940500,5.8829404296875,0.04835377633571625,-1.237199306488037,1.0228090286254883
1684213747934964700,5.89296484375,0.15221625566482544,-1.3400524854660034,1.0586166381835938
1684213747944989700,5.90298974609375,0.28298917412757874,-1.4059582948684692,1.0314390659332275
1684213747955013600,5.913013671875,0.43250542879104614,-1.464788794517517,0.9302583932876587
1684213747965037600,5.92303759765625,0.5638224482536316,-1.6017011404037476,0.7522585391998291
1684213747975062500,5.9330625,0.6492154002189636,-1.7873026132583618,0.5398544073104858
1684213747985086700,5.943086669921875,0.6850129961967468,-2.06646728515625,0.30999118089675903
1684213747995111700,5.953111572265625,0.7061656713485718,-2.343024492263794,0.08856664597988129
1684213748005135600,5.963135498046875,0.7387849688529968,-2.4709787368774414,-0.08908732980489731
1684213748015159600,5.97315966796875,0.7628183960914612,-2.460343599319458,-0.25967103242874146
1684213748025184500,5.9831845703125,0.758124053478241,-2.417098045349121,-0.4198210537433624
1684213748035208700,5.993208740234375,0.7399250864982605,-2.4119927883148193,-0.5480147004127502
1684213748045233700,6.003233642578125,0.7259116172790527,-2.417391300201416,-0.6451959013938904
1684213748055257600,6.013257568359375,0.7246785759925842,-2.428363561630249,-0.7039561867713928
1684213748065281500,6.023281494140625,0.7269352078437805,-2.476550340652466,-0.7584742903709412
1684213748075306800,6.033306640625,0.7369199395179749,-2.5304386615753174,-0.8249830007553101
1684213748085330700,6.04333056640625,0.7406207919120789,-2.5714778900146484,-0.9206447601318359
1684213748095354600,6.053354736328125,0.7416087985038757,-2.5860185623168945,-1.0151177644729614
1684213748105379600,6.063379638671875,0.7530248165130615,-2.587338447570801,-1.0852986574172974
1684213748115403800,6.07340380859375,0.7526668906211853,-2.595726251602173,-1.1325151920318604
1684213748125428700,6.0834287109375,0.7307279109954834,-2.6255996227264404,-1.1635069847106934
1684213748135452700,6.09345263671875,0.696000874042511,-2.6662967205047607,-1.1800105571746826
1684213748145476600,6.1034765625,0.6660573482513428,-2.6876323223114014,-1.1846787929534912
1684213748155501600,6.11350146484375,0.6233288049697876,-2.7128050327301025,-1.185753345489502
1684213748165525800,6.12352587890625,0.5910453200340271,-2.7113444805145264,-1.1725445985794067
1684213748175550700,6.13355078125,0.5520651936531067,-2.6621198654174805,-1.1632165908813477
1684213748185574700,6.14357470703125,0.5301387906074524,-2.580782413482666,-1.1648176908493042
1684213748195598600,6.1535986328125,0.5109456777572632,-2.4919660091400146,-1.1814008951187134
1684213748205623600,6.16362353515625,0.48896560072898865,-2.4017555713653564,-1.2059550285339355
1684213748215647700,6.173647705078125,0.47268810868263245,-2.3045654296875,-1.2062679529190063
1684213748225671700,6.183671630859375,0.4591561257839203,-2.2592334747314453,-1.2079998254776
1684213748235697000,6.19369677734375,0.4359658658504486,-2.257239580154419,-1.2096714973449707
1684213748245720600,6.203720458984375,0.40358027815818787,-2.2998931407928467,-1.1946569681167603
1684213748255745500,6.21374560546875,0.37118613719940186,-2.344095230102539,-1.1873385906219482
1684213748265769700,6.223769775390625,0.33817028999328613,-2.373181104660034,-1.1766893863677979
1684213748275793700,6.233793701171875,0.3003630042076111,-2.4189436435699463,-1.1826796531677246
1684213748285818600,6.243818603515625,0.24811993539333344,-2.4867446422576904,-1.2176908254623413
1684213748295842600,6.253842529296875,0.1861812025308609,-2.5288853645324707,-1.258652925491333
1684213748305867800,6.26386767578125,0.10374627262353897,-2.552131175994873,-1.2836203575134277
1684213748315891700,6.2738916015625,0.01745159737765789,-2.5554983615875244,-1.2976627349853516
1684213748325916000,6.283916015625,-0.050818752497434616,-2.5162575244903564,-1.3117444515228271
1684213748335940600,6.293940673828125,-0.10230325162410736,-2.4955880641937256,-1.329219937324524
1684213748345964500,6.303964599609375,-0.11906803399324417,-2.532456636428833,-1.321420669555664
1684213748355989800,6.31398974609375,-0.15314796566963196,-2.6566972732543945,-1.3068654537200928
1684213748366013700,6.324013671875,-0.20373420417308807,-2.789741039276123,-1.3034918308258057
1684213748376037600,6.33403759765625,-0.2448001503944397,-2.896042585372925,-1.295176386833191
1684213748386062600,6.3440625,-0.2817705273628235,-2.9965898990631104,-1.2916194200515747
1684213748396086800,6.354086669921875,-0.3056846261024475,-3.0911781787872314,-1.2759100198745728
1684213748406110700,6.36411083984375,-0.31738749146461487,-3.15732479095459,-1.2226859331130981
1684213748416135700,6.3741357421875,-0.3213425576686859,-3.2534661293029785,-1.1401196718215942
1684213748426159600,6.38415966796875,-0.33655112981796265,-3.4347941875457764,-1.0472716093063354
1684213748436184600,6.3941845703125,-0.3128122389316559,-3.671923875808716,-0.9377902150154114
1684213748446208800,6.404208740234375,-0.22794638574123383,-3.9063563346862793,-0.8566035032272339
1684213748456232700,6.414232666015625,-0.10850440710783005,-3.932786703109741,-0.8002094626426697
1684213748466258000,6.4242578125,0.03146173059940338,-3.6475942134857178,-0.7675591707229614
1684213748476281600,6.434281494140625,0.10116730630397797,-3.0654044151306152,-0.7448278069496155
1684213748486306600,6.444306640625,0.08189043402671814,-2.39554762840271,-0.7031468749046326
1684213748496330800,6.454330810546875,0.010463124141097069,-1.8002541065216064,-0.6447603106498718
1684213748506354700,6.464354736328125,-0.13394513726234436,-1.445462703704834,-0.6228254437446594
1684213748516379600,6.474379638671875,-0.29710689187049866,-1.2820364236831665,-0.6203165054321289
1684213748526403600,6.484403564453125,-0.5147305727005005,-1.2647309303283691,-0.6539011597633362
1684213748536428800,6.4944287109375,-0.6330819725990295,-1.1964408159255981,-0.6590301394462585
1684213748546452700,6.50445263671875,-0.5875558257102966,-1.1706098318099976,-0.6633239984512329
1684213748556476700,6.5144765625,-0.39816272258758545,-1.0790303945541382,-0.7231596112251282
1684213748566501600,6.524501708984375,-0.20430651307106018,-1.0176572799682617,-0.8083679676055908
1684213748576525600,6.534525634765625,-0.017286023125052452,-0.9994699358940125,-0.7808145880699158
1684213748586549800,6.5445498046875,0.13794931769371033,-0.9241363406181335,-0.6320237517356873
1684213748596574700,6.55457470703125,0.2593684196472168,-0.8195896744728088,-0.42270511388778687
1684213748606598700,6.5645986328125,0.34889423847198486,-0.7578824758529663,-0.24116003513336182
1684213748616623600,6.57462353515625,0.3396085798740387,-0.7029582858085632,-0.10674470663070679
1684213748626647800,6.584647705078125,0.12853123247623444,-0.7236061096191406,0.004511830396950245
1684213748636671700,6.594671630859375,-0.2067253291606903,-0.9279754757881165,-0.002206791890785098
1684213748646696700,6.60469677734375,-0.4205118715763092,-1.220393419265747,-0.15296508371829987
1684213748656720600,6.614720703125,-0.41560155153274536,-1.476534128189087,-0.3573531210422516
1684213748666745600,6.62474560546875,-0.3903440535068512,-1.7530510425567627,-0.5582878589630127
1684213748676769800,6.634769775390625,-0.3939545154571533,-2.0366616249084473,-0.7200474739074707
1684213748686793700,6.644793701171875,-0.39420825242996216,-2.2637648582458496,-0.8310516476631165
1684213748696818700,6.654818603515625,-0.3993292450904846,-2.409276247024536,-0.8880182504653931
1684213748706842600,6.664842529296875,-0.3803066611289978,-2.4389488697052,-0.9075419902801514
1684213748716867600,6.67486767578125,-0.33204033970832825,-2.387606382369995,-0.915926992893219
1684213748726891800,6.684891845703125,-0.26729199290275574,-2.3235082626342773,-0.9102236032485962
1684213748736915700,6.694915771484375,-0.20520547032356262,-2.253514289855957,-0.8917918801307678
1684213748746940700,6.704940673828125,-0.16869352757930756,-2.191415309906006,-0.8447327017784119
1684213748756964600,6.714964599609375,-0.16590438783168793,-2.132946729660034,-0.7748891711235046
1684213748766988800,6.72498876953125,-0.1441623568534851,-2.056178569793701,-0.7096351385116577
1684213748777013800,6.735013671875,-0.11553391069173813,-1.9714655876159668,-0.6682261824607849
1684213748787037700,6.74503759765625,-0.1033831238746643,-1.9173842668533325,-0.6715114116668701
1684213748797062700,6.755062744140625,-0.10789265483617783,-1.8832159042358398,-0.6937991380691528
1684213748807086600,6.765086669921875,-0.1335729956626892,-1.8752830028533936,-0.7337969541549683
1684213748817110800,6.77511083984375,-0.17012888193130493,-1.893269419670105,-0.7739228010177612
1684213748827135700,6.7851357421875,-0.2102510631084442,-1.9329334497451782,-0.8079853057861328
1684213748837159700,6.79515966796875,-0.25127971172332764,-1.9580345153808594,-0.8223211169242859
1684213748847184600,6.8051845703125,-0.2934614419937134,-1.9641492366790771,-0.8187451958656311
1684213748857208800,6.815208740234375,-0.3202935755252838,-1.968843936920166,-0.805379331111908
1684213748867232800,6.825232666015625,-0.34799638390541077,-1.9691147804260254,-0.8025735020637512
1684213748877257500,6.835257568359375,-0.3763806223869324,-1.9541826248168945,-0.8021937012672424
1684213748887281700,6.84528173828125,-0.38823676109313965,-1.9322792291641235,-0.7966753840446472
1684213748897306600,6.855306640625,-0.421458899974823,-1.9065754413604736,-0.7768771648406982
1684213748907330800,6.865330810546875,-0.43116334080696106,-1.8932422399520874,-0.7349060773849487
1684213748917354500,6.8753544921875,-0.4264697730541229,-1.7998952865600586,-0.6671302318572998
1684213748927379700,6.885379638671875,-0.3772681951522827,-1.6053720712661743,-0.5920903086662292
1684213748937403600,6.895403564453125,-0.296630859375,-1.4713058471679688,-0.5176070332527161
1684213748947427800,6.905427734375,-0.18279129266738892,-1.467273473739624,-0.45043087005615234
1684213748957452800,6.915452880859375,-0.038670871406793594,-1.5825403928756714,-0.3237166106700897
1684213748967476500,6.9254765625,0.10447122156620026,-1.7183799743652344,-0.119898222386837
1684213748977501700,6.935501708984375,0.24134092032909393,-1.8283061981201172,0.10766462981700897
1684213748987525600,6.945525634765625,0.4201247990131378,-1.8303714990615845,0.31779369711875916
1684213748997549800,6.9555498046875,0.6460999250411987,-1.7234957218170166,0.5050123333930969
1684213749007574800,6.96557470703125,0.7850487232208252,-1.587307333946228,0.6477110385894775
1684213749017598700,6.9755986328125,0.8056296110153198,-1.5061999559402466,0.7293446063995361
1684213749027623700,6.985623779296875,0.8222303986549377,-1.3648442029953003,0.7136614322662354
1684213749037647600,6.995647705078125,0.8570719957351685,-1.2003836631774902,0.6866002678871155
1684213749047671800,7.005671875,0.844975471496582,-0.9585055708885193,0.6869347095489502
1684213749057696500,7.015696533203125,0.8184722065925598,-0.668772280216217,0.727528989315033
1684213749067720700,7.025720703125,0.8132056593894958,-0.3397981822490692,0.7709086537361145
1684213749077745700,7.03574560546875,0.8442418575286865,-0.016160180792212486,0.8088650703430176
1684213749087769900,7.045769775390625,0.8695873618125916,0.2598792612552643,0.8791635036468506
1684213749097793500,7.05579345703125,0.8534530997276306,0.4685474932193756,0.9827591776847839
1684213749107818500,7.065818603515625,0.780982494354248,0.49342647194862366,1.0796453952789307
1684213749117842700,7.0758427734375,0.6870924830436707,0.3549218475818634,1.1414508819580078
1684213749127866600,7.08586669921875,0.6237199306488037,0.1133071705698967,1.1228563785552979
1684213749137891800,7.095891845703125,0.5834707617759705,-0.18377110362052917,1.0102360248565674
1684213749147915500,7.10591552734375,0.5396378040313721,-0.4850751459598541,0.8553775548934937
1684213749157940700,7.115940673828125,0.4940926432609558,-0.7627424597740173,0.6767090559005737
1684213749167964700,7.125964599609375,0.4906891882419586,-1.0746864080429077,0.45672616362571716
1684213749177988900,7.13598876953125,0.5544023513793945,-1.19758939743042,0.2613545358181
1684213749188013800,7.146013916015625,0.6353130340576172,-1.1123323440551758,0.10788848251104355
1684213749198037500,7.15603759765625,0.7459993362426758,-0.9471384882926941,-0.03050214610993862
1684213749208062700,7.166062744140625,0.8198661804199219,-0.8072798252105713,-0.18127721548080444
1684213749218086700,7.176086669921875,0.8605456948280334,-0.7224149703979492,-0.34458279609680176
1684213749228110800,7.18611083984375,0.8697064518928528,-0.7294920682907104,-0.5045226812362671
1684213749238135800,7.1961357421875,0.8632171750068665,-0.8134679198265076,-0.6190215945243835
1684213749248160000,7.206159912109375,0.8011458516120911,-1.0398969650268555,-0.6599655151367188
1684213749258184700,7.216184814453125,0.7003321647644043,-1.3634885549545288,-0.6466867327690125
1684213749268208600,7.226208740234375,0.6020917892456055,-1.6261476278305054,-0.6268895268440247
1684213749278232800,7.23623291015625,0.49120232462882996,-1.7110172510147095,-0.601610004901886
1684213749288257800,7.2462578125,0.4138217568397522,-1.6681607961654663,-0.5849484801292419
1684213749298281700,7.25628173828125,0.37150493264198303,-1.6008496284484863,-0.5922982692718506
1684213749308306700,7.266306640625,0.34284165501594543,-1.5161195993423462,-0.6158019304275513
1684213749318331000,7.276330810546875,0.2942371070384979,-1.370053768157959,-0.6541762351989746
1684213749328354800,7.286354736328125,0.22310161590576172,-1.2367106676101685,-0.6767497658729553
1684213749338379800,7.2963798828125,0.1363201141357422,-1.1527742147445679,-0.6795053482055664
1684213749348403700,7.30640380859375,0.06715092062950134,-1.0886471271514893,-0.6531919240951538
1684213749358427600,7.316427734375,0.014769199304282665,-1.0113531351089478,-0.609382688999176
1684213749368452900,7.326452880859375,-0.026952629908919334,-0.9801015257835388,-0.5539849996566772
1684213749378476800,7.336476806640625,-0.05383990332484245,-0.9436660408973694,-0.5135688781738281
1684213749388501800,7.346501708984375,-0.0653512179851532,-0.8993168473243713,-0.4796566665172577
1684213749398525700,7.356525634765625,-0.06036817654967308,-0.8667442798614502,-0.4508620500564575
1684213749408550000,7.3665498046875,-0.05236617103219032,-0.8483244180679321,-0.39857980608940125
1684213749418574800,7.376574951171875,-0.062482189387083054,-0.857657253742218,-0.34387820959091187
1684213749428598800,7.386598876953125,-0.07421649992465973,-0.8834410905838013,-0.2893742024898529
1684213749438623700,7.396623779296875,-0.06554817408323288,-0.8731138706207275,-0.24844755232334137
1684213749448647700,7.406647705078125,-0.04746221750974655,-0.85807204246521,-0.23226413130760193
1684213749458671900,7.416671875,-0.023104146122932434,-0.8285040259361267,-0.24309973418712616
1684213749468696800,7.42669677734375,-0.00015064445324242115,-0.8222473859786987,-0.24509236216545105
1684213749478720800,7.436720703125,0.03159556910395622,-0.8257425427436829,-0.25271087884902954
1684213749488745700,7.446745849609375,0.0750999003648758,-0.8073022365570068,-0.25377801060676575
1684213749498769700,7.456769775390625,0.0967065617442131,-0.7127649784088135,-0.21803274750709534
1684213749508793900,7.4667939453125,0.1050170511007309,-0.6016713380813599,-0.18257012963294983
1684213749518818800,7.47681884765625,0.10661894083023071,-0.4437757134437561,-0.18187052011489868
1684213749528842800,7.4868427734375,0.11442090570926666,-0.24116303026676178,-0.20808260142803192
1684213749538867700,7.49686767578125,0.1251334697008133,-0.02474231645464897,-0.26122626662254333
1684213749548892000,7.506891845703125,0.11321257054805756,0.1647884100675583,-0.323934406042099
1684213749558915800,7.516915771484375,0.09190621227025986,0.2590384781360626,-0.38703641295433044
1684213749568940800,7.52694091796875,0.07149693369865417,0.22507230937480927,-0.43638795614242554
1684213749578964700,7.53696484375,0.044226691126823425,0.10663434863090515,-0.4701201021671295
1684213749588988700,7.54698876953125,0.0200900137424469,-0.01880873180925846,-0.4940275549888611
1684213749599014000,7.557013916015625,0.00860673002898693,-0.0961511954665184,-0.5119447708129883
1684213749609037800,7.567037841796875,0.00610134843736887,-0.10488356649875641,-0.532496452331543
1684213749619062800,7.577062744140625,0.021022506058216095,-0.012597311288118362,-0.5544627904891968
1684213749629086700,7.587086669921875,0.03797312453389168,0.12588649988174438,-0.5828261971473694
1684213749639111000,7.59711083984375,0.03588041290640831,0.2271345555782318,-0.6113516092300415
1684213749649135900,7.607135986328125,-0.007992882281541824,0.24231716990470886,-0.6356396079063416
1684213749659159600,7.61715966796875,-0.07384912669658661,0.19792413711547852,-0.6369096636772156
1684213749669184800,7.627184814453125,-0.1612507402896881,0.11577604711055756,-0.6362998485565186
1684213749679208700,7.637208740234375,-0.23703524470329285,0.012573763728141785,-0.6485235095024109
1684213749689233000,7.64723291015625,-0.3181033134460449,-0.08854330331087112,-0.671097457408905
1684213749699257900,7.6572578125,-0.4100777208805084,-0.10373743623495102,-0.6791505813598633
1684213749709281800,7.66728173828125,-0.5137602090835571,-0.009635970927774906,-0.6858566999435425
1684213749719306800,7.677306640625,-0.6051473617553711,0.18363255262374878,-0.6916278004646301
1684213749729330700,7.68733056640625,-0.6395053267478943,0.3740776777267456,-0.7128480076789856
1684213749739355000,7.69735498046875,-0.6166098713874817,0.48746177554130554,-0.7563558220863342
1684213749749379800,7.7073798828125,-0.5741817355155945,0.5112190842628479,-0.7969183921813965
1684213749759403800,7.71740380859375,-0.5454787015914917,0.4639703631401062,-0.8235348463058472
1684213749769428700,7.7274287109375,-0.5303197503089905,0.35995620489120483,-0.8040270209312439
1684213749779453000,7.737452880859375,-0.5520623326301575,0.16552172601222992,-0.7043361067771912
1684213749789476900,7.747476806640625,-0.55860835313797,-0.08313478529453278,-0.5404528975486755
1684213749799501800,7.757501708984375,-0.472646027803421,-0.2924976050853729,-0.3510637581348419
1684213749809525800,7.76752587890625,-0.24778088927268982,-0.4635375440120697,-0.20954851806163788
1684213749819550700,7.77755078125,0.1097564846277237,-0.5346271395683289,-0.06521931290626526
1684213749829575000,7.787574951171875,0.45576953887939453,-0.5261366367340088,0.0954430103302002
1684213749839598800,7.797598876953125,0.6467019319534302,-0.5430940389633179,0.2277592420578003
1684213749849623800,7.807623779296875,0.8359635472297668,-0.3734736442565918,0.2795809805393219
1684213749859647700,7.817647705078125,0.9309425354003906,-0.005924379453063011,0.1411551833152771
1684213749869672000,7.827671875,0.8349127173423767,0.2480463683605194,-0.08514081686735153
1684213749879697000,7.83769677734375,0.6472698450088501,0.09532128274440765,-0.266640305519104
1684213749889720600,7.847720458984375,0.30762454867362976,-0.48344066739082336,-0.39947211742401123
1684213749899745800,7.857745849609375,-0.02703864872455597,-0.8432246446609497,-0.3768344521522522
1684213749909769700,7.867769775390625,-0.10427512973546982,-0.8957082629203796,-0.35671886801719666
1684213749919794000,7.8777939453125,0.004227111116051674,-0.6813419461250305,-0.3331663906574249
1684213749929819000,7.88781884765625,0.048790786415338516,-0.4594370722770691,-0.2857007086277008
1684213749939842800,7.8978427734375,0.004324787296354771,-0.2736338973045349,-0.20643359422683716
1684213749949867800,7.90786767578125,-0.026745572686195374,-0.14258433878421783,-0.12641474604606628
1684213749959891700,7.9178916015625,-0.038494374603033066,-0.09300773590803146,-0.06114732846617699
1684213749969916000,7.927916015625,-0.018344607204198837,-0.12409214675426483,-0.046686917543411255
1684213749979940900,7.93794091796875,0.010639107786118984,-0.20512814819812775,-0.12499131262302399
1684213749989964800,7.94796484375,0.053238674998283386,-0.23955495655536652,-0.2252456247806549
1684213749999989800,7.95798974609375,0.11213847249746323,-0.21510979533195496,-0.2868991196155548
1684213750010013700,7.968013671875,0.15703238546848297,-0.19559822976589203,-0.3222726881504059
1684213750020038000,7.978037841796875,0.1829739660024643,-0.19429726898670197,-0.32511106133461
1684213750030062600,7.9880625,0.18202440440654755,-0.17584489285945892,-0.31409716606140137
1684213750040086800,7.998086669921875,0.17151476442813873,-0.15118296444416046,-0.308149516582489
1684213750050110700,8.00811083984375,0.16316591203212738,-0.10350985080003738,-0.27969884872436523
1684213750060136000,8.018135986328126,0.1265663504600525,-0.025566579774022102,-0.2256116420030594
1684213750070159600,8.02815966796875,0.08140583336353302,0.03292849659919739,-0.16040882468223572
1684213750080184600,8.0381845703125,0.07095639407634735,0.09113827347755432,-0.13271833956241608
1684213750090208800,8.048208740234376,0.06337795406579971,0.1315939575433731,-0.1605522334575653
1684213750100233000,8.05823291015625,0.05124858394265175,0.09405217319726944,-0.25167495012283325
1684213750110258000,8.0682578125,0.02339763380587101,-0.014501871541142464,-0.3318479359149933
1684213750120281600,8.078281494140626,0.014038486406207085,-0.1488138735294342,-0.38199153542518616
1684213750130306800,8.088306884765625,0.008167402818799019,-0.2888161242008209,-0.41187554597854614
1684213750140330800,8.098330810546875,-0.006363868713378906,-0.3854289650917053,-0.39693281054496765
1684213750150355000,8.10835498046875,-0.012353507801890373,-0.4508678913116455,-0.38245171308517456
1684213750160380000,8.1183798828125,-0.016710972413420677,-0.46248859167099,-0.3742440938949585
1684213750170403800,8.12840380859375,-0.016845116391777992,-0.38755685091018677,-0.33913469314575195
1684213750180428800,8.1384287109375,-0.02484205737709999,-0.29745012521743774,-0.2819150686264038
1684213750190452700,8.14845263671875,-0.03892330080270767,-0.21416419744491577,-0.22800475358963013
1684213750200477000,8.158476806640625,-0.04165703430771828,-0.11519819498062134,-0.18614305555820465
1684213750210501600,8.168501708984374,-0.03950480371713638,0.010836396366357803,-0.16089196503162384
1684213750220525600,8.178525634765625,-0.018924161791801453,0.07363133877515793,-0.13816215097904205
1684213750230550300,8.18855029296875,-0.009678078815340996,0.08141988515853882,-0.11388889700174332
1684213750240574500,8.198574462890624,0.008610647171735764,0.12656712532043457,-0.1051742285490036
1684213750250598400,8.208598388671875,0.02507180906832218,0.1816067099571228,-0.08647838979959488
1684213750260623400,8.218623291015625,0.05495167523622513,0.2233445644378662,-0.03965921700000763
1684213750270647300,8.228647216796874,0.0678907036781311,0.2549651563167572,0.0036193826235830784
1684213750280672300,8.23867236328125,0.06833705306053162,0.3574385344982147,0.055755022913217545
1684213750290696400,8.248696533203125,0.07119549810886383,0.4214440882205963,0.09962829947471619
1684213750300720400,8.258720458984374,0.06095191836357117,0.5242503881454468,0.15337274968624115
1684213750310745600,8.26874560546875,0.04056904464960098,0.5578376650810242,0.19610495865345
1684213750320769300,8.278769287109375,0.03244400396943092,0.5360695123672485,0.18629653751850128
1684213750330794200,8.288794189453125,0.07787453383207321,0.4651011824607849,0.12064778059720993
1684213750340818400,8.298818359375,0.13585394620895386,0.38822585344314575,0.042209163308143616
1684213750350842400,8.30884228515625,0.19491206109523773,0.3446284234523773,-0.023757193237543106
1684213750360867600,8.31886767578125,0.24018339812755585,0.38603898882865906,-0.0438787043094635
1684213750370891300,8.328891357421876,0.2745194435119629,0.4720506966114044,-0.03418794274330139
1684213750380915500,8.33891552734375,0.3063815236091614,0.5706667900085449,-0.024111606180667877
1684213750390940400,8.3489404296875,0.31884539127349854,0.6267015337944031,-0.0054007889702916145
1684213750400964600,8.358964599609376,0.29330700635910034,0.6492034196853638,0.03372557461261749
1684213750410989300,8.3689892578125,0.25302088260650635,0.6708968281745911,0.07426292449235916
1684213750421013200,8.37901318359375,0.20482699573040009,0.7075549960136414,0.08714836090803146
1684213750431038500,8.38903857421875,0.15052899718284607,0.7169778943061829,0.09346704185009003
1684213750441062400,8.3990625,0.10374552011489868,0.6637817621231079,0.10043787211179733
1684213750451086600,8.409086669921875,0.04059121012687683,0.5330697894096375,0.08676199615001678
1684213750461111300,8.419111328125,-0.02230173721909523,0.40868979692459106,0.05802223086357117
1684213750471135500,8.429135498046875,-0.10915185511112213,0.3194892406463623,0.024233855307102203
1684213750481160400,8.439160400390625,-0.1557459831237793,0.2715020179748535,0.011400613002479076
1684213750491184400,8.449184326171874,-0.1855389028787613,0.2624680697917938,0.00862180721014738
1684213750501208300,8.459208251953125,-0.20183584094047546,0.26150214672088623,0.0054419925436377525
1684213750511233300,8.4692333984375,-0.206635981798172,0.2598310112953186,-0.004687782842665911
1684213750521257500,8.479257568359374,-0.22401203215122223,0.27991151809692383,-0.02832546830177307
1684213750531282400,8.489282470703126,-0.23434366285800934,0.29782214760780334,-0.06866250187158585
1684213750541306400,8.499306396484375,-0.25607240200042725,0.2985646426677704,-0.10192298889160156
1684213750551330300,8.509330322265624,-0.27480393648147583,0.28241804242134094,-0.14572128653526306
1684213750561355300,8.519355224609376,-0.2962448000907898,0.25811484456062317,-0.17168577015399933
1684213750571379500,8.52937939453125,-0.3233327567577362,0.2261732816696167,-0.1996576189994812
1684213750581404400,8.539404296875,-0.34641116857528687,0.21735422313213348,-0.22863973677158356
1684213750591428600,8.5494287109375,-0.3710401654243469,0.22426827251911163,-0.2479916214942932
1684213750601452300,8.559452392578125,-0.3965953290462494,0.19519853591918945,-0.2575981616973877
1684213750611477200,8.569477294921874,-0.4298337697982788,0.15457949042320251,-0.2754758894443512
1684213750621501400,8.57950146484375,-0.4644250273704529,0.11400756239891052,-0.2974996864795685
1684213750631526400,8.5895263671875,-0.5031863451004028,0.0834452211856842,-0.3032955825328827
1684213750641550300,8.59955029296875,-0.5130338668823242,0.07488688826560974,-0.3065877854824066
1684213750651574300,8.60957421875,-0.5342747569084167,0.05685931444168091,-0.3002418875694275
1684213750661599500,8.619599609375,-0.5528236627578735,0.04844239354133606,-0.27925512194633484
1684213750671623400,8.62962353515625,-0.5655831098556519,0.055719923228025436,-0.2715945243835449
1684213750681648400,8.6396484375,-0.5817226767539978,0.058828629553318024,-0.2748241424560547
1684213750691672300,8.64967236328125,-0.59697026014328,0.04094601795077324,-0.26809656620025635
1684213750701696500,8.659696533203125,-0.6072385907173157,0.04124296084046364,-0.25184622406959534
1684213750711721500,8.669721435546874,-0.6218835115432739,0.02833380177617073,-0.22093845903873444
1684213750721745400,8.679745361328125,-0.6334477663040161,-0.006530972197651863,-0.20764662325382233
1684213750731770600,8.6897705078125,-0.652773380279541,-0.04172930866479874,-0.19955793023109436
1684213750741794300,8.699794189453126,-0.6684679388999939,-0.08131878823041916,-0.19759517908096313
1684213750751818500,8.709818603515625,-0.6655582189559937,-0.13392898440361023,-0.21101316809654236
1684213750761843500,8.719843505859375,-0.6454505324363708,-0.20405986905097961,-0.24016839265823364
1684213750771867400,8.729867431640624,-0.5922551155090332,-0.3398253619670868,-0.259358674287796
1684213750781892400,8.739892333984375,-0.5241391658782959,-0.49253422021865845,-0.25297775864601135
1684213750791916300,8.749916259765625,-0.4359950125217438,-0.6074586510658264,-0.2277856320142746
1684213750801940500,8.7599404296875,-0.36900800466537476,-0.6140062808990479,-0.17718558013439178
1684213750811965400,8.76996533203125,-0.3106185495853424,-0.5332892537117004,-0.10138212144374847
1684213750821989400,8.7799892578125,-0.28064867854118347,-0.48355230689048767,-0.0868079736828804
1684213750832014300,8.790014404296874,-0.2738865613937378,-0.371170312166214,-0.09395984560251236
1684213750842038300,8.800038330078126,-0.23713600635528564,-0.16761267185211182,-0.08071567863225937
1684213750852062500,8.8100625,-0.18275266885757446,0.04214341193437576,-0.04471493512392044
1684213750862087400,8.82008740234375,-0.13173316419124603,0.1578977108001709,-0.023763317614793777
1684213750872111400,8.830111328125,-0.050260093063116074,0.16439953446388245,-0.02148134633898735
1684213750882136300,8.84013623046875,0.03285796567797661,0.1426638811826706,0.01197860948741436
1684213750892160500,8.850160400390624,0.10715318471193314,0.2486821860074997,0.10764259845018387
1684213750902184400,8.860184326171876,0.2218392938375473,0.4273645877838135,0.24160973727703094
1684213750912209400,8.87020947265625,0.3257353603839874,0.5716693997383118,0.4022166132926941
1684213750922233300,8.8802333984375,0.4202437400817871,0.6196774244308472,0.5659480094909668
1684213750932258300,8.89025830078125,0.46162065863609314,0.5320315957069397,0.6835545301437378
1684213750942282500,8.900282470703125,0.46780717372894287,0.3540075719356537,0.7247575521469116
1684213750952306400,8.910306396484375,0.45871901512145996,0.186089888215065,0.7683114409446716
1684213750962331400,8.920331298828126,0.41564905643463135,0.17877231538295746,0.8696553707122803
1684213750972355300,8.930355224609375,0.368929922580719,0.3432095944881439,1.0209797620773315
1684213750982380300,8.94038037109375,0.3366556167602539,0.6284799575805664,1.1909570693969727
1684213750992404500,8.950404541015626,0.2803776264190674,0.9359338283538818,1.3750543594360352
1684213751002428400,8.960428466796875,0.25445282459259033,1.1304417848587036,1.5212863683700562
1684213751012453400,8.970453369140625,0.2437417358160019,1.2060481309890747,1.619714617729187
1684213751022477300,8.980477294921876,0.30137547850608826,1.1951688528060913,1.7149628400802612
1684213751032501500,8.99050146484375,0.40585607290267944,1.1502338647842407,1.7931212186813354
1684213751042526500,9.0005263671875,0.5309982299804688,1.009897232055664,1.717248558998108
1684213751052550400,9.01055029296875,0.6268052458763123,0.9351512789726257,1.5724729299545288
1684213751062575400,9.020575439453125,0.7071802616119385,0.8606983423233032,1.4156769514083862
1684213751072599300,9.030599365234375,0.7137379050254822,0.6406506896018982,1.2299931049346924
1684213751082624500,9.04062451171875,0.6414077877998352,0.3897228538990021,1.0587453842163086
1684213751092648400,9.0506484375,0.6077873706817627,0.09584487974643707,0.8805997967720032
1684213751102672400,9.06067236328125,0.5770459771156311,-0.16401758790016174,0.7003064751625061
1684213751112697300,9.070697265625,0.5582881569862366,-0.3195911943912506,0.6006916165351868
1684213751122721500,9.080721435546875,0.5053015947341919,-0.5796446204185486,0.5041708946228027
1684213751132745500,9.090745361328125,0.4237460792064667,-0.8679428696632385,0.3961401581764221
1684213751142770200,9.100770263671874,0.3471152186393738,-1.1383808851242065,0.30001601576805115
1684213751152794400,9.11079443359375,0.31115859746932983,-1.337289810180664,0.19456137716770172
1684213751162819300,9.1208193359375,0.30567941069602966,-1.3023982048034668,0.11681225895881653
1684213751172843500,9.130843505859374,0.33800315856933594,-1.0152075290679932,0.05968090519309044
1684213751182867200,9.1408671875,0.4040229320526123,-0.5417668223381042,0.015570433810353279
1684213751192892400,9.150892333984375,0.4412957727909088,-0.07013830542564392,0.014510419219732285
1684213751202916400,9.160916259765624,0.39725160598754883,0.06500779837369919,0.00012189173139631748
1684213751212941300,9.17094140625,0.30801501870155334,-0.018582290038466454,-0.0788043811917305
1684213751222965200,9.18096533203125,0.29106903076171875,-0.15248416364192963,-0.17686410248279572
1684213751232989200,9.1909892578125,0.31489139795303345,-0.10905158519744873,-0.22298771142959595
1684213751243014400,9.201014404296876,0.30530402064323425,0.0752871036529541,-0.2443007230758667
1684213751253038000,9.2110380859375,0.30693864822387695,-0.11713355034589767,-0.30383872985839844
1684213751263063300,9.221063232421875,0.3211844265460968,-0.2130875140428543,-0.26877662539482117
1684213751273087200,9.231087158203126,0.31301501393318176,-0.20319639146327972,-0.2298697978258133
1684213751283111400,9.241111328125,0.28697675466537476,-0.1981228142976761,-0.20214496552944183
1684213751293136400,9.251136474609375,0.2595323622226715,-0.20385323464870453,-0.15387247502803802
1684213751303160000,9.26116015625,0.22451366484165192,-0.19855087995529175,-0.09174837917089462
1684213751313185300,9.271185302734375,0.19396044313907623,-0.1759987473487854,-0.03817223757505417
1684213751323209200,9.281209228515625,0.16911740601062775,-0.12531161308288574,0.025272246450185776
1684213751333233400,9.2912333984375,0.13194958865642548,-0.07268320769071579,0.08923028409481049
1684213751343258400,9.30125830078125,0.08687612414360046,-0.017364026978611946,0.17470577359199524
1684213751353282300,9.3112822265625,0.02644265815615654,0.034763067960739136,0.25816676020622253
1684213751363307300,9.321307373046874,-0.03182091563940048,0.10492165386676788,0.33592838048934937
1684213751373331200,9.331331298828125,-0.07536417990922928,0.20774845778942108,0.4186060428619385
1684213751383355400,9.34135546875,-0.11582425236701965,0.3090002238750458,0.482596218585968
1684213751393380000,9.351380126953124,-0.14214390516281128,0.399842768907547,0.5544041991233826
1684213751403404300,9.361404296875,-0.17204773426055908,0.43313068151474,0.6326601505279541
1684213751413429200,9.37142919921875,-0.19365929067134857,0.40453311800956726,0.7248371839523315
1684213751423453400,9.381453369140624,-0.19400790333747864,0.34507617354393005,0.8072513937950134
1684213751433477000,9.39147705078125,-0.17028360068798065,0.2968232333660126,0.8785727620124817
1684213751443502000,9.401502197265625,-0.12623092532157898,0.31472155451774597,0.9285600185394287
1684213751453526300,9.4115263671875,-0.05793403461575508,0.41182833909988403,0.914031445980072
1684213751463551200,9.42155126953125,0.03617755323648453,0.6243413686752319,0.8262195587158203
1684213751473575400,9.431575439453125,0.12357781827449799,0.9312822222709656,0.6698853969573975
1684213751483599000,9.44159912109375,0.1703687608242035,1.2637392282485962,0.4884148836135864
1684213751493624300,9.451624267578126,0.14764979481697083,1.5223029851913452,0.318803608417511
1684213751503648300,9.461648193359375,0.12830671668052673,1.627844214439392,0.19477780163288116
1684213751513673200,9.471673095703125,0.09891004860401154,1.5964668989181519,0.12910571694374084
1684213751523697400,9.481697509765626,0.06337708979845047,1.409968376159668,0.09108403325080872
1684213751533721000,9.49172119140625,0.020989030599594116,1.009006142616272,0.07432695478200912
1684213751543746300,9.501746337890625,0.07886164635419846,0.657379686832428,-0.0454857237637043
1684213751553770200,9.511770263671876,0.2631126642227173,0.5559961795806885,-0.292858749628067
1684213751563795500,9.52179541015625,0.5397146940231323,0.6945191621780396,-0.5008338093757629
1684213751573819100,9.531819091796875,0.7973394393920898,0.8307811617851257,-0.6467415690422058
1684213751583843300,9.54184326171875,0.7939950823783875,0.7346817851066589,-0.7440377473831177
1684213751593868300,9.551868408203125,0.5465229749679565,0.4096391797065735,-0.7314108610153198
1684213751603892200,9.561892333984375,0.16318652033805847,-0.1259630024433136,-0.5986442565917969
1684213751613917400,9.57191748046875,-0.2486705631017685,-0.7200014591217041,-0.47570374608039856
1684213751623941000,9.581941162109375,-0.5646490454673767,-1.2822792530059814,-0.5378537178039551
1684213751633965300,9.59196533203125,-0.7144498825073242,-1.6315059661865234,-0.7408451437950134
1684213751643990300,9.601990234375,-0.7976539731025696,-1.6574881076812744,-0.8743733763694763
1684213751654014500,9.612014404296875,-0.8881793022155762,-1.3685288429260254,-0.8575961589813232
1684213751664039400,9.622039306640625,-0.9409503936767578,-0.8483096957206726,-0.7805213332176208
1684213751674063000,9.63206298828125,-0.9420003294944763,-0.25415146350860596,-0.6668035984039307
1684213751684087300,9.64208740234375,-0.8995335698127747,0.20610880851745605,-0.5059385299682617
1684213751694112300,9.6521123046875,-0.8860781192779541,0.4628303647041321,-0.35603830218315125
1684213751704136400,9.662136474609374,-0.9117768406867981,0.7137830257415771,-0.23177918791770935
1684213751714161400,9.672161376953126,-0.9398190379142761,0.9600071907043457,-0.1366228461265564
1684213751724185300,9.682185302734375,-0.9308359026908875,1.1277934312820435,-0.09206762909889221
1684213751734209300,9.692209228515624,-0.8605934977531433,1.1766443252563477,-0.10068617761135101
1684213751744234200,9.702234130859376,-0.7486619353294373,1.1298561096191406,-0.1328161507844925
1684213751754258400,9.712258544921875,-0.6304603219032288,0.9841284155845642,-0.17450839281082153
1684213751764283100,9.722283203125,-0.5039244890213013,0.8023884296417236,-0.23090028762817383
1684213751774307300,9.732307373046876,-0.30718880891799927,0.624832034111023,-0.30890509486198425
1684213751784331300,9.742331298828125,0.04038327559828758,0.4527830183506012,-0.32840874791145325
1684213751794356200,9.752356201171875,0.41404247283935547,0.24586087465286255,-0.09866541624069214
1684213751804380200,9.762380126953126,0.5512682795524597,0.1648901253938675,0.2876521944999695
1684213751814405000,9.772405029296875,0.598148763179779,0.4566919505596161,0.5003000497817993
1684213751824429300,9.78242919921875,0.4685726463794708,0.8386355638504028,0.511162281036377
1684213751834453200,9.792453369140626,0.19928114116191864,0.8295163512229919,0.33738356828689575
1684213751844478500,9.802478515625,-0.01727805845439434,0.33190786838531494,0.05648372322320938
1684213751854502100,9.812502197265625,-0.2740606367588043,-0.41142693161964417,-0.179680734872818
1684213751864527000,9.822527099609376,-0.47699883580207825,-1.0201369524002075,-0.32848060131073
1684213751874551300,9.83255126953125,-0.5316091775894165,-1.2954752445220947,-0.3753819465637207
1684213751884575500,9.842575439453125,-0.5128014087677002,-1.4352941513061523,-0.4123958945274353
1684213751894600400,9.852600341796874,-0.5453256368637085,-1.458752155303955,-0.39706021547317505
1684213751904624000,9.8626240234375,-0.4911350905895233,-1.3441725969314575,-0.3611496388912201
1684213751914649300,9.8726494140625,-0.3230680525302887,-1.0037802457809448,-0.3380375802516937
1684213751924673300,9.88267333984375,-0.1361599564552307,-0.514083206653595,-0.32332149147987366
1684213751934698200,9.8926982421875,-0.004655872471630573,-0.03399788588285446,-0.27421486377716064
1684213751944722200,9.90272216796875,0.021475329995155334,0.23020394146442413,-0.195512592792511
1684213751954746400,9.912746337890624,0.08942890167236328,0.29247960448265076,-0.10212935507297516
1684213751964771300,9.922771240234376,0.1311313360929489,0.30205634236335754,-0.044162455946207047
1684213751974795300,9.932795166015625,0.16344070434570312,0.2710381746292114,-0.00581826688721776
1684213751984819200,9.942819091796874,0.23598547279834747,0.3170815706253052,-0.003257104894146323
1684213751994844200,9.95284423828125,0.2887243926525116,0.3704735040664673,-0.05193481966853142
1684213752004868400,9.962868408203125,0.27378538250923157,0.2880396246910095,-0.12212003022432327
1684213752014893300,9.972893310546874,0.19454890489578247,0.0398217998445034,-0.15467534959316254
1684213752024917200,9.982917236328126,0.09315863251686096,-0.18460439145565033,-0.12227161228656769
1684213752034941200,9.992941162109375,0.02781987562775612,-0.28809821605682373,-0.09419991821050644
1684213752044966100,10.002966064453124,-0.03244666010141373,-0.33970069885253906,-0.06779094785451889
1684213752054990300,10.012990234375,-0.09788265824317932,-0.33328166604042053,-0.027548981830477715
1684213752065015300,10.023015380859375,-0.1398923248052597,-0.3089032769203186,0.00774616003036499
1684213752075039500,10.03303955078125,-0.17561039328575134,-0.22936727106571198,0.018895898014307022
1684213752085063200,10.043063232421876,-0.24411515891551971,-0.13446499407291412,-0.017967045307159424
1684213752095088000,10.053088134765625,-0.3097693920135498,-0.07892525941133499,-0.07486527413129807
1684213752105112300,10.0631123046875,-0.38915157318115234,-0.09838045388460159,-0.13667511940002441
1684213752115137300,10.07313720703125,-0.4571716785430908,-0.08330410718917847,-0.18998239934444427
1684213752125161200,10.0831611328125,-0.5173692107200623,0.039583731442689896,-0.19567809998989105
1684213752135185200,10.09318505859375,-0.6023902893066406,0.10883992165327072,-0.19021333754062653
1684213752145210400,10.10321044921875,-0.6208310723304749,0.23635287582874298,-0.14693723618984222
1684213752155234300,10.113234375,-0.571107029914856,0.3880712389945984,-0.096348837018013
1684213752165259300,10.12325927734375,-0.484456330537796,0.49032333493232727,-0.04747424274682999
1684213752175283200,10.133283203125,-0.3944232761859894,0.547258734703064,0.011229105293750763
1684213752185308200,10.14330810546875,-0.31962788105010986,0.5724546313285828,0.05961208790540695
1684213752195332400,10.153332275390625,-0.25222641229629517,0.6283734440803528,0.11005821079015732
1684213752205356300,10.163356201171876,-0.15939873456954956,0.6888620853424072,0.1336040198802948
1684213752215381800,10.1733818359375,-0.053556766360998154,0.6971248984336853,0.11820216476917267
1684213752225406000,10.183406005859375,0.0326998233795166,0.6754273176193237,0.08163642883300781
1684213752235431000,10.193430908203124,0.09582623094320297,0.6357617974281311,0.042788680642843246
1684213752245454800,10.203454833984376,0.1498950719833374,0.5553609728813171,0.00770899374037981
1684213752255478800,10.213478759765625,0.2039504498243332,0.4868089556694031,-0.020385636016726494
1684213752265504000,10.22350390625,0.2359456568956375,0.3921913802623749,-0.05302134528756142
1684213752275528000,10.23352783203125,0.26068976521492004,0.2838495075702667,-0.08661691844463348
1684213752285553000,10.243552978515625,0.2729658782482147,0.17313095927238464,-0.15000760555267334
1684213752295576800,10.253576904296875,0.30663543939590454,0.0838039442896843,-0.2601068317890167
1684213752305600800,10.263600830078126,0.37248340249061584,-0.00823570042848587,-0.411578893661499
1684213752315626000,10.2736259765625,0.45144549012184143,-0.16088637709617615,-0.6081864237785339
1684213752325650000,10.28364990234375,0.5712347626686096,-0.39581209421157837,-0.8125981688499451
1684213752335675000,10.2936748046875,0.7034196257591248,-0.6521121263504028,-0.9364176988601685
1684213752345698800,10.30369873046875,0.7991877198219299,-0.6705625057220459,-0.8592392802238464
1684213752355723000,10.313722900390625,0.7980118989944458,-0.4172143340110779,-0.6142560839653015
1684213752365748000,10.323748046875,0.7993080615997314,-0.009274276904761791,-0.33551767468452454
1684213752375772000,10.33377197265625,0.6954901218414307,0.171109139919281,-0.02212216705083847
1684213752385796900,10.343796875,0.25379446148872375,-0.10411098599433899,0.2578306496143341
1684213752395820800,10.35382080078125,-0.30529794096946716,-0.3318803906440735,0.4044039249420166
1684213752405845000,10.363844970703125,-0.42956823110580444,-0.42039984464645386,0.31611132621765137
1684213752415870000,10.373869873046875,-0.31212055683135986,-0.3798770606517792,0.19841597974300385
1684213752425894100,10.38389404296875,-0.32640016078948975,-0.2929794490337372,0.09159791469573975
1684213752435918800,10.3939189453125,-0.3195044696331024,-0.10313670337200165,-0.048774607479572296
1684213752445942800,10.40394287109375,-0.2662274241447449,0.13015593588352203,-0.20808090269565582
1684213752455967000,10.413967041015624,-0.19415560364723206,0.27821651101112366,-0.3423577845096588
1684213752465992000,10.423991943359376,-0.12598294019699097,0.34126096963882446,-0.43536120653152466
1684213752476015900,10.434015869140625,-0.14595350623130798,0.3800169825553894,-0.45283421874046326
1684213752486040800,10.444040771484374,-0.19905933737754822,0.3833150565624237,-0.3998548984527588
1684213752496065000,10.45406494140625,-0.19976605474948883,0.3657228946685791,-0.27556124329566956
1684213752506089000,10.4640888671875,-0.16053663194179535,0.25000935792922974,-0.13626672327518463
1684213752516114000,10.474114013671874,-0.11777079850435257,0.09620071202516556,0.0003017082344740629
1684213752526137900,10.484137939453126,-0.04899786412715912,-0.006337115541100502,0.07033592462539673
1684213752536162800,10.494162841796875,0.007003207691013813,0.02186908945441246,0.027163028717041016
1684213752546187000,10.50418701171875,0.04563076049089432,0.15386998653411865,-0.07039894163608551
1684213752556211000,10.5142109375,0.06524783372879028,0.25531744956970215,-0.197757288813591
1684213752566236000,10.52423583984375,0.06350106745958328,0.28139886260032654,-0.33520621061325073
1684213752576259800,10.534259765625,0.04315502569079399,0.22885070741176605,-0.44430920481681824
1684213752586284800,10.544284912109376,0.0063613238744437695,0.07701697945594788,-0.5118882656097412
1684213752596309000,10.55430908203125,-0.04975423961877823,-0.11280983686447144,-0.5258764624595642
1684213752606333000,10.5643330078125,-0.11425226926803589,-0.25065478682518005,-0.4821891784667969
1684213752616358000,10.57435791015625,-0.16830381751060486,-0.33203741908073425,-0.4059991240501404
1684213752626381800,10.5843818359375,-0.19949528574943542,-0.3802363872528076,-0.3764481544494629
1684213752636406800,10.59440673828125,-0.23688101768493652,-0.27969834208488464,-0.3265836238861084
1684213752646431000,10.604430908203126,-0.26498857140541077,-0.12051666527986526,-0.2641468644142151
1684213752656455000,10.614454833984375,-0.27657127380371094,0.09501006454229355,-0.2221321314573288
1684213752666479900,10.62447998046875,-0.3011370897293091,0.2663283050060272,-0.2045920193195343
1684213752676503800,10.63450390625,-0.3389355540275574,0.3354584276676178,-0.2267046719789505
1684213752686529000,10.644529052734375,-0.39009276032447815,0.2602566182613373,-0.27257654070854187
1684213752696553000,10.654552978515625,-0.4497610330581665,0.15855303406715393,-0.23599575459957123
1684213752706577000,10.664576904296876,-0.4953431487083435,0.04158593341708183,-0.15654486417770386
1684213752716601900,10.674601806640625,-0.5158548355102539,-0.03308733552694321,-0.09190323203802109
1684213752726625800,10.684625732421875,-0.5254608392715454,-0.05475161597132683,-0.05648824945092201
1684213752736651000,10.694651123046874,-0.5115786194801331,-0.016949526965618134,-0.02709680236876011
1684213752746675000,10.704675048828125,-0.4732078015804291,0.06097856163978577,0.06559611111879349
1684213752756700000,10.714699951171875,-0.3695310354232788,0.09608642011880875,0.2115117758512497
1684213752766723800,10.724723876953124,-0.15655617415905,-0.04922736436128616,0.3084559142589569
1684213752776748000,10.734748046875,0.20098882913589478,-0.3987988233566284,0.29663869738578796
1684213752786773000,10.74477294921875,0.5057143568992615,-0.6735275983810425,0.17018675804138184
1684213752796796700,10.754796630859374,0.5892139077186584,-0.8837669491767883,0.05278376489877701
1684213752806822000,10.76482177734375,0.6330586075782776,-1.1435585021972656,-0.006298731546849012
1684213752816845800,10.774845703125,0.6166885495185852,-1.215126633644104,-0.0013258280232548714
1684213752826870000,10.7848701171875,0.5327025651931763,-0.9553853869438171,0.11735688149929047
1684213752836895000,10.79489501953125,0.45245465636253357,-0.42407551407814026,0.37801164388656616
1684213752846919000,10.8049189453125,0.2835250198841095,0.1643616408109665,0.7281526327133179
1684213752856943900,10.81494384765625,0.20548897981643677,0.7097253203392029,1.1056325435638428
1684213752866967800,10.8249677734375,0.18415972590446472,1.159470796585083,1.4218530654907227
1684213752876992000,10.834991943359375,0.08678320795297623,1.598408818244934,1.6827949285507202
1684213752887017000,10.845016845703125,-0.07161922007799149,2.074216365814209,1.8999701738357544
1684213752897041000,10.855041015625,-0.17338889837265015,2.4618968963623047,2.0544474124908447
1684213752907065900,10.86506591796875,-0.21580399572849274,2.7220380306243896,2.182497978210449
1684213752917090000,10.875090087890625,-0.23570649325847626,2.7696266174316406,2.2573599815368652
1684213752927114000,10.885114013671876,-0.18515676259994507,2.5945959091186523,2.3046205043792725
1684213752937138700,10.895138671875,-0.06799866259098053,2.3056674003601074,2.2524585723876953
1684213752947163000,10.905162841796875,0.055497437715530396,1.8833544254302979,2.1503713130950928
1684213752957187800,10.915187744140624,0.11661742627620697,1.3371391296386719,1.9629684686660767
1684213752967212000,10.9252119140625,0.1618855744600296,0.8029913306236267,1.6938790082931519
1684213752977235700,10.935235595703125,0.18741044402122498,0.4059365391731262,1.3806853294372559
1684213752987261000,10.945260986328124,0.18658140301704407,0.12697680294513702,1.0527104139328003
1684213752997284900,10.955284912109375,0.30000048875808716,-0.18179704248905182,0.7012314796447754
1684213753007309800,10.965309814453125,0.3993989825248718,-0.3930155336856842,0.3988223969936371
1684213753017334000,10.975333984375,0.4686266779899597,-0.5464240908622742,0.1160506159067154
1684213753027357700,10.985357666015625,0.4911775290966034,-0.7186341881752014,-0.15493828058242798
1684213753037383000,10.9953828125,0.49894699454307556,-0.8483994007110596,-0.34996435046195984
1684213753047406800,11.00540673828125,0.502995491027832,-0.94235759973526,-0.4481324553489685
1684213753057432000,11.01543212890625,0.47115209698677063,-1.0274070501327515,-0.47775331139564514
1684213753067456000,11.0254560546875,0.40970125794410706,-1.1105294227600098,-0.5207186341285706
1684213753077480000,11.03547998046875,0.34496772289276123,-1.1501907110214233,-0.5839968919754028
1684213753087505000,11.0455048828125,0.28604742884635925,-1.184673547744751,-0.6552697420120239
1684213753097528800,11.05552880859375,0.24085082113742828,-1.17841374874115,-0.6990270614624023
1684213753107554000,11.065553955078125,0.20302994549274445,-1.105132818222046,-0.7062186598777771
1684213753117577700,11.07557763671875,0.1632762998342514,-1.0197621583938599,-0.675341784954071
1684213753127602700,11.085602783203125,0.11051347851753235,-0.8836163282394409,-0.6177785992622375
1684213753137627000,11.095626953125,0.05537498742341995,-0.7745802998542786,-0.5573588013648987
1684213753147651000,11.105651123046876,-0.005428445525467396,-0.7118819952011108,-0.4857642352581024
1684213753157676000,11.115676025390625,-0.050979986786842346,-0.6804719567298889,-0.40176451206207275
1684213753167699700,11.12569970703125,-0.0658327043056488,-0.6310844421386719,-0.2880297005176544
1684213753177725000,11.135724853515624,-0.05265864357352257,-0.5636730790138245,-0.16599592566490173
1684213753187748900,11.145748779296875,-0.054151613265275955,-0.44074714183807373,-0.039405226707458496
1684213753197773000,11.15577294921875,-0.09627574682235718,-0.3044743835926056,0.07656331360340118
1684213753207798000,11.165798095703124,-0.10441330075263977,-0.14099812507629395,0.17023228108882904
1684213753217821200,11.1758212890625,-0.08422040194272995,0.01874936930835247,0.22956782579421997
1684213753227846100,11.18584619140625,-0.04600297659635544,0.11503222584724426,0.27118930220603943
1684213753237870000,11.1958701171875,0.003999926149845123,0.0998154729604721,0.30159899592399597
1684213753247894000,11.20589404296875,0.04921933636069298,-0.016973990947008133,0.3007529079914093
1684213753257919000,11.2159189453125,0.08197445422410965,-0.23713809251785278,0.2955675721168518
1684213753267943200,11.225943115234376,0.078875333070755,-0.48104503750801086,0.3100844621658325
1684213753277968100,11.235968017578125,0.0700049102306366,-0.6332358121871948,0.30365967750549316
1684213753287992000,11.245991943359375,0.10020729154348373,-0.6224066019058228,0.2736743688583374
1684213753298016000,11.25601611328125,0.12882645428180695,-0.5212678909301758,0.22762443125247955
1684213753308041200,11.266041259765625,0.1506582498550415,-0.38266292214393616,0.17369568347930908
1684213753318065200,11.276065185546875,0.1622398942708969,-0.30452045798301697,0.12138759344816208
1684213753328089900,11.28608984375,0.17271916568279266,-0.2971869111061096,0.0443175844848156
1684213753338114000,11.296114013671875,0.17166800796985626,-0.32590776681900024,-0.04364900290966034
1684213753348138000,11.306137939453125,0.18165938556194305,-0.3774215579032898,-0.11934110522270203
1684213753358163200,11.3161630859375,0.16736967861652374,-0.3948434293270111,-0.17755918204784393
1684213753368187100,11.326187255859375,0.13455474376678467,-0.39841580390930176,-0.21109318733215332
1684213753378212000,11.336212158203125,0.08645597100257874,-0.3937879502773285,-0.2226860672235489
1684213753388236000,11.346236083984374,0.05099278315901756,-0.3919682204723358,-0.2509126365184784
1684213753398260200,11.35626025390625,0.028502020984888077,-0.39867711067199707,-0.29520174860954285
1684213753408285200,11.36628515625,0.04223514348268509,-0.35586199164390564,-0.3166274130344391
1684213753418308900,11.376308837890624,0.042804114520549774,-0.3539979159832001,-0.34022951126098633
1684213753428334000,11.386333984375,0.04361877590417862,-0.3487115502357483,-0.3580108880996704
1684213753438358000,11.39635791015625,0.04272189363837242,-0.38160544633865356,-0.3475756049156189
1684213753448383000,11.406383056640625,0.04566974565386772,-0.4478728771209717,-0.3168419301509857
1684213753458407200,11.4164072265625,0.045969121158123016,-0.5023200511932373,-0.30605068802833557
1684213753468431000,11.42643115234375,0.05201795697212219,-0.49052971601486206,-0.298511266708374
1684213753478456000,11.4364560546875,0.06656711548566818,-0.45633214712142944,-0.3054557144641876
1684213753488480000,11.44647998046875,0.0979042649269104,-0.430695503950119,-0.30103033781051636
1684213753498505200,11.456505126953125,0.15232399106025696,-0.39607954025268555,-0.293258935213089
1684213753508529200,11.466529052734375,0.20483194291591644,-0.36822980642318726,-0.28739333152770996
1684213753518553000,11.476552978515626,0.27668577432632446,-0.33525142073631287,-0.26590538024902344
1684213753528578000,11.486578125,0.34686487913131714,-0.31245821714401245,-0.24324455857276917
1684213753538602200,11.496602294921875,0.42728376388549805,-0.3186495006084442,-0.22250133752822876
1684213753548627200,11.506627197265624,0.4688141644001007,-0.3103438913822174,-0.21483223140239716
1684213753558651000,11.51665087890625,0.4734247028827667,-0.3230597972869873,-0.22276079654693604
1684213753568675000,11.526675048828125,0.4458008110523224,-0.38040804862976074,-0.24220266938209534
1684213753578700000,11.536699951171874,0.4054897725582123,-0.45305734872817993,-0.26055392622947693
1684213753588724200,11.54672412109375,0.3695927560329437,-0.46472546458244324,-0.2814520001411438
1684213753598749200,11.556749267578125,0.3319982886314392,-0.4240688681602478,-0.33519116044044495
1684213753608773000,11.566773193359374,0.3000757694244385,-0.3365326225757599,-0.4055992662906647
1684213753618797000,11.576797119140625,0.2698734700679779,-0.21152405440807343,-0.4846927225589752
1684213753628822000,11.586822021484375,0.24947763979434967,-0.09555190801620483,-0.554676353931427
1684213753638846200,11.59684619140625,0.2295222282409668,-0.0017573707737028599,-0.616726815700531
1684213753648871200,11.60687109375,0.22031274437904358,0.09043247997760773,-0.6446481943130493
1684213753658895000,11.61689501953125,0.22070758044719696,0.15741251409053802,-0.6491684317588806
1684213753668920000,11.626920166015625,0.22157736122608185,0.2024471014738083,-0.6338344812393188
1684213753678944000,11.636944091796876,0.21838390827178955,0.20739437639713287,-0.600023090839386
1684213753688968200,11.64696826171875,0.22614222764968872,0.20952065289020538,-0.5613414645195007
1684213753698993000,11.656992919921874,0.24096029996871948,0.24786849319934845,-0.49872955679893494
1684213753709017000,11.66701708984375,0.25458207726478577,0.3212031424045563,-0.42508465051651
1684213753719042000,11.6770419921875,0.22950179874897003,0.37775784730911255,-0.36661216616630554
1684213753729066200,11.687066162109375,0.14949750900268555,0.43474069237709045,-0.301873117685318
1684213753739090000,11.69708984375,0.019893579185009003,0.4472728967666626,-0.20463164150714874
1684213753749115000,11.707114990234375,-0.14638541638851166,0.22535540163516998,-0.15532535314559937
1684213753759139000,11.71713916015625,-0.2970624566078186,-0.5112850069999695,-0.20889315009117126
1684213753769164000,11.7271640625,-0.18392448127269745,-1.1821881532669067,-0.40285807847976685
1684213753779188200,11.737188232421875,0.277349054813385,-1.8720834255218506,-0.1282736361026764
1684213753789212000,11.7472119140625,0.7205275893211365,-2.055663824081421,-0.04895910620689392
1684213753799237000,11.757237060546874,0.9975594878196716,-1.1038944721221924,-0.3901608884334564
1684213753809261000,11.767260986328125,0.9121019244194031,0.1743147224187851,-0.3247097134590149
1684213753819286000,11.7772861328125,0.7349027395248413,0.6700620651245117,0.48737379908561707
1684213753829310200,11.787310302734374,0.03218561410903931,0.4737050533294678,1.2275136709213257
1684213753839334000,11.797333984375,-0.6636890172958374,0.46319326758384705,1.0950372219085693
1684213753849359000,11.807359130859375,-0.8956884145736694,0.3979221284389496,0.28332388401031494
1684213753859383000,11.817383056640624,-0.7898865342140198,0.36225757002830505,-0.3126485049724579
1684213753869408300,11.827408203125,-0.6617637276649475,0.1499738097190857,-0.46870148181915283
1684213753879432000,11.837431884765625,-0.8245140910148621,0.11536774784326553,-0.08621480315923691
1684213753889456000,11.8474560546875,-1.120671272277832,0.19617177546024323,0.07798478752374649
1684213753899481000,11.857481201171876,-1.1445374488830566,0.18302315473556519,-0.1695859581232071
1684213753909505000,11.867505126953125,-0.9147841334342957,-0.2759303152561188,-0.4896340072154999
1684213753919530200,11.8775302734375,-0.5452176928520203,-0.7283013463020325,-0.5337030291557312
1684213753929554000,11.887553955078126,-0.1520724892616272,-0.9908410906791687,-0.411655992269516
1684213753939579100,11.8975791015625,-0.09061150252819061,-0.7691589593887329,-0.08736781030893326
1684213753949603000,11.90760302734375,-0.04966060444712639,-0.688079297542572,-0.014237407594919205
1684213753959627300,11.917627197265626,0.03371433541178703,-0.5504645705223083,-0.019335497170686722
1684213753969652200,11.92765234375,0.01285086665302515,-0.4106544256210327,-0.11756086349487305
1684213753979676000,11.937676025390624,-0.04110076278448105,-0.4022354483604431,-0.2636977732181549
1684213753989700000,11.9477001953125,-0.059552207589149475,-0.4935126304626465,-0.3484496772289276
1684213753999725000,11.95772509765625,-0.10734830051660538,-0.7454243898391724,-0.4498867988586426
1684213754009749200,11.967749267578125,-0.09277547895908356,-0.9284360408782959,-0.46211203932762146
1684213754019774000,11.97777392578125,-0.08191117644309998,-1.0343397855758667,-0.39975816011428833
1684213754029798100,11.987798095703125,-0.09764672815799713,-1.0823938846588135,-0.34534206986427307
1684213754039823000,11.997822998046875,-0.12967969477176666,-1.0972095727920532,-0.31049907207489014
1684213754049847000,12.007846923828126,-0.13048957288265228,-1.0265713930130005,-0.27599409222602844
1684213754059871000,12.01787109375,-0.11379643529653549,-0.8585859537124634,-0.23153690993785858
1684213754069896000,12.02789599609375,-0.15706613659858704,-0.663385808467865,-0.2206648290157318
1684213754079920000,12.037920166015626,-0.1890743374824524,-0.5260107517242432,-0.19763889908790588
1684213754089945000,12.047945068359375,-0.27107200026512146,-0.4510824382305145,-0.22774246335029602
1684213754099969000,12.057968994140625,-0.3241068422794342,-0.38381654024124146,-0.25993138551712036
1684213754109993000,12.067992919921876,-0.3280549645423889,-0.2888199985027313,-0.2450730800628662
1684213754120018000,12.078017822265625,-0.32356542348861694,-0.17921411991119385,-0.20680052042007446
1684213754130042000,12.0880419921875,-0.3282451331615448,-0.09327897429466248,-0.17630547285079956
1684213754140067000,12.098067138671874,-0.3498303294181824,-0.07775060087442398,-0.14572802186012268
1684213754150091300,12.10809130859375,-0.32618412375450134,-0.06234607473015785,-0.10441946983337402
1684213754160115000,12.118114990234375,-0.28434738516807556,-0.05241934955120087,-0.07896973937749863
1684213754170140000,12.128139892578124,-0.2693766951560974,-0.015178773552179337,-0.057600799947977066
1684213754180164000,12.1381640625,-0.2813146114349365,-0.09836437553167343,-0.15865930914878845
1684213754190189000,12.14818896484375,-0.14879678189754486,-0.014854039065539837,-0.06408832222223282
1684213754200213000,12.158212890625,-0.08866047114133835,0.11540284007787704,0.03824596107006073
1684213754210237000,12.16823681640625,-0.06414900720119476,0.1854410469532013,0.03962494432926178
1684213754220262100,12.17826220703125,-0.010452678427100182,0.25675976276397705,0.04654815047979355
1684213754230286000,12.1882861328125,0.02952749654650688,0.3009464144706726,0.023708347231149673
1684213754240311000,12.19831103515625,0.06118880584836006,0.3392013609409332,0.020789433270692825
1684213754250335200,12.208335205078125,0.06388338655233383,0.32616785168647766,0.02395273558795452
1684213754260360200,12.218360107421875,0.035705409944057465,0.30384600162506104,0.03842974081635475
1684213754270384000,12.228384033203126,0.04153107479214668,0.30688706040382385,0.04598885402083397
1684213754280408000,12.238407958984375,0.04994664713740349,0.2665746510028839,0.03629515692591667
1684213754290433300,12.248433349609375,0.040121980011463165,0.2406303733587265,0.024115722626447678
1684213754300457200,12.258457275390626,0.03773778676986694,0.21354952454566956,0.015819117426872253
1684213754310482200,12.268482177734375,0.013099820353090763,0.14582374691963196,-0.01468419749289751
1684213754320506000,12.278506103515625,0.0032947733998298645,-0.024082785472273827,-0.06665182113647461
1684213754330530000,12.288530029296876,-0.012810427695512772,-0.16461299359798431,-0.1096445620059967
1684213754340555300,12.29855517578125,-0.03994445502758026,-0.1730489730834961,-0.11360320448875427
1684213754350579200,12.3085791015625,-0.010735169984400272,-0.24747180938720703,-0.1384582221508026
1684213754360604200,12.318604248046874,0.004811443854123354,-0.2774234414100647,-0.15045404434204102
1684213754370628000,12.328628173828125,-0.006140806246548891,-0.24638482928276062,-0.18618914484977722
1684213754380652300,12.33865234375,0.00810486450791359,-0.12786702811717987,-0.16702982783317566
1684213754390677200,12.34867724609375,-0.005205081310123205,-0.0620584562420845,-0.1178785189986229
1684213754400701000,12.358700927734375,-0.04275653511285782,-0.13215717673301697,-0.1620449423789978
1684213754410726100,12.36872607421875,-0.08740682899951935,-0.4069597125053406,-0.3302949368953705
1684213754420750000,12.37875,-0.2333194613456726,-0.8169719576835632,-0.5064334869384766
