time,seconds_elapsed,z,y,x
1684200878828399400,0.0303994140625,-0.03509345278143883,-0.006883751600980759,-0.03349953889846802
1684200878838423600,0.040423583984375,-0.034168269485235214,0.023470958694815636,-0.014545822516083717
1684200878848448300,0.0504482421875,-0.03452381119132042,0.03965924680233002,-0.004164228215813637
1684200878858473200,0.06047314453125,-0.03794490918517113,0.04754806309938431,-0.009055123664438725
1684200878868498400,0.07049853515625,-0.05508527532219887,0.012322838418185711,-0.02728479914367199
1684200878878522400,0.0805224609375,-0.08819342404603958,-0.06919386237859726,-0.07968994975090027
1684200878888547300,0.09054736328125,-0.09842289239168167,-0.031539157032966614,-0.08654385805130005
1684200878898572500,0.100572509765625,-0.1290774792432785,-0.06269201636314392,-0.13532978296279907
1684200878908597500,0.110597412109375,-0.14366573095321655,-0.04696640744805336,-0.16753621399402618
1684200878918621200,0.12062109375,-0.11534487456083298,-0.025644341483712196,-0.18277695775032043
1684200878928646400,0.130646484375,-0.06695019453763962,-0.008891873061656952,-0.19108881056308746
1684200878938671400,0.14067138671875,-0.01731552928686142,-0.035624418407678604,-0.1484159231185913
1684200878948696300,0.1506962890625,0.018677888438105583,-0.046498607844114304,-0.09827488660812378
1684200878958720500,0.160720458984375,-0.16694603860378265,0.07234149426221848,-0.2153431922197342
1684200878968745500,0.170745361328125,-0.1852230429649353,0.2601363956928253,-0.35171425342559814
1684200878978770400,0.1807705078125,-0.2092018723487854,0.40818020701408386,-0.39142757654190063
1684200878988795400,0.19079541015625,-0.4596695005893707,0.5059968829154968,-0.3198772668838501
1684200878998819300,0.2008193359375,-0.535061240196228,0.44343867897987366,-0.2688702642917633
1684200879008844300,0.21084423828125,-0.4300852417945862,0.2881595492362976,-0.22472307085990906
1684200879018869500,0.220869384765625,-0.2200944721698761,0.11764882504940033,-0.1910194307565689
1684200879028894500,0.23089453125,0.08167842030525208,-0.04646920785307884,-0.1585170328617096
1684200879038918400,0.24091845703125,0.061226945370435715,-0.11594681441783905,-0.13656699657440186
1684200879048943400,0.250943359375,0.11083071678876877,-0.07153438776731491,-0.18233929574489594
1684200879058968300,0.26096826171875,0.18090862035751343,0.03132754564285278,-0.2601368725299835
1684200879068993300,0.2709931640625,0.2278587967157364,0.06419442594051361,-0.31168830394744873
1684200879079017500,0.281017578125,0.1562437266111374,0.06794389337301254,-0.3508785665035248
1684200879089042400,0.29104248046875,0.026439417153596878,0.04304874688386917,-0.39069071412086487
1684200879099067400,0.3010673828125,-0.08880355209112167,0.12140800058841705,-0.4988936185836792
1684200879109092400,0.31109228515625,-0.26492080092430115,0.13974954187870026,-0.6214171051979065
1684200879119116300,0.3211162109375,-0.4183763861656189,0.004052169155329466,-0.6701090335845947
1684200879129141200,0.331141357421875,-0.600891649723053,-0.1534728705883026,-0.6761701703071594
1684200879139166500,0.34116650390625,-0.7823642492294312,-0.269635409116745,-0.6404992938041687
1684200879149191400,0.35119140625,-0.9515489935874939,-0.1754496693611145,-0.5452033877372742
1684200879159215400,0.36121533203125,-1.1155773401260376,-0.07252168655395508,-0.44102743268013
1684200879169240600,0.371240478515625,-1.277297019958496,-0.09514197707176208,-0.30900001525878906
1684200879179265300,0.381265380859375,-1.4210784435272217,-0.14824408292770386,-0.22959309816360474
1684200879189290200,0.391290283203125,-1.5635476112365723,-0.17378447949886322,-0.227378249168396
1684200879199315200,0.401315185546875,-1.724356770515442,-0.10590796917676926,-0.30427008867263794
1684200879209339400,0.41133935546875,-1.8236007690429688,-0.04896174371242523,-0.39774081110954285
1684200879219364400,0.4213642578125,-1.7905189990997314,-0.3221573233604431,-0.6026740074157715
1684200879229389300,0.431389404296875,-1.7336616516113281,-0.16937154531478882,-0.7029232382774353
1684200879239413200,0.441413330078125,-1.6314257383346558,0.08881474286317825,-0.6222526431083679
1684200879249438200,0.451438232421875,-1.4564143419265747,0.05079507827758789,-0.6250198483467102
1684200879259463400,0.46146337890625,-1.3213390111923218,-0.12322704493999481,-0.6484577655792236
1684200879269488400,0.47148828125,-1.2715054750442505,-0.2545942962169647,-0.575615406036377
1684200879279513300,0.481513427734375,-1.2627657651901245,-0.30034205317497253,-0.435141384601593
1684200879289537500,0.49153759765625,-1.27595853805542,-0.33844172954559326,-0.32642847299575806
1684200879299562500,0.5015625,-1.382445216178894,-0.5431514382362366,-0.2943195402622223
1684200879309587500,0.51158740234375,-1.4885365962982178,-0.7593502998352051,-0.3367742896080017
1684200879319612200,0.521612060546875,-0.46171802282333374,-0.7785977721214294,-0.08708295971155167
1684200879329636400,0.53163623046875,0.028984863311052322,0.20682314038276672,-0.04699045419692993
1684200879339661300,0.541661376953125,-0.43530982732772827,0.7426956295967102,-0.3472229838371277
1684200879349686300,0.551686279296875,-0.09238231182098389,0.35445982217788696,-0.5467718243598938
1684200879359711500,0.56171142578125,-0.10779588669538498,-0.0379449687898159,-0.3600466549396515
1684200879369735400,0.5717353515625,-0.04855627566576004,-0.49563196301460266,-0.2627710700035095
1684200879379760400,0.581760498046875,-0.042877085506916046,-0.8361109495162964,-0.32644832134246826
1684200879389785300,0.591785400390625,-0.050309956073760986,-0.8724997043609619,-0.3076826333999634
1684200879399810300,0.601810302734375,-0.06608492881059647,-0.7827737927436829,-0.23420338332653046
1684200879409834500,0.61183447265625,-0.09946180880069733,-0.6914958357810974,-0.16678641736507416
1684200879419859500,0.621859375,-0.17035621404647827,-0.584749698638916,-0.09618841111660004
1684200879429884400,0.631884521484375,-0.216533824801445,-0.3688291907310486,-0.06092249974608421
1684200879439909400,0.641909423828125,-0.13969896733760834,-0.22179394960403442,-0.13181239366531372
1684200879449933300,0.651933349609375,-0.08949890732765198,-0.20159338414669037,-0.2087963968515396
1684200879459958300,0.661958251953125,-0.061091501265764236,-0.2056453824043274,-0.1985142081975937
1684200879469983200,0.671983154296875,-0.05185406655073166,-0.24670876562595367,-0.16762349009513855
1684200879480008400,0.682008544921875,-0.005968333687633276,-0.2444341629743576,-0.13418804109096527
1684200879490032400,0.692032470703125,0.03916585445404053,-0.18887102603912354,-0.10408667474985123
1684200879500057300,0.702057373046875,0.07828422635793686,-0.13496625423431396,-0.09198047965765
1684200879510082600,0.71208251953125,0.088367760181427,-0.09036768227815628,-0.12798342108726501
1684200879520107300,0.722107177734375,0.06685235351324081,0.11197023838758469,-0.09667742252349854
1684200879530131500,0.73213134765625,0.052262477576732635,0.37869176268577576,0.010633698664605618
1684200879540156400,0.742156494140625,0.08936990052461624,0.7183625102043152,0.15223076939582825
1684200879550181400,0.752181396484375,0.1260107457637787,0.880616307258606,0.23061001300811768
1684200879560206300,0.762206298828125,0.1388186812400818,0.958322286605835,0.29315489530563354
1684200879570230500,0.77223046875,0.13935771584510803,1.0072163343429565,0.3451654314994812
1684200879580255200,0.782255126953125,0.12691035866737366,1.0190205574035645,0.3786536157131195
1684200879590280200,0.7922802734375,0.11287175863981247,1.0223510265350342,0.3814327120780945
1684200879600305400,0.802305419921875,0.09385199844837189,1.02371084690094,0.3597804009914398
1684200879610329300,0.812329345703125,0.06861136853694916,1.007993459701538,0.3275313377380371
1684200879620354300,0.822354248046875,0.036518409848213196,0.9559376239776611,0.30491018295288086
1684200879630379500,0.832379638671875,0.005730140954256058,0.8651809692382812,0.280359148979187
1684200879640404500,0.842404541015625,-0.01735413819551468,0.7697790861129761,0.24737639725208282
1684200879650428400,0.852428466796875,-0.033177584409713745,0.682265043258667,0.20271751284599304
1684200879660453400,0.862453369140625,-0.04181128740310669,0.6156625747680664,0.16338102519512177
1684200879670478300,0.872478271484375,-0.054985411465168,0.5417497158050537,0.11574827134609222
1684200879680503300,0.88250341796875,-0.07100432366132736,0.4849538207054138,0.0798637792468071
1684200879690528500,0.892528564453125,-0.0805823802947998,0.4506354033946991,0.04766794666647911
1684200879700552400,0.902552490234375,-0.0956081971526146,0.43260687589645386,0.03714047372341156
1684200879710577400,0.912577392578125,-0.10268741101026535,0.42380213737487793,0.04154524207115173
1684200879720602400,0.922602294921875,-0.09741035848855972,0.43423667550086975,0.05230307951569557
1684200879730627300,0.93262744140625,-0.09048426896333694,0.4517543911933899,0.06156812235713005
1684200879740651300,0.9426513671875,-0.08177120238542557,0.44676417112350464,0.07242636382579803
1684200879750676500,0.952676513671875,-0.0860983207821846,0.4171711206436157,0.09492746740579605
1684200879760701400,0.962701416015625,-0.08924911171197891,0.39831140637397766,0.1117413341999054
1684200879770726400,0.972726318359375,-0.08394595980644226,0.41158902645111084,0.1106620728969574
1684200879780750300,0.982750244140625,-0.06479436159133911,0.4639289379119873,0.11684753000736237
1684200879790775300,0.992775390625,-0.04416045546531677,0.5501836538314819,0.13980263471603394
1684200879800800300,1.00280029296875,-0.012731428258121014,0.6693091988563538,0.1661575436592102
1684200879810825500,1.012825439453125,0.007363455835729837,0.7901636362075806,0.18189720809459686
1684200879820849400,1.022849365234375,0.01710343360900879,0.9062228798866272,0.19514882564544678
1684200879830874400,1.032874267578125,0.024478785693645477,0.9778421521186829,0.2051163762807846
1684200879840899600,1.042899658203125,0.03057396225631237,1.0130773782730103,0.2160598486661911
1684200879850924500,1.052924560546875,0.034772712737321854,1.0148992538452148,0.222826287150383
1684200879860948200,1.0629482421875,0.04213501885533333,1.0156211853027344,0.22265425324440002
1684200879870973400,1.072973388671875,0.05360417813062668,1.0185856819152832,0.21411269903182983
1684200879880998400,1.082998291015625,0.06308209896087646,1.0242412090301514,0.19257624447345734
1684200879891023400,1.0930234375,0.07070087641477585,1.0195894241333008,0.15042376518249512
1684200879901047600,1.103047607421875,0.07680590450763702,1.0110974311828613,0.12153327465057373
1684200879911072500,1.113072509765625,0.07342316955327988,0.9795368909835815,0.09248144924640656
1684200879921097200,1.12309716796875,0.059028517454862595,0.9566347599029541,0.06600430607795715
1684200879931122200,1.1331220703125,0.043061263859272,0.9740958213806152,0.043568965047597885
1684200879941146400,1.143146484375,0.021293913945555687,0.9865074753761292,0.025522056967020035
1684200879951171300,1.15317138671875,-0.006513210944831371,0.9574487209320068,-0.0018907036865130067
1684200879961196500,1.163196533203125,-0.033279310911893845,0.8864757418632507,-0.03781701251864433
1684200879971221500,1.173221435546875,-0.06130588427186012,0.7973364591598511,-0.07677068561315536
1684200879981245200,1.1832451171875,-0.08361704647541046,0.7184264659881592,-0.10932250320911407
1684200879991270400,1.1932705078125,-0.09956325590610504,0.6473690271377563,-0.13330498337745667
1684200880001295400,1.20329541015625,-0.09719570726156235,0.6116065382957458,-0.1551186591386795
1684200880011320300,1.2133203125,-0.08773989975452423,0.5624462962150574,-0.1879182755947113
1684200880021344500,1.223344482421875,-0.07117743045091629,0.5374927520751953,-0.21160149574279785
1684200880031369500,1.233369384765625,-0.058926623314619064,0.5202874541282654,-0.23039978742599487
1684200880041394400,1.24339453125,-0.052798688411712646,0.5131608843803406,-0.22092293202877045
1684200880051419100,1.253419189453125,-0.02667839638888836,0.4772112965583801,-0.23925305902957916
1684200880061443300,1.263443359375,-0.001991426106542349,0.424360066652298,-0.22969657182693481
1684200880071468300,1.27346826171875,0.02114024944603443,0.3544563353061676,-0.1940034031867981
1684200880081493500,1.283493408203125,0.07057597488164902,0.33734527230262756,-0.09791788458824158
1684200880091518500,1.2935185546875,0.16078869998455048,0.4400649964809418,0.1174682006239891
1684200880101542400,1.30354248046875,0.2453262209892273,0.4569334387779236,0.3437628746032715
1684200880111567400,1.3135673828125,0.34603151679039,0.29811951518058777,0.4574582576751709
1684200880121592300,1.32359228515625,0.4551641345024109,0.05876684933900833,0.4960535764694214
1684200880131617300,1.3336171875,0.5784114599227905,-0.20440320670604706,0.4903695285320282
1684200880141641500,1.343641357421875,0.6901736855506897,-0.3589584529399872,0.5109719634056091
1684200880151666400,1.35366650390625,0.7649901509284973,-0.348665714263916,0.5831413865089417
1684200880161691400,1.36369140625,0.747527539730072,-0.2215772420167923,0.6993076205253601
1684200880171716400,1.37371630859375,0.6512103080749512,0.017253931611776352,0.8917598724365234
1684200880181740300,1.383740234375,0.5358389616012573,0.2692217230796814,1.1924169063568115
1684200880191765200,1.39376513671875,0.44185206294059753,0.40659216046333313,1.492896318435669
1684200880201790200,1.403790283203125,0.3366753160953522,0.33630120754241943,1.7155098915100098
1684200880211815400,1.4138154296875,0.25669604539871216,0.24950243532657623,1.9227439165115356
1684200880221839400,1.42383935546875,0.16126671433448792,0.36897528171539307,2.1701226234436035
1684200880231864600,1.433864501953125,0.07017224282026291,0.5039871335029602,2.3590874671936035
1684200880241889500,1.4438896484375,-0.012961264699697495,0.5594962239265442,2.4921274185180664
1684200880251914200,1.453914306640625,-0.05742832273244858,0.3921765983104706,2.5651745796203613
1684200880261938400,1.4639384765625,-0.00821870006620884,0.008109623566269875,2.4996423721313477
1684200880271963400,1.47396337890625,0.05956753343343735,-0.36785179376602173,2.3387670516967773
1684200880281988400,1.48398828125,0.15412652492523193,-0.6306557059288025,2.153137445449829
1684200880292013300,1.494013427734375,0.2561596930027008,-0.5891523361206055,2.0188145637512207
1684200880302037500,1.50403759765625,0.38840189576148987,-0.3658161759376526,1.8496192693710327
1684200880312062200,1.514062255859375,0.46269795298576355,-0.12850235402584076,1.6378700733184814
1684200880322087200,1.524087158203125,0.47221821546554565,0.03987015411257744,1.401721715927124
1684200880332112400,1.5341123046875,0.46606284379959106,0.05226770043373108,1.1409252882003784
1684200880342136300,1.54413623046875,0.4312167167663574,-0.1613023728132248,0.8099788427352905
1684200880352161300,1.554161376953125,0.3523077964782715,-0.4568006694316864,0.47077375650405884
1684200880362186500,1.5641865234375,0.28373220562934875,-0.6755058169364929,0.25309470295906067
1684200880372211500,1.57421142578125,0.2308436781167984,-0.8506549596786499,0.14949961006641388
1684200880382236400,1.584236328125,0.24334242939949036,-1.0008045434951782,0.1490926742553711
1684200880392260400,1.59426025390625,0.28223657608032227,-0.9853739738464355,0.11552510410547256
1684200880402285300,1.604285400390625,0.3221522867679596,-0.5517870783805847,-0.09453332424163818
1684200880412310300,1.614310302734375,0.4681622385978699,0.31631627678871155,-0.34844738245010376
1684200880422335500,1.62433544921875,0.6099348068237305,1.1497461795806885,-0.47590363025665283
1684200880432359400,1.634359375,0.6705994606018066,1.318161964416504,-0.5265482068061829
1684200880442384400,1.64438427734375,0.6841503977775574,0.942098081111908,-0.5689353346824646
1684200880452409300,1.654409423828125,0.6053757071495056,0.21953976154327393,-0.6385374665260315
1684200880462434300,1.664434326171875,0.3719637989997864,-0.3698044717311859,-0.712389349937439
1684200880472458200,1.674458251953125,0.08661645650863647,-0.7198415994644165,-0.8026114106178284
1684200880482483500,1.6844833984375,-0.16252171993255615,-0.8969449996948242,-0.8724072575569153
1684200880492508400,1.69450830078125,-0.32545632123947144,-1.0183093547821045,-0.9095966219902039
1684200880502533400,1.704533447265625,-0.44811511039733887,-1.1433343887329102,-0.9041334390640259
1684200880512557300,1.714557373046875,-0.6020479798316956,-1.2335381507873535,-0.7748038172721863
1684200880522582300,1.724582275390625,-0.7536314129829407,-1.3943430185317993,-0.5875636339187622
1684200880532607200,1.734607177734375,-0.8823184967041016,-1.6425498723983765,-0.42225268483161926
1684200880542632400,1.744632568359375,-1.0070290565490723,-1.7518867254257202,-0.2704775333404541
1684200880552656400,1.754656494140625,-1.115834355354309,-1.62917959690094,-0.07133671641349792
1684200880562681300,1.764681396484375,-1.1522637605667114,-1.2983226776123047,0.12744908034801483
1684200880572706600,1.77470654296875,-1.1130547523498535,-0.8657267093658447,0.3346059322357178
1684200880582731500,1.7847314453125,-1.027845859527588,-0.35747095942497253,0.5206042528152466
1684200880592755200,1.794755126953125,-0.9596121907234192,0.13459144532680511,0.6749587655067444
1684200880602780400,1.804780517578125,-0.8874173760414124,0.520384669303894,0.8202925324440002
1684200880612805400,1.814805419921875,-0.7724876403808594,0.7383082509040833,0.9796410202980042
1684200880622830300,1.824830322265625,-0.6503076553344727,0.693133533000946,1.1796289682388306
1684200880632854500,1.8348544921875,-0.46812641620635986,0.590459942817688,1.2971636056900024
1684200880642879500,1.84487939453125,-0.22745679318904877,0.5762242674827576,1.178928256034851
1684200880652904200,1.854904296875,0.04495556652545929,0.7307832837104797,0.8942808508872986
1684200880662929400,1.864929443359375,0.24302658438682556,1.0547740459442139,0.5997629165649414
1684200880672953300,1.874953369140625,0.33988335728645325,1.4592922925949097,0.42672306299209595
1684200880682978300,1.884978271484375,0.4432390332221985,1.7292203903198242,0.30889230966567993
1684200880693003500,1.89500341796875,0.5145635008811951,1.8869980573654175,0.21621200442314148
1684200880703028500,1.905028564453125,0.5417509078979492,1.9897630214691162,0.14155001938343048
1684200880713052200,1.91505224609375,0.5486554503440857,2.015420913696289,0.07880784571170807
1684200880723077400,1.925077392578125,0.5206645727157593,1.951387643814087,0.044779036194086075
1684200880733102300,1.935102294921875,0.5452032089233398,1.8012858629226685,0.01899038814008236
1684200880743127300,1.945127197265625,0.5836755037307739,1.4918209314346313,-0.07505834102630615
1684200880753151500,1.9551513671875,0.5511921048164368,1.0139714479446411,-0.241281658411026
1684200880763176400,1.965176513671875,0.5644890069961548,0.5566526651382446,-0.41366806626319885
1684200880773201400,1.975201416015625,0.588830292224884,0.26273679733276367,-0.5696874856948853
1684200880783226400,1.985226318359375,0.595856249332428,-0.03938152641057968,-0.7271239757537842
1684200880793249800,1.995249755859375,0.5469939112663269,-0.3168717324733734,-0.829462468624115
1684200880803274800,2.005274658203125,0.47391918301582336,-0.6021644473075867,-0.8958225846290588
1684200880813300000,2.015300048828125,0.40538567304611206,-0.8358541131019592,-0.929985761642456
1684200880823324700,2.02532470703125,0.3246215879917145,-1.0229116678237915,-0.9658442139625549
1684200880833348900,2.035348876953125,0.25184962153434753,-1.1525264978408813,-0.9969662427902222
1684200880843373800,2.045373779296875,0.19149252772331238,-1.1951557397842407,-1.0263193845748901
1684200880853398800,2.055398681640625,0.14204801619052887,-1.1346513032913208,-1.0551998615264893
1684200880863423700,2.065423828125,0.08651632815599442,-0.9235996007919312,-1.0854743719100952
1684200880873448000,2.075447998046875,0.06553434580564499,-0.6371558904647827,-1.11252760887146
1684200880883472600,2.08547265625,0.08287844806909561,-0.36746397614479065,-1.117896556854248
1684200880893497600,2.09549755859375,0.10665195435285568,-0.1447996348142624,-1.109886884689331
1684200880903522800,2.105522705078125,0.11642415821552277,-0.007108606398105621,-1.1089739799499512
1684200880913546800,2.115546630859375,0.10210966318845749,0.016800908371806145,-1.0948044061660767
1684200880923571700,2.12557177734375,0.026934221386909485,-0.025490889325737953,-1.0655317306518555
1684200880933597000,2.135596923828125,-0.09218205511569977,-0.11109283566474915,-1.0210516452789307
1684200880943622000,2.145621826171875,-0.22428230941295624,-0.180908665060997,-0.9623798131942749
1684200880953645800,2.155645751953125,-0.33758726716041565,-0.20346608757972717,-0.9204262495040894
1684200880963670800,2.1656708984375,-0.47403645515441895,-0.2404528707265854,-0.9097120761871338
1684200880973695700,2.17569580078125,-0.6089900732040405,-0.24979817867279053,-0.9082983732223511
1684200880983720700,2.185720703125,-0.7200443744659424,-0.2627922594547272,-0.8744120597839355
1684200880993745000,2.195744873046875,-0.7954914569854736,-0.32167935371398926,-0.8350282907485962
1684200881003769900,2.205769775390625,-0.8182982802391052,-0.39002057909965515,-0.7638745307922363
1684200881013794800,2.215794921875,-0.7339423894882202,-0.4587354063987732,-0.6258800625801086
1684200881023819800,2.22581982421875,-0.6290338039398193,-0.5461922883987427,-0.4083511531352997
1684200881033843700,2.23584375,-0.6040498614311218,-0.8610747456550598,-0.2077322155237198
1684200881043868700,2.24586865234375,-0.5711145997047424,-1.168829321861267,0.07195509970188141
1684200881053894000,2.255893798828125,-0.409399151802063,-1.2043813467025757,0.3125600218772888
1684200881063918800,2.2659189453125,-0.2022920548915863,-0.7723183035850525,0.340637743473053
1684200881073942800,2.27594287109375,-0.07231087237596512,-0.07579190284013748,0.2944614291191101
1684200881083967700,2.2859677734375,-0.06632914394140244,0.44540920853614807,0.2843078374862671
1684200881093992700,2.29599267578125,-0.07680708914995193,0.5871837735176086,0.2904766798019409
1684200881104017700,2.306017578125,-0.06599625200033188,0.4514637589454651,0.27182283997535706
1684200881114041900,2.316041748046875,-0.008112700656056404,0.2827478051185608,0.24355842173099518
1684200881124066800,2.32606689453125,0.15556171536445618,0.0952596664428711,0.15340003371238708
1684200881134091800,2.336091796875,0.3949436843395233,-0.08865538239479065,-0.00476996973156929
1684200881144117000,2.346116943359375,0.6192371845245361,-0.23379766941070557,-0.19932560622692108
1684200881154140700,2.356140625,0.7607535719871521,-0.34912019968032837,-0.3453829884529114
1684200881164165600,2.36616552734375,0.7428414225578308,-0.4099105894565582,-0.34577178955078125
1684200881174190800,2.37619091796875,0.6154031157493591,-0.44090449810028076,-0.16811040043830872
1684200881184215800,2.3862158203125,0.4207899272441864,-0.47347763180732727,0.0960642546415329
1684200881194239700,2.39623974609375,0.19225314259529114,-0.4859088361263275,0.3356843888759613
1684200881204265000,2.406264892578125,0.0696159079670906,-0.3357691466808319,0.49815747141838074
1684200881214290000,2.4162900390625,0.02276931330561638,-0.1013173758983612,0.5592102408409119
1684200881224314600,2.426314697265625,-0.0387776717543602,0.04674426093697548,0.43969133496284485
1684200881234338800,2.4363388671875,-0.1437767893075943,0.05790227651596069,0.18956005573272705
1684200881244363800,2.44636376953125,-0.2789868116378784,-0.1512775719165802,-0.04630785807967186
1684200881254388700,2.456388671875,-0.4110226035118103,-0.4865801930427551,-0.13671626150608063
1684200881264414000,2.4664140625,-0.5427646636962891,-0.8285799026489258,-0.1334586888551712
1684200881274438000,2.47643798828125,-0.5122467279434204,-1.176918625831604,-0.14892227947711945
1684200881284462600,2.486462646484375,-0.3201771676540375,-1.4743177890777588,-0.22844906151294708
1684200881294487800,2.49648779296875,-0.058605704456567764,-1.5858210325241089,-0.32331421971321106
1684200881304512800,2.5065126953125,0.21200475096702576,-1.5555046796798706,-0.3590586483478546
1684200881314536700,2.51653662109375,0.3844984769821167,-1.3641575574874878,-0.2924758493900299
1684200881324562000,2.52656201171875,0.43417975306510925,-1.1180458068847656,-0.12808318436145782
1684200881334587000,2.5365869140625,0.3926328420639038,-0.8862712979316711,0.012022159993648529
1684200881344611800,2.54661181640625,0.31724247336387634,-0.8073927164077759,-0.07892558723688126
1684200881354635800,2.5566357421875,0.37744778394699097,-0.7493032217025757,-0.3322465419769287
1684200881364660700,2.56666064453125,0.46277543902397156,-0.6630676984786987,-0.5629170536994934
1684200881374685700,2.576685791015625,0.49634674191474915,-0.7357237935066223,-0.7225574851036072
1684200881384711000,2.5867109375,0.544746994972229,-0.9709978699684143,-0.891363263130188
1684200881394734800,2.59673486328125,0.5918333530426025,-1.250057578086853,-1.057539463043213
1684200881404759800,2.606759765625,0.5996808409690857,-1.480422854423523,-1.1582540273666382
1684200881414785000,2.616784912109375,0.5479055047035217,-1.6095244884490967,-1.1827472448349
1684200881424809700,2.626809814453125,0.4507739245891571,-1.6208791732788086,-1.1284682750701904
1684200881434833700,2.636833740234375,0.3489500880241394,-1.5837761163711548,-1.0674718618392944
1684200881444859000,2.64685888671875,0.25526779890060425,-1.725553274154663,-1.0952630043029785
1684200881454883800,2.6568837890625,0.1741766780614853,-1.921091079711914,-1.1736938953399658
1684200881464908800,2.66690869140625,0.1255343109369278,-1.967326045036316,-1.2040517330169678
1684200881474933000,2.67693310546875,0.0847218930721283,-1.8481203317642212,-1.1781668663024902
1684200881484957700,2.686957763671875,0.06905478239059448,-1.5739641189575195,-1.0630685091018677
1684200881494982700,2.696982666015625,0.09296464174985886,-1.26448392868042,-0.9017639756202698
1684200881505007600,2.707007568359375,0.13249261677265167,-0.9448549747467041,-0.6929793357849121
1684200881515031800,2.71703173828125,0.15633001923561096,-0.6656895875930786,-0.46947401762008667
1684200881525056800,2.727056884765625,0.18258239328861237,-0.42399680614471436,-0.30377426743507385
1684200881535082000,2.73708203125,0.18479733169078827,-0.19526347517967224,-0.18577450513839722
1684200881545107000,2.74710693359375,0.1457924097776413,-0.0073809195309877396,-0.1124211922287941
1684200881555130600,2.757130615234375,0.06569893658161163,0.14185363054275513,-0.09329605102539062
1684200881565155800,2.76715576171875,0.00324062118306756,0.22135643661022186,-0.1522161066532135
1684200881575180800,2.777180908203125,-0.09013327956199646,0.24606916308403015,-0.22927147150039673
1684200881585205800,2.787205810546875,-0.18806277215480804,0.2620430588722229,-0.26058223843574524
1684200881595230000,2.79722998046875,-0.25041136145591736,0.26003625988960266,-0.2366262972354889
1684200881605255000,2.8072548828125,-0.28258049488067627,0.24266554415225983,-0.20070983469486237
1684200881615279600,2.817279541015625,-0.30006787180900574,0.2475210726261139,-0.1853986531496048
1684200881625304600,2.8273046875,-0.293063223361969,0.25893938541412354,-0.20022979378700256
1684200881635328800,2.837328857421875,-0.28803250193595886,0.2407061904668808,-0.21988926827907562
1684200881645353700,2.847353759765625,-0.2451052963733673,0.19222120940685272,-0.21023637056350708
1684200881655379000,2.85737890625,-0.18909074366092682,0.11897452920675278,-0.19845755398273468
1684200881665404000,2.86740380859375,-0.14794038236141205,0.07513783127069473,-0.20173005759716034
1684200881675427600,2.877427490234375,-0.13208791613578796,0.055012401193380356,-0.19820396602153778
1684200881685452800,2.887452880859375,-0.12132447957992554,0.02285100519657135,-0.19895045459270477
1684200881695477800,2.897477783203125,-0.10685206204652786,-0.022570353001356125,-0.2168586701154709
1684200881705502700,2.907502685546875,-0.10017978399991989,-0.046751853078603745,-0.22223106026649475
1684200881715527700,2.917527587890625,-0.10974239557981491,-0.07548051327466965,-0.21429090201854706
1684200881725551900,2.9275517578125,-0.11232353001832962,-0.11858990043401718,-0.21349754929542542
1684200881735576800,2.937576904296875,-0.10499132424592972,-0.04657445847988129,-0.24574162065982819
1684200881745601800,2.947601806640625,-0.08531109243631363,0.12148351967334747,-0.25096699595451355
1684200881755625700,2.957625732421875,-0.0958726555109024,0.15395039319992065,-0.13488522171974182
1684200881765650700,2.967650634765625,-0.0781053751707077,0.05870803818106651,-0.009337418712675571
1684200881775675600,2.977675537109375,-0.06033916026353836,0.09514246135950089,0.03736358880996704
1684200881785700900,2.987700927734375,-0.044311992824077606,0.34088510274887085,0.022298622876405716
1684200881795725000,2.99772509765625,-0.015931762754917145,0.6686387062072754,0.017819907516241074
1684200881805750000,3.00775,0.011854329146444798,0.9219681620597839,0.058376654982566833
1684200881815775000,3.01777490234375,0.018041126430034637,1.079451560974121,0.13624359667301178
1684200881825800000,3.027800048828125,0.008805549703538418,1.1853926181793213,0.20257468521595
1684200881835825000,3.037824951171875,-0.015193518251180649,1.2374578714370728,0.24158556759357452
1684200881845849000,3.04784912109375,-0.06523431837558746,1.2036328315734863,0.27943283319473267
1684200881855874000,3.0578740234375,-0.1316700577735901,1.0846922397613525,0.3077864944934845
1684200881865899000,3.06789892578125,-0.16879533231258392,0.9610254764556885,0.30037519335746765
1684200881875923000,3.0779228515625,-0.17849428951740265,0.899842381477356,0.2507331073284149
1684200881885948000,3.087947998046875,-0.16540858149528503,0.8560640215873718,0.17986346781253815
1684200881895972900,3.097972900390625,-0.14559759199619293,0.829694390296936,0.11557931452989578
1684200881905998000,3.107998046875,-0.12289867550134659,0.8186768889427185,0.046754974871873856
1684200881916022000,3.11802197265625,-0.09867855906486511,0.8171486258506775,0.0019102990627288818
1684200881926047000,3.128046875,-0.08703494817018509,0.8505159020423889,-0.02704305574297905
1684200881936072200,3.138072265625,-0.08471722155809402,0.8924974203109741,-0.05740704759955406
1684200881946097000,3.148096923828125,-0.09577733278274536,0.9368587732315063,-0.06851882487535477
1684200881956121000,3.15812109375,-0.11189450323581696,1.0006638765335083,-0.06479258835315704
1684200881966146000,3.16814599609375,-0.1303563416004181,1.0738294124603271,-0.05514368787407875
1684200881976171000,3.1781708984375,-0.1465856283903122,1.1524817943572998,-0.041009511798620224
1684200881986196000,3.188196044921875,-0.15919755399227142,1.2215626239776611,-0.02250213921070099
1684200881996220200,3.19822021484375,-0.17522020637989044,1.251769781112671,-0.010998348705470562
1684200882006244900,3.208244873046875,-0.2000350058078766,1.2261741161346436,-0.005229675676673651
1684200882016269800,3.218269775390625,-0.22087505459785461,1.1643407344818115,-0.02751520276069641
1684200882026295000,3.228294921875,-0.24259845912456512,1.0848379135131836,-0.07390107214450836
1684200882036319000,3.238319091796875,-0.2739042043685913,0.9742693305015564,-0.15337009727954865
1684200882046344000,3.248343994140625,-0.27765071392059326,0.8324373364448547,-0.2586706876754761
1684200882056369200,3.258369140625,-0.29218146204948425,0.7092364430427551,-0.34668615460395813
1684200882066394000,3.26839404296875,-0.3387356698513031,0.5620357990264893,-0.4155126214027405
1684200882076418000,3.27841796875,-0.3894358277320862,0.4163135290145874,-0.4547775685787201
1684200882086443000,3.288443115234375,-0.425464391708374,0.3830370604991913,-0.3366378843784332
1684200882096468000,3.298468017578125,-0.43283283710479736,0.3984534442424774,-0.1202252060174942
1684200882106493000,3.308492919921875,-0.3956282138824463,0.36288878321647644,-0.050442393869161606
1684200882116517000,3.31851708984375,-0.3443405032157898,0.35158011317253113,-0.10359343141317368
1684200882126542000,3.3285419921875,-0.3040333092212677,0.29339033365249634,-0.19635266065597534
1684200882136567000,3.338567138671875,-0.29848727583885193,0.1356530785560608,-0.2628211975097656
1684200882146592000,3.348592041015625,-0.3232192397117615,-0.08713898807764053,-0.3090675175189972
1684200882156616000,3.358615966796875,-0.3052714169025421,-0.15415291488170624,-0.32517218589782715
1684200882166641000,3.368640869140625,-0.20980055630207062,0.017017507925629616,-0.30493855476379395
1684200882176666000,3.378666015625,-0.05748424679040909,0.26806801557540894,-0.26164573431015015
1684200882186691000,3.388691162109375,0.09797138720750809,0.40789997577667236,-0.18626469373703003
1684200882196715000,3.398715087890625,0.21740937232971191,0.47359347343444824,-0.0398617759346962
1684200882206740000,3.408739990234375,0.34003329277038574,0.5091447830200195,0.17647451162338257
1684200882216765000,3.418764892578125,0.5198222398757935,0.5301589965820312,0.4270077645778656
1684200882226790000,3.428789794921875,0.629389226436615,0.5639561414718628,0.6289224624633789
1684200882236814000,3.43881396484375,0.7045827507972717,0.667609691619873,0.7662343382835388
1684200882246839000,3.448839111328125,0.7715066075325012,0.7638128995895386,0.8916492462158203
1684200882256864000,3.458864013671875,0.750376284122467,0.701736330986023,1.0173678398132324
1684200882266889200,3.46888916015625,0.7072415947914124,0.6682398915290833,1.1723209619522095
1684200882276913000,3.478912841796875,0.6740150451660156,0.6879603862762451,1.3795275688171387
1684200882286937900,3.488937744140625,0.6520434021949768,0.7668062448501587,1.5752421617507935
1684200882296963000,3.498963134765625,0.6429619789123535,0.8432466983795166,1.749618649482727
1684200882306988000,3.508988037109375,0.6285635828971863,0.9304966330528259,1.9145069122314453
1684200882317012000,3.519011962890625,0.6462653279304504,0.9191722273826599,1.9535129070281982
1684200882327037200,3.529037109375,0.576586127281189,0.9304781556129456,1.9728623628616333
1684200882337062100,3.539062255859375,0.5022730231285095,1.0509592294692993,2.024453639984131
1684200882347086800,3.5490869140625,0.5135765671730042,1.0222721099853516,1.9628188610076904
1684200882357111000,3.559111083984375,0.5422795414924622,0.5900367498397827,1.702775001525879
1684200882367136000,3.569135986328125,0.40454885363578796,-0.09396398067474365,1.4612207412719727
1684200882377161000,3.579160888671875,0.2472953349351883,-0.8212573528289795,1.2956655025482178
1684200882387186200,3.589186279296875,0.1386391669511795,-1.4398078918457031,1.2209051847457886
1684200882397210000,3.599210205078125,0.04242289811372757,-1.6918751001358032,1.2379746437072754
1684200882407234800,3.60923486328125,-0.007536139339208603,-1.4985865354537964,1.242948055267334
1684200882417260000,3.619260009765625,0.010423155501484871,-0.8813436031341553,1.1664859056472778
1684200882427285000,3.629284912109375,0.09324746578931808,-0.2419295459985733,1.0357638597488403
1684200882437309000,3.639308837890625,0.2213393747806549,0.2652336657047272,0.9433034658432007
1684200882447334100,3.649334228515625,0.2960261404514313,0.6238027215003967,0.8759505748748779
1684200882457359000,3.659359130859375,0.364967942237854,0.8085809350013733,0.868362545967102
1684200882467384000,3.669384033203125,0.4475424289703369,0.8556057214736938,0.8485326170921326
1684200882477408000,3.679407958984375,0.5387594103813171,0.8045203685760498,0.7130004167556763
1684200882487433000,3.689432861328125,0.6203823685646057,0.8789306879043579,0.5361329317092896
1684200882497458000,3.6994580078125,0.7495874762535095,0.9886606931686401,0.3123156428337097
1684200882507483000,3.70948291015625,0.8596633672714233,1.0371646881103516,0.050872042775154114
1684200882517507000,3.719507080078125,0.8861730098724365,0.8486699461936951,-0.185212641954422
1684200882527532000,3.729531982421875,0.7911602258682251,0.3904038667678833,-0.3637642562389374
1684200882537557000,3.739556884765625,0.5760607123374939,-0.21924671530723572,-0.4614882469177246
1684200882547582000,3.74958203125,0.3345964550971985,-0.8252716660499573,-0.4365570545196533
1684200882557606000,3.75960595703125,0.0860324278473854,-1.392624855041504,-0.3532947301864624
1684200882567631000,3.769631103515625,-0.1494051218032837,-1.7594809532165527,-0.2303033024072647
1684200882577656000,3.779656005859375,-0.30046147108078003,-1.8694210052490234,-0.09605787694454193
1684200882587681000,3.789680908203125,-0.3873835802078247,-1.711584210395813,-0.014722918160259724
1684200882597705000,3.799705078125,-0.4274415373802185,-1.3743380308151245,0.047834184020757675
1684200882607730000,3.80972998046875,-0.4469726085662842,-1.0285677909851074,0.10588683933019638
1684200882617755000,3.8197548828125,-0.4789326786994934,-0.7412901520729065,0.2029099017381668
1684200882627779800,3.82977978515625,-0.5030633211135864,-0.5284023880958557,0.33550044894218445
1684200882637804000,3.839803955078125,-0.5047906041145325,-0.3819877505302429,0.46828943490982056
1684200882647829000,3.8498291015625,-0.5016438364982605,-0.24982304871082306,0.5805978178977966
1684200882657854200,3.859854248046875,-0.4680613875389099,-0.1305234730243683,0.6423999071121216
1684200882667879200,3.869879150390625,-0.400585412979126,-0.12054220587015152,0.711174726486206
1684200882677902800,3.87990283203125,-0.29857251048088074,-0.10987898707389832,0.8217430710792542
1684200882687928000,3.889927978515625,-0.16066284477710724,-0.020058291032910347,0.9151590466499329
1684200882697953000,3.899953125,-0.008578498847782612,0.23565220832824707,0.960097074508667
1684200882707978000,3.90997802734375,0.16082996129989624,0.6274958848953247,0.948959469795227
1684200882718002200,3.920002197265625,0.3576415777206421,1.0801887512207031,0.8957898616790771
1684200882728027100,3.930027099609375,0.5311166644096375,1.5943924188613892,0.8143317699432373
1684200882738051800,3.9400517578125,0.6145686507225037,2.032980442047119,0.7099363803863525
1684200882748076000,3.950075927734375,0.6324304938316345,2.2289257049560547,0.5922789573669434
1684200882758101000,3.96010107421875,0.564610481262207,2.237199068069458,0.50421142578125
1684200882768126000,3.9701259765625,0.4765980541706085,1.9771820306777954,0.3918883800506592
1684200882778151000,3.98015087890625,0.35725489258766174,1.5148857831954956,0.2449284791946411
1684200882788175000,3.990175048828125,0.25387656688690186,0.9589751958847046,0.06583116948604584
1684200882798199600,4.000199462890625,0.18388736248016357,0.4247669577598572,-0.15536059439182281
1684200882808224800,4.010224853515625,0.13311180472373962,-0.025447068735957146,-0.39426344633102417
1684200882818249700,4.020249755859375,0.0891248881816864,-0.35317328572273254,-0.6189349293708801
1684200882828273700,4.030273681640625,0.05337302386760712,-0.5671864748001099,-0.7917937636375427
1684200882838299000,4.040298828125,0.025708891451358795,-0.6587873101234436,-0.9125266671180725
1684200882848323800,4.05032373046875,-0.015050522051751614,-0.6952369213104248,-0.9672167897224426
1684200882858348800,4.060348876953125,-0.06203798949718475,-0.6923174858093262,-0.954572319984436
1684200882868372700,4.070372802734375,-0.10917248576879501,-0.7149609923362732,-0.9100173711776733
1684200882878397700,4.080397705078125,-0.1370438039302826,-0.7493254542350769,-0.8346148729324341
1684200882888422700,4.090422607421875,-0.15985563397407532,-0.7881287932395935,-0.7590594291687012
1684200882898448000,4.10044775390625,-0.17092318832874298,-0.81329745054245,-0.6976712942123413
1684200882908471800,4.110471923828125,-0.15910914540290833,-0.7946449518203735,-0.6748152375221252
1684200882918496800,4.120496826171875,-0.12289628386497498,-0.720406174659729,-0.686099648475647
1684200882928521700,4.130521728515625,-0.06675978004932404,-0.5650932788848877,-0.7212080955505371
1684200882938546700,4.140546630859375,0.011221040040254593,-0.3524264097213745,-0.7713093757629395
1684200882948570600,4.150570556640625,0.0746583342552185,-0.14263509213924408,-0.808031439781189
1684200882958595800,4.160595947265625,0.10182178765535355,0.020554935559630394,-0.8390336036682129
1684200882968620800,4.170620849609375,0.09376785159111023,0.10151423513889313,-0.8727481961250305
1684200882978645800,4.180645751953125,0.058157920837402344,0.09613584727048874,-0.9011009931564331
1684200882988669700,4.190669677734375,0.0066846092231571674,0.042567167431116104,-0.9229743480682373
1684200882998694700,4.200694580078125,-0.07155480980873108,0.014551314525306225,-0.94514399766922
1684200883008719600,4.2107197265625,-0.18537618219852448,0.07745064795017242,-1.004837155342102
1684200883018744800,4.220744873046875,-0.3559234142303467,0.20462274551391602,-1.0822372436523438
1684200883028768800,4.230768798828125,-0.5719507932662964,0.33591392636299133,-1.126000165939331
1684200883038793700,4.240793701171875,-0.7918509244918823,0.3442935049533844,-1.116181492805481
1684200883048819000,4.25081884765625,-0.8995582461357117,-0.035314254462718964,-1.0661518573760986
1684200883058844000,4.260843994140625,-0.8698442578315735,-0.5311658382415771,-0.8651153445243835
1684200883068867600,4.27086767578125,-0.9355729818344116,-1.1013870239257812,-0.4991549253463745
1684200883078892800,4.280892822265625,-0.9854353070259094,-1.8868311643600464,-0.04947095736861229
1684200883088917800,4.290917724609375,-0.8468028903007507,-2.4751296043395996,0.30225247144699097
1684200883098942700,4.300942626953125,-0.5299692749977112,-1.9264408349990845,0.3030756711959839
1684200883108967000,4.310966796875,-0.2475212961435318,-0.6812791228294373,0.08003326505422592
1684200883118992000,4.320991943359375,-0.02904115803539753,0.5278052687644958,0.0042025805450975895
1684200883129016600,4.3310166015625,0.0809154361486435,1.1697763204574585,0.09895359724760056
1684200883139041500,4.34104150390625,0.208846777677536,1.2150404453277588,0.15315555036067963
1684200883149065700,4.351065673828125,0.37848585844039917,0.9262009263038635,0.2825279235839844
1684200883159090700,4.361090576171875,0.42951977252960205,0.6461804509162903,0.567549467086792
1684200883169116000,4.371115966796875,0.38494083285331726,0.7212027311325073,0.6239637732505798
1684200883179140900,4.381140869140625,0.32560455799102783,0.8196021318435669,0.558010995388031
1684200883189164500,4.39116455078125,0.22005628049373627,0.6749181747436523,0.5451402068138123
1684200883199189800,4.401189697265625,0.07540880888700485,0.4855622947216034,0.46139299869537354
1684200883209214700,4.411214599609375,-0.11555901914834976,0.28834402561187744,0.2902849018573761
1684200883219239700,4.42123974609375,-0.3151187300682068,0.009329107590019703,0.1016635149717331
1684200883229264000,4.431263916015625,-0.4946003556251526,-0.307813435792923,-0.06044735759496689
1684200883239288800,4.441288818359375,-0.6516130566596985,-0.6392454504966736,-0.19599555432796478
1684200883249313800,4.451313720703125,-0.7815886735916138,-0.9230481386184692,-0.32735463976860046
1684200883259338800,4.4613388671875,-0.8631181716918945,-1.0840282440185547,-0.4616186022758484
1684200883269362700,4.47136279296875,-0.8828154802322388,-1.0277460813522339,-0.5262748599052429
1684200883279387600,4.4813876953125,-0.764297366142273,-0.7511392831802368,-0.508819580078125
1684200883289412900,4.491412841796875,-0.5130661725997925,-0.6019335389137268,-0.5078126192092896
1684200883299437800,4.501437744140625,-0.2268168181180954,-0.6042466759681702,-0.5346941947937012
1684200883309461800,4.511461669921875,0.009079857729375362,-0.6525633335113525,-0.4676818251609802
1684200883319487000,4.521487060546875,0.165137380361557,-0.49857696890830994,-0.321137934923172
1684200883329511700,4.53151171875,0.2497074007987976,-0.15846440196037292,-0.10849172621965408
1684200883339536600,4.54153662109375,0.31285732984542847,0.1331123411655426,0.0766143947839737
1684200883349560800,4.551560791015625,0.37782832980155945,0.32330411672592163,0.17654018104076385
1684200883359585800,4.561585693359375,0.427582323551178,0.38624611496925354,0.17115111649036407
1684200883369610800,4.57161083984375,0.47214898467063904,0.31479403376579285,0.07660570740699768
1684200883379635700,4.5816357421875,0.48991039395332336,0.12454615533351898,-0.09848212450742722
1684200883389659600,4.59165966796875,0.4707668125629425,-0.14767391979694366,-0.34172379970550537
1684200883399684600,4.6016845703125,0.44113194942474365,-0.40236037969589233,-0.5199282765388489
1684200883409709600,4.61170947265625,0.4137839376926422,-0.6133103966712952,-0.5982616543769836
1684200883419734800,4.62173486328125,0.3679006099700928,-0.8292603492736816,-0.6714169979095459
1684200883429758700,4.6317587890625,0.30869266390800476,-0.9965398907661438,-0.7796382308006287
1684200883439784000,4.641783935546875,0.2407146692276001,-1.050215482711792,-0.8803548216819763
1684200883449809000,4.651808837890625,0.15680167078971863,-1.076609492301941,-1.0230355262756348
1684200883459833900,4.661833740234375,0.06671386957168579,-1.1639117002487183,-1.117610216140747
1684200883469857800,4.67185791015625,-0.06850574165582657,-1.3766511678695679,-1.1200588941574097
1684200883479882800,4.6818828125,-0.1923171579837799,-1.6286393404006958,-1.1088569164276123
1684200883489907700,4.69190771484375,-0.23441988229751587,-1.8854609727859497,-1.1732207536697388
1684200883499932700,4.7019326171875,-0.252753347158432,-2.020512104034424,-1.251274585723877
1684200883509956900,4.711956787109375,-0.3093375265598297,-1.9784635305404663,-1.2960846424102783
1684200883519981800,4.72198193359375,-0.39458876848220825,-1.848678469657898,-1.300445556640625
1684200883530006500,4.732006591796875,-0.441715270280838,-1.606438398361206,-1.2306846380233765
1684200883540031700,4.74203173828125,-0.4052901566028595,-1.2868950366973877,-1.1263775825500488
1684200883550055700,4.7520556640625,-0.35947099328041077,-1.0006318092346191,-1.0581740140914917
1684200883560080600,4.76208056640625,-0.3049808740615845,-0.7679882645606995,-0.9522520899772644
1684200883570105900,4.77210595703125,-0.2017119973897934,-0.5002758502960205,-0.7177873849868774
1684200883580130800,4.782130859375,-0.16741633415222168,-0.47952234745025635,-0.5292624235153198
1684200883590154800,4.79215478515625,-0.1526387333869934,-0.6023755669593811,-0.3956047296524048
1684200883600179700,4.8021796875,-0.11524900794029236,-0.6114885807037354,-0.2632089853286743
1684200883610204700,4.81220458984375,-0.09100785851478577,-0.39621537923812866,-0.12850737571716309
1684200883620229600,4.822229736328125,-0.07570827752351761,-0.052731599658727646,-0.02122192457318306
1684200883630253800,4.83225390625,-0.06413418054580688,0.3034992218017578,0.02523931860923767
1684200883640278800,4.84227880859375,-0.060598552227020264,0.5559129118919373,-0.006761048920452595
1684200883650303700,4.8523037109375,-0.048757076263427734,0.7029921412467957,-0.06556817144155502
1684200883660329000,4.862328857421875,-0.05768318846821785,0.825851559638977,-0.09301970899105072
1684200883670353700,4.872353759765625,-0.08006120473146439,0.8759000897407532,-0.09319308400154114
1684200883680377600,4.882377685546875,-0.11449320614337921,0.8625238537788391,-0.08158297836780548
1684200883690402800,4.89240283203125,-0.1597435027360916,0.8262143135070801,-0.06964030116796494
1684200883700427800,4.902427734375,-0.2010273039340973,0.7849030494689941,-0.04749678820371628
1684200883710452000,4.912451904296875,-0.23856322467327118,0.7347850203514099,-0.03985485062003136
1684200883720477000,4.922476806640625,-0.2570362389087677,0.6475304961204529,-0.04591171443462372
1684200883730501600,4.932501708984375,-0.2563358247280121,0.519377589225769,-0.07002504169940948
1684200883740526600,4.942526611328125,-0.2493003010749817,0.4052647650241852,-0.09969192743301392
1684200883750551800,4.9525517578125,-0.24535083770751953,0.3673352301120758,-0.11047932505607605
1684200883760575700,4.96257568359375,-0.2365647852420807,0.35490739345550537,-0.11768738180398941
1684200883770600700,4.9726005859375,-0.2310805320739746,0.35780784487724304,-0.11123187839984894
1684200883780626000,4.9826259765625,-0.22021405398845673,0.38499340415000916,-0.07895267009735107
1684200883790649600,4.992649658203125,-0.2022707462310791,0.4452487528324127,-0.0361253097653389
1684200883800675000,5.002675048828125,-0.17401352524757385,0.526710033416748,0.008585333824157715
1684200883810700300,5.0127001953125,-0.14345243573188782,0.6119248270988464,0.05769961327314377
1684200883820725200,5.022725341796875,-0.10459743440151215,0.7116387486457825,0.10430335253477097
1684200883830750200,5.032750244140625,-0.06368754804134369,0.7725899815559387,0.15192119777202606
1684200883840774400,5.0427744140625,-0.03510065749287605,0.7633621096611023,0.16087248921394348
1684200883850799400,5.05279931640625,-0.03574833646416664,0.7211570739746094,0.13806703686714172
1684200883860824300,5.06282421875,-0.04620842635631561,0.6992799639701843,0.08710673451423645
1684200883870849300,5.072849365234375,-0.059693343937397,0.716845691204071,0.032915130257606506
1684200883880873200,5.082873291015625,-0.07688512653112411,0.7373769879341125,-0.026661541312932968
1684200883890898200,5.092898193359375,-0.09701702743768692,0.7845173478126526,-0.06342568248510361
1684200883900923100,5.102923095703125,-0.11391743272542953,0.831946849822998,-0.09200485050678253
1684200883910948400,5.1129482421875,-0.1261700987815857,0.8813818097114563,-0.12923398613929749
1684200883920972300,5.12297216796875,-0.12281132489442825,0.9525744915008545,-0.11040231585502625
1684200883930997200,5.132997314453125,-0.09942397475242615,1.0185871124267578,-0.01933899335563183
1684200883941022200,5.143022216796875,-0.06999392062425613,1.0562034845352173,0.08865798264741898
1684200883951046100,5.153046142578125,-0.05005350708961487,1.0895001888275146,0.17731034755706787
1684200883961071400,5.1630712890625,-0.0311296209692955,1.0936859846115112,0.21582874655723572
1684200883971096300,5.173096435546875,-0.02619451843202114,1.0576176643371582,0.20369698107242584
1684200883981121300,5.183121337890625,-0.039314836263656616,1.0097651481628418,0.154764786362648
1684200883991145200,5.193145263671875,-0.06128910928964615,1.0134291648864746,0.13057368993759155
1684200884001170200,5.203170166015625,-0.09503855556249619,1.0086899995803833,0.12307906895875931
1684200884011195100,5.213195068359375,-0.11311502754688263,0.9824661016464233,0.09575530886650085
1684200884021220000,5.22322021484375,-0.12282223254442215,0.968765377998352,0.04856901988387108
1684200884031245300,5.233245361328125,-0.11736168712377548,0.9488515853881836,-0.0022448920644819736
1684200884041269200,5.243269287109375,-0.11002841591835022,0.902720034122467,-0.08713513612747192
1684200884051294200,5.253294189453125,-0.09318285435438156,0.8322793841362,-0.11996445804834366
1684200884061319400,5.2633193359375,-0.06625085324048996,0.7314839959144592,-0.058453336358070374
1684200884071343000,5.273343017578125,-0.02828722819685936,0.6311787366867065,0.07616811990737915
1684200884081368300,5.283368408203125,0.031407807022333145,0.47135233879089355,0.271499902009964
1684200884091393300,5.293393310546875,0.14603665471076965,0.2016116976737976,0.442566454410553
1684200884101418200,5.303418212890625,0.3779955804347992,-0.15570835769176483,0.5194127559661865
1684200884111443200,5.313443115234375,0.6044062972068787,-0.46018198132514954,0.5158470869064331
1684200884121467400,5.32346728515625,0.7563428282737732,-0.7613776922225952,0.3587116003036499
1684200884131492000,5.3334921875,0.864381730556488,-0.7853440046310425,0.12597981095314026
1684200884141517000,5.34351708984375,0.8950206637382507,-0.4787334203720093,0.025826212018728256
1684200884151541200,5.353541259765625,0.8311923742294312,-0.08269979804754257,0.13021840155124664
1684200884161566200,5.363566162109375,0.734688401222229,0.1302236020565033,0.3690892159938812
1684200884171591200,5.373591064453125,0.6034560799598694,0.10582558065652847,0.7265386581420898
1684200884181616400,5.383616455078125,0.46298930048942566,-0.08450363576412201,1.0487329959869385
1684200884191640000,5.39364013671875,0.37913408875465393,-0.23452402651309967,1.1684072017669678
1684200884201665300,5.403665283203125,0.3798251748085022,-0.24589762091636658,1.11812424659729
1684200884211690200,5.413690185546875,0.4529055058956146,-0.30749228596687317,0.9718115329742432
1684200884221715200,5.423715087890625,0.5208024978637695,-0.42702293395996094,0.8728253245353699
1684200884231739400,5.433739501953125,0.5545333027839661,-0.6048563122749329,0.8212374448776245
1684200884241764400,5.443764404296875,0.5455611348152161,-0.8327736258506775,0.8004406690597534
1684200884251789300,5.453789306640625,0.5028035044670105,-1.0235286951065063,0.7702814340591431
1684200884261814300,5.463814208984375,0.45999911427497864,-1.1516362428665161,0.7411987781524658
1684200884271838200,5.473838134765625,0.3792230486869812,-0.9744321703910828,0.8302612900733948
1684200884281863200,5.48386328125,0.28241580724716187,-0.7102314829826355,0.9233088493347168
1684200884291888000,5.49388818359375,0.1853390336036682,-0.5948955416679382,0.9404165148735046
1684200884301913300,5.503913330078125,0.0727805495262146,-0.49812719225883484,0.953813910484314
1684200884311937300,5.513937255859375,-0.006360878236591816,-0.4106988310813904,0.9344654679298401
1684200884321962200,5.523962158203125,-0.0470460020005703,-0.3274918794631958,0.861260712146759
1684200884331987200,5.5339873046875,-0.02588852122426033,-0.28292760252952576,0.762342095375061
1684200884342012200,5.54401220703125,0.014875968918204308,-0.3671551048755646,0.668967068195343
1684200884352036400,5.554036376953125,0.05256688967347145,-0.6078041791915894,0.6201832890510559
1684200884362061300,5.564061279296875,0.10689935088157654,-0.8485068678855896,0.5181734561920166
1684200884372086300,5.574086181640625,0.17377425730228424,-0.9758408665657043,0.38689538836479187
1684200884382111200,5.584111328125,0.2584177851676941,-0.8849751353263855,0.2716798484325409
1684200884392135200,5.59413525390625,0.3731542229652405,-0.5762889385223389,0.26420941948890686
1684200884402160000,5.60416015625,0.4563194215297699,-0.35120344161987305,0.24225647747516632
1684200884412185000,5.61418505859375,0.5138533115386963,-0.217403843998909,0.1725570261478424
1684200884422210300,5.624210205078125,0.5517894625663757,-0.1938195824623108,0.08569371700286865
1684200884432234200,5.634234130859375,0.5514152646064758,-0.2769791781902313,-0.03135620802640915
1684200884442259200,5.64425927734375,0.5366941094398499,-0.46748751401901245,-0.1790890395641327
1684200884452284400,5.654284423828125,0.5181356072425842,-0.650040864944458,-0.3228461742401123
1684200884462309400,5.664309326171875,0.4912622272968292,-0.8490947484970093,-0.4528829753398895
1684200884472333300,5.674333251953125,0.45303601026535034,-1.075932502746582,-0.5674836039543152
1684200884482358300,5.684358154296875,0.42488959431648254,-1.3271725177764893,-0.6822819113731384
1684200884492383200,5.69438330078125,0.43752121925354004,-1.5704379081726074,-0.7706612944602966
1684200884502408200,5.704408203125,0.44161584973335266,-1.7562528848648071,-0.8369273543357849
1684200884512432400,5.714432373046875,0.44648516178131104,-1.9256908893585205,-0.8982090950012207
1684200884522457300,5.724457275390625,0.44408777356147766,-2.0928761959075928,-0.9601758718490601
1684200884532482000,5.73448193359375,0.450670063495636,-2.255201578140259,-1.0048428773880005
1684200884542507300,5.74450732421875,0.4603405296802521,-2.3955368995666504,-1.0719000101089478
1684200884552531200,5.75453125,0.4617519974708557,-2.455439567565918,-1.1067876815795898
1684200884562556200,5.76455615234375,0.45845896005630493,-2.5797932147979736,-1.1214185953140259
1684200884572581400,5.774581298828125,0.4640670418739319,-2.7191243171691895,-1.1341588497161865
1684200884582606300,5.7846064453125,0.46001216769218445,-2.8105814456939697,-1.1467114686965942
1684200884592630300,5.79463037109375,0.4388384222984314,-2.912116527557373,-1.1577186584472656
1684200884602655200,5.8046552734375,0.4073396325111389,-3.0318286418914795,-1.1576356887817383
1684200884612680200,5.81468017578125,0.37688344717025757,-3.1477179527282715,-1.1263725757598877
1684200884622705200,5.824705078125,0.369874507188797,-3.2427313327789307,-1.093238115310669
1684200884632729300,5.834729248046875,0.3758852779865265,-3.3460896015167236,-1.052066683769226
1684200884642754300,5.84475439453125,0.40610310435295105,-3.4789795875549316,-1.003170132637024
1684200884652779300,5.854779296875,0.4261268973350525,-3.578230619430542,-0.9509602785110474
1684200884662804500,5.864804443359375,0.41390830278396606,-3.7014880180358887,-0.9156423211097717
1684200884672828200,5.874828125,0.3938416540622711,-3.7691075801849365,-0.8473301529884338
1684200884682853000,5.88485302734375,0.3224700093269348,-3.890807628631592,-0.8138043284416199
1684200884692878300,5.89487841796875,0.24901390075683594,-4.0192389488220215,-0.8229599595069885
1684200884702903300,5.9049033203125,0.19667531549930573,-4.076107025146484,-0.8934035897254944
1684200884712927200,5.91492724609375,0.1717318743467331,-4.09780740737915,-0.9926630854606628
1684200884722952400,5.924952392578125,0.1305743157863617,-4.081264019012451,-1.1322075128555298
1684200884732977200,5.93497705078125,0.06407971680164337,-4.050774097442627,-1.2814418077468872
1684200884743002000,5.945002197265625,-0.049438584595918655,-4.049702167510986,-1.432401180267334
1684200884753026300,5.9550263671875,-0.22872258722782135,-4.04097843170166,-1.5497454404830933
1684200884763051300,5.96505126953125,-0.3940041959285736,-4.017857074737549,-1.5885521173477173
1684200884773076200,5.975076171875,-0.4978499114513397,-3.8686330318450928,-1.526845097541809
1684200884783101400,5.985101318359375,-0.5560290813446045,-3.6969282627105713,-1.4376932382583618
1684200884793125000,5.995125,-0.6136314272880554,-3.5940403938293457,-1.3383866548538208
1684200884803150600,6.005150634765625,-0.6762843728065491,-3.5549588203430176,-1.2438154220581055
1684200884813175600,6.015175537109375,-0.7058859467506409,-3.563292980194092,-1.1542096138000488
1684200884823200800,6.02520068359375,-0.7063949108123779,-3.547912120819092,-1.075364351272583
1684200884833224400,6.035224365234375,-0.6942844390869141,-3.4611690044403076,-1.00767982006073
1684200884843249700,6.045249755859375,-0.6516573429107666,-3.2532432079315186,-0.9825001955032349
1684200884853274600,6.055274658203125,-0.5381848216056824,-2.931755542755127,-1.0372049808502197
1684200884863299600,6.065299560546875,-0.36130884289741516,-2.478950023651123,-1.1884716749191284
1684200884873323800,6.07532373046875,-0.16456064581871033,-1.9947013854980469,-1.4153079986572266
1684200884883348700,6.0853486328125,0.0012999584432691336,-1.484440803527832,-1.6753309965133667
1684200884893373700,6.095373779296875,0.0637659952044487,-1.1091768741607666,-1.904568076133728
1684200884903398400,6.1053984375,-0.03171178326010704,-1.0079504251480103,-1.9779183864593506
1684200884913422600,6.115422607421875,-0.1934327781200409,-1.3978382349014282,-1.8980439901351929
1684200884923447600,6.125447509765625,-0.2971913814544678,-2.0832884311676025,-1.6535524129867554
1684200884933472500,6.135472412109375,-0.3420398235321045,-2.699888229370117,-1.2449707984924316
1684200884943497700,6.145497802734375,-0.4119033217430115,-3.213322162628174,-0.7782999873161316
1684200884953521700,6.155521728515625,-0.35213106870651245,-3.457803726196289,-0.3306329548358917
1684200884963546600,6.165546630859375,-0.11158210784196854,-3.209475040435791,-0.024890324100852013
1684200884973571600,6.175571533203125,0.06357133388519287,-2.885071277618408,0.04061491787433624
1684200884983596500,6.185596435546875,0.12712925672531128,-2.7432565689086914,-0.07492160052061081
1684200884993620700,6.195620849609375,0.10758166015148163,-2.7790935039520264,-0.32680603861808777
1684200885003645700,6.205645751953125,0.03406349942088127,-2.9585630893707275,-0.6802291870117188
1684200885013670700,6.215670654296875,0.03652213141322136,-3.32749080657959,-1.0530304908752441
1684200885023695600,6.225695556640625,0.1314433068037033,-3.748224973678589,-1.3594274520874023
1684200885033719600,6.235719482421875,0.14207012951374054,-4.0916852951049805,-1.57300865650177
1684200885043744500,6.24574462890625,0.11332422494888306,-4.400485038757324,-1.7017881870269775
1684200885053769500,6.25576953125,0.08587182313203812,-4.682976245880127,-1.791935920715332
1684200885063794700,6.265794677734375,0.042805325239896774,-4.894240379333496,-1.8165185451507568
1684200885073818600,6.275818603515625,-0.014118674211204052,-5.035162448883057,-1.7652654647827148
1684200885083843600,6.285843505859375,-0.010148439556360245,-4.792489528656006,-1.6755670309066772
1684200885093868800,6.295868896484375,0.06280433386564255,-4.302275657653809,-1.636378526687622
1684200885103893500,6.3058935546875,0.11609844118356705,-3.8527615070343018,-1.6338423490524292
1684200885113917700,6.315917724609375,0.160868838429451,-3.5649633407592773,-1.6536165475845337
1684200885123942700,6.325942626953125,0.13416588306427002,-3.417360305786133,-1.6552622318267822
1684200885133967600,6.335967529296875,0.025037791579961777,-3.2968857288360596,-1.6408058404922485
1684200885143992600,6.34599267578125,-0.07831311225891113,-3.2256550788879395,-1.6007049083709717
1684200885154016800,6.356016845703125,-0.1623488962650299,-3.2514450550079346,-1.5373163223266602
1684200885164041500,6.36604150390625,-0.2848159372806549,-3.360196113586426,-1.4423753023147583
1684200885174066400,6.37606640625,-0.4193985164165497,-3.505650043487549,-1.3234604597091675
1684200885184091600,6.386091552734375,-0.5153109431266785,-3.6519789695739746,-1.1746699810028076
1684200885194115600,6.396115478515625,-0.6072747111320496,-3.711557388305664,-1.0295367240905762
1684200885204140500,6.406140625,-0.6496133804321289,-3.7301132678985596,-0.910021185874939
1684200885214165800,6.416165771484375,-0.6464905738830566,-3.752364158630371,-0.8255054950714111
1684200885224190700,6.426190673828125,-0.6158279180526733,-3.7423954010009766,-0.719567060470581
1684200885234214700,6.436214599609375,-0.5752264261245728,-3.766934871673584,-0.6409150958061218
1684200885244239600,6.446239501953125,-0.4929680824279785,-3.7861602306365967,-0.6067382097244263
1684200885254264600,6.4562646484375,-0.40459346771240234,-3.71366548538208,-0.565434455871582
1684200885264289500,6.46628955078125,-0.27752286195755005,-3.486517906188965,-0.4921744167804718
1684200885274313700,6.476313720703125,-0.10619428008794785,-3.2331714630126953,-0.4294588267803192
1684200885284338700,6.486338623046875,0.05827564001083374,-3.0866661071777344,-0.36443179845809937
1684200885294363600,6.49636376953125,0.20538918673992157,-2.958916664123535,-0.31010594964027405
1684200885304388600,6.506388671875,0.3286075294017792,-2.7947146892547607,-0.24210916459560394
1684200885314412500,6.51641259765625,0.4352644681930542,-2.576143741607666,-0.14691074192523956
1684200885324437500,6.5264375,0.5343958139419556,-2.3424460887908936,-0.029057705774903297
1684200885334462700,6.536462646484375,0.6426948308944702,-2.1151959896087646,0.09096111357212067
1684200885344487700,6.54648779296875,0.8358917236328125,-1.977944254875183,0.18107269704341888
1684200885354511600,6.55651171875,1.13948655128479,-1.866456151008606,0.2794935405254364
1684200885364536600,6.56653662109375,1.3780280351638794,-1.7005934715270996,0.48497655987739563
1684200885374561500,6.5765615234375,1.436430811882019,-1.597188949584961,0.7953421473503113
1684200885384586500,6.58658642578125,1.258731722831726,-1.5753291845321655,0.9759230017662048
1684200885394610700,6.596610595703125,0.8926090598106384,-1.5408753156661987,0.9453861117362976
1684200885404635600,6.6066357421875,0.5454205274581909,-1.2004179954528809,0.819575309753418
1684200885414660600,6.61666064453125,0.45937860012054443,-0.6408513188362122,0.5658689737319946
1684200885424685800,6.626685791015625,0.6505320072174072,-0.2736131548881531,0.14792180061340332
1684200885434709500,6.63670947265625,0.9130861163139343,0.11763875931501389,-0.118350088596344
1684200885444734500,6.646734375,1.0184314250946045,0.41831907629966736,-0.10765766352415085
1684200885454759700,6.656759765625,0.9463447332382202,0.4921581447124481,0.10796356946229935
1684200885464784600,6.66678466796875,0.7033891081809998,0.31158754229545593,0.27852728962898254
1684200885474808600,6.67680859375,0.44171464443206787,0.04613296315073967,0.3290834128856659
1684200885484833800,6.686833740234375,0.23890294134616852,-0.16723749041557312,0.28441911935806274
1684200885494858800,6.696858642578125,0.01619902066886425,-0.4349333643913269,0.17610540986061096
1684200885504883500,6.706883544921875,-0.210074320435524,-0.6894171237945557,0.04266416281461716
1684200885514907600,6.71690771484375,-0.3903982937335968,-0.8062438368797302,-0.09386331588029861
1684200885524932600,6.7269326171875,-0.5337868928909302,-0.8465046286582947,-0.2087184190750122
1684200885534957600,6.73695751953125,-0.6685345768928528,-0.837299644947052,-0.2639947235584259
1684200885544982800,6.746982666015625,-0.777597963809967,-0.7415785789489746,-0.2768898606300354
1684200885555006700,6.7570068359375,-0.8911149501800537,-0.5877964496612549,-0.23871265351772308
1684200885565031400,6.767031494140625,-0.9624772667884827,-0.49888095259666443,-0.1318521797657013
1684200885575056600,6.777056640625,-0.9536156058311462,-0.590470016002655,0.09614715725183487
1684200885585081600,6.78708154296875,-0.772667646408081,-0.7399258613586426,0.4187474846839905
1684200885595105500,6.79710546875,-0.47268038988113403,-0.5491431355476379,0.6355085372924805
1684200885605130800,6.807130859375,-0.23534508049488068,0.012224432080984116,0.653602659702301
1684200885615155700,6.81715576171875,-0.02191961370408535,0.623748779296875,0.48484113812446594
1684200885625180700,6.8271806640625,0.2044898420572281,0.9579318165779114,0.23007896542549133
1684200885635204600,6.83720458984375,0.334115207195282,0.9588266015052795,-0.02868708036839962
1684200885645229600,6.8472294921875,0.21622905135154724,0.6379687786102295,-0.26630228757858276
1684200885655254500,6.857254638671875,-0.03843998908996582,0.23771558701992035,-0.3405536115169525
1684200885665279700,6.86727978515625,-0.07748433202505112,0.24979081749916077,-0.24711142480373383
1684200885675303700,6.8773037109375,-0.0160507969558239,0.49448660016059875,-0.16813059151172638
1684200885685328600,6.88732861328125,0.12850184738636017,0.6273235082626343,-0.15860116481781006
1684200885695353600,6.897353515625,0.2724531888961792,0.5447586178779602,-0.10780216008424759
1684200885705378600,6.907378662109375,0.4061143100261688,0.39178264141082764,0.09043920040130615
1684200885715402500,6.917402587890625,0.5572079420089722,0.4044816493988037,0.36598342657089233
1684200885725427700,6.927427734375,0.6856375336647034,0.5308772921562195,0.5771154761314392
1684200885735452700,6.93745263671875,0.813809335231781,0.5802749395370483,0.6464556455612183
1684200885745477600,6.9474775390625,0.9462211728096008,0.5349115133285522,0.6388255953788757
1684200885755501600,6.95750146484375,1.055670142173767,0.4143552780151367,0.6062697768211365
1684200885765526500,6.967526611328125,1.1563310623168945,0.22896668314933777,0.5072374939918518
1684200885775551500,6.977551513671875,1.2857047319412231,0.08511364459991455,0.3610440790653229
1684200885785576700,6.98757666015625,1.3602681159973145,-0.02729586511850357,0.2887797951698303
1684200885795600600,6.9976005859375,1.3490639925003052,-0.34930720925331116,0.34495091438293457
1684200885805625000,7.007625,1.348258137702942,-0.9229217171669006,0.46311983466148376
1684200885815650000,7.017650146484375,1.3005238771438599,-1.5716192722320557,0.5647441744804382
1684200885825675000,7.027675048828125,1.1299848556518555,-1.928706407546997,0.6505558490753174
1684200885835699200,7.03769921875,0.9338145852088928,-1.6617623567581177,0.6786375641822815
1684200885845724200,7.04772412109375,0.8117706775665283,-1.0220996141433716,0.5633658766746521
1684200885855748900,7.057748779296875,0.7153536081314087,-0.4337812662124634,0.40428274869918823
1684200885865773800,7.06777392578125,0.6143524050712585,-0.05924207717180252,0.25117114186286926
1684200885875798000,7.077798095703125,0.51792311668396,0.1096087247133255,0.1405724287033081
1684200885885823000,7.087822998046875,0.43810126185417175,0.1888796091079712,0.021637359634041786
1684200885895848000,7.097847900390625,0.3857158124446869,0.32988786697387695,-0.12956760823726654
1684200885905873200,7.107873046875,0.3401975929737091,0.4918470084667206,-0.3016076982021332
1684200885915896800,7.117896728515625,0.2616066634654999,0.5475675463676453,-0.473283052444458
1684200885925921800,7.127921875,0.16320471465587616,0.502223551273346,-0.6069302558898926
1684200885935947000,7.137947021484375,0.04858572781085968,0.37796738743782043,-0.6982143521308899
1684200885945972000,7.147971923828125,-0.09837710112333298,0.235782653093338,-0.7551461458206177
1684200885955996200,7.15799609375,-0.24644246697425842,0.11892101168632507,-0.7934890389442444
1684200885966021000,7.168021240234375,-0.3784172534942627,0.00790518056601286,-0.8033552169799805
1684200885976046000,7.178046142578125,-0.4927385151386261,-0.10262958705425262,-0.7969250082969666
1684200885986071000,7.188071044921875,-0.5807320475578308,-0.19663693010807037,-0.7683454751968384
1684200885996095000,7.198094970703125,-0.6317805647850037,-0.22206398844718933,-0.7203510403633118
1684200886006120000,7.208119873046875,-0.6470343470573425,-0.22650562226772308,-0.6630585789680481
1684200886016145000,7.218144775390625,-0.6711229085922241,-0.2307826727628708,-0.6156484484672546
1684200886026170000,7.228170166015625,-0.6934002637863159,-0.2048565000295639,-0.5522387623786926
1684200886036194000,7.238194091796875,-0.7580738067626953,-0.1731473058462143,-0.4607279598712921
1684200886046219000,7.248218994140625,-0.8317549228668213,-0.14414343237876892,-0.31745827198028564
1684200886056244000,7.258243896484375,-0.8609620928764343,-0.10093789547681808,-0.11388518661260605
1684200886066269000,7.26826904296875,-0.8111934661865234,-0.0393701046705246,0.06374742835760117
1684200886076292900,7.27829296875,-0.7228862643241882,0.07997439801692963,0.15732558071613312
1684200886086318000,7.288318115234375,-0.591096818447113,0.34370914101600647,0.15129424631595612
1684200886096343000,7.298343017578125,-0.4286138415336609,0.8065500259399414,0.09487758576869965
1684200886106368000,7.308367919921875,-0.26161181926727295,1.357816219329834,-0.02920093759894371
1684200886116392000,7.318391845703125,-0.0637006089091301,1.8118417263031006,-0.19883176684379578
1684200886126417000,7.3284169921875,0.15037041902542114,2.039250135421753,-0.34185588359832764
1684200886136441900,7.33844189453125,0.29048144817352295,1.8850252628326416,-0.4494396150112152
1684200886146467000,7.348467041015625,0.32659417390823364,1.4012633562088013,-0.5685610175132751
1684200886156491000,7.358490966796875,0.4652298092842102,0.7253385186195374,-0.7523742318153381
1684200886166516000,7.368515869140625,0.6183322668075562,0.2726275622844696,-0.9377599358558655
1684200886176541200,7.378541259765625,0.682000458240509,0.04040525108575821,-1.031252384185791
1684200886186566100,7.388566162109375,0.6352902054786682,-0.14137879014015198,-1.026690125465393
1684200886196589800,7.39858984375,0.48398301005363464,-0.32008886337280273,-0.9203064441680908
1684200886206615000,7.408614990234375,0.2564643621444702,-0.4895082414150238,-0.7916877269744873
1684200886216640000,7.418639892578125,0.0017055622301995754,-0.670628011226654,-0.6984235644340515
1684200886226665000,7.4286650390625,-0.26671257615089417,-0.8831488490104675,-0.6828339099884033
1684200886236689200,7.438689208984375,-0.521177351474762,-1.1121654510498047,-0.7716116905212402
1684200886246714000,7.448714111328125,-0.8062576055526733,-1.3108322620391846,-0.9815724492073059
1684200886256738800,7.45873876953125,-1.166200876235962,-1.4132742881774902,-1.243761658668518
1684200886266764000,7.468763916015625,-1.5911673307418823,-1.4403401613235474,-1.4287925958633423
1684200886276788000,7.4787880859375,-1.9498237371444702,-1.3395919799804688,-1.4672446250915527
1684200886286813000,7.48881298828125,-2.066394805908203,-1.2883754968643188,-1.3437285423278809
1684200886296838100,7.498838134765625,-1.829097032546997,-1.3937187194824219,-1.0762110948562622
1684200886306863000,7.508863037109375,-1.5236926078796387,-1.9849915504455566,-0.6382137537002563
1684200886316886800,7.51888671875,-1.3519866466522217,-3.010195255279541,-0.051888756453990936
1684200886326912000,7.528912109375,-1.1295000314712524,-3.4549262523651123,0.5468323826789856
1684200886336937000,7.53893701171875,-0.47312113642692566,-1.8704595565795898,0.8979419469833374
1684200886346961000,7.5489609375,0.21463780105113983,0.7172410488128662,0.9906315207481384
1684200886356986000,7.558986083984375,0.7414299249649048,3.020409107208252,1.1136958599090576
1684200886367011000,7.569010986328125,1.0374847650527954,4.538447856903076,1.3895914554595947
1684200886377036000,7.5790361328125,0.7490079998970032,4.787457466125488,1.561344027519226
1684200886387061000,7.58906103515625,0.14590799808502197,3.781055212020874,1.2062350511550903
1684200886397085000,7.5990849609375,-0.08594200015068054,2.6619200706481934,0.4951806366443634
1684200886407110000,7.60910986328125,0.012235165573656559,2.113619565963745,-0.2560313940048218
1684200886417135000,7.619135009765625,0.020708277821540833,1.218064785003662,-0.7573840022087097
1684200886427159000,7.629158935546875,-0.05739530920982361,-0.3387545049190521,-0.8987456560134888
1684200886437184000,7.63918408203125,-0.1864856481552124,-1.6880643367767334,-0.6567716002464294
1684200886447209200,7.649209228515625,-0.23922263085842133,-2.0716748237609863,-0.2985037863254547
1684200886457234000,7.65923388671875,-0.30807653069496155,-1.8702032566070557,-0.04620790109038353
1684200886467257900,7.6692578125,-0.33450600504875183,-1.3791866302490234,-0.06614276766777039
1684200886477283000,7.679282958984375,-0.37253379821777344,-1.097011685371399,-0.32291916012763977
1684200886487308000,7.68930810546875,-0.3915887176990509,-0.8521217107772827,-0.6331468224525452
1684200886497333000,7.6993330078125,-0.2503839433193207,-0.6345523595809937,-0.8348743319511414
1684200886507357200,7.709357177734375,-0.18640708923339844,-0.5436126589775085,-0.8828666806221008
1684200886517382000,7.7193818359375,-0.18525394797325134,-0.5359981656074524,-0.818744957447052
1684200886527406800,7.72940673828125,-0.25065985321998596,-0.5949310064315796,-0.7481195330619812
1684200886537432000,7.73943212890625,-0.3307916820049286,-0.812999427318573,-0.6774946451187134
1684200886547456000,7.7494560546875,-0.3796897530555725,-0.9703434705734253,-0.5307011604309082
1684200886557481000,7.75948095703125,-0.3810034990310669,-0.9271419644355774,-0.372245192527771
1684200886567506200,7.769506103515625,-0.38283756375312805,-0.9546820521354675,-0.2842789888381958
1684200886577531100,7.77953125,-0.3410547077655792,-0.9474049806594849,-0.2664667069911957
1684200886587554800,7.789554931640625,-0.23972012102603912,-0.7521696090698242,-0.24708178639411926
1684200886597580000,7.799580078125,-0.15712270140647888,-0.6489475965499878,-0.2536294162273407
1684200886607605000,7.80960498046875,-0.0878235250711441,-0.5395209789276123,-0.29492297768592834
1684200886617630000,7.8196298828125,-0.03345322981476784,-0.43799644708633423,-0.35742416977882385
1684200886627654100,7.829654052734375,0.010136609897017479,-0.29276129603385925,-0.39448657631874084
1684200886637679000,7.83967919921875,0.053256116807460785,-0.06518752127885818,-0.3676759898662567
1684200886647703800,7.849703857421875,0.08634987473487854,0.04746063053607941,-0.3241066038608551
1684200886657729000,7.85972900390625,0.08586571365594864,0.026610741391777992,-0.27207401394844055
1684200886667753000,7.8697529296875,0.08121024072170258,-0.05951197072863579,-0.2316952347755432
1684200886677778000,7.87977783203125,0.048775605857372284,-0.1455022543668747,-0.18297137320041656
1684200886687803100,7.88980322265625,0.014180072583258152,-0.22203470766544342,-0.12360411137342453
1684200886697828000,7.899828125,-0.020621052011847496,-0.12703469395637512,-0.08270648121833801
1684200886707851800,7.909851806640625,-0.018352296203374863,0.03818108141422272,-0.04727723449468613
1684200886717877000,7.919876953125,-0.03171097859740257,0.10009318590164185,-0.029046297073364258
1684200886727902000,7.92990185546875,-0.0431806817650795,0.07991167157888412,-0.06149457395076752
1684200886737927000,7.939927001953125,-0.02646455354988575,-0.006511899642646313,-0.11827582865953445
1684200886747951000,7.949951171875,0.0251416377723217,-0.09944191575050354,-0.14945539832115173
1684200886757976000,7.95997607421875,0.06737405061721802,-0.3146359622478485,-0.19075410068035126
1684200886768001000,7.9700009765625,0.10770682245492935,-0.5157658457756042,-0.22969214618206024
1684200886778026000,7.98002587890625,0.11483317613601685,-0.6145190596580505,-0.23319819569587708
1684200886788050000,7.9900498046875,0.11858877539634705,-0.6193312406539917,-0.185068741440773
1684200886798075000,8.000074951171875,0.12300003319978714,-0.5864388346672058,-0.09528718143701553
1684200886808100000,8.01010009765625,0.1137484759092331,-0.5133673548698425,-0.009843896143138409
1684200886818125000,8.020125,0.11726678162813187,-0.3818381130695343,0.04695893079042435
1684200886828149000,8.03014892578125,0.07756809890270233,-0.22010312974452972,0.08635471761226654
1684200886838174200,8.04017431640625,0.023795681074261665,-0.07774544507265091,0.10248841345310211
1684200886848199200,8.05019921875,-0.00624903105199337,0.057513702660799026,0.09635888785123825
1684200886858224000,8.06022412109375,-0.005654613487422466,0.16083450615406036,0.08585591614246368
1684200886868248300,8.070248291015625,0.012826384976506233,0.21771836280822754,0.07932409644126892
1684200886878273000,8.08027294921875,0.04862219840288162,0.2739352881908417,0.06716357171535492
1684200886888298000,8.090298095703124,0.08464652299880981,0.30752816796302795,0.0571465790271759
1684200886898323000,8.100322998046876,0.11000034958124161,0.3256688416004181,0.06225691735744476
1684200886908347100,8.11034716796875,0.1202244907617569,0.32967111468315125,0.09079807251691818
1684200886918372000,8.1203720703125,0.10473687201738358,0.35657012462615967,0.11905553936958313
1684200886928397000,8.13039697265625,0.06748219579458237,0.40495678782463074,0.13768312335014343
1684200886938422300,8.14042236328125,0.02740934118628502,0.42199596762657166,0.1446709930896759
1684200886948446000,8.150446044921875,0.003269639564678073,0.41004058718681335,0.11807776987552643
1684200886958471200,8.16047119140625,0.004594295285642147,0.39802441000938416,0.06099610775709152
1684200886968496000,8.17049609375,0.014780080877244473,0.3733409643173218,0.013765675947070122
1684200886978521000,8.18052099609375,0.02653101272881031,0.3429715931415558,-0.024313265457749367
1684200886988545300,8.190545166015625,0.029038647189736366,0.31533554196357727,-0.03984449803829193
1684200886998570200,8.2005703125,0.02075914479792118,0.30359524488449097,-0.030981766059994698
1684200887008595200,8.21059521484375,-0.010587053373456001,0.3064255714416504,0.007208296563476324
1684200887018620000,8.220619873046875,-0.053339309990406036,0.34668034315109253,0.04377589374780655
1684200887028644000,8.23064404296875,-0.08881928026676178,0.3846946358680725,0.06894803047180176
1684200887038669000,8.2406689453125,-0.10646192729473114,0.42549291253089905,0.08327343314886093
1684200887048694000,8.250694091796875,-0.09902796149253845,0.46296200156211853,0.060492511838674545
1684200887058719200,8.26071923828125,-0.054338790476322174,0.4670605957508087,0.0017341247294098139
1684200887068743200,8.2707431640625,0.003837952157482505,0.4641883969306946,-0.030609723180532455
1684200887078768000,8.28076806640625,0.06499771028757095,0.3648303747177124,-0.015567122958600521
1684200887088793000,8.29079296875,0.10592996329069138,0.21804599463939667,0.005050270818173885
1684200887098818000,8.300818115234375,0.054959461092948914,0.09108751267194748,0.00640528742223978
1684200887108842200,8.31084228515625,-0.06375227123498917,-0.005465637892484665,-0.020728206261992455
1684200887118867200,8.3208671875,-0.18236519396305084,-0.0734790489077568,-0.05838077887892723
1684200887128892200,8.33089208984375,-0.26210182905197144,-0.088416688144207,-0.11990262567996979
1684200887138917000,8.340917236328124,-0.2920680046081543,-0.0022841962054371834,-0.14970819652080536
1684200887148941000,8.350941162109375,-0.2714836597442627,0.13595907390117645,-0.13262586295604706
1684200887158966000,8.360966064453125,-0.23039132356643677,0.2819988429546356,-0.08008676767349243
1684200887168991000,8.370990966796874,-0.2029612958431244,0.4231138527393341,-0.011189823970198631
1684200887179016200,8.38101611328125,-0.1957254856824875,0.5607244372367859,0.03890077397227287
1684200887189040000,8.3910400390625,-0.19217655062675476,0.6891994476318359,0.05820567160844803
1684200887199065000,8.401065185546875,-0.184966579079628,0.7942869663238525,0.07145889848470688
1684200887209090300,8.41109033203125,-0.17508679628372192,0.8417872786521912,0.08003747463226318
1684200887219115000,8.421114990234376,-0.1701975017786026,0.8581234216690063,0.08482211083173752
1684200887229139200,8.43113916015625,-0.17031919956207275,0.8921580910682678,0.09269601106643677
1684200887239164200,8.4411640625,-0.16542378067970276,0.9409093856811523,0.10084501653909683
1684200887249189000,8.451189208984376,-0.15167547762393951,0.9968101382255554,0.1092517152428627
1684200887259214000,8.461214111328125,-0.14565140008926392,1.030250072479248,0.1172792837023735
1684200887269238300,8.47123828125,-0.1331385225057602,1.0273905992507935,0.12555381655693054
1684200887279263000,8.481262939453124,-0.1168178841471672,0.9770184755325317,0.11847461014986038
1684200887289288000,8.491287841796876,-0.10374122858047485,0.9089948534965515,0.09545547515153885
1684200887299313200,8.501313232421875,-0.11275229603052139,0.8764955401420593,0.05394211784005165
1684200887309337000,8.511337158203125,-0.12622897326946259,0.8709633946418762,0.014879886992275715
1684200887319362000,8.521362060546876,-0.15425528585910797,0.8407578468322754,-0.03354676812887192
1684200887329387300,8.53138720703125,-0.18304166197776794,0.8019707798957825,-0.08842705935239792
1684200887339412200,8.541412109375,-0.20318368077278137,0.7583255767822266,-0.13055692613124847
1684200887349436200,8.551436279296874,-0.2139497697353363,0.7234980463981628,-0.14897193014621735
1684200887359461000,8.561461181640626,-0.20310617983341217,0.7537139654159546,-0.16280652582645416
1684200887369486000,8.571486083984375,-0.14791907370090485,0.7747277021408081,-0.21209359169006348
1684200887379511000,8.581510986328125,-0.07199341803789139,0.7030228972434998,-0.2857203781604767
1684200887389535200,8.59153515625,-0.03160577639937401,0.619486391544342,-0.341198593378067
1684200887399560200,8.601560302734375,-0.003735264064744115,0.5601863265037537,-0.35035640001296997
1684200887409585200,8.611585205078125,0.03236333280801773,0.46036162972450256,-0.3415762484073639
1684200887419610000,8.621610107421875,0.08863699436187744,0.2710582911968231,-0.3029300570487976
1684200887429634000,8.631634033203126,0.15594865381717682,0.08538080006837845,-0.24552680552005768
1684200887439659000,8.641658935546875,0.21899819374084473,-0.006090263370424509,-0.18484827876091003
1684200887449684200,8.651684326171875,0.29177969694137573,-0.0006355061195790768,-0.13118092715740204
1684200887459709200,8.661709228515624,0.3542958199977875,0.0252581425011158,-0.04506787657737732
1684200887469733000,8.671733154296875,0.42355746030807495,0.017613602802157402,0.07906699180603027
1684200887479758000,8.681758056640625,0.4365384876728058,-0.007564986124634743,0.1836376190185547
1684200887489783000,8.691782958984374,0.4607701003551483,0.013774147257208824,0.23919445276260376
1684200887499808000,8.70180810546875,0.5209559202194214,0.10717680305242538,0.26337066292762756
1684200887509832200,8.711832275390625,0.5652477145195007,0.26717501878738403,0.2912924587726593
1684200887519857200,8.721857177734375,0.6059104800224304,0.4498468339443207,0.3182726800441742
1684200887529882000,8.731882080078124,0.6653229594230652,0.5890591144561768,0.36620327830314636
1684200887539907300,8.7419072265625,0.6762568354606628,0.6680601835250854,0.429294615983963
1684200887549931000,8.751930908203125,0.6629167795181274,0.7543218731880188,0.4946553707122803
1684200887559956000,8.7619560546875,0.6287190914154053,0.8086333274841309,0.5813729166984558
1684200887569981200,8.771981201171876,0.5471901893615723,0.7910407781600952,0.688293993473053
1684200887580006100,8.782006103515625,0.48156246542930603,0.6757932901382446,0.7967866063117981
1684200887590030000,8.792030029296875,0.4352985620498657,0.47182461619377136,0.9049328565597534
1684200887600055300,8.80205517578125,0.40352463722229004,0.22622177004814148,0.9955577850341797
1684200887610080300,8.812080322265626,0.37340667843818665,-0.0405038483440876,1.0831729173660278
1684200887620104200,8.822104248046875,0.32101327180862427,-0.14694267511367798,1.180832862854004
1684200887630129200,8.832129150390625,0.2932700514793396,-0.13661786913871765,1.259426474571228
1684200887640154000,8.842154052734376,0.2820458710193634,-0.05405054986476898,1.3652379512786865
1684200887650179000,8.852178955078125,0.32113364338874817,0.009983763098716736,1.4553556442260742
1684200887660204300,8.862204345703125,0.39351436495780945,0.1236400231719017,1.5279958248138428
1684200887670228200,8.872228271484374,0.46770599484443665,0.30035796761512756,1.5892516374588013
1684200887680253000,8.8822529296875,0.5028466582298279,0.45011070370674133,1.6330348253250122
1684200887690278100,8.892278076171875,0.5295616388320923,0.5561189651489258,1.7093784809112549
1684200887700303000,8.90230322265625,0.5410771369934082,0.5916175842285156,1.773409366607666
1684200887710327000,8.9123271484375,0.5672664046287537,0.5436372756958008,1.7436972856521606
1684200887720352300,8.922352294921875,0.6203511953353882,0.45200058817863464,1.5923967361450195
1684200887730377200,8.932377197265625,0.7183922529220581,0.42621758580207825,1.4192676544189453
1684200887740401200,8.942401123046874,0.8291784524917603,0.47495314478874207,1.2645368576049805
1684200887750426000,8.952426025390626,0.8815223574638367,0.5592362284660339,1.1430673599243164
1684200887760451000,8.962451171875,0.9040204882621765,0.4250747263431549,0.9536412954330444
1684200887770476000,8.97247607421875,0.8838238716125488,0.040761884301900864,0.7373101115226746
1684200887780500200,8.982500244140626,0.7755788564682007,-0.5196457505226135,0.5602218508720398
1684200887790525200,8.992525146484375,0.6419733762741089,-1.1043260097503662,0.4497733414173126
1684200887800550000,9.0025498046875,0.5162261128425598,-1.3697816133499146,0.39163705706596375
1684200887810574800,9.012574951171874,0.4861159324645996,-1.2049131393432617,0.3684568703174591
1684200887820598800,9.022598876953126,0.5112193822860718,-0.5897508859634399,0.3479872941970825
1684200887830623700,9.032623779296875,0.5619776248931885,0.13597194850444794,0.29612547159194946
1684200887840649000,9.04264892578125,0.5300577878952026,0.5490982532501221,0.2114630490541458
1684200887850674000,9.052673828125,0.4315005838871002,0.5182300209999084,0.10796143114566803
1684200887860698000,9.062697998046875,0.3989804685115814,0.22136211395263672,-0.03801121562719345
1684200887870722800,9.072722900390625,0.39868462085723877,-0.02708795666694641,-0.1648697704076767
1684200887880747800,9.082747802734374,0.37360242009162903,-0.20104163885116577,-0.27534219622612
1684200887890772700,9.092772705078126,0.339267373085022,-0.31543970108032227,-0.3727714419364929
1684200887900797000,9.102796875,0.3290826380252838,-0.4799191951751709,-0.4665149748325348
1684200887910822000,9.11282177734375,0.31391963362693787,-0.5620419383049011,-0.5040010809898376
1684200887920846800,9.122846923828124,0.2910231053829193,-0.6375622749328613,-0.5259500741958618
1684200887930872000,9.1328720703125,0.26380079984664917,-0.7090453505516052,-0.5381942987442017
1684200887940895700,9.142895751953125,0.21932630240917206,-0.7823291420936584,-0.530327320098877
1684200887950920700,9.152920654296874,0.16066591441631317,-0.8523573279380798,-0.4884119927883148
1684200887960946000,9.16294580078125,0.11916428059339523,-0.9321056604385376,-0.46665477752685547
1684200887970971000,9.172970947265625,0.07439760863780975,-0.9504327774047852,-0.41893306374549866
1684200887980994800,9.182994873046875,0.026348590850830078,-0.9470851421356201,-0.3593890368938446
1684200887991020000,9.19302001953125,-0.036133430898189545,-0.9739502668380737,-0.28209999203681946
1684200888001045000,9.203044921875,-0.11169397085905075,-0.9658891558647156,-0.22710227966308594
1684200888011069700,9.213069580078125,-0.1607656478881836,-0.915011465549469,-0.17888033390045166
1684200888021094000,9.223093994140624,-0.16784033179283142,-0.8101220726966858,-0.13978725671768188
1684200888031118800,9.233118896484376,-0.15442916750907898,-0.6727628707885742,-0.12619243562221527
1684200888041143800,9.243143798828125,-0.1479227989912033,-0.5485732555389404,-0.14602020382881165
1684200888051169000,9.2531689453125,-0.1393170803785324,-0.4644598662853241,-0.16512146592140198
1684200888061193000,9.26319287109375,-0.11950475722551346,-0.382127970457077,-0.1618068814277649
1684200888071217700,9.2732177734375,-0.0826125293970108,-0.3207753598690033,-0.13733969628810883
1684200888081243000,9.283242919921875,-0.014683540910482407,-0.2544029951095581,-0.09900642186403275
1684200888091267800,9.293267822265625,0.006079802289605141,-0.12700222432613373,-0.05069306865334511
1684200888101291800,9.303291748046876,0.01738891564309597,-0.02278154529631138,0.0022487083915621042
1684200888111317000,9.31331689453125,0.058656200766563416,0.024259580299258232,0.0349058136343956
1684200888121342000,9.323342041015625,0.05665750056505203,-0.0011477756779640913,0.037473902106285095
1684200888131367000,9.333366943359374,0.03523129224777222,-0.03633327782154083,-0.004434127826243639
1684200888141390800,9.343390869140626,0.0187551137059927,-0.12165776640176773,-0.09450703114271164
1684200888151415800,9.353415771484375,0.005765286739915609,-0.18450886011123657,-0.22694067656993866
1684200888161440800,9.363440673828125,-0.013944502919912338,-0.2074059098958969,-0.3885415494441986
1684200888171466000,9.373466064453124,-0.04103417694568634,-0.1711348295211792,-0.5625988245010376
1684200888181490000,9.383489990234375,-0.07022774964570999,-0.11179614067077637,-0.7268245220184326
1684200888191515000,9.393514892578125,-0.09804634749889374,-0.05793394893407822,-0.8611403703689575
1684200888201540000,9.4035400390625,-0.13026419281959534,-0.014475421980023384,-0.9584767818450928
1684200888211564800,9.413564697265626,-0.14855265617370605,-0.004299410153180361,-1.020728588104248
1684200888221588700,9.423588623046875,-0.17179113626480103,-0.015998143702745438,-1.0387645959854126
1684200888231614000,9.433614013671875,-0.18602359294891357,-0.03970430791378021,-1.0141650438308716
1684200888241639000,9.443638916015624,-0.19061169028282166,-0.04598750174045563,-0.9790443181991577
1684200888251664000,9.453663818359376,-0.20043662190437317,-0.04167603328824043,-0.9611382484436035
1684200888261688000,9.46368798828125,-0.23210959136486053,-0.03313793987035751,-0.9497079253196716
1684200888271712800,9.473712646484374,-0.27961984276771545,-0.012764360755681992,-0.9405325055122375
1684200888281737700,9.48373779296875,-0.31902024149894714,-0.0341000109910965,-0.9394747018814087
1684200888291763000,9.493762939453125,-0.354931116104126,-0.08291031420230865,-0.9432642459869385
1684200888301787000,9.503786865234375,-0.39238208532333374,-0.114498071372509,-0.9790859222412109
1684200888311811800,9.513811767578124,-0.4846233129501343,-0.0626739040017128,-1.0693936347961426
1684200888321837000,9.523837158203126,-0.6667316555976868,-0.005243105813860893,-1.1587437391281128
1684200888331862000,9.533862060546875,-0.9220238327980042,-0.09694427251815796,-1.161430835723877
1684200888341885700,9.5438857421875,-1.0717395544052124,-0.5034688711166382,-1.024725079536438
1684200888351911000,9.553910888671876,-0.9504781365394592,-1.063946008682251,-0.8061261773109436
1684200888361936000,9.563935791015625,-0.7851075530052185,-1.3862226009368896,-0.3964877426624298
1684200888371960800,9.5739609375,-0.8252341747283936,-1.9627403020858765,0.009347514249384403
1684200888381985000,9.583985107421874,-0.6982775926589966,-2.341296434402466,0.3213847875595093
1684200888392010000,9.594010009765626,-0.1625017374753952,-1.6563977003097534,0.5104982852935791
1684200888402034700,9.60403466796875,0.34411245584487915,-0.5783835649490356,0.4095829129219055
1684200888412060000,9.614059814453125,0.5924095511436462,0.4790540039539337,0.4203737676143646
1684200888422083800,9.624083740234376,0.5313116312026978,1.2402235269546509,0.6142473220825195
1684200888432108800,9.63410888671875,0.44689369201660156,1.544172763824463,0.7291567921638489
1684200888442134000,9.644134033203125,0.4174787998199463,1.439756155014038,0.7392648458480835
1684200888452158000,9.654157958984374,0.41424915194511414,1.1801477670669556,0.6296628713607788
1684200888462182700,9.6641826171875,0.46203187108039856,0.7318483591079712,0.296907514333725
1684200888472208000,9.674207763671875,0.5302868485450745,-0.007138426881283522,-0.19978973269462585
1684200888482232800,9.68423291015625,0.5204480290412903,-0.7473118305206299,-0.6005800366401672
1684200888492257800,9.6942578125,0.3840569257736206,-0.9254822731018066,-0.7614086866378784
1684200888502282000,9.704281982421875,0.2173374444246292,-0.7913492321968079,-0.8155694007873535
1684200888512307000,9.714306884765625,0.000010465504601597786,-0.5306534767150879,-0.7553228735923767
1684200888522332000,9.724331787109374,-0.25323644280433655,-0.41800713539123535,-0.5584374666213989
1684200888532355800,9.73435595703125,-0.516993522644043,-0.5376818776130676,-0.30704230070114136
1684200888542380800,9.744380859375,-0.7409228086471558,-0.7438515424728394,-0.022439327090978622
1684200888552405800,9.75440576171875,-0.8333666920661926,-0.9059404730796814,0.19801990687847137
1684200888562431000,9.764430908203124,-0.7859059572219849,-0.9342906475067139,0.22913600504398346
1684200888572455000,9.774454833984375,-0.6318863034248352,-0.8601285815238953,0.0805937647819519
1684200888582480000,9.78447998046875,-0.4152272045612335,-0.7787284851074219,-0.1729423701763153
1684200888592505000,9.794505126953124,-0.2215578854084015,-0.6907655000686646,-0.3777976930141449
1684200888602529800,9.80452978515625,-0.07115694135427475,-0.4788069725036621,-0.4177967607975006
1684200888612553700,9.8145537109375,0.0688001736998558,-0.11981852352619171,-0.3323839008808136
1684200888622579000,9.824578857421875,0.12706348299980164,0.33105573058128357,-0.11858426034450531
1684200888632604000,9.83460400390625,0.10368678718805313,0.6793637275695801,0.14848263561725616
1684200888642628900,9.84462890625,0.08953075855970383,0.860328733921051,0.3299238085746765
1684200888652653000,9.854653076171875,0.13109685480594635,0.9306597113609314,0.30813783407211304
1684200888662677800,9.864677734375,0.1485072672367096,0.8815348148345947,0.14182128012180328
1684200888672702700,9.87470263671875,0.17196384072303772,0.732642412185669,-0.014323133043944836
1684200888682728000,9.88472802734375,0.22540229558944702,0.5454211235046387,-0.14134153723716736
1684200888692752000,9.894751953125,0.25341957807540894,0.37478530406951904,-0.2634628117084503
1684200888702776800,9.90477685546875,0.2504171133041382,0.2595369815826416,-0.37619441747665405
1684200888712802000,9.914802001953126,0.22726278007030487,0.17274661362171173,-0.43284669518470764
1684200888722827000,9.924826904296875,0.21209076046943665,0.09611441195011139,-0.4369250535964966
1684200888732850700,9.9348505859375,0.18204204738140106,0.026893295347690582,-0.42955946922302246
1684200888742876000,9.9448759765625,0.09172652661800385,-0.10783735662698746,-0.44880160689353943
1684200888752900900,9.95490087890625,-0.0289415642619133,-0.2520892024040222,-0.46834972500801086
1684200888762925800,9.96492578125,-0.1495734453201294,-0.40816694498062134,-0.5381128191947937
1684200888772950000,9.974949951171874,-0.2571782171726227,-0.5456109642982483,-0.6066666841506958
1684200888782975000,9.98497509765625,-0.3504232168197632,-0.6834276914596558,-0.6139475107192993
1684200888793000000,9.995,-0.4166325628757477,-0.7433110475540161,-0.532689094543457
1684200888803024600,10.005024658203125,-0.45168933272361755,-0.7369610071182251,-0.4621744155883789
1684200888813048600,10.015048583984376,-0.46688324213027954,-0.6440761685371399,-0.4338668882846832
1684200888823073500,10.025073486328125,-0.42331817746162415,-0.4695853292942047,-0.40247780084609985
1684200888833098800,10.0350986328125,-0.37662628293037415,-0.30463850498199463,-0.33458903431892395
1684200888843123700,10.045123779296874,-0.3047073483467102,-0.08593226969242096,-0.2518627345561981
1684200888853147600,10.055147705078125,-0.21332845091819763,0.09020698070526123,-0.21565651893615723
1684200888863172600,10.065172607421875,-0.14939181506633759,0.22221773862838745,-0.21701127290725708
1684200888873197600,10.075197509765625,-0.11614491045475006,0.4087112545967102,-0.1901908963918686
1684200888883222500,10.085222412109376,-0.08444558084011078,0.5504497289657593,-0.13562990725040436
1684200888893246700,10.095246826171875,-0.08760221302509308,0.6195186376571655,-0.08276529610157013
1684200888903271700,10.105271728515625,-0.1117544174194336,0.5871505737304688,-0.0646161213517189
1684200888913296600,10.115296630859374,-0.11297974735498428,0.4565735459327698,-0.08903934806585312
1684200888923321600,10.125321533203126,-0.07839806377887726,0.4092819392681122,-0.092148058116436
1684200888933345500,10.135345458984375,-0.02693195268511772,0.43170517683029175,-0.06474149972200394
1684200888943370500,10.14537060546875,-0.0009328434243798256,0.4511561095714569,-0.01392466202378273
1684200888953395700,10.155395751953124,0.008940305560827255,0.4361805319786072,0.030936334282159805
1684200888963420700,10.165420654296875,0.012480445206165314,0.4145069122314453,0.07780051231384277
1684200888973444600,10.175444580078125,0.01105324923992157,0.4411657750606537,0.11316687613725662
1684200888983469800,10.1854697265625,-0.00338774174451828,0.5071988701820374,0.11404598504304886
1684200888993494500,10.19549462890625,-0.03088887222111225,0.5675318241119385,0.08589150756597519
1684200889003518500,10.2055185546875,-0.06805488467216492,0.596405029296875,0.05122567340731621
1684200889013543700,10.215543701171875,-0.11357256025075912,0.57767653465271,0.01277102343738079
1684200889023568600,10.225568603515624,-0.16365304589271545,0.5145636200904846,-0.02532469667494297
1684200889033593600,10.235593505859375,-0.20617812871932983,0.4178592264652252,-0.06491248309612274
1684200889043617800,10.24561767578125,-0.23537543416023254,0.31638744473457336,-0.10035569965839386
1684200889053642500,10.255642578125,-0.24734367430210114,0.24138624966144562,-0.10870876908302307
1684200889063667500,10.26566748046875,-0.2381959855556488,0.20795346796512604,-0.10662644356489182
1684200889073692700,10.275692626953125,-0.2063365876674652,0.19158414006233215,-0.0800415650010109
1684200889083716600,10.285716552734375,-0.1699700653553009,0.1916232854127884,-0.04217381030321121
1684200889093741600,10.295741455078126,-0.1327017843723297,0.21513783931732178,-0.013017845340073109
1684200889103766800,10.305766845703126,-0.10335242003202438,0.28366711735725403,0.0013858613092452288
1684200889113791700,10.315791748046875,-0.08005082607269287,0.3883727192878723,0.009482836350798607
1684200889123815400,10.3258154296875,-0.06769242882728577,0.49167966842651367,0.026804035529494286
1684200889133840600,10.335840576171876,-0.05891011655330658,0.56263267993927,0.04727349802851677
1684200889143865600,10.345865478515625,-0.04926947131752968,0.5847734212875366,0.06231343001127243
1684200889153890600,10.355890625,-0.04910621419548988,0.5583677887916565,0.06463580578565598
1684200889163914800,10.365914794921874,-0.04992060735821724,0.495266318321228,0.05719306692481041
1684200889173939700,10.375939697265625,-0.06433470547199249,0.4417826533317566,0.036607030779123306
1684200889183964700,10.385964599609375,-0.0720948874950409,0.4153646230697632,-0.000784548930823803
1684200889193989600,10.39598974609375,-0.08408764004707336,0.4032066762447357,-0.04562744125723839
1684200889204013600,10.406013671875,-0.09993557631969452,0.40865471959114075,-0.07784023880958557
1684200889214038500,10.41603857421875,-0.10780788958072662,0.38952091336250305,-0.10530732572078705
1684200889224063700,10.426063720703125,-0.11124762892723083,0.33955255150794983,-0.13221615552902222
1684200889234088700,10.436088623046874,-0.11916972696781158,0.29548293352127075,-0.15541285276412964
1684200889244112600,10.446112548828125,-0.12012553215026855,0.2815055847167969,-0.16506174206733704
1684200889254137600,10.4561376953125,-0.11362370103597641,0.3088889420032501,-0.17408496141433716
1684200889264162600,10.46616259765625,-0.11392729729413986,0.3812030851840973,-0.1905326545238495
1684200889274187500,10.4761875,-0.11373209953308105,0.4733338952064514,-0.21367038786411285
1684200889284211700,10.486211669921875,-0.11886586248874664,0.5766389966011047,-0.23727823793888092
1684200889294236700,10.496236572265625,-0.1353071630001068,0.6635192632675171,-0.2642636001110077
1684200889304261600,10.50626171875,-0.15465235710144043,0.6962924003601074,-0.2911548614501953
1684200889314286600,10.51628662109375,-0.16963078081607819,0.672680675983429,-0.3209279477596283
1684200889324310500,10.526310546875,-0.1797662377357483,0.6437294483184814,-0.3187801241874695
1684200889334335500,10.53633544921875,-0.19954420626163483,0.5474435091018677,-0.33739280700683594
1684200889344360700,10.546360595703124,-0.24045167863368988,0.3956420123577118,-0.3736157715320587
1684200889354385700,10.5563857421875,-0.2810065746307373,0.27778616547584534,-0.4101903438568115
1684200889364409600,10.56640966796875,-0.28454485535621643,0.20524218678474426,-0.44320395588874817
1684200889374434800,10.576434814453124,-0.28473180532455444,0.11607207357883453,-0.4861031174659729
1684200889384459800,10.586459716796876,-0.26035749912261963,0.008979715406894684,-0.529347836971283
1684200889394484500,10.596484375,-0.19128306210041046,-0.06086115911602974,-0.5224880576133728
1684200889404508700,10.6065087890625,-0.1658051311969757,-0.09546840190887451,-0.47960153222084045
1684200889414533600,10.61653369140625,-0.22441783547401428,-0.20227307081222534,-0.49031031131744385
1684200889424558600,10.62655859375,-0.27701500058174133,-0.41294988989830017,-0.5285477638244629
1684200889434583600,10.63658349609375,-0.2967413365840912,-0.67186039686203,-0.5480653643608093
1684200889444607700,10.646607666015624,-0.2674787938594818,-0.8875064253807068,-0.5626283288002014
1684200889454632400,10.656632568359376,-0.19168226420879364,-0.9506455063819885,-0.5650668144226074
1684200889464657700,10.66665771484375,-0.07970406860113144,-0.7902060151100159,-0.515417218208313
1684200889474682600,10.6766826171875,0.07851006090641022,-0.38813814520835876,-0.397831529378891
1684200889484706600,10.68670654296875,0.23070332407951355,0.24889825284481049,-0.21402868628501892
1684200889494731800,10.696731689453125,0.36533915996551514,0.871924638748169,0.06010046228766441
1684200889504756700,10.7067568359375,0.4486857056617737,1.2668654918670654,0.3242471516132355
1684200889514781700,10.71678173828125,0.49152693152427673,1.4577604532241821,0.5448096990585327
1684200889524805600,10.7268056640625,0.5036751627922058,1.5875400304794312,0.7983279824256897
1684200889534830600,10.73683056640625,0.49652835726737976,1.6832547187805176,1.0589654445648193
1684200889544855600,10.74685546875,0.47749048471450806,1.6914652585983276,1.2551480531692505
1684200889554879700,10.756879638671874,0.479623407125473,1.5784833431243896,1.3577526807785034
1684200889564904700,10.76690478515625,0.4902190566062927,1.4171135425567627,1.4053353071212769
1684200889574929700,10.7769296875,0.49411842226982117,1.1679532527923584,1.4159064292907715
1684200889584954600,10.78695458984375,0.48377925157546997,0.8275954723358154,1.393844485282898
1684200889594978600,10.796978515625,0.45915940403938293,0.44415199756622314,1.3047267198562622
1684200889605003500,10.80700341796875,0.4487858712673187,0.06514742970466614,1.1616944074630737
1684200889615028700,10.81702880859375,0.4345187544822693,-0.231079563498497,1.0786248445510864
1684200889625053700,10.8270537109375,0.4283961355686188,-0.40627428889274597,1.0395914316177368
1684200889635077600,10.83707763671875,0.49273040890693665,-0.5586751103401184,0.9618056416511536
1684200889645102800,10.847102783203125,0.5854707360267639,-0.503341555595398,0.9101839661598206
1684200889655127600,10.85712744140625,0.7070623636245728,-0.3140053451061249,0.8810480833053589
1684200889665152500,10.867152587890626,0.8268921375274658,-0.25243571400642395,0.7737964987754822
1684200889675176700,10.8771767578125,0.8711773157119751,-0.34733226895332336,0.6256581544876099
1684200889685201700,10.88720166015625,0.862676203250885,-0.5969775319099426,0.4905208647251129
1684200889695226600,10.8972265625,0.7907037734985352,-0.9068443179130554,0.43484577536582947
1684200889705251600,10.90725146484375,0.6671661138534546,-1.2570377588272095,0.45920491218566895
1684200889715275500,10.917275634765625,0.5043958425521851,-1.4715921878814697,0.48459506034851074
1684200889725300500,10.927300537109375,0.36424753069877625,-1.4145758152008057,0.5604687333106995
1684200889735325700,10.93732568359375,0.2854667007923126,-1.1363282203674316,0.7039699554443359
1684200889745350700,10.9473505859375,0.258091002702713,-0.7292603850364685,0.8480786681175232
1684200889755374600,10.95737451171875,0.28959086537361145,-0.308908075094223,0.9168059229850769
1684200889765399800,10.96739990234375,0.3029942810535431,-0.10364732146263123,0.9034767746925354
1684200889775424800,10.9774248046875,0.30774885416030884,-0.017830075696110725,0.9337663054466248
1684200889785449700,10.98744970703125,0.314238965511322,0.1469053477048874,0.9756197333335876
1684200889795473700,10.9974736328125,0.3655572533607483,0.24195939302444458,0.9327845573425293
1684200889805499100,11.0074990234375,0.4320486783981323,0.28428715467453003,0.8248740434646606
1684200889815524000,11.017524169921876,0.5067815184593201,0.3178746998310089,0.6927869915962219
1684200889825549000,11.027549072265625,0.5421136617660522,0.29213497042655945,0.571593701839447
1684200889835573200,11.0375732421875,0.5698952078819275,0.2283940613269806,0.441053181886673
1684200889845598200,11.04759814453125,0.6051722764968872,0.10727482289075851,0.3053310513496399
1684200889855623200,11.057623046875,0.6251906752586365,-0.13112132251262665,0.18267858028411865
1684200889865648400,11.0676484375,0.630897045135498,-0.3943215310573578,0.08701757341623306
1684200889875672000,11.077672119140624,0.5874432921409607,-0.6290357112884521,-0.007805184926837683
1684200889885697000,11.087697021484376,0.5398792624473572,-0.821683943271637,-0.09912018477916718
1684200889895722200,11.09772216796875,0.48482856154441833,-0.7782622575759888,-0.13539639115333557
1684200889905747200,11.107747314453125,0.430347740650177,-0.795268177986145,-0.19443921744823456
1684200889915771100,11.117771240234376,0.37126362323760986,-0.9370967149734497,-0.2519279420375824
1684200889925796400,11.12779638671875,0.3212374746799469,-1.0133247375488281,-0.24964268505573273
1684200889935821000,11.137821044921875,0.2937941551208496,-0.9879958033561707,-0.19783246517181396
1684200889945846000,11.147845947265624,0.28631600737571716,-0.9224127531051636,-0.16801011562347412
1684200889955870200,11.1578701171875,0.32306230068206787,-0.8877846598625183,-0.1729898452758789
1684200889965895200,11.167895263671875,0.31807953119277954,-0.8238314986228943,-0.1635710448026657
1684200889975920000,11.177920166015625,0.27481192350387573,-0.7267935276031494,-0.1128089427947998
1684200889985945300,11.1879453125,0.20992401242256165,-0.6599186062812805,-0.0645495355129242
1684200889995969000,11.197968994140625,0.16265049576759338,-0.6421788930892944,0.009895946830511093
1684200890005994000,11.207993896484375,0.12411801517009735,-0.6614692211151123,0.09560898691415787
1684200890016019200,11.218019287109374,0.10692598670721054,-0.6370937824249268,0.1808459311723709
1684200890026044200,11.228044189453126,0.10220953077077866,-0.5851477384567261,0.25046494603157043
1684200890036068000,11.238068115234375,0.11022856831550598,-0.48309630155563354,0.30908942222595215
1684200890046093300,11.24809326171875,0.12427274882793427,-0.3264904320240021,0.3649502992630005
1684200890056118300,11.2581181640625,0.09151134639978409,-0.15703128278255463,0.3824864625930786
1684200890066143200,11.268143310546876,0.04148705676198006,0.026539599522948265,0.40141168236732483
1684200890076167200,11.278167236328125,0.002554035047069192,0.1863579899072647,0.41641882061958313
1684200890086192000,11.288192138671874,-0.06252669543027878,0.2912631034851074,0.42166417837142944
1684200890096217000,11.298217041015626,-0.1687585860490799,0.3091263175010681,0.39577794075012207
1684200890106241300,11.3082412109375,-0.2538362145423889,0.27323833107948303,0.3654426634311676
1684200890116266200,11.318266357421875,-0.3188559412956238,0.24078284204006195,0.3142447769641876
1684200890126291200,11.328291259765624,-0.372417688369751,0.17569757997989655,0.22637510299682617
1684200890136316200,11.338316162109376,-0.44280532002449036,0.09715927392244339,0.10584704577922821
1684200890146340000,11.348340087890625,-0.48189863562583923,0.09693370014429092,0.00965260062366724
1684200890156365000,11.358364990234374,-0.47754359245300293,0.1341829001903534,-0.07901843637228012
1684200890166390300,11.368390380859376,-0.4295448958873749,0.1653221845626831,-0.17566189169883728
1684200890176415200,11.378415283203125,-0.3826410472393036,0.17287014424800873,-0.29872679710388184
1684200890186439200,11.388439208984375,-0.3158215284347534,0.16994759440422058,-0.42026814818382263
1684200890196464000,11.398464111328124,-0.20347930490970612,0.1712982952594757,-0.5324224233627319
1684200890206489000,11.408489013671876,-0.10855970531702042,0.17141841351985931,-0.6304690837860107
1684200890216514000,11.41851416015625,-0.03713904693722725,0.18928736448287964,-0.6987582445144653
1684200890226538200,11.428538330078124,0.022830814123153687,0.18242599070072174,-0.7383682131767273
1684200890236563200,11.438563232421876,0.13973480463027954,0.1695893108844757,-0.7224013805389404
1684200890246588200,11.448588134765625,0.167871356010437,0.22156968712806702,-0.6840689182281494
1684200890256613400,11.45861328125,0.17505790293216705,0.2140716016292572,-0.6550894379615784
1684200890266637000,11.468636962890624,0.17173321545124054,0.17512235045433044,-0.6366177797317505
1684200890276662000,11.478662109375,0.13940589129924774,0.11508532613515854,-0.6181825399398804
1684200890286687200,11.488687255859375,0.07215629518032074,0.04672330617904663,-0.6056768894195557
1684200890296712200,11.498712158203125,-0.019533680751919746,-0.018870066851377487,-0.6017799973487854
1684200890306736000,11.508736083984376,-0.11836040019989014,-0.09885039180517197,-0.6154038906097412
1684200890316761300,11.51876123046875,-0.2380119413137436,-0.15590955317020416,-0.6666805744171143
1684200890326786300,11.528786376953125,-0.41592761874198914,-0.20507177710533142,-0.7509461641311646
1684200890336811000,11.53881103515625,-0.681437075138092,-0.20615588128566742,-0.8051576614379883
1684200890346835200,11.548835205078126,-0.9905709624290466,-0.285146564245224,-0.8164955377578735
1684200890356860200,11.558860107421875,-1.1813664436340332,-0.4138912856578827,-0.7072312235832214
1684200890366885000,11.568885009765625,-1.1477488279342651,-0.6500503420829773,-0.5082688331604004
1684200890376910300,11.578910400390624,-0.974099338054657,-0.9893019795417786,-0.26868364214897156
1684200890386934300,11.588934326171875,-0.9399304389953613,-1.4503356218338013,0.08947289735078812
1684200890396959000,11.598958984375,-0.9748364686965942,-2.1016833782196045,0.48955145478248596
1684200890406984200,11.608984130859374,-1.01689875125885,-2.2675459384918213,0.5749344825744629
1684200890417009200,11.619009033203126,-0.6307590007781982,-1.145804762840271,0.4885108470916748
1684200890427033000,11.629033203125,0.03802094981074333,1.015753984451294,0.6010733246803284
1684200890437058300,11.639058349609375,0.2884478271007538,2.800245523452759,0.8494936227798462
1684200890447083300,11.649083251953124,0.24919548630714417,3.4691224098205566,0.9577229022979736
1684200890457108200,11.659108154296876,0.2987297773361206,3.60754132270813,0.8922378420829773
1684200890467132200,11.669132080078125,0.4546376168727875,3.4273264408111572,0.7861289978027344
1684200890477157000,11.6791572265625,0.5652136206626892,3.0001235008239746,0.8965343832969666
1684200890487182000,11.68918212890625,0.5504940748214722,2.4395298957824707,1.014872431755066
1684200890497207000,11.69920703125,0.49799013137817383,1.6944869756698608,0.7777718305587769
1684200890507231200,11.709231201171875,0.2573530375957489,0.7974644899368286,0.33666718006134033
1684200890517256200,11.719256103515624,0.022761039435863495,0.07162757217884064,0.020819131284952164
1684200890527281400,11.729281494140626,-0.12522177398204803,-0.4938502013683319,-0.2874305844306946
1684200890537306000,11.73930615234375,-0.32478997111320496,-0.6594868302345276,-0.5343214273452759
1684200890547330000,11.749330078125,-0.5340425968170166,-0.41116252541542053,-0.5268847942352295
1684200890557355300,11.759355224609376,-0.6572622656822205,-0.42677849531173706,-0.4715271592140198
1684200890567380200,11.769380126953125,-0.7403696179389954,-0.6333710551261902,-0.4422033727169037
1684200890577405200,11.7794052734375,-0.7991999387741089,-0.8461034893989563,-0.5245689749717712
1684200890587429400,11.789429443359374,-0.7138733267784119,-0.6705460548400879,-0.5014974474906921
1684200890597454000,11.7994541015625,-0.5537246465682983,-0.2394268661737442,-0.38634181022644043
1684200890607479000,11.80947900390625,-0.5456299781799316,-0.030612939968705177,-0.44687920808792114
1684200890617503200,11.819503173828124,-0.4535224139690399,0.1356908082962036,-0.46436765789985657
1684200890627528200,11.829528076171876,-0.420564740896225,0.24248038232326508,-0.3124460279941559
1684200890637553200,11.83955322265625,-0.3950119614601135,0.16530489921569824,-0.12274300307035446
1684200890647578000,11.849578125,-0.27657637000083923,-0.20096708834171295,-0.11801882088184357
1684200890657602000,11.85960205078125,-0.1382073163986206,-0.6937559843063354,-0.3022426664829254
1684200890667627000,11.869626953125,-0.20267365872859955,-0.6455104351043701,-0.14480778574943542
1684200890677652200,11.87965234375,-0.23467527329921722,-0.45231831073760986,-0.048593368381261826
1684200890687677200,11.88967724609375,-0.10833224654197693,-0.29417315125465393,-0.2073976695537567
1684200890697701000,11.899701171875,0.052873674780130386,-0.26920706033706665,-0.46601808071136475
1684200890707726300,11.909726318359375,0.10812041908502579,-0.20982865989208221,-0.6230900287628174
1684200890717751300,11.919751220703125,0.13750441372394562,-0.16347898542881012,-0.5986948013305664
1684200890727776000,11.92977587890625,0.13069072365760803,0.00045189145021140575,-0.3753679692745209
1684200890737800200,11.93980029296875,0.0674896314740181,-0.04595748707652092,-0.1808060109615326
1684200890747825200,11.9498251953125,0.03911551460623741,-0.6880688071250916,-0.36442670226097107
1684200890757850000,11.95985009765625,0.04242715612053871,-1.5351449251174927,-0.7676475644111633
1684200890767875000,11.969875,0.03219768777489662,-1.0274678468704224,-0.40550583600997925
1684200890777899300,11.979899169921875,-0.08967175334692001,-0.12444216012954712,0.012695124372839928
1684200890787924000,11.989924072265625,-0.1143302246928215,0.378173828125,0.1581425964832306
1684200890797949200,11.99994921875,-0.07581533491611481,0.38569962978363037,0.09626073390245438
1684200890807973600,12.0099736328125,-0.05910293385386467,0.26154813170433044,-0.047555021941661835
1684200890817997600,12.01999755859375,0.08320467919111252,0.28391075134277344,-0.11256983876228333
1684200890828022800,12.030022705078125,0.15986935794353485,0.2693589925765991,-0.15397292375564575
1684200890838047700,12.0400478515625,0.1238490492105484,0.14457671344280243,-0.20578287541866302
1684200890848072700,12.05007275390625,0.03733039274811745,-0.08762723952531815,-0.24893566966056824
1684200890858096600,12.0600966796875,-0.01472481619566679,-0.3142344057559967,-0.2839641273021698
1684200890868121600,12.07012158203125,0.01858307421207428,-0.3699338734149933,-0.26463568210601807
1684200890878146600,12.080146484375,0.09316251426935196,-0.3626292943954468,-0.21555587649345398
1684200890888171800,12.090171875,0.08480445295572281,-0.41723474860191345,-0.20811714231967926
1684200890898195700,12.10019580078125,0.035247016698122025,-0.5233252644538879,-0.31095176935195923
1684200890908220700,12.110220703125,0.05232293903827667,-0.613493800163269,-0.47775647044181824
1684200890918245600,12.12024560546875,0.17007674276828766,-0.5949240922927856,-0.5640463829040527
1684200890928270600,12.1302705078125,0.2298860102891922,-0.427482932806015,-0.49334102869033813
1684200890938294500,12.14029443359375,0.22473837435245514,-0.2584962248802185,-0.407706618309021
1684200890948319700,12.15031982421875,0.16423295438289642,-0.10838184505701065,-0.3645077347755432
1684200890958344700,12.1603447265625,0.11495834589004517,-0.04846273735165596,-0.3330002725124359
1684200890968369700,12.17036962890625,0.021203359588980675,0.03787880763411522,-0.30780676007270813
1684200890978393600,12.1803935546875,-0.0910765677690506,0.12930907309055328,-0.2554667890071869
1684200890988418600,12.19041845703125,-0.12839969992637634,0.230145663022995,-0.19886264204978943
1684200890998443500,12.200443603515625,-0.15577326714992523,0.2515100836753845,-0.18599717319011688
1684200891008468700,12.21046875,-0.12643003463745117,0.25871366262435913,-0.19586019217967987
1684200891018492700,12.22049267578125,-0.06423591077327728,0.3507668673992157,-0.17758791148662567
1684200891028517600,12.230517578125,-0.03234428912401199,0.43951883912086487,-0.15202635526657104
1684200891038542800,12.24054296875,-0.05193503946065903,0.5780479907989502,-0.09280901402235031
1684200891048567800,12.25056787109375,-0.03908182308077812,0.6746701002120972,0.02882501482963562
1684200891058591500,12.260591552734375,0.05797095596790314,0.7556930780410767,0.08645927906036377
1684200891068616700,12.27061669921875,0.19147787988185883,0.7985705137252808,-0.12649425864219666
1684200891078641700,12.2806416015625,0.0339423269033432,0.2868829369544983,-0.32572731375694275
1684200891088665600,12.29066552734375,-0.040593694895505905,-0.14357657730579376,-0.34567174315452576
1684200891098690800,12.30069091796875,-0.023884480819106102,-0.27453750371932983,-0.23691532015800476
1684200891108715800,12.3107158203125,-0.03424178063869476,-0.2964385449886322,-0.23561595380306244
1684200891118740500,12.320740478515624,0.14043068885803223,-0.4634553790092468,-0.218987375497818
1684200891128764700,12.3307646484375,0.1449117362499237,-0.6256877183914185,-0.17124009132385254
1684200891138789600,12.34078955078125,0.25854557752609253,-0.7706660628318787,-0.09152773767709732
1684200891148814600,12.350814697265625,0.15321572124958038,-0.8634772300720215,-0.07041605561971664
1684200891158839800,12.36083984375,0.018209684640169144,-0.827377200126648,-0.069097138941288
1684200891168863700,12.37086376953125,-0.06105930358171463,-0.7448322772979736,-0.023956026881933212
1684200891178888400,12.380888427734375,-0.10270261764526367,-0.6942427754402161,0.006416617892682552
1684200891188913700,12.39091357421875,-0.19839318096637726,-0.657943606376648,0.04518532007932663
1684200891198938600,12.400938720703126,-0.043828368186950684,-0.4041156470775604,0.011048270389437675
1684200891208963600,12.410963623046875,-0.03243936225771904,-0.17464065551757812,0.0017559679690748453
