time,seconds_elapsed,z,y,x
1684200926560655400,0.0346552734375,0.06820202618837357,-0.0810573548078537,0.03655653074383736
1684200926570679600,0.044679443359375,0.05176020413637161,-0.10586629807949066,0.03542761877179146
1684200926580704500,0.05470458984375,0.02154051512479782,-0.092069610953331,0.03884812444448471
1684200926590729500,0.0647294921875,-0.00786131527274847,-0.08887434750795364,0.044888708740472794
1684200926600754400,0.07475439453125,-0.036982446908950806,-0.07990323752164841,0.03735204413533211
1684200926610778400,0.0847783203125,-0.06362870335578918,-0.04704169183969498,0.032534122467041016
1684200926620803300,0.09480322265625,-0.12664124369621277,0.041147228330373764,0.016368841752409935
1684200926630828300,0.104828369140625,-0.17651265859603882,0.23928533494472504,-0.02487766370177269
1684200926640852500,0.1148525390625,-0.19627916812896729,0.33613476157188416,-0.06792248785495758
1684200926650877400,0.12487744140625,-0.2197381556034088,0.35185834765434265,-0.08447323739528656
1684200926660902400,0.13490234375,-0.20031492412090302,0.29370570182800293,-0.10728420317173004
1684200926670927400,0.14492724609375,-0.17134079337120056,0.18024969100952148,-0.12154250591993332
1684200926680951300,0.154951416015625,-0.12821435928344727,0.07305192202329636,-0.1447453498840332
1684200926690976300,0.164976318359375,-0.11427883803844452,-0.0044364770874381065,-0.17132876813411713
1684200926701001500,0.17500146484375,-0.10916955769062042,-0.03492630645632744,-0.20583850145339966
1684200926711026400,0.1850263671875,-0.09915633499622345,-0.07594458013772964,-0.26924461126327515
1684200926721050600,0.195050537109375,-0.0737210214138031,-0.04973436892032623,-0.3308885395526886
1684200926731075300,0.205075439453125,-0.05864540487527847,0.016811899840831757,-0.3948350250720978
1684200926741100300,0.215100341796875,-0.05563496798276901,0.06663867831230164,-0.4781460165977478
1684200926751125200,0.225125244140625,-0.02679825946688652,0.12045291066169739,-0.5753937363624573
1684200926761149400,0.2351494140625,0.009695842862129211,0.09445399791002274,-0.6588626503944397
1684200926771174400,0.24517431640625,-0.04391492158174515,-0.06548134237527847,-0.733631432056427
1684200926781199400,0.255199462890625,0.02394375391304493,-0.05469481647014618,-0.7240156531333923
1684200926791224600,0.265224609375,0.11169783771038055,-0.003058254485949874,-0.6459141969680786
1684200926801248300,0.275248291015625,0.20631143450737,-0.020050302147865295,-0.5495454668998718
1684200926811273200,0.285273193359375,0.26240694522857666,-0.10283199697732925,-0.5349015593528748
1684200926821298400,0.29529833984375,0.24558159708976746,-0.33025622367858887,-0.6474369764328003
1684200926831323400,0.305323486328125,0.12207004427909851,-0.4181879162788391,-0.7517008185386658
1684200926841347300,0.315347412109375,-0.1352272629737854,-0.2080060988664627,-0.8351410031318665
1684200926851372300,0.325372314453125,-0.37604013085365295,0.06606034934520721,-1.0101394653320312
1684200926861397200,0.335397216796875,-0.5130070447921753,0.28492891788482666,-1.0902373790740967
1684200926871422000,0.345421875,-0.5287426114082336,0.29394105076789856,-0.9836105108261108
1684200926881446100,0.355446044921875,-0.713715136051178,0.10517220199108124,-0.7657814025878906
1684200926891471000,0.36547119140625,-1.2408322095870972,-0.13579007983207703,-0.4999885559082031
1684200926901496000,0.37549609375,-1.8451542854309082,-0.17899927496910095,-0.2514587342739105
1684200926911521300,0.385521240234375,-2.339796304702759,-0.05852239951491356,-0.08169075101613998
1684200926921545200,0.395545166015625,-2.657616138458252,0.004315749276429415,-0.033903878182172775
1684200926931570200,0.405570068359375,-2.890946865081787,0.16975584626197815,-0.09733238816261292
1684200926941595100,0.41559521484375,-3.080571413040161,0.40878063440322876,-0.13047929108142853
1684200926951619000,0.425619140625,-3.0550858974456787,0.8151355981826782,0.06577198207378387
1684200926961644300,0.435644287109375,-2.8263020515441895,0.8724551796913147,0.12103923410177231
1684200926971669200,0.445669189453125,-2.6192517280578613,0.5656747817993164,-0.2005385160446167
1684200926981694200,0.455694091796875,-2.432237148284912,0.13004615902900696,-0.5844306945800781
1684200926991718100,0.46571826171875,-2.31908917427063,-0.2258504331111908,-0.7920714616775513
1684200927001743000,0.4757431640625,-2.2590110301971436,-0.3608478605747223,-0.7891227602958679
1684200927011768000,0.48576806640625,-2.197049856185913,-0.3381175100803375,-0.689585268497467
1684200927021793000,0.49579296875,-2.036548376083374,-0.1428827941417694,-0.5384083390235901
1684200927031817200,0.505817138671875,-1.7781665325164795,-0.005730003118515015,-0.3408854007720947
1684200927041842200,0.51584228515625,-1.5066803693771362,0.1358824223279953,-0.0575716495513916
1684200927051867100,0.5258671875,-1.2899680137634277,0.13904333114624023,0.24292586743831635
1684200927061892000,0.53589208984375,-1.1216435432434082,0.1047731339931488,0.29812321066856384
1684200927071916000,0.545916015625,-1.0750828981399536,0.10075841844081879,0.20272797346115112
1684200927081941200,0.555941162109375,-1.1153671741485596,0.3053288459777832,0.051807235926389694
1684200927091966200,0.56596630859375,-1.194148063659668,0.5380403995513916,-0.08094122260808945
1684200927101991200,0.5759912109375,-1.2518140077590942,0.5766364336013794,-0.13415560126304626
1684200927112015400,0.586015380859375,-1.4148836135864258,0.6448023915290833,-0.06284520030021667
1684200927122040000,0.5960400390625,-1.4760023355484009,0.4008235037326813,-0.14483395218849182
1684200927132065000,0.60606494140625,-0.9015324115753174,-0.34895193576812744,-0.3314405679702759
1684200927142090000,0.616090087890625,0.031320177018642426,-0.12936630845069885,-0.17742012441158295
1684200927152114200,0.6261142578125,-0.06435228139162064,0.2677730321884155,-0.12954607605934143
1684200927162139100,0.63613916015625,-0.28550276160240173,0.20530135929584503,-0.09802024066448212
1684200927172164000,0.6461640625,-0.20240309834480286,0.3364332616329193,-0.01650461181998253
1684200927182189300,0.656189208984375,-0.07514101266860962,0.5677756071090698,0.07942429929971695
1684200927192213000,0.666212890625,-0.017832718789577484,0.9257841110229492,0.1539326161146164
1684200927202238200,0.67623828125,0.030520420521497726,1.2750740051269531,0.1673194319009781
1684200927212263200,0.68626318359375,0.04081114009022713,1.3765335083007812,0.11904191225767136
1684200927222287000,0.696287109375,0.05931772291660309,1.3185337781906128,0.05305195599794388
1684200927232312300,0.706312255859375,0.06291192024946213,1.2518583536148071,0.01678902469575405
1684200927242337300,0.716337158203125,-0.02247674949467182,1.1255519390106201,-0.04755503311753273
1684200927252362200,0.7263623046875,0.021114669740200043,1.105514407157898,-0.03510022535920143
1684200927262386200,0.73638623046875,0.11554770171642303,1.1557602882385254,0.0470421127974987
1684200927272411100,0.7464111328125,0.09642674028873444,1.0867236852645874,0.023752234876155853
1684200927282436000,0.75643603515625,-0.023763855919241905,0.9710986614227295,-0.1133798286318779
1684200927292461000,0.7664609375,-0.05267193540930748,0.8408874273300171,-0.16365817189216614
1684200927302485200,0.7764853515625,-0.1078728660941124,0.6958889365196228,-0.1766745001077652
1684200927312510200,0.78651025390625,-0.15084190666675568,0.581339955329895,-0.18181546032428741
1684200927322535000,0.796534912109375,-0.16942039132118225,0.5082949995994568,-0.18171030282974243
1684200927332560100,0.80656005859375,-0.16609862446784973,0.49336132407188416,-0.1888214647769928
1684200927342584000,0.816583984375,-0.14699523150920868,0.5053210258483887,-0.18694713711738586
1684200927352609300,0.826609375,-0.09676029533147812,0.5273003578186035,-0.19128116965293884
1684200927362634200,0.83663427734375,-0.042745526880025864,0.5472864508628845,-0.2041809856891632
1684200927372659200,0.8466591796875,0.006655044853687286,0.5541044473648071,-0.23292580246925354
1684200927382683100,0.85668310546875,0.0595179945230484,0.5438433885574341,-0.2707768380641937
1684200927392708000,0.8667080078125,0.1175440177321434,0.5299891233444214,-0.3027758002281189
1684200927402733000,0.876733154296875,0.17214973270893097,0.5046659708023071,-0.311667799949646
1684200927412758000,0.886758056640625,0.24144624173641205,0.4851239323616028,-0.28296080231666565
1684200927422782200,0.8967822265625,0.2975883483886719,0.46530938148498535,-0.24260467290878296
1684200927432807200,0.90680712890625,0.35078340768814087,0.4288216829299927,-0.15433844923973083
1684200927442832100,0.91683203125,0.40339547395706177,0.3700600564479828,-0.029919657856225967
1684200927452857300,0.926857421875,0.4463581144809723,0.2750872075557709,0.13108280301094055
1684200927462881000,0.936881103515625,0.5464887022972107,0.10837334394454956,0.33403101563453674
1684200927472906200,0.94690625,0.7318202257156372,-0.08691412210464478,0.5864139795303345
1684200927482931200,0.95693115234375,0.9863590002059937,-0.23019230365753174,0.8402423858642578
1684200927492956200,0.9669560546875,1.1232774257659912,-0.19224171340465546,1.046008825302124
1684200927502980400,0.97698046875,1.1897754669189453,-0.036311231553554535,1.1322219371795654
1684200927513005300,0.98700537109375,1.1949270963668823,0.15537697076797485,1.101841688156128
1684200927523030000,0.997030029296875,1.1080830097198486,0.3864078223705292,1.0841655731201172
1684200927533055000,1.007054931640625,1.0487067699432373,0.7096165418624878,1.1437655687332153
1684200927543079200,1.0170791015625,1.008447289466858,0.9004803895950317,1.2030062675476074
1684200927553104100,1.027104248046875,0.9412583708763123,0.7940426468849182,1.3350327014923096
1684200927563129000,1.037129150390625,0.8048997521400452,0.45724284648895264,1.5775517225265503
1684200927573154300,1.047154296875,0.6210662722587585,0.09590490907430649,1.8317084312438965
1684200927583178000,1.057177978515625,0.5245693325996399,-0.12348191440105438,1.965062141418457
1684200927593203000,1.067202880859375,0.49447959661483765,-0.04925508424639702,1.9167356491088867
1684200927603228200,1.077228271484375,0.45482805371284485,0.2731943726539612,1.79514479637146
1684200927613252000,1.087252197265625,0.4223976731300354,0.3717888593673706,1.586548924446106
1684200927623277300,1.09727734375,0.41096416115760803,0.2765439748764038,1.321354627609253
1684200927633302300,1.10730224609375,0.4625343978404999,0.1416785717010498,1.0062155723571777
1684200927643327200,1.1173271484375,0.5184394717216492,0.12687140703201294,0.8022615313529968
1684200927653351200,1.12735107421875,0.5684211850166321,0.190264493227005,0.7739891409873962
1684200927663376100,1.137376220703125,0.5184416174888611,0.2662431299686432,0.7937512993812561
1684200927673401000,1.147401123046875,0.4642265737056732,0.17779475450515747,0.7903509736061096
1684200927683426000,1.157426025390625,0.44064298272132874,0.07820122689008713,0.7737857699394226
1684200927693450200,1.1674501953125,0.45022690296173096,-0.009218095801770687,0.7488633990287781
1684200927703475200,1.17747509765625,0.40908634662628174,-0.07000745832920074,0.6901151537895203
1684200927713500200,1.187500244140625,0.35185742378234863,-0.0834907740354538,0.5868555903434753
1684200927723525000,1.197525146484375,0.36442089080810547,-0.03751962259411812,0.47468239068984985
1684200927733549000,1.207549072265625,0.4192463159561157,0.08295565843582153,0.3760189116001129
1684200927743574000,1.217573974609375,0.5337316393852234,0.23075339198112488,0.2763902544975281
1684200927753599200,1.22759912109375,0.6178907155990601,0.24000361561775208,0.22786958515644073
1684200927763624200,1.237624267578125,0.6469687223434448,0.14531253278255463,0.22830678522586823
1684200927773648400,1.2476484375,0.6007537841796875,-0.11995534598827362,0.24532411992549896
1684200927783673000,1.257673095703125,0.50963294506073,-0.4647410809993744,0.27014783024787903
1684200927793698000,1.267697998046875,0.42981427907943726,-0.7882107496261597,0.2623324990272522
1684200927803723000,1.277722900390625,0.34748902916908264,-1.0439121723175049,0.1962740570306778
1684200927813747200,1.287747314453125,0.2734646201133728,-1.2002283334732056,0.09438924491405487
1684200927823772200,1.297772216796875,0.2081649899482727,-1.261627197265625,-0.011424630880355835
1684200927833797000,1.307797119140625,0.1287146359682083,-1.2874462604522705,-0.10176385194063187
1684200927843822000,1.317822021484375,0.08232903480529785,-1.2455999851226807,-0.12804725766181946
1684200927853845800,1.327845703125,0.02738429792225361,-1.198930025100708,-0.13416720926761627
1684200927863871000,1.33787109375,-0.007483954541385174,-1.1492098569869995,-0.13953885436058044
1684200927873896000,1.34789599609375,-0.0030191652476787567,-1.0089225769042969,-0.12456017732620239
1684200927883920000,1.357919921875,0.01411376427859068,-0.8616023063659668,-0.10921317338943481
1684200927893945000,1.367945068359375,0.00275458418764174,-0.8015352487564087,-0.11452751606702805
1684200927903970000,1.377969970703125,0.025845255702733994,-0.67713463306427,-0.09935817867517471
1684200927913994800,1.387994873046875,0.05463242903351784,-0.5524001717567444,-0.07653754949569702
1684200927924019000,1.39801904296875,0.08370455354452133,-0.39671170711517334,-0.028385881334543228
1684200927934044000,1.4080439453125,0.12079013884067535,-0.22893254458904266,0.018068967387080193
1684200927944068900,1.41806884765625,0.14502915740013123,-0.07132236659526825,0.07763859629631042
1684200927954093800,1.42809375,0.1719161719083786,-0.03284555301070213,0.16574953496456146
1684200927964118000,1.438117919921875,0.2047838419675827,-0.026303216814994812,0.23796452581882477
1684200927974142700,1.448142822265625,0.26019543409347534,0.017727358266711235,0.2825767397880554
1684200927984168000,1.45816796875,0.3504275977611542,0.12192373722791672,0.3035238981246948
1684200927994193000,1.46819287109375,0.44727984070777893,0.3268190920352936,0.2780691385269165
1684200928004216800,1.478216796875,0.5056200623512268,0.6605750322341919,0.22670160233974457
1684200928014242000,1.488241943359375,0.5014733076095581,1.0396227836608887,0.1813407838344574
1684200928024267000,1.49826708984375,0.4458808898925781,1.3974723815917969,0.16388434171676636
1684200928034292000,1.5082919921875,0.32838836312294006,1.6161543130874634,0.16079241037368774
1684200928044316000,1.51831591796875,0.1730908900499344,1.5922914743423462,0.16762521862983704
1684200928054340900,1.5283408203125,0.014580070972442627,1.3239814043045044,0.19125358760356903
1684200928064365800,1.53836572265625,-0.09142306447029114,0.9291955828666687,0.20779037475585938
1684200928074390800,1.548390869140625,-0.11811059713363647,0.5343323945999146,0.1610202044248581
1684200928084415000,1.5584150390625,-0.08056321740150452,0.20525288581848145,0.007687543984502554
1684200928094440000,1.56843994140625,-0.014042512513697147,-0.052416734397411346,-0.2652784585952759
1684200928104465000,1.57846484375,0.07450678944587708,-0.2632697522640228,-0.61385577917099
1684200928114489900,1.58848974609375,0.14331035315990448,-0.4924001395702362,-0.9314265251159668
1684200928124513800,1.598513671875,0.19134898483753204,-0.7539751529693604,-1.1296029090881348
1684200928134539000,1.6085390625,0.22117426991462708,-0.9474847316741943,-1.2072333097457886
1684200928144564000,1.61856396484375,0.21806848049163818,-1.0484960079193115,-1.170894980430603
1684200928154589000,1.6285888671875,0.22443343698978424,-1.0785961151123047,-1.031197190284729
1684200928164613000,1.638613037109375,0.2195902168750763,-1.0628429651260376,-0.8498426079750061
1684200928174637800,1.648637939453125,0.19676558673381805,-1.0156177282333374,-0.6953009366989136
1684200928184662800,1.658662841796875,0.15699420869350433,-0.9287774562835693,-0.6061437129974365
1684200928194687700,1.668687744140625,0.12227537482976913,-0.8197835683822632,-0.6005592942237854
1684200928204712000,1.6787119140625,0.10307106375694275,-0.7191387414932251,-0.6471615433692932
1684200928214737000,1.68873681640625,0.07809940725564957,-0.6451556086540222,-0.7431173920631409
1684200928224761900,1.698761962890625,0.015242410823702812,-0.6502734422683716,-0.8839199542999268
1684200928234785800,1.708785888671875,-0.07889127731323242,-0.797802209854126,-1.043715476989746
1684200928244810800,1.718810791015625,-0.17399781942367554,-0.8860624432563782,-1.1471400260925293
1684200928254836000,1.7288359375,-0.25804615020751953,-0.9548905491828918,-1.2105560302734375
1684200928264861000,1.73886083984375,-0.3436686396598816,-0.9721488952636719,-1.2474578619003296
1684200928274884900,1.748884765625,-0.47528818249702454,-0.9616195559501648,-1.274495244026184
1684200928284910000,1.75891015625,-0.7036369442939758,-0.9592326283454895,-1.353956937789917
1684200928294935000,1.76893505859375,-0.9795420169830322,-0.7072853446006775,-1.3810408115386963
1684200928304960000,1.7789599609375,-1.2508292198181152,-0.5640596747398376,-1.3522359132766724
1684200928314984000,1.78898388671875,-1.5313903093338013,-0.612014651298523,-1.2706984281539917
1684200928325009000,1.7990087890625,-1.7287997007369995,-0.7345919013023376,-1.0658313035964966
1684200928335033900,1.809033935546875,-1.63474440574646,-0.9792842268943787,-0.7487987279891968
1684200928345058800,1.819058837890625,-1.5018280744552612,-1.1557222604751587,-0.2836046814918518
1684200928355083000,1.8290830078125,-1.5108940601348877,-1.4547392129898071,0.32976630330085754
1684200928365108000,1.83910791015625,-1.4022998809814453,-1.8267204761505127,0.8853266835212708
1684200928375132700,1.849132568359375,-0.9942429065704346,-1.4699347019195557,0.9714655876159668
1684200928385158000,1.859157958984375,-0.47773534059524536,-0.5712471008300781,0.500697135925293
1684200928395181800,1.869181884765625,-0.06689693033695221,0.5015721917152405,0.06036823242902756
1684200928405207000,1.87920703125,0.053989261388778687,1.4068480730056763,0.05796654522418976
1684200928415232000,1.88923193359375,-0.0836961641907692,1.8581981658935547,0.28762876987457275
1684200928425257000,1.899257080078125,-0.2743007242679596,2.062251329421997,0.5344671010971069
1684200928435281000,1.909281005859375,-0.36825835704803467,2.2517518997192383,0.7911878824234009
1684200928445305900,1.919305908203125,-0.4261853098869324,2.51206111907959,0.938223659992218
1684200928455330800,1.929330810546875,-0.4488639831542969,2.5734589099884033,0.7527587413787842
1684200928465355800,1.939355712890625,-0.34160280227661133,2.0988965034484863,0.28283900022506714
1684200928475380000,1.9493798828125,-0.0942356213927269,1.1337394714355469,-0.1676323115825653
1684200928485405000,1.959405029296875,0.1282467246055603,-0.0020126039162278175,-0.350271612405777
1684200928495430000,1.969429931640625,0.13606762886047363,-0.7448846101760864,-0.29111239314079285
1684200928505453800,1.979453857421875,-0.021972334012389183,-0.97481369972229,-0.19488896429538727
1684200928515478800,1.989478759765625,-0.22627541422843933,-0.975713312625885,-0.028372418135404587
1684200928525504000,1.99950390625,-0.46848243474960327,-0.8041400909423828,0.23020027577877045
1684200928535529000,2.009529052734375,-0.6674544215202332,-0.4187146723270416,0.4005261957645416
1684200928545553000,2.019552978515625,-0.7000645399093628,-0.00008378439815714955,0.3627837598323822
1684200928555578000,2.029578125,-0.5651347041130066,0.23147380352020264,0.17917290329933167
1684200928565603000,2.03960302734375,-0.387250691652298,0.2240736484527588,0.02477746456861496
1684200928575627800,2.049627685546875,-0.3022361993789673,-0.05690130591392517,-0.14012546837329865
1684200928585652000,2.05965185546875,-0.29024186730384827,-0.542102575302124,-0.4255812466144562
1684200928595677000,2.069677001953125,-0.21674075722694397,-1.0431060791015625,-0.7885935306549072
1684200928605702000,2.079701904296875,-0.1484043151140213,-1.1878752708435059,-1.0425900220870972
1684200928615726800,2.089726806640625,-0.029944509267807007,-1.3418654203414917,-0.9656606316566467
1684200928625751000,2.0997509765625,0.1658630669116974,-1.39018976688385,-0.6045189499855042
1684200928635775700,2.109775634765625,0.2912686765193939,-1.1569160223007202,-0.23061564564704895
1684200928645800700,2.11980078125,0.3047359883785248,-0.6162155866622925,-0.004866230767220259
1684200928655826000,2.129825927734375,0.2902401387691498,-0.20168475806713104,0.066892109811306
1684200928665849900,2.139849853515625,0.1948784738779068,-0.19370710849761963,0.0121723348274827
1684200928675875000,2.149875,0.1062154546380043,-0.35464566946029663,-0.1580103039741516
1684200928685900000,2.159900146484375,0.0763278603553772,-0.4943130612373352,-0.2946397364139557
1684200928695925000,2.169925048828125,0.02453070878982544,-0.6798741221427917,-0.3945804536342621
1684200928705949000,2.179948974609375,-0.014049970544874668,-0.934644341468811,-0.5692802667617798
1684200928715974000,2.189973876953125,-0.020269783213734627,-1.2119057178497314,-0.765845000743866
1684200928725998800,2.199998779296875,0.03397321701049805,-1.4840975999832153,-0.9368611574172974
1684200928736023000,2.21002294921875,0.12422987818717957,-1.7334976196289062,-1.064430832862854
1684200928746048000,2.220048095703125,0.1826614886522293,-2.069725513458252,-1.1662453413009644
1684200928756073000,2.230072998046875,0.17519664764404297,-2.144563913345337,-1.1402019262313843
1684200928766097700,2.24009765625,0.149473175406456,-2.1137447357177734,-1.050985336303711
1684200928776121900,2.250121826171875,0.07002362608909607,-1.999082326889038,-0.9740081429481506
1684200928786146800,2.260146728515625,-0.04264406859874725,-1.7646973133087158,-0.8821946382522583
1684200928796171800,2.270171875,-0.1009204238653183,-1.4082095623016357,-0.7426620125770569
1684200928806197000,2.280197021484375,-0.10861295461654663,-0.9730100035667419,-0.5773766040802002
1684200928816221000,2.290220947265625,-0.08400002121925354,-0.5938456654548645,-0.4601532518863678
1684200928826246000,2.300245849609375,-0.07743266969919205,-0.3406045138835907,-0.38073843717575073
1684200928836271400,2.310271240234375,-0.07701535522937775,-0.1550396978855133,-0.31855228543281555
1684200928846296300,2.32029638671875,-0.07726755738258362,0.008862816728651524,-0.24599207937717438
1684200928856320300,2.3303203125,-0.06956196576356888,0.14803002774715424,-0.16521067917346954
1684200928866345200,2.34034521484375,-0.09807190299034119,0.20985643565654755,-0.08805975317955017
1684200928876370200,2.3503701171875,-0.11142605543136597,0.20318308472633362,-0.03438667207956314
1684200928886395100,2.36039501953125,-0.10097874701023102,0.16305233538150787,-0.014845967292785645
1684200928896419300,2.37041943359375,-0.08517687767744064,0.10411898791790009,-0.03660852089524269
1684200928906444000,2.380444091796875,-0.05749385058879852,0.08763083815574646,-0.0877721905708313
1684200928916469000,2.390468994140625,-0.03760163486003876,0.13085713982582092,-0.13308054208755493
1684200928926493200,2.4004931640625,-0.01608302816748619,0.23473002016544342,-0.15232835710048676
1684200928936518100,2.41051806640625,0.020726384595036507,0.37581682205200195,-0.1439758837223053
1684200928946543000,2.420543212890625,0.05272693932056427,0.4451316297054291,-0.1335090845823288
1684200928956568300,2.430568359375,0.06966597586870193,0.4624970257282257,-0.11939086765050888
1684200928966592000,2.440592041015625,0.08261904865503311,0.4831075072288513,-0.104131780564785
1684200928976617200,2.4506171875,0.08337325602769852,0.4937329888343811,-0.09130093455314636
1684200928986642200,2.46064208984375,0.07875853031873703,0.4528135359287262,-0.061009954661130905
1684200928996667100,2.470667236328125,0.08304888010025024,0.36190468072891235,-0.012467985972762108
1684200929006691300,2.48069140625,0.09649224579334259,0.26983052492141724,0.037254903465509415
1684200929016716300,2.49071630859375,0.11090047657489777,0.25223448872566223,0.06171044334769249
1684200929026741200,2.5007412109375,0.11373994499444962,0.32570579648017883,0.08568201214075089
1684200929036766200,2.51076611328125,0.10528014600276947,0.49051710963249207,0.11465107649564743
1684200929046790100,2.5207900390625,0.08845376968383789,0.6998527646064758,0.14293432235717773
1684200929056815000,2.530815185546875,0.05046963319182396,0.9187049269676208,0.16158950328826904
1684200929066840000,2.540840087890625,0.001830988796427846,1.122101068496704,0.1901514083147049
1684200929076865300,2.550865234375,-0.03455045446753502,1.2377289533615112,0.19798482954502106
1684200929086889200,2.56088916015625,-0.05158669129014015,1.297887921333313,0.1982986330986023
1684200929096914200,2.5709140625,-0.05724750831723213,1.3204925060272217,0.19569192826747894
1684200929106939100,2.580939208984375,-0.056932464241981506,1.3159961700439453,0.1955522894859314
1684200929116964000,2.590964111328125,-0.049112625420093536,1.283049464225769,0.18194566667079926
1684200929126988300,2.60098828125,-0.03977477550506592,1.211068034172058,0.14754490554332733
1684200929137013200,2.61101318359375,-0.0231848806142807,1.1179993152618408,0.1082819253206253
1684200929147038200,2.6210380859375,-0.00462637934833765,1.0628635883331299,0.07966771721839905
1684200929157062400,2.6310625,0.002322872867807746,1.053268551826477,0.051735419780015945
1684200929167087000,2.641087158203125,0.0009412446524947882,1.0577077865600586,0.021738780662417412
1684200929177112000,2.651112060546875,-0.0032255372498184443,1.0574944019317627,-0.02707270160317421
1684200929187137000,2.661136962890625,-0.007177937775850296,1.0512133836746216,-0.09395869076251984
1684200929197161200,2.6711611328125,-0.019226612523198128,1.033631443977356,-0.1626458764076233
1684200929207186200,2.681186279296875,-0.03626019507646561,1.0091806650161743,-0.2137199342250824
1684200929217211100,2.691211181640625,-0.05144394189119339,0.9966821670532227,-0.23355568945407867
1684200929227236400,2.701236328125,-0.06922213733196259,0.9970659017562866,-0.2260318100452423
1684200929237260000,2.711260009765625,-0.09730623662471771,1.0116877555847168,-0.22482700645923615
1684200929247285200,2.72128515625,-0.12459804862737656,0.9922754168510437,-0.2703486680984497
1684200929257310200,2.731310302734375,-0.15412186086177826,1.0171746015548706,-0.33211907744407654
1684200929267335200,2.741335205078125,-0.18345975875854492,0.9311273097991943,-0.4211556315422058
1684200929277359400,2.751359375,-0.23195618391036987,0.8680548667907715,-0.47542446851730347
1684200929287384300,2.76138427734375,-0.28264760971069336,0.7377303838729858,-0.48144227266311646
1684200929297409300,2.7714091796875,-0.31475868821144104,0.5544955730438232,-0.46010342240333557
1684200929307434000,2.78143408203125,-0.3767208158969879,0.5043890476226807,-0.3409295082092285
1684200929317458200,2.791458251953125,-0.4157569110393524,0.33646106719970703,-0.2554670572280884
1684200929327483100,2.801483154296875,-0.41832101345062256,0.1849345564842224,-0.22203078866004944
1684200929337508000,2.811508056640625,-0.3914901912212372,0.11766203492879868,-0.24225777387619019
1684200929347533300,2.821533203125,-0.33844053745269775,0.07034336775541306,-0.30591386556625366
1684200929357557200,2.83155712890625,-0.2613508403301239,-0.05970410630106926,-0.37613824009895325
1684200929367582200,2.841582275390625,-0.14480824768543243,-0.2544908821582794,-0.45429280400276184
1684200929377607200,2.851607177734375,0.004804408177733421,-0.47140321135520935,-0.5101542472839355
1684200929387631000,2.861631103515625,0.2038932740688324,-0.6345617175102234,-0.5323960185050964
1684200929397656300,2.87165625,0.41605186462402344,-0.671715497970581,-0.5250254273414612
1684200929407681300,2.881681396484375,0.6080644130706787,-0.49534350633621216,-0.48175784945487976
1684200929417706200,2.891706298828125,0.7287365198135376,-0.07419174909591675,-0.3779776692390442
1684200929427730200,2.901730224609375,0.7557255625724792,0.42698144912719727,-0.19838887453079224
1684200929437755100,2.911755126953125,0.6464110016822815,0.7863537073135376,0.021554939448833466
1684200929447780000,2.921780029296875,0.5389612913131714,0.9670796394348145,0.2612406313419342
1684200929457805000,2.93180517578125,0.45748424530029297,1.0426032543182373,0.4672609269618988
1684200929467829200,2.941829345703125,0.38645777106285095,1.0935214757919312,0.6216424703598022
1684200929477854200,2.951854248046875,0.3454214036464691,1.1281167268753052,0.7929984927177429
1684200929487879200,2.961879150390625,0.3272993564605713,1.1394078731536865,1.0114527940750122
1684200929497904400,2.971904296875,0.31803369522094727,0.962074875831604,1.1397743225097656
1684200929507928000,2.981927978515625,0.30177271366119385,0.6742579340934753,1.1113898754119873
1684200929517953300,2.991953369140625,0.2867644727230072,0.4387814700603485,0.9604392647743225
1684200929527978200,3.001978271484375,0.2932250499725342,0.23716259002685547,0.7191919088363647
1684200929538003200,3.012003173828125,0.2878499925136566,0.05694328248500824,0.4894607365131378
1684200929548027400,3.02202734375,0.2325877696275711,-0.27739647030830383,0.31874722242355347
1684200929558052400,3.03205224609375,0.023596739396452904,-0.7490971684455872,0.19237810373306274
1684200929568077000,3.0420771484375,-0.19975697994232178,-1.1996933221817017,0.18252427875995636
1684200929578102000,3.05210205078125,-0.4123408794403076,-1.4893232583999634,0.2726685702800751
1684200929588126200,3.062126220703125,-0.609259307384491,-1.4660003185272217,0.4262152910232544
1684200929598151200,3.072151123046875,-0.6862845420837402,-1.1595436334609985,0.6377871632575989
1684200929608176000,3.082176025390625,-0.7117430567741394,-0.7586174011230469,0.819961667060852
1684200929618200300,3.092200439453125,-0.6611344814300537,-0.3739256262779236,0.9704284071922302
1684200929628225000,3.10222509765625,-0.4768519997596741,0.016203898936510086,1.0814094543457031
1684200929638250200,3.112250244140625,-0.3225281834602356,0.3918664753437042,1.1480848789215088
1684200929648275200,3.122275146484375,-0.16771996021270752,0.7044318914413452,1.2369163036346436
1684200929658299100,3.132299072265625,0.0020379198249429464,0.9734074473381042,1.3993768692016602
1684200929668324400,3.142324462890625,0.14163975417613983,1.2620925903320312,1.541233777999878
1684200929678349300,3.152349365234375,0.20730584859848022,1.4991471767425537,1.5976818799972534
1684200929688374300,3.162374267578125,0.23714764416217804,1.548195719718933,1.5594216585159302
1684200929698398200,3.172398193359375,0.2627919912338257,1.3871400356292725,1.5220311880111694
1684200929708423200,3.182423095703125,0.30452480912208557,1.0091722011566162,1.5233631134033203
1684200929718448000,3.1924482421875,0.3113044202327728,0.4502994418144226,1.5771433115005493
1684200929728473000,3.20247314453125,0.26981985569000244,-0.0075634741224348545,1.654505968093872
1684200929738497300,3.212497314453125,0.20135954022407532,-0.29753777384757996,1.7003657817840576
1684200929748522200,3.222522216796875,0.13673128187656403,-0.4092461168766022,1.6811773777008057
1684200929758547200,3.232547119140625,0.06290686130523682,-0.42055124044418335,1.6136581897735596
1684200929768572200,3.242572265625,0.009894520044326782,-0.4319707155227661,1.5448687076568604
1684200929778596000,3.25259619140625,-0.02971893548965454,-0.46695613861083984,1.464340090751648
1684200929788621300,3.262621337890625,-0.04177054017782211,-0.5050990581512451,1.3604012727737427
1684200929798646300,3.272646240234375,-0.024809133261442184,-0.5667576193809509,1.2372766733169556
1684200929808670200,3.282670166015625,0.0109091866761446,-0.6854071021080017,1.0911825895309448
1684200929818695400,3.2926953125,0.03310130909085274,-0.7712147235870361,0.9666280746459961
1684200929828720000,3.30272021484375,0.0346272848546505,-0.8226509094238281,0.8961879014968872
1684200929838745900,3.312745849609375,0.017138304188847542,-0.9117876887321472,0.8296506404876709
1684200929848769800,3.322769775390625,-0.0007796944119036198,-1.0047752857208252,0.7475844025611877
1684200929858794800,3.332794677734375,-0.008999807760119438,-1.0535527467727661,0.6707077622413635
1684200929868819700,3.34281982421875,-0.03012215346097946,-1.0270740985870361,0.6099512577056885
1684200929878844700,3.3528447265625,-0.0316324308514595,-1.0171663761138916,0.5774966478347778
1684200929888868900,3.362868896484375,0.023329615592956543,-0.9943655133247375,0.5454704761505127
1684200929898893800,3.372893798828125,0.09516199678182602,-0.9170776605606079,0.5100709795951843
1684200929908918800,3.382918701171875,0.1899508386850357,-0.8099737167358398,0.472433865070343
1684200929918944000,3.392944091796875,0.2898385524749756,-0.6940649151802063,0.4249449074268341
1684200929928967700,3.4029677734375,0.3865211606025696,-0.5981268882751465,0.36087796092033386
1684200929938992600,3.41299267578125,0.5038336515426636,-0.5294396877288818,0.28035300970077515
1684200929949017900,3.423017822265625,0.6064164638519287,-0.5238330960273743,0.21121105551719666
1684200929959042800,3.433042724609375,0.6999349594116211,-0.49121013283729553,0.1447412222623825
1684200929969066800,3.443066650390625,0.76920086145401,-0.4384132921695709,0.062158167362213135
1684200929979092000,3.453092041015625,0.8003702163696289,-0.3537391424179077,-0.04700586572289467
1684200929989116700,3.46311669921875,0.8001577258110046,-0.2746868431568146,-0.16967502236366272
1684200929999141600,3.4731416015625,0.8071751594543457,-0.28974834084510803,-0.30795833468437195
1684200930009165800,3.483165771484375,0.7991776466369629,-0.2979580760002136,-0.424398809671402
1684200930019190800,3.493190673828125,0.8023175597190857,-0.29825472831726074,-0.5195890069007874
1684200930029215700,3.5032158203125,0.8267549872398376,-0.28292834758758545,-0.5983301997184753
1684200930039241000,3.513240966796875,0.8413179516792297,-0.23948605358600616,-0.6795957684516907
1684200930049264600,3.5232646484375,0.8377003073692322,-0.14745023846626282,-0.77053302526474
1684200930059289600,3.53328955078125,0.8008155226707458,0.014279003255069256,-0.860111653804779
1684200930069314800,3.543314697265625,0.7419421076774597,0.23072569072246552,-0.9408709406852722
1684200930079338800,3.5533388671875,0.6177666187286377,0.4341166317462921,-1.0041252374649048
1684200930089363700,3.56336376953125,0.4772108495235443,0.5968557596206665,-1.028881311416626
1684200930099389000,3.573388916015625,0.33957549929618835,0.7043989896774292,-1.016533374786377
1684200930109414000,3.583413818359375,0.22286616265773773,0.7487442493438721,-0.9856200814247131
1684200930119437600,3.5934375,0.13551102578639984,0.711993932723999,-0.9607951641082764
1684200930129462800,3.603462890625,0.0953763872385025,0.6138242483139038,-0.9436209797859192
1684200930139487700,3.61348779296875,0.08592882752418518,0.49250370264053345,-0.9447054266929626
1684200930149512700,3.6235126953125,0.11448563635349274,0.33724653720855713,-0.973939836025238
1684200930159537000,3.633536865234375,0.15575237572193146,0.18472597002983093,-1.0358431339263916
1684200930169561900,3.643561767578125,0.19205206632614136,0.08642948418855667,-1.139862298965454
1684200930179586800,3.6535869140625,0.18048782646656036,0.024232422932982445,-1.230138897895813
1684200930189611800,3.66361181640625,0.1431199461221695,-0.06565216183662415,-1.282545804977417
1684200930199635700,3.6736357421875,0.1031232550740242,-0.11435098946094513,-1.3053776025772095
1684200930209660700,3.68366064453125,0.08560764789581299,-0.09698834270238876,-1.3406559228897095
1684200930219686000,3.693685791015625,0.07180581241846085,0.023422490805387497,-1.3733710050582886
1684200930229710800,3.7037109375,0.049911972135305405,0.15136229991912842,-1.4077223539352417
1684200930239734800,3.71373486328125,0.03753279894590378,0.18718847632408142,-1.4404584169387817
1684200930249759700,3.723759765625,0.0046430230140686035,0.2170623391866684,-1.451665997505188
1684200930259784700,3.73378466796875,-0.04285631701350212,0.2303488403558731,-1.4081357717514038
1684200930269809700,3.7438095703125,-0.0942302942276001,0.06531916558742523,-1.3327370882034302
1684200930279833900,3.753833740234375,-0.16513322293758392,-0.13326582312583923,-1.2847024202346802
1684200930289858800,3.76385888671875,-0.25593075156211853,-0.37371647357940674,-1.3129526376724243
1684200930299883800,3.7738837890625,-0.4327137768268585,-0.6280595660209656,-1.417125940322876
1684200930309909000,3.783908935546875,-0.670982301235199,-0.9399016499519348,-1.5644471645355225
1684200930319932700,3.7939326171875,-0.9143846035003662,-1.305389642715454,-1.6479074954986572
1684200930329957600,3.80395751953125,-1.079221248626709,-1.6589903831481934,-1.5052660703659058
1684200930339982800,3.81398291015625,-1.0596930980682373,-1.9182262420654297,-1.0895689725875854
1684200930350006800,3.8240068359375,-0.9991570115089417,-2.3779172897338867,-0.45093604922294617
1684200930360031700,3.83403173828125,-0.8383076786994934,-2.719316005706787,0.054064005613327026
1684200930370057000,3.844056884765625,-0.3509901762008667,-1.8317233324050903,0.22603055834770203
1684200930380082000,3.85408203125,0.1916174590587616,-0.3368449807167053,0.0796523243188858
1684200930390105600,3.864105712890625,0.36693841218948364,0.515779972076416,-0.07014447450637817
1684200930400130800,3.874130859375,0.5276457667350769,0.5179584622383118,0.08826886862516403
1684200930410155800,3.88415576171875,0.5117107629776001,0.048657070845365524,0.2881779968738556
1684200930420180700,3.8941806640625,0.3798733353614807,-0.5197020173072815,0.35535359382629395
1684200930430205000,3.904204833984375,0.2568662166595459,-0.844295084476471,0.3253158926963806
1684200930440230000,3.91422998046875,0.156082883477211,-0.7469456195831299,0.40527546405792236
1684200930450254600,3.924254638671875,0.019580431282520294,-0.3859086334705353,0.4993024170398712
1684200930460278800,3.93427880859375,-0.17137354612350464,-0.08911929279565811,0.460613876581192
1684200930470303700,3.9443037109375,-0.3839651942253113,0.08292906731367111,0.2831156253814697
1684200930480328700,3.95432861328125,-0.5142520666122437,0.258942186832428,0.07094290107488632
1684200930490354000,3.96435400390625,-0.6687500476837158,0.41582000255584717,-0.09327617287635803
1684200930500377600,3.974377685546875,-0.8158217668533325,0.39759117364883423,-0.12563703954219818
1684200930510402600,3.984402587890625,-0.8744739294052124,0.2573676109313965,-0.05875184014439583
1684200930520427800,3.994427734375,-0.8954756259918213,0.10575917363166809,-0.0019703160505741835
1684200930530452700,4.00445263671875,-0.8922175168991089,-0.0023181193973869085,0.004385856911540031
1684200930540476700,4.0144765625,-0.8379015326499939,-0.023035915568470955,-0.009795742109417915
1684200930550502000,4.024501953125,-0.7385126352310181,0.1091238409280777,-0.01247771829366684
1684200930560526800,4.03452685546875,-0.5835238099098206,0.25305092334747314,-0.01455418486148119
1684200930570551800,4.0445517578125,-0.38764458894729614,0.25586768984794617,-0.02961902692914009
1684200930580575700,4.05457568359375,-0.21624727547168732,0.220450296998024,-0.07509969174861908
1684200930590600700,4.0646005859375,-0.054719630628824234,0.32990148663520813,-0.10230294615030289
1684200930600625700,4.074625732421875,0.08997630327939987,0.49159690737724304,-0.11433723568916321
1684200930610651000,4.08465087890625,0.2288801223039627,0.5282782912254333,-0.15562117099761963
1684200930620674800,4.0946748046875,0.316039502620697,0.3835994005203247,-0.2326783984899521
1684200930630699800,4.10469970703125,0.31214359402656555,0.11902940273284912,-0.33720558881759644
1684200930640724700,4.114724853515625,0.25122910737991333,-0.11758207529783249,-0.4426406919956207
1684200930650749700,4.124749755859375,0.15619872510433197,-0.32878848910331726,-0.5093070268630981
1684200930660773600,4.134773681640625,0.06315214186906815,-0.5908688306808472,-0.5612810254096985
1684200930670798800,4.144798828125,-0.01738717593252659,-0.8742747902870178,-0.6050586700439453
1684200930680823800,4.15482373046875,-0.1173396036028862,-1.154660701751709,-0.6547620296478271
1684200930690848000,4.164847900390625,-0.23268245160579681,-1.3380264043807983,-0.7143140435218811
1684200930700872700,4.174872802734375,-0.3430805802345276,-1.3470382690429688,-0.7391831874847412
1684200930710897700,4.184897705078125,-0.43368691205978394,-1.3654735088348389,-0.7374049425125122
1684200930720922600,4.194922607421875,-0.4910987913608551,-1.3609338998794556,-0.7224227786064148
1684200930730946800,4.20494677734375,-0.5261486768722534,-1.350164532661438,-0.7024345397949219
1684200930740971800,4.2149716796875,-0.5309178829193115,-1.3183413743972778,-0.6786879301071167
1684200930750996700,4.224996826171875,-0.5491093993186951,-1.2420384883880615,-0.6721464991569519
1684200930761022000,4.23502197265625,-0.5231113433837891,-1.126327633857727,-0.6713427901268005
1684200930771045600,4.245045654296875,-0.46416813135147095,-0.9985536932945251,-0.6938567757606506
1684200930781070600,4.255070556640625,-0.4112415313720703,-0.863313615322113,-0.7059714794158936
1684200930791095800,4.265095703125,-0.35136356949806213,-0.729420006275177,-0.7036272287368774
1684200930801120800,4.275120849609375,-0.2809024453163147,-0.5707672834396362,-0.6694396734237671
1684200930811144700,4.285144775390625,-0.22299732267856598,-0.44311633706092834,-0.6137134432792664
1684200930821170000,4.295169921875,-0.19524052739143372,-0.3432307541370392,-0.5571146011352539
1684200930831195000,4.30519482421875,-0.18578924238681793,-0.2191389948129654,-0.497711181640625
1684200930841219000,4.315218994140625,-0.18322807550430298,-0.14038532972335815,-0.42524710297584534
1684200930851242800,4.32524267578125,-0.16707679629325867,-0.0950898677110672,-0.33905965089797974
1684200930861267700,4.335267822265625,-0.13713595271110535,-0.03383582830429077,-0.21784214675426483
1684200930871293000,4.34529296875,-0.0849454402923584,0.0036243072245270014,-0.12378320097923279
1684200930881318000,4.35531787109375,-0.020860467106103897,0.03912637382745743,-0.08647311478853226
1684200930891341800,4.365341796875,0.02412165142595768,0.07536740601062775,-0.07269325852394104
1684200930901367000,4.375366943359375,0.039072372019290924,0.12584656476974487,-0.06140358746051788
1684200930911392000,4.38539208984375,0.029159560799598694,0.1418008953332901,-0.06740473955869675
1684200930921417000,4.3954169921875,0.0013183413539081812,0.13304388523101807,-0.12055984139442444
1684200930931441000,4.40544091796875,-0.017627917230129242,0.08648612350225449,-0.20167961716651917
1684200930941465900,4.4154658203125,-0.02081199176609516,0.010833707638084888,-0.2782699763774872
1684200930951490800,4.42549072265625,-0.028291761875152588,-0.12334953993558884,-0.3415394723415375
1684200930961515800,4.435515869140625,-0.06068192422389984,-0.30705463886260986,-0.3972168266773224
1684200930971540000,4.4455400390625,-0.12326060980558395,-0.4762989282608032,-0.43405526876449585
1684200930981565000,4.45556494140625,-0.1841474026441574,-0.5789986848831177,-0.42982935905456543
1684200930991590000,4.46558984375,-0.2573835253715515,-0.695662260055542,-0.41174790263175964
1684200931001614800,4.47561474609375,-0.3434816598892212,-0.8008161187171936,-0.3774309456348419
1684200931011638800,4.485638671875,-0.4089314937591553,-0.8646491169929504,-0.3173719644546509
1684200931021664000,4.4956640625,-0.4153901934623718,-0.847734272480011,-0.2355160117149353
1684200931031689000,4.50568896484375,-0.36974790692329407,-0.7367352843284607,-0.131901353597641
1684200931041714000,4.5157138671875,-0.32061365246772766,-0.625013530254364,-0.061764080077409744
1684200931051737900,4.52573779296875,-0.21781028807163239,-0.3800397515296936,0.0034558535553514957
1684200931061762800,4.5357626953125,-0.10604008287191391,-0.19682012498378754,0.07098829001188278
1684200931071787800,4.545787841796875,0.011397598311305046,-0.008246769197285175,0.11339309066534042
1684200931081812700,4.555812744140625,0.10627404600381851,0.20959368348121643,0.10110633075237274
1684200931091837000,4.5658369140625,0.1630779355764389,0.4464291036128998,0.06517006456851959
1684200931101862000,4.57586181640625,0.18661841750144958,0.6916178464889526,0.030289046466350555
1684200931111887000,4.58588720703125,0.20548664033412933,0.8865423798561096,0.01116445567458868
1684200931121912000,4.595912109375,0.21607831120491028,0.9654662013053894,0.024756964296102524
1684200931131935700,4.605935791015625,0.23697000741958618,0.9965707659721375,0.0635254830121994
1684200931141961000,4.6159609375,0.27281802892684937,1.0672316551208496,0.11080378293991089
1684200931151986000,4.62598583984375,0.30187952518463135,1.2695939540863037,0.1860506385564804
1684200931162011000,4.636010986328125,0.27633926272392273,1.5156663656234741,0.30737629532814026
1684200931172035000,4.64603515625,0.26276299357414246,1.7848671674728394,0.4612422585487366
1684200931182060000,4.65606005859375,0.23766721785068512,2.014425039291382,0.5808927416801453
1684200931192084700,4.666084716796875,0.2051260620355606,2.1169886589050293,0.6360727548599243
1684200931202109700,4.676109619140625,0.1669541746377945,2.1063859462738037,0.6637283563613892
1684200931212134000,4.6861337890625,0.12424531579017639,2.004584789276123,0.6524302959442139
1684200931222158800,4.696158935546875,0.0737355425953865,1.8647092580795288,0.6076178550720215
1684200931232183800,4.706183837890625,0.01437528245151043,1.6911993026733398,0.4887097179889679
1684200931242209000,4.716208984375,-0.03117462433874607,1.5462392568588257,0.3441898226737976
1684200931252232700,4.726232666015625,-0.09202679991722107,1.4395896196365356,0.18887992203235626
1684200931262258000,4.7362578125,-0.1370033323764801,1.353955626487732,0.019278906285762787
1684200931272283000,4.746282958984375,-0.1734875589609146,1.3867119550704956,-0.07585908472537994
1684200931282306800,4.756306884765625,-0.2107401341199875,1.481727123260498,-0.11360672861337662
1684200931292332000,4.76633203125,-0.21959993243217468,1.536407232284546,-0.12833942472934723
1684200931302357000,4.77635693359375,-0.22622933983802795,1.5204501152038574,-0.15623338520526886
1684200931312382000,4.7863818359375,-0.2318882942199707,1.383263111114502,-0.20734494924545288
1684200931322406000,4.796406005859375,-0.2605031728744507,1.0969096422195435,-0.2739602029323578
1684200931332430800,4.806430908203125,-0.3029896318912506,0.7059047818183899,-0.31871381402015686
1684200931342455800,4.816455810546875,-0.3022087812423706,0.3262328803539276,-0.36588627099990845
1684200931352480800,4.826480712890625,-0.2729891240596771,0.07866345345973969,-0.3765294849872589
1684200931362505000,4.8365048828125,-0.2314203679561615,-0.03225240856409073,-0.30595359206199646
1684200931372530000,4.846530029296875,-0.1273602694272995,-0.19135509431362152,-0.23952199518680573
1684200931382555000,4.856554931640625,0.09521022439002991,-0.30105283856391907,-0.16182826459407806
1684200931392579800,4.866579833984375,0.3464248776435852,-0.31932520866394043,-0.06493590772151947
1684200931402603800,4.876603759765625,0.5635976195335388,-0.2199844866991043,0.023242950439453125
1684200931412629000,4.88662890625,0.6782861351966858,0.095734603703022,0.09666187316179276
1684200931422654000,4.896654052734375,0.719959020614624,0.5694390535354614,0.19910942018032074
1684200931432679000,4.906678955078125,0.7365095019340515,1.0886883735656738,0.42975983023643494
1684200931442703000,4.916703125,0.7374679446220398,1.5416316986083984,0.6751077771186829
1684200931452727800,4.926727783203125,0.7589058876037598,1.814817190170288,0.8381689190864563
1684200931462752800,4.936752685546875,0.8132924437522888,1.8444387912750244,0.9375298619270325
1684200931472777700,4.94677783203125,0.8924437165260315,1.6696094274520874,0.977527916431427
1684200931482802000,4.956802001953125,0.9845142364501953,1.4103920459747314,1.0656864643096924
1684200931492827000,4.966826904296875,0.9890373349189758,1.2179850339889526,1.0935065746307373
1684200931502851800,4.976851806640625,0.8623358607292175,0.9987125992774963,1.0042232275009155
1684200931512877000,4.986876953125,0.6910676956176758,0.7229445576667786,0.8195599317550659
1684200931522900700,4.996900634765625,0.5936940312385559,0.38782092928886414,0.6651690602302551
1684200931532926000,5.006926025390625,0.5045135617256165,0.08557380735874176,0.6834736466407776
1684200931542951000,5.016950927734375,0.4255806803703308,-0.02393830195069313,0.7286691069602966
1684200931552976000,5.026975830078125,0.4193302094936371,0.04014665260910988,0.7567152380943298
1684200931563000000,5.037,0.43328410387039185,0.11641904711723328,0.7452844381332397
1684200931573025000,5.04702490234375,0.3936088979244232,0.1214563399553299,0.7036820650100708
1684200931583050000,5.057050048828125,0.24601489305496216,-0.08598340302705765,0.6480395793914795
1684200931593074700,5.06707470703125,0.14043548703193665,-0.4479799270629883,0.5575888156890869
1684200931603099000,5.077098876953125,0.11681351065635681,-0.7958582639694214,0.4576292335987091
1684200931613123800,5.087123779296875,0.09856047481298447,-0.9026814699172974,0.36027494072914124
1684200931623148800,5.097148681640625,0.08164753764867783,-0.7197433710098267,0.35269370675086975
1684200931633173000,5.107173095703125,0.05079720541834831,-0.47358325123786926,0.4383541941642761
1684200931643198000,5.117197998046875,0.010158169083297253,-0.25486502051353455,0.5323472023010254
1684200931653223000,5.127222900390625,-0.00825120322406292,-0.13767631351947784,0.5793091654777527
1684200931663248000,5.137247802734375,-0.001782917883247137,-0.08196698129177094,0.6269512176513672
1684200931673271800,5.147271728515625,0.014498054049909115,-0.04869285225868225,0.6765085458755493
1684200931683297000,5.157297119140625,0.05519009009003639,-0.08845783770084381,0.7015228271484375
1684200931693322000,5.167322021484375,0.10850338637828827,-0.23159711062908173,0.7241132855415344
1684200931703347000,5.177346923828125,0.18035253882408142,-0.40310388803482056,0.7211052775382996
1684200931713371000,5.187370849609375,0.28060564398765564,-0.5037474036216736,0.6899427771568298
1684200931723395800,5.197395751953125,0.390485554933548,-0.5272505879402161,0.6623311042785645
1684200931733420800,5.2074208984375,0.5087104439735413,-0.5170621871948242,0.6127472519874573
1684200931743445800,5.21744580078125,0.6133918166160583,-0.509454607963562,0.5679134726524353
1684200931753470000,5.227469970703125,0.7132006883621216,-0.6843791007995605,0.47730550169944763
1684200931763495000,5.237494873046875,0.8363322019577026,-0.8875007629394531,0.3634481728076935
1684200931773520000,5.247519775390625,0.9395204186439514,-1.0695383548736572,0.2794799506664276
1684200931783545000,5.257545166015625,0.999853253364563,-1.1987357139587402,0.2279381901025772
1684200931793568800,5.26756884765625,1.02615487575531,-1.3300172090530396,0.17533569037914276
1684200931803594000,5.277593994140625,1.0487300157546997,-1.4749592542648315,0.11660261452198029
1684200931813619000,5.287618896484375,1.0540409088134766,-1.5855661630630493,0.06968775391578674
1684200931823644000,5.297643798828125,1.0639984607696533,-1.7166551351547241,0.02768012322485447
1684200931833668000,5.307668212890625,1.066485047340393,-1.7996119260787964,0.009882732294499874
1684200931843692500,5.317692626953125,1.0513499975204468,-1.7552838325500488,0.03930267319083214
1684200931853717500,5.327717529296875,1.0202115774154663,-1.7116491794586182,0.05381486564874649
1684200931863741700,5.33774169921875,1.0216519832611084,-1.7997806072235107,0.050770074129104614
1684200931873766700,5.3477666015625,1.018913745880127,-1.8300108909606934,0.06028463691473007
1684200931883791600,5.35779150390625,1.0032706260681152,-1.8549675941467285,0.020650409162044525
1684200931893816800,5.36781689453125,0.9881446361541748,-1.9581700563430786,-0.05913472920656204
1684200931903840500,5.377840576171875,0.9762089252471924,-2.0982367992401123,-0.1667032688856125
1684200931913865500,5.387865478515625,0.9510180950164795,-2.2120368480682373,-0.24518287181854248
1684200931923890700,5.397890625,0.8963273763656616,-2.3613109588623047,-0.33582353591918945
1684200931933915600,5.40791552734375,0.828458309173584,-2.5824484825134277,-0.43810686469078064
1684200931943939600,5.417939697265625,0.7304095029830933,-2.830312728881836,-0.5217328071594238
1684200931953964800,5.42796484375,0.6003082394599915,-3.0784294605255127,-0.5888811945915222
1684200931963989800,5.43798974609375,0.4485251009464264,-3.2609753608703613,-0.6453359723091125
1684200931974014700,5.4480146484375,0.2581306993961334,-3.4144139289855957,-0.7010283470153809
1684200931984038700,5.45803857421875,0.06847367435693741,-3.5366837978363037,-0.7665154933929443
1684200931994063600,5.468063720703125,-0.09137646108865738,-3.6165683269500732,-0.8116325736045837
1684200932004088600,5.478088623046875,-0.21959462761878967,-3.6402177810668945,-0.8292427062988281
1684200932014113800,5.48811376953125,-0.32840922474861145,-3.668704032897949,-0.8489387035369873
1684200932024137700,5.4981376953125,-0.4263741374015808,-3.7179720401763916,-0.8616169095039368
1684200932034162700,5.50816259765625,-0.47047075629234314,-3.7531049251556396,-0.833620011806488
1684200932044187600,5.518187744140625,-0.47774064540863037,-3.759178638458252,-0.7739936709403992
1684200932054212600,5.528212646484375,-0.48466113209724426,-3.750781774520874,-0.7418638467788696
1684200932064236500,5.538236572265625,-0.4793979227542877,-3.6805808544158936,-0.7585512399673462
1684200932074261800,5.54826171875,-0.45500925183296204,-3.591168165206909,-0.8341162800788879
1684200932084286700,5.55828662109375,-0.4174690544605255,-3.486495018005371,-0.9575678706169128
1684200932094311700,5.568311767578125,-0.3730299472808838,-3.3823041915893555,-1.112531065940857
1684200932104335600,5.578335693359375,-0.3175981342792511,-3.2687222957611084,-1.2691371440887451
1684200932114360600,5.588360595703125,-0.27289509773254395,-3.1401987075805664,-1.4206269979476929
1684200932124385500,5.598385498046875,-0.19729675352573395,-3.0872271060943604,-1.584174394607544
1684200932134410500,5.608410400390625,-0.1359628289937973,-3.1033008098602295,-1.7284963130950928
1684200932144434700,5.6184345703125,-0.09511952102184296,-3.1831722259521484,-1.7977962493896484
1684200932154459600,5.628459716796875,-0.06263613700866699,-3.3574469089508057,-1.7762327194213867
1684200932164484900,5.63848486328125,-0.031011102721095085,-3.579651117324829,-1.6489464044570923
1684200932174509800,5.648509765625,-0.059909336268901825,-3.8800394535064697,-1.4954054355621338
1684200932184533500,5.658533447265625,-0.10058166831731796,-4.261083126068115,-1.330504298210144
1684200932194558700,5.668558837890625,-0.10964227467775345,-4.615316390991211,-1.1376023292541504
1684200932204583700,5.678583740234375,-0.13228820264339447,-4.8775248527526855,-0.9183608293533325
1684200932214607600,5.688607666015625,-0.1050318032503128,-4.859198093414307,-0.7367663979530334
1684200932224632800,5.6986328125,-0.06982268393039703,-4.509580612182617,-0.6411677002906799
1684200932234657800,5.70865771484375,-0.022728148847818375,-4.181210041046143,-0.6796361207962036
1684200932244682500,5.7186826171875,0.0005617281422019005,-3.924560070037842,-0.7936723828315735
1684200932254706700,5.728706787109375,-0.12649476528167725,-3.7215137481689453,-0.9398762583732605
1684200932264731600,5.738731689453125,-0.2893238961696625,-3.4905567169189453,-1.0727986097335815
1684200932274756600,5.748756591796875,-0.4747574031352997,-3.3533596992492676,-1.2277038097381592
1684200932284781600,5.758781494140625,-0.5528846979141235,-3.5373146533966064,-1.3159538507461548
1684200932294805800,5.7688056640625,-0.416599839925766,-3.996616840362549,-1.2430707216262817
1684200932304830500,5.77883056640625,-0.17070455849170685,-4.425177097320557,-1.058487057685852
1684200932314855700,5.788855712890625,0.028417324647307396,-4.696381568908691,-0.914901077747345
1684200932324880600,5.798880615234375,0.08799782395362854,-4.860298156738281,-0.8024194836616516
1684200932334904600,5.808904541015625,0.06989872455596924,-4.912557601928711,-0.7582588195800781
1684200932344929800,5.8189296875,0.045072998851537704,-4.765898704528809,-0.7461614012718201
1684200932354954800,5.828954833984375,0.09419980645179749,-4.439733505249023,-0.7455057501792908
1684200932364979700,5.838979736328125,0.191165491938591,-4.045835018157959,-0.77559494972229
1684200932375003600,5.849003662109375,0.22954484820365906,-3.847461462020874,-0.8848168849945068
1684200932385028600,5.859028564453125,0.2280508130788803,-3.979944944381714,-1.0795246362686157
1684200932395053600,5.869053466796875,0.1794329434633255,-4.15964937210083,-1.264495849609375
1684200932405078500,5.87907861328125,0.08245047926902771,-4.264130115509033,-1.3541674613952637
1684200932415102700,5.889102783203125,0.015482893213629723,-4.263777256011963,-1.3391846418380737
1684200932425127700,5.899127685546875,-0.04700817912817001,-4.226239204406738,-1.276016354560852
1684200932435152600,5.909152587890625,-0.10085543990135193,-4.164114475250244,-1.1746861934661865
1684200932445177600,5.919177490234375,-0.16109108924865723,-4.053973197937012,-1.0656301975250244
1684200932455201500,5.929201416015625,-0.25259730219841003,-3.94341778755188,-0.9658722877502441
1684200932465226800,5.939226806640625,-0.3642255365848541,-3.8296453952789307,-0.9038307666778564
1684200932475251700,5.949251708984375,-0.48850518465042114,-3.7856011390686035,-0.8414449691772461
1684200932485276700,5.959276611328125,-0.559728741645813,-3.8062903881073,-0.8049506545066833
1684200932495300600,5.969300537109375,-0.5469259023666382,-3.873464822769165,-0.7895155549049377
1684200932505325600,5.97932568359375,-0.44767701625823975,-3.9072036743164062,-0.7460501194000244
1684200932515350500,5.9893505859375,-0.3489086627960205,-3.838595151901245,-0.6616326570510864
1684200932525374700,5.999374755859375,-0.2820580005645752,-3.642305612564087,-0.569526731967926
1684200932535399700,6.009399658203125,-0.21978634595870972,-3.432563066482544,-0.4891411364078522
1684200932545424600,6.019424560546875,-0.16751433908939362,-3.2384586334228516,-0.4211013615131378
1684200932555449600,6.02944970703125,-0.09087497740983963,-3.0492911338806152,-0.3482862710952759
1684200932565473500,6.0394736328125,-0.0011035443749278784,-2.847102403640747,-0.2591066062450409
1684200932575498500,6.04949853515625,0.09616628289222717,-2.6170310974121094,-0.12074833363294601
1684200932585523700,6.059523681640625,0.20736443996429443,-2.376141309738159,0.11689511686563492
1684200932595548700,6.069548583984375,0.31082025170326233,-2.1550650596618652,0.44431084394454956
1684200932605572600,6.079572509765625,0.41983380913734436,-1.9803966283798218,0.7909350395202637
1684200932615597800,6.089597900390625,0.568810760974884,-1.9162378311157227,1.0672754049301147
1684200932625622800,6.099622802734375,0.7748481035232544,-2.064459800720215,1.2243163585662842
1684200932635647500,6.1096474609375,0.9222418069839478,-2.2189929485321045,1.336800217628479
1684200932645671700,6.119671630859375,1.0402851104736328,-2.1826977729797363,1.4248820543289185
1684200932655696600,6.129696533203125,1.1439661979675293,-2.047852039337158,1.3818166255950928
1684200932665721600,6.1397216796875,1.2013897895812988,-1.8351885080337524,1.1069177389144897
1684200932675746600,6.14974658203125,1.1443710327148438,-1.4191418886184692,0.7018253803253174
1684200932685770800,6.159770751953125,0.9706125259399414,-0.7531657218933105,0.4332727789878845
1684200932695795500,6.16979541015625,0.8126391768455505,-0.08604133129119873,0.2849200367927551
1684200932705820700,6.179820556640625,0.754329264163971,0.22664493322372437,0.06295192986726761
1684200932715845600,6.189845703125,0.791766345500946,0.18818841874599457,-0.30972716212272644
1684200932725869600,6.19986962890625,0.9914799928665161,0.059576377272605896,-0.6660962104797363
1684200932735894800,6.209894775390625,1.1561613082885742,0.27658769488334656,-0.6963298916816711
1684200932745919700,6.219919677734375,1.150250792503357,0.48369482159614563,-0.5276742577552795
1684200932755944700,6.22994482421875,0.9462581872940063,0.40742477774620056,-0.41576099395751953
1684200932765968600,6.23996875,0.6948259472846985,0.04742584750056267,-0.3564542531967163
1684200932775993600,6.24999365234375,0.5255938172340393,-0.31834182143211365,-0.274288147687912
1684200932786018600,6.2600185546875,0.4082866311073303,-0.752238392829895,-0.2121020257472992
1684200932796042800,6.270042724609375,0.3151702880859375,-1.0648448467254639,-0.14149793982505798
1684200932806067700,6.280067626953125,0.25681403279304504,-1.1467013359069824,-0.03168462961912155
1684200932816092700,6.2900927734375,0.2170034945011139,-1.1566323041915894,0.0540420338511467
1684200932826117600,6.30011767578125,0.1773969531059265,-1.112574815750122,0.152078315615654
1684200932836141600,6.3101416015625,0.1925135850906372,-1.0398547649383545,0.27365177869796753
1684200932846168000,6.32016796875,0.21876543760299683,-0.9631656408309937,0.4133628010749817
1684200932856192800,6.33019287109375,0.2511596083641052,-0.8542494177818298,0.5518671870231628
1684200932866217700,6.3402177734375,0.2987489700317383,-0.667809247970581,0.6842641234397888
1684200932876242000,6.350241943359375,0.35306814312934875,-0.4244333505630493,0.7699511051177979
1684200932886267000,6.360266845703125,0.3901723623275757,-0.13612087070941925,0.8294584155082703
1684200932896292000,6.3702919921875,0.4078648090362549,0.1919584572315216,0.8661115765571594
1684200932906317000,6.380317138671875,0.41393041610717773,0.559264063835144,0.8626776933670044
1684200932916340700,6.3903408203125,0.40652868151664734,0.9001473784446716,0.8107199668884277
1684200932926366000,6.400365966796875,0.36478176712989807,1.1413450241088867,0.6696006655693054
1684200932936391000,6.410390869140625,0.3180326521396637,1.2717896699905396,0.4613684117794037
1684200932946415900,6.420415771484375,0.26254701614379883,1.2727302312850952,0.18447288870811462
1684200932956440000,6.430440185546875,0.18025000393390656,1.0596909523010254,-0.07275845110416412
1684200932966465000,6.440465087890625,0.05727241560816765,0.6679226756095886,-0.23088790476322174
1684200932976490000,6.450489990234375,-0.09269604831933975,0.20804807543754578,-0.2849614918231964
1684200932986515000,6.460514892578125,-0.22539684176445007,-0.28936997056007385,-0.2796301245689392
1684200932996539000,6.470538818359375,-0.3254970908164978,-0.7014433145523071,-0.2545821964740753
1684200933006563800,6.480563720703125,-0.3561740517616272,-1.0608443021774292,-0.2300741970539093
1684200933016588800,6.4905888671875,-0.36975401639938354,-1.3034000396728516,-0.22332747280597687
1684200933026614000,6.500614013671875,-0.23574988543987274,-1.4021886587142944,-0.240184485912323
1684200933036638000,6.510637939453125,-0.033613547682762146,-1.1146283149719238,-0.33508989214897156
1684200933046663200,6.5206630859375,0.11400707066059113,-0.4796020984649658,-0.5428223609924316
1684200933056687900,6.53068798828125,0.23338273167610168,0.19916275143623352,-0.7758817672729492
1684200933066712800,6.540712890625,0.3336872458457947,0.714567244052887,-0.9535350799560547
1684200933076737000,6.550737060546875,0.33167654275894165,1.0197153091430664,-1.071509838104248
1684200933086762000,6.560761962890625,0.1895313858985901,0.9409438371658325,-1.153502106666565
1684200933096787000,6.570786865234375,0.03967984393239021,0.4919644892215729,-1.231745958328247
1684200933106812000,6.58081201171875,-0.06633047759532928,-0.1007065549492836,-1.3217672109603882
1684200933116835800,6.5908359375,-0.08054963499307632,-0.6458206176757812,-1.3624908924102783
1684200933126860800,6.60086083984375,-0.028877651318907738,-0.9798502326011658,-1.3089661598205566
1684200933136885800,6.6108857421875,-0.011353245005011559,-1.1432827711105347,-1.2063876390457153
1684200933146911000,6.620910888671875,-0.007430940866470337,-1.0979392528533936,-1.0875674486160278
1684200933156935000,6.630934814453125,-0.055264510214328766,-0.8072720170021057,-0.984418511390686
1684200933166960000,6.640960205078125,-0.19613748788833618,-0.4012478291988373,-0.9771376848220825
1684200933176985000,6.650985107421875,-0.36780455708503723,-0.14855360984802246,-1.036844253540039
1684200933187010000,6.661010009765625,-0.6040437817573547,-0.11653254926204681,-1.0480015277862549
1684200933197034000,6.671033935546875,-0.8365398645401001,-0.3718441128730774,-0.9046090245246887
1684200933207059000,6.681058837890625,-0.860989511013031,-1.0267668962478638,-0.6808565855026245
1684200933217084000,6.691083984375,-0.7125571966171265,-1.7607251405715942,-0.456683486700058
1684200933227108000,6.701108154296875,-0.7040678262710571,-2.470264434814453,-0.21149879693984985
1684200933237133000,6.711133056640625,-0.7077723145484924,-3.2716493606567383,0.060041993856430054
1684200933247158000,6.721157958984375,-0.37299028038978577,-3.1635549068450928,0.21653997898101807
1684200933257182700,6.7311826171875,0.11934298276901245,-1.8345476388931274,0.15296021103858948
1684200933267207000,6.74120703125,0.33871155977249146,-0.2961050570011139,0.040794797241687775
1684200933277231900,6.75123193359375,0.34262561798095703,0.7256748676300049,0.02974648028612137
1684200933287256800,6.7612568359375,0.39900872111320496,1.1154439449310303,-0.012316551990807056
1684200933297282000,6.771281982421875,0.36564332246780396,1.0484271049499512,-0.046187497675418854
1684200933307306000,6.781305908203125,0.3097326457500458,0.5388181805610657,-0.0021246960386633873
1684200933317331000,6.7913310546875,0.3343066871166229,-0.2105678766965866,-0.03484993055462837
1684200933327356000,6.80135595703125,0.4410586953163147,-0.8287608027458191,-0.24069444835186005
1684200933337380900,6.811380859375,0.5635760426521301,-1.188000202178955,-0.5338200926780701
1684200933347405000,6.821405029296875,0.7168034315109253,-1.3687340021133423,-0.8247107863426208
1684200933357430000,6.831429931640625,0.8019838333129883,-1.1893932819366455,-0.9537136554718018
1684200933367455000,6.841455078125,0.750221848487854,-0.7214924097061157,-0.8675606846809387
1684200933377480000,6.85147998046875,0.5700339674949646,-0.27725398540496826,-0.6292833089828491
1684200933387503900,6.86150390625,0.3595300316810608,-0.20581413805484772,-0.3267625868320465
1684200933397528800,6.87152880859375,0.07524262368679047,-0.44880715012550354,-0.060086119920015335
1684200933407553800,6.8815537109375,-0.17256051301956177,-0.8012171387672424,0.045083705335855484
1684200933417579000,6.8915791015625,-0.23894992470741272,-0.8338746428489685,0.09671254456043243
1684200933427603000,6.90160302734375,-0.20757097005844116,-0.6440480351448059,0.0984225645661354
1684200933437628000,6.9116279296875,-0.18463820219039917,-0.28221023082733154,0.08671431243419647
1684200933447653000,6.921653076171875,-0.32926303148269653,0.06786362826824188,0.10282723605632782
1684200933457677800,6.931677734375,-0.4961944818496704,0.3656173348426819,0.1443455070257187
1684200933467702000,6.941701904296875,-0.6156485080718994,0.5383464694023132,0.18115492165088654
1684200933477727000,6.95172705078125,-0.6500711441040039,0.6462759375572205,0.19954609870910645
1684200933487752000,6.961751953125,-0.6525585651397705,0.7211161255836487,0.16985824704170227
1684200933497777000,6.97177685546875,-0.6104382872581482,0.7596908211708069,0.08540555089712143
1684200933507801000,6.981801025390625,-0.5468462705612183,0.742796003818512,-0.024639997631311417
1684200933517825800,6.99182568359375,-0.462189644575119,0.644465446472168,-0.10637249052524567
1684200933527850800,7.001850830078125,-0.3873462975025177,0.5102170705795288,-0.17391586303710938
1684200933537876000,7.0118759765625,-0.315779447555542,0.36943450570106506,-0.1896335929632187
1684200933547900000,7.02189990234375,-0.23017241060733795,0.29567134380340576,-0.17616918683052063
1684200933557924900,7.0319248046875,-0.1425275206565857,0.42347779870033264,-0.09854131191968918
1684200933567950000,7.0419501953125,-0.09602633118629456,0.7065337300300598,0.026441635563969612
1684200933577973800,7.051973876953125,-0.07248929888010025,0.9846670627593994,0.12473238259553909
1684200933587999000,7.0619990234375,-0.029242495074868202,1.118877649307251,0.13570459187030792
1684200933598024000,7.07202392578125,0.03650534898042679,1.1531089544296265,0.09324710071086884
1684200933608049000,7.082048828125,0.11040140688419342,1.1375595331192017,0.053240031003952026
1684200933618073000,7.092072998046875,0.17331433296203613,1.0720402002334595,0.02623717486858368
1684200933628098000,7.10209814453125,0.2124556005001068,1.0282647609710693,0.011874748393893242
1684200933638123000,7.112123046875,0.24802745878696442,0.9666426181793213,-0.020572423934936523
1684200933648148000,7.12214794921875,0.3065858483314514,0.9053888916969299,-0.03551861643791199
1684200933658172000,7.132171875,0.347789466381073,0.8151787519454956,-0.07645895332098007
1684200933668196900,7.14219677734375,0.3949330151081085,0.7962889671325684,-0.10995007306337357
1684200933678221800,7.152221923828125,0.42029720544815063,0.7828588485717773,-0.11060529202222824
1684200933688247000,7.1622470703125,0.4227483868598938,0.7523547410964966,-0.08994501829147339
1684200933698271000,7.17227099609375,0.42645126581192017,0.6216287612915039,-0.11501708626747131
1684200933708296000,7.1822958984375,0.4282049536705017,0.42767420411109924,-0.1713954210281372
1684200933718321000,7.19232080078125,0.38010984659194946,0.24172376096248627,-0.19165506958961487
1684200933728345900,7.202345947265625,0.2694224715232849,0.0008112817304208875,-0.18084636330604553
1684200933738370000,7.2123701171875,0.11066213995218277,-0.21093913912773132,-0.18073216080665588
1684200933748395000,7.22239501953125,-0.01498153805732727,-0.3279488682746887,-0.21269968152046204
1684200933758420000,7.232419921875,-0.10973282158374786,-0.4742735028266907,-0.262796550989151
1684200933768445000,7.24244482421875,-0.16988110542297363,-0.5943127870559692,-0.308039128780365
1684200933778468900,7.25246875,-0.18991874158382416,-0.6494590044021606,-0.35060223937034607
1684200933788493800,7.262493896484375,-0.18376123905181885,-0.7486143112182617,-0.40437012910842896
1684200933798518800,7.272518798828125,-0.16370096802711487,-0.8568504452705383,-0.4513916075229645
1684200933808544000,7.2825439453125,-0.142134428024292,-1.0495260953903198,-0.5438960194587708
1684200933818568000,7.29256787109375,-0.11685623228549957,-1.2416255474090576,-0.5873658657073975
1684200933828593000,7.302593017578125,-0.14193788170814514,-1.1678756475448608,-0.5630599856376648
1684200933838618000,7.3126181640625,-0.14577576518058777,-1.0126398801803589,-0.4761967360973358
1684200933848642300,7.322642333984375,-0.09044326841831207,-0.7838695049285889,-0.37240588665008545
1684200933858666200,7.332666259765625,-0.02984650433063507,-0.6344581842422485,-0.2992876470088959
1684200933868691200,7.342691162109375,0.038415372371673584,-0.5407125353813171,-0.2567489743232727
1684200933878716200,7.352716064453125,0.10352219641208649,-0.44369271397590637,-0.24171897768974304
1684200933888741400,7.362741455078125,0.16578663885593414,-0.3715151846408844,-0.23661157488822937
1684200933898765300,7.372765380859375,0.2342650294303894,-0.3825095295906067,-0.19883863627910614
1684200933908790300,7.382790283203125,0.2943323850631714,-0.38550901412963867,-0.10658366978168488
1684200933918815500,7.3928154296875,0.3046313524246216,-0.28577113151550293,-0.012014749459922314
1684200933928840200,7.402840087890625,0.29079464077949524,-0.12543711066246033,0.05135650187730789
1684200933938864000,7.412864013671875,0.2645164132118225,0.028504563495516777,0.08012472093105316
1684200933948889300,7.422889404296875,0.2424207180738449,0.14233392477035522,0.07471584528684616
1684200933958914300,7.432914306640625,0.20237207412719727,0.21670536696910858,0.053485363721847534
1684200933968939300,7.442939208984375,0.14655834436416626,0.22894339263439178,0.0200006403028965
1684200933978963500,7.45296337890625,0.09298859536647797,0.17143866419792175,-0.004120251629501581
1684200933988988200,7.46298828125,0.05136765167117119,0.06015768274664879,-0.013492714613676071
1684200933999013000,7.47301318359375,0.030483417212963104,-0.010480966418981552,-0.03572620451450348
1684200934009038300,7.483038330078125,0.004829985089600086,0.00866423174738884,-0.04706301540136337
1684200934019062300,7.493062255859375,-0.018360016867518425,0.13686306774616241,-0.051616743206977844
1684200934029087200,7.503087158203125,-0.02072810009121895,0.31258562207221985,-0.061735425144433975
1684200934039112400,7.513112548828125,-0.04179424047470093,0.4749947190284729,-0.05735945701599121
1684200934049137400,7.523137451171875,-0.09027868509292603,0.5746092200279236,-0.061956074088811874
1684200934059161000,7.5331611328125,-0.15651710331439972,0.5587169528007507,-0.05968121066689491
1684200934069186300,7.543186279296875,-0.24882999062538147,0.5072053074836731,-0.0357804037630558
1684200934079211300,7.553211181640625,-0.3177861273288727,0.5140129923820496,0.0027691845316439867
1684200934089235200,7.563235107421875,-0.36140337586402893,0.5080333948135376,0.013964048586785793
1684200934099260400,7.573260498046875,-0.37666037678718567,0.4418025016784668,0.013052631169557571
1684200934109285400,7.583285400390625,-0.3612649142742157,0.43858885765075684,-0.025802355259656906
1684200934119310300,7.593310302734375,-0.35418277978897095,0.48203104734420776,-0.05982476845383644
1684200934129334300,7.603334228515625,-0.36134403944015503,0.5017022490501404,-0.08661030977964401
1684200934139359200,7.613359130859375,-0.36273178458213806,0.4738723337650299,-0.11644435673952103
1684200934149384200,7.62338427734375,-0.37481454014778137,0.38785967230796814,-0.15943017601966858
1684200934159409400,7.633409423828125,-0.3852842152118683,0.27012693881988525,-0.2237725704908371
1684200934169433300,7.643433349609375,-0.4004647731781006,0.1739351749420166,-0.29299265146255493
1684200934179458300,7.653458251953125,-0.4153558313846588,0.1156117171049118,-0.3940846025943756
1684200934189483300,7.663483154296875,-0.451537549495697,0.07170338183641434,-0.4602034389972687
1684200934199508200,7.67350830078125,-0.5100722312927246,-0.029369644820690155,-0.46435725688934326
1684200934209532200,7.6835322265625,-0.564943253993988,-0.20143088698387146,-0.4679059088230133
1684200934219557400,7.693557373046875,-0.573775053024292,-0.27631330490112305,-0.4697454869747162
1684200934229582300,7.703582275390625,-0.5804750323295593,-0.08257128298282623,-0.39543476700782776
1684200934239607300,7.713607177734375,-0.540590226650238,0.053590066730976105,-0.3480427861213684
1684200934249631200,7.72363134765625,-0.5019780993461609,0.017327934503555298,-0.3615996241569519
1684200934259656200,7.73365625,-0.49704882502555847,-0.10159219056367874,-0.41816702485084534
1684200934269681200,7.74368115234375,-0.5140883326530457,-0.2013544738292694,-0.4669865071773529
1684200934279706000,7.7537060546875,-0.5406504273414612,-0.21963249146938324,-0.5083654522895813
1684200934289730300,7.763730224609375,-0.5303469300270081,-0.13508938252925873,-0.5561180710792542
1684200934299755300,7.77375537109375,-0.4829932153224945,0.020600484684109688,-0.6026128530502319
1684200934309780500,7.783780517578125,-0.42448675632476807,0.24617262184619904,-0.6051215529441833
1684200934319805400,7.793805419921875,-0.3516181409358978,0.4570925235748291,-0.5716263651847839
1684200934329829000,7.8038291015625,-0.27733832597732544,0.5894172787666321,-0.4998650848865509
1684200934339854300,7.813854248046875,-0.19278189539909363,0.6465622186660767,-0.40330198407173157
1684200934349879300,7.82387939453125,-0.08762138336896896,0.6751506924629211,-0.24989832937717438
1684200934359904300,7.833904296875,0.036063533276319504,0.6060909628868103,-0.04310087487101555
1684200934369928400,7.843928466796875,0.16506652534008026,0.4645346701145172,0.15893396735191345
1684200934379953400,7.853953369140625,0.24736858904361725,0.3343696594238281,0.3393053114414215
1684200934389978000,7.86397802734375,0.3181532919406891,0.3314875662326813,0.49102240800857544
1684200934400003000,7.874003173828125,0.37005749344825745,0.4288516640663147,0.590290367603302
1684200934410027300,7.88402734375,0.3880487382411957,0.5295122861862183,0.6702656149864197
1684200934420052200,7.89405224609375,0.3913353681564331,0.5990867614746094,0.7442134022712708
1684200934430077400,7.904077392578125,0.4240480363368988,0.6389084458351135,0.7977617979049683
1684200934440101400,7.914101318359375,0.4590534269809723,0.6503111124038696,0.8195917010307312
1684200934450126000,7.9241259765625,0.49369555711746216,0.576087236404419,0.7929515838623047
1684200934460151300,7.9341513671875,0.553115725517273,0.4048489034175873,0.7389848232269287
1684200934470176300,7.94417626953125,0.5861229300498962,0.23418104648590088,0.7104535698890686
1684200934480200200,7.9542001953125,0.5905842781066895,0.1055525541305542,0.7172165513038635
1684200934490225400,7.964225341796875,0.5217958688735962,-0.04114527627825737,0.7617733478546143
1684200934500250400,7.97425048828125,0.40366873145103455,-0.25292977690696716,0.8577535152435303
1684200934510275300,7.984275390625,0.27841705083847046,-0.45028597116470337,1.002809762954712
1684200934520299300,7.99429931640625,0.15057601034641266,-0.5516136288642883,1.202667474746704
1684200934530324200,8.00432421875,0.0499066486954689,-0.5337598323822021,1.415397047996521
1684200934540349200,8.01434912109375,-0.029911493882536888,-0.36076053977012634,1.5891169309616089
1684200934550374100,8.0243740234375,-0.07205121964216232,-0.037955835461616516,1.7335259914398193
1684200934560398300,8.0343984375,-0.012520518153905869,0.2503474950790405,1.8083528280258179
1684200934570423300,8.04442333984375,0.06929871439933777,0.6046310663223267,1.8233879804611206
1684200934580448500,8.054448486328125,0.21040844917297363,0.9807730913162231,1.7450639009475708
1684200934590473200,8.06447314453125,0.3600080609321594,1.3525959253311157,1.662483811378479
1684200934600497200,8.0744970703125,0.4908776581287384,1.5413239002227783,1.5814650058746338
1684200934610522400,8.0845224609375,0.5522776246070862,1.565345287322998,1.4746214151382446
1684200934620547300,8.09454736328125,0.598684549331665,1.3744300603866577,1.3595203161239624
1684200934630572300,8.104572265625,0.6169410347938538,1.035183072090149,1.2172720432281494
1684200934640596500,8.114596435546876,0.5748963952064514,0.5152480006217957,1.0392930507659912
1684200934650621200,8.12462109375,0.5030051469802856,-0.024094808846712112,0.8528805375099182
1684200934660646100,8.134646240234375,0.47419190406799316,-0.37735676765441895,0.7024598121643066
1684200934670670300,8.14467041015625,0.498669296503067,-0.5629135370254517,0.5955935716629028
1684200934680695300,8.1546953125,0.5005214810371399,-0.6067779064178467,0.5691758990287781
1684200934690720300,8.16472021484375,0.4906267821788788,-0.569389820098877,0.5835820436477661
1684200934700745500,8.174745361328124,0.4815392792224884,-0.4426729679107666,0.6129978895187378
1684200934710769200,8.18476904296875,0.47260650992393494,-0.31775739789009094,0.6262133121490479
1684200934720794000,8.194794189453125,0.46620452404022217,-0.2786893844604492,0.6465508937835693
1684200934730819300,8.2048193359375,0.45616814494132996,-0.19663846492767334,0.6658281683921814
1684200934740844300,8.21484423828125,0.4688301384449005,-0.02562853880226612,0.6809301376342773
1684200934750868200,8.2248681640625,0.4844090938568115,0.16087663173675537,0.6599321961402893
1684200934760893400,8.2348935546875,0.4853484034538269,0.3562474548816681,0.6380633115768433
1684200934770918400,8.24491845703125,0.4963078498840332,0.47482335567474365,0.6056877970695496
1684200934780943400,8.254943359375,0.5012277364730835,0.5523669719696045,0.5506477355957031
1684200934790967300,8.26496728515625,0.5168943405151367,0.6298231482505798,0.49987754225730896
1684200934800992300,8.2749921875,0.5331987142562866,0.6213042736053467,0.43560686707496643
1684200934811017200,8.285017333984374,0.5323649048805237,0.5818130373954773,0.3652157783508301
1684200934821042200,8.295042236328126,0.5326945781707764,0.5067800879478455,0.28307709097862244
1684200934831066400,8.30506640625,0.5340240597724915,0.4410175681114197,0.1956614851951599
1684200934841091000,8.315091064453124,0.5080126523971558,0.300376832485199,0.10373915731906891
1684200934851116500,8.325116455078126,0.4868192672729492,0.0951714888215065,0.05360594391822815
1684200934861141500,8.3351416015625,0.45535242557525635,-0.12279748171567917,-0.015459254384040833
1684200934871165400,8.34516552734375,0.40790900588035583,-0.3026585876941681,-0.10771913826465607
1684200934881190400,8.3551904296875,0.34669917821884155,-0.34872037172317505,-0.18189947307109833
1684200934891215400,8.36521533203125,0.28261125087738037,-0.28890177607536316,-0.2326984852552414
1684200934901240300,8.375240234375,0.24690014123916626,-0.20920996367931366,-0.2571525275707245
1684200934911264500,8.385264404296874,0.236380934715271,-0.10734777897596359,-0.26168709993362427
1684200934921289500,8.39528955078125,0.21439041197299957,-0.06039128452539444,-0.2659779489040375
1684200934931314400,8.405314453125,0.19267073273658752,-0.04938710108399391,-0.26635292172431946
1684200934941339400,8.41533935546875,0.1790289431810379,-0.08539782464504242,-0.26958709955215454
1684200934951363300,8.42536328125,0.1514500379562378,-0.16514112055301666,-0.30479514598846436
1684200934961388300,8.43538818359375,0.12359178066253662,-0.23283931612968445,-0.3724800646305084
1684200934971413200,8.445413330078125,0.10567696392536163,-0.2994968891143799,-0.4699517786502838
1684200934981438500,8.4554384765625,0.09189244359731674,-0.3282928764820099,-0.5851083397865295
1684200934991462400,8.46546240234375,0.07358161360025406,-0.33889785408973694,-0.7219593524932861
1684200935001487600,8.475487548828125,0.05442044138908386,-0.31303754448890686,-0.851708710193634
1684200935011512600,8.4855126953125,0.01161918044090271,-0.28442028164863586,-0.9391351938247681
1684200935021537300,8.495537353515624,-0.024379033595323563,-0.35688287019729614,-1.0024038553237915
1684200935031561500,8.5055615234375,-0.060010798275470734,-0.33614030480384827,-0.9813894033432007
1684200935041586400,8.51558642578125,-0.07977891713380814,-0.3112609386444092,-0.9219422936439514
1684200935051611400,8.525611328125,-0.08609673380851746,-0.26839205622673035,-0.8945881724357605
1684200935061636400,8.53563623046875,-0.0667981430888176,-0.13631513714790344,-0.8730792999267578
1684200935071660500,8.54566064453125,-0.06939659267663956,0.05427798628807068,-0.8391908407211304
1684200935081685200,8.555685302734375,-0.07153695076704025,0.18251091241836548,-0.7715954780578613
1684200935091710200,8.565710205078124,-0.07573169469833374,0.25162792205810547,-0.646908700466156
1684200935101735400,8.5757353515625,-0.08787092566490173,0.27145621180534363,-0.5128356218338013
1684200935111759400,8.58575927734375,-0.10818977653980255,0.28587162494659424,-0.4315495193004608
1684200935121784600,8.59578466796875,-0.11793641746044159,0.36740341782569885,-0.426479697227478
1684200935131809500,8.6058095703125,-0.13669359683990479,0.4194549024105072,-0.4946534335613251
1684200935141834500,8.61583447265625,-0.18303392827510834,0.4643263518810272,-0.5800386667251587
1684200935151858400,8.6258583984375,-0.2764427363872528,0.5011693835258484,-0.6459431052207947
1684200935161883400,8.63588330078125,-0.4365793764591217,0.5298206210136414,-0.6916058659553528
1684200935171908400,8.645908447265626,-0.6885048747062683,0.435100257396698,-0.6902828216552734
1684200935181933300,8.655933349609375,-0.8930345773696899,0.24431096017360687,-0.5741418600082397
1684200935191957500,8.66595751953125,-0.9237977862358093,-0.07691740244626999,-0.321879506111145
1684200935201982500,8.675982421875,-0.8088144659996033,-0.42385920882225037,0.01903768628835678
1684200935212007200,8.686007080078125,-0.733518660068512,-0.7551037073135376,0.30051329731941223
1684200935222032400,8.696032470703125,-0.7181402444839478,-1.1000611782073975,0.49770453572273254
1684200935232056300,8.706056396484374,-0.46147620677948,-1.0964195728302002,0.5197192430496216
1684200935242081300,8.716081298828126,0.030066635459661484,-0.5815622210502625,0.41242748498916626
1684200935252106500,8.7261064453125,0.4833188056945801,0.04728465899825096,0.34281298518180847
1684200935262131500,8.73613134765625,0.5984075665473938,0.6376285552978516,0.34117448329925537
1684200935272155400,8.7461552734375,0.49347183108329773,1.1962913274765015,0.359620064496994
1684200935282180400,8.756180419921876,0.4636276662349701,1.678683876991272,0.30658674240112305
1684200935292205300,8.766205322265625,0.4683172106742859,2.042365074157715,0.207875058054924
1684200935302230300,8.776230224609375,0.3923225700855255,2.2110917568206787,0.13010194897651672
1684200935312254500,8.78625439453125,0.2661036252975464,2.051053285598755,0.04481261596083641
1684200935322279400,8.796279541015625,0.22571603953838348,1.3646347522735596,-0.05441458895802498
1684200935332304400,8.806304443359375,0.27667856216430664,0.3908448815345764,-0.07837104797363281
1684200935342329600,8.81632958984375,0.3493271768093109,-0.5330714583396912,-0.08442746847867966
1684200935352353300,8.826353271484376,0.40429508686065674,-1.2272299528121948,0.010035114362835884
1684200935362378200,8.836378173828125,0.32043585181236267,-1.4883180856704712,0.22880929708480835
1684200935372403500,8.846403564453125,0.1740669459104538,-1.1400573253631592,0.3561171889305115
1684200935382428400,8.856428466796874,0.0008341737557202578,-0.286145955324173,0.3404933214187622
1684200935392452400,8.866452392578125,-0.2349860817193985,0.663635790348053,0.3280843198299408
1684200935402477600,8.8764775390625,-0.36940938234329224,1.1370015144348145,0.30881384015083313
1684200935412502300,8.886502197265624,-0.5153229236602783,0.9272108674049377,0.2646043002605438
1684200935422527200,8.89652734375,-0.691002368927002,0.21831762790679932,0.17077161371707916
1684200935432551400,8.906551513671875,-0.7880008220672607,-0.6999485492706299,0.049049973487854004
1684200935442576400,8.916576416015625,-0.8728528022766113,-1.4163438081741333,-0.20066522061824799
1684200935452601300,8.926601318359374,-0.8993688225746155,-1.9743373394012451,-0.46290960907936096
1684200935462626600,8.93662646484375,-0.8240962028503418,-2.1756863594055176,-0.7451565265655518
1684200935472650200,8.946650146484375,-0.7114413380622864,-2.094298839569092,-0.9768669605255127
1684200935482675200,8.95667529296875,-0.5268717408180237,-2.0055880546569824,-1.0352401733398438
1684200935492700400,8.966700439453126,-0.3867361843585968,-1.8901379108428955,-0.8785858154296875
1684200935502724400,8.976724365234375,-0.37396231293678284,-1.8045707941055298,-0.6437585353851318
1684200935512749300,8.986749267578125,-0.3466137945652008,-1.8527297973632812,-0.48420029878616333
1684200935522774500,8.9967744140625,-0.22738301753997803,-1.9181125164031982,-0.4256090819835663
1684200935532799500,9.006799560546876,-0.1318674236536026,-1.8650606870651245,-0.4291265904903412
1684200935542823400,9.016823486328125,-0.12771208584308624,-1.778670310974121,-0.4558880031108856
1684200935552848400,9.026848388671874,-0.11760139465332031,-1.7435935735702515,-0.544798731803894
1684200935562873300,9.036873291015626,-0.09744632244110107,-1.6546589136123657,-0.6792108416557312
1684200935572898300,9.046898193359375,-0.09399113059043884,-1.4882397651672363,-0.7616300582885742
1684200935582922500,9.056922607421875,-0.07864466309547424,-1.2760984897613525,-0.7640990018844604
1684200935592947500,9.066947509765624,-0.05957110598683357,-1.0861096382141113,-0.7297471761703491
1684200935602972400,9.076972412109376,-0.09324944019317627,-0.7198795080184937,-0.6903428435325623
1684200935612997400,9.086997314453125,-0.14248622953891754,-0.37496715784072876,-0.6483815312385559
1684200935623022300,9.097022216796875,-0.18151618540287018,-0.07245083898305893,-0.5760846734046936
1684200935633046300,9.10704638671875,-0.23800767958164215,0.2700748145580292,-0.49966391921043396
1684200935643071500,9.117071533203125,-0.3280819058418274,0.4750014841556549,-0.46366798877716064
1684200935653096400,9.127096435546875,-0.3815419375896454,0.4849121570587158,-0.46429434418678284
1684200935663120400,9.137120361328124,-0.41059571504592896,0.4084639549255371,-0.4468718469142914
1684200935673145300,9.147145263671876,-0.37880581617355347,0.3603861927986145,-0.3808848559856415
1684200935683170300,9.15717041015625,-0.2850407361984253,0.3615332245826721,-0.28551438450813293
1684200935693195300,9.1671953125,-0.19428366422653198,0.391691654920578,-0.14705422520637512
1684200935703219500,9.177219482421876,-0.09174715727567673,0.4015311896800995,0.0015170935075730085
1684200935713244400,9.187244384765625,-0.01172342337667942,0.3971492052078247,0.13428924977779388
1684200935723269400,9.197269287109375,0.010016482323408127,0.34276220202445984,0.2558937668800354
1684200935733294600,9.207294677734374,-0.0043105254881083965,0.2968144118785858,0.35283389687538147
1684200935743318300,9.217318359375,-0.06845168769359589,0.2836093306541443,0.4019342064857483
1684200935753343200,9.22734326171875,-0.12421295046806335,0.3817090094089508,0.4023131728172302
1684200935763368400,9.237368408203125,-0.14017006754875183,0.5365002751350403,0.33815741539001465
1684200935773393400,9.247393310546874,-0.1404915153980255,0.6816566586494446,0.21941636502742767
1684200935783417300,9.257417236328125,-0.13966381549835205,0.802314817905426,0.0908314436674118
1684200935793442600,9.267442626953125,-0.12952303886413574,0.8947989344596863,0.02804608829319477
1684200935803467500,9.277467529296874,-0.1325230896472931,0.9683844447135925,0.042359475046396255
1684200935813492200,9.2874921875,-0.1532731056213379,0.9928692579269409,0.10432270914316177
1684200935823516400,9.297516357421875,-0.17499622702598572,0.9477113485336304,0.16187474131584167
1684200935833541400,9.307541259765625,-0.19350841641426086,0.861897885799408,0.21932418644428253
1684200935843566600,9.317566650390624,-0.17890788614749908,0.7796064019203186,0.2727222144603729
1684200935853591800,9.327591796875,-0.1748548150062561,0.7154178023338318,0.30029553174972534
1684200935863615700,9.33761572265625,-0.19591403007507324,0.6686503887176514,0.28334102034568787
1684200935873640400,9.347640380859374,-0.2369232475757599,0.6354445219039917,0.2267749160528183
1684200935883665700,9.357665771484376,-0.27857401967048645,0.6124265789985657,0.15161335468292236
1684200935893690600,9.367690673828125,-0.31165048480033875,0.548360288143158,0.06749393790960312
1684200935903714600,9.377714599609375,-0.325903981924057,0.39608436822891235,-0.004635846242308617
1684200935913739800,9.38773974609375,-0.3238341808319092,0.22989007830619812,-0.05766870453953743
1684200935923764700,9.3977646484375,-0.3128257393836975,0.07615494728088379,-0.0653376504778862
1684200935933789700,9.407789794921875,-0.28308913111686707,-0.05644969642162323,-0.03574380651116371
1684200935943813600,9.417813720703125,-0.23927056789398193,-0.19795367121696472,-0.0013790876837447286
1684200935953838600,9.427838623046876,-0.19221490621566772,-0.3173295855522156,0.014648081734776497
1684200935963863600,9.437863525390625,-0.14307159185409546,-0.3570772111415863,0.0015259652864187956
1684200935973888500,9.447888427734375,-0.10059018433094025,-0.28927844762802124,-0.03191135451197624
1684200935983912700,9.45791259765625,-0.05860065668821335,-0.14045067131519318,-0.07600580155849457
1684200935993937700,9.467937744140626,-0.03196265175938606,0.014201490208506584,-0.12969672679901123
1684200936003963000,9.477962890625,-0.037401895970106125,0.18363936245441437,-0.17016251385211945
1684200936013987600,9.487987548828125,-0.03729270398616791,0.4083483815193176,-0.20322352647781372
1684200936024011500,9.498011474609376,-0.0579252727329731,0.5720319151878357,-0.22850246727466583
1684200936034036700,9.50803662109375,-0.09753047674894333,0.6060612201690674,-0.2399412840604782
1684200936044061700,9.518061767578125,-0.1337161660194397,0.5775206089019775,-0.23295773565769196
1684200936054086700,9.528086669921874,-0.15396738052368164,0.560309648513794,-0.2292998880147934
1684200936064110800,9.53811083984375,-0.16681794822216034,0.5779790282249451,-0.22792889177799225
1684200936074135600,9.548135498046875,-0.1788301318883896,0.6346047520637512,-0.219429150223732
1684200936084160500,9.558160400390625,-0.19574999809265137,0.6995306015014648,-0.20487065613269806
1684200936094185500,9.568185546875,-0.21707312762737274,0.7253313064575195,-0.18953432142734528
1684200936104209700,9.578209716796875,-0.22424767911434174,0.7067849636077881,-0.15965256094932556
1684200936114234600,9.588234619140625,-0.24397984147071838,0.6476768851280212,-0.1274421513080597
1684200936124259600,9.598259521484374,-0.2768346965312958,0.5508080720901489,-0.08994530141353607
1684200936134283500,9.608283447265626,-0.3050383925437927,0.43148142099380493,-0.07765747606754303
1684200936144308500,9.61830859375,-0.3218187093734741,0.34688079357147217,-0.10733671486377716
1684200936154333700,9.628333740234375,-0.3243974447250366,0.3474951982498169,-0.16636168956756592
1684200936164358700,9.638358642578124,-0.3139123022556305,0.39751285314559937,-0.24146823585033417
1684200936174382600,9.648382568359375,-0.27396249771118164,0.4725170433521271,-0.32276761531829834
1684200936184407800,9.65840771484375,-0.21206742525100708,0.580289900302887,-0.40427786111831665
1684200936194432800,9.668432861328125,-0.12150079011917114,0.6926742196083069,-0.49384981393814087
1684200936204457700,9.678457763671876,-0.026084523648023605,0.8088510036468506,-0.559101939201355
1684200936214481700,9.688481689453125,0.03356815129518509,0.9280620813369751,-0.5626474022865295
1684200936224506600,9.698506591796875,0.04807252436876297,0.9957317113876343,-0.5203422904014587
1684200936234531600,9.708531494140624,0.025887591764330864,0.9515794515609741,-0.4523085951805115
1684200936244556500,9.718556640625,-0.015502453781664371,0.8333942890167236,-0.385568767786026
1684200936254580700,9.728580810546875,-0.006685260217636824,0.7235344052314758,-0.3557853102684021
1684200936264605700,9.738605712890624,0.044190969318151474,0.6945832371711731,-0.323896199464798
1684200936274630700,9.748630615234376,0.09115714579820633,0.6620569825172424,-0.2774072587490082
1684200936284655600,9.758655517578125,0.1534077525138855,0.4670261740684509,-0.24385322630405426
1684200936294679600,9.768679443359375,0.22445794939994812,0.05695664882659912,-0.24482715129852295
1684200936304704800,9.778704833984374,0.2954690158367157,-0.38930854201316833,-0.22868934273719788
1684200936314729700,9.788729736328126,0.3611753284931183,-0.6616066694259644,-0.17588818073272705
1684200936324754700,9.798754638671875,0.48460033535957336,-0.7950615882873535,-0.06001010909676552
1684200936334778600,9.808778564453124,0.6575829982757568,-0.7441813349723816,-0.022012926638126373
1684200936344803600,9.818803466796876,0.7947693467140198,-0.580568253993988,-0.07084513455629349
1684200936354828500,9.82882861328125,0.9021450877189636,-0.4578380584716797,-0.10354076325893402
1684200936364853500,9.838853515625,0.9997235536575317,-0.3772296607494354,-0.08650113642215729
1684200936374877700,9.848877685546874,1.0345499515533447,-0.3115960359573364,-0.049773745238780975
1684200936384902700,9.858902587890626,1.0213772058486938,-0.21710336208343506,0.0251463633030653
1684200936394927600,9.868927734375,0.9749084711074829,-0.0563214048743248,0.16868223249912262
1684200936404952800,9.878952880859375,0.8895203471183777,0.2306816577911377,0.35946139693260193
1684200936414976500,9.8889765625,0.7963744401931763,0.4623394012451172,0.5586525201797485
1684200936425001700,9.899001708984375,0.6841251254081726,0.5618078708648682,0.7969284057617188
1684200936435026700,9.909026611328125,0.6079525947570801,0.5208215117454529,1.067320704460144
1684200936445051600,9.9190517578125,0.5404044985771179,0.40043362975120544,1.3235706090927124
1684200936455075800,9.929075927734376,0.45744088292121887,0.2799817621707916,1.4587241411209106
1684200936465100800,9.939100830078125,0.3611356317996979,0.18191464245319366,1.4824339151382446
1684200936475125500,9.94912548828125,0.28260913491249084,0.16613034904003143,1.4872297048568726
1684200936485150500,9.959150390625,0.20449064671993256,0.08396552503108978,1.504285454750061
1684200936495174700,9.969174560546875,0.1749143749475479,-0.07028183341026306,1.4782264232635498
1684200936505199600,9.97919970703125,0.17430317401885986,-0.15832629799842834,1.3917064666748047
1684200936515224600,9.989224609375,0.17543156445026398,-0.2612822651863098,1.267939567565918
1684200936525249800,9.999249755859376,0.17305761575698853,-0.30526408553123474,1.2169042825698853
1684200936535273500,10.0092734375,0.2515830397605896,-0.36747419834136963,1.0894395112991333
1684200936545298700,10.019298583984375,0.3346747159957886,-0.4589361548423767,0.8610876202583313
1684200936555323600,10.02932373046875,0.37142446637153625,-0.5151722431182861,0.6482214331626892
1684200936565348600,10.0393486328125,0.47379136085510254,-0.5069826245307922,0.4510291516780853
1684200936575372800,10.049372802734375,0.5839127898216248,-0.43839263916015625,0.23392851650714874
1684200936585397800,10.059397705078124,0.6729736924171448,-0.32404378056526184,0.0514308325946331
1684200936595422700,10.069422607421876,0.7118688821792603,-0.2559856176376343,-0.0970316082239151
1684200936605447400,10.079447509765625,0.7189629673957825,-0.3631661832332611,-0.27170243859291077
1684200936615471600,10.0894716796875,0.6855576634407043,-0.5645898580551147,-0.4341376721858978
1684200936625496600,10.09949658203125,0.6182209253311157,-0.7944391965866089,-0.5204576849937439
1684200936635521500,10.109521484375,0.5303225517272949,-0.9523518681526184,-0.493186891078949
1684200936645546800,10.119546630859375,0.4368242919445038,-1.05838143825531,-0.43272456526756287
1684200936655570700,10.12957080078125,0.3536771833896637,-1.1589362621307373,-0.3977609872817993
1684200936665595600,10.139595703125,0.27494561672210693,-1.3220232725143433,-0.37565550208091736
1684200936675620600,10.14962060546875,0.17635273933410645,-1.4030731916427612,-0.36508727073669434
1684200936685644500,10.15964453125,0.0899379551410675,-1.451284646987915,-0.37454459071159363
1684200936695669800,10.169669677734374,0.04124312475323677,-1.4968597888946533,-0.4017660915851593
1684200936705694700,10.17969482421875,0.013086849823594093,-1.4569950103759766,-0.4441107511520386
1684200936715719700,10.1897197265625,-0.014138113707304,-1.3304407596588135,-0.47148218750953674
1684200936725744600,10.19974462890625,-0.038558229804039,-1.241742730140686,-0.4661504328250885
1684200936735768600,10.2097685546875,-0.0662069097161293,-1.1827038526535034,-0.44228851795196533
1684200936745793500,10.21979345703125,-0.07481930404901505,-1.1051273345947266,-0.409737229347229
1684200936755818500,10.229818603515625,-0.05498860403895378,-1.0071812868118286,-0.3863498866558075
1684200936765843700,10.23984375,-0.0012308305595070124,-0.8984935879707336,-0.3721070885658264
1684200936775867600,10.24986767578125,0.0311335027217865,-0.8194480538368225,-0.35183751583099365
1684200936785892600,10.259892578125,0.021745311096310616,-0.7757372260093689,-0.3170706033706665
1684200936795917800,10.269917724609375,-0.0033579114824533463,-0.7613609433174133,-0.2697417140007019
1684200936805941500,10.27994140625,-0.05234675481915474,-0.7619658708572388,-0.2102518379688263
1684200936815966700,10.289966796875,-0.13381364941596985,-0.8038374185562134,-0.12485464662313461
1684200936825991700,10.29999169921875,-0.23432986438274384,-0.850149393081665,0.029982613399624825
1684200936836016600,10.3100166015625,-0.3319634795188904,-0.8713249564170837,0.22128385305404663
1684200936846040800,10.320040771484376,-0.40255028009414673,-0.7828218340873718,0.3751688301563263
1684200936856065800,10.330065673828125,-0.4256953001022339,-0.55671626329422,0.48884719610214233
1684200936866090500,10.340090576171875,-0.40717461705207825,-0.2544320225715637,0.548089325428009
1684200936876115500,10.350115478515624,-0.3368895351886749,0.0019238499226048589,0.5706231594085693
1684200936886139600,10.3601396484375,-0.2391480654478073,0.09796606749296188,0.5729583501815796
1684200936896164600,10.37016455078125,-0.15140995383262634,0.01234836969524622,0.5772846341133118
1684200936906189600,10.380189453125,-0.07663079351186752,-0.23723796010017395,0.6212250590324402
1684200936916214800,10.39021484375,-0.018884941935539246,-0.5708625316619873,0.6665863990783691
1684200936926238500,10.400238525390625,0.049543920904397964,-0.7964780926704407,0.6602932810783386
1684200936936263700,10.410263671875,0.10896117240190506,-0.7642748951911926,0.5734547972679138
1684200936946288600,10.42028857421875,0.12560221552848816,-0.5476885437965393,0.4561763405799866
1684200936956313600,10.430313720703126,0.10719364881515503,-0.40918630361557007,0.34244176745414734
1684200936966337800,10.440337890625,0.04804376885294914,-0.42822521924972534,0.2589365839958191
1684200936976362800,10.45036279296875,-0.034491587430238724,-0.47562840580940247,0.1960923671722412
1684200936986387700,10.4603876953125,-0.11175095289945602,-0.5054799318313599,0.133771613240242
1684200936996412700,10.47041259765625,-0.1708046793937683,-0.4784473180770874,0.07939280569553375
1684200937006436600,10.4804365234375,-0.22377178072929382,-0.3772611618041992,0.0366390198469162
1684200937016461600,10.490461669921874,-0.26332584023475647,-0.23476554453372955,-0.03855346888303757
1684200937026486500,10.500486572265626,-0.2893132269382477,-0.06172580644488335,-0.15109311044216156
1684200937036511700,10.51051171875,-0.29204535484313965,0.1251058578491211,-0.2550541162490845
1684200937046535700,10.52053564453125,-0.28910550475120544,0.30756840109825134,-0.3410513997077942
1684200937056560600,10.530560546875,-0.2853027582168579,0.4237205684185028,-0.4115724265575409
1684200937066585600,10.540585693359375,-0.29461637139320374,0.486427366733551,-0.4639497697353363
1684200937076610600,10.550610595703125,-0.3207553029060364,0.5099300146102905,-0.4813724160194397
1684200937086634800,10.560634765625,-0.3716762661933899,0.5280542373657227,-0.4680085778236389
1684200937096659700,10.57065966796875,-0.4402952790260315,0.5499230623245239,-0.40457528829574585
1684200937106684700,10.5806845703125,-0.5294187664985657,0.5705615282058716,-0.31049486994743347
1684200937116709600,10.590709716796875,-0.6393186450004578,0.5670634508132935,-0.2064102739095688
1684200937126733600,10.600733642578126,-0.7318408489227295,0.5917977690696716,-0.1327219009399414
1684200937136758500,10.610758544921875,-0.8050663471221924,0.5542570352554321,-0.09860812872648239
1684200937146783500,10.620783447265625,-0.847450315952301,0.40163636207580566,-0.11234777420759201
1684200937156808700,10.63080859375,-0.784550666809082,0.3482748866081238,-0.18316815793514252
1684200937166832600,10.64083251953125,-0.6584619879722595,0.6066840291023254,-0.3120022416114807
1684200937176857600,10.650857666015625,-0.5195658802986145,1.147092342376709,-0.49339279532432556
1684200937186882800,10.6608828125,-0.3405362069606781,1.951932430267334,-0.659371554851532
1684200937196907800,10.67090771484375,-0.06394375115633011,2.9201087951660156,-0.7081702351570129
1684200937206931700,10.680931640625,0.30345475673675537,3.5950911045074463,-0.6801207065582275
1684200937216956700,10.690956787109375,0.6583329439163208,3.349710702896118,-0.7633559107780457
1684200937226981600,10.700981689453124,0.8807668089866638,2.1206705570220947,-1.1303733587265015
1684200937237006600,10.711006591796876,0.8404121994972229,0.888646125793457,-1.4921914339065552
1684200937247030800,10.72103076171875,0.7024487257003784,0.30298611521720886,-1.4865999221801758
1684200937257055700,10.7310556640625,0.5044389963150024,0.08766528218984604,-1.191434383392334
1684200937267080400,10.74108056640625,0.20663847029209137,0.1761023849248886,-0.7989041209220886
1684200937277105700,10.751105712890626,-0.053889527916908264,0.35446786880493164,-0.5279322862625122
1684200937287129600,10.761129638671875,-0.4009082019329071,0.3266054391860962,-0.4142215847969055
1684200937297154600,10.771154541015624,-0.7300227284431458,-0.07330680638551712,-0.3834705948829651
1684200937307179800,10.7811796875,-0.9428675770759583,-1.0723891258239746,-0.48544594645500183
1684200937317204700,10.791204833984375,-1.0286728143692017,-2.4310503005981445,-0.6051995754241943
1684200937327228700,10.801228759765625,-0.8206694722175598,-3.32011342048645,-0.4772808253765106
1684200937337253600,10.811253662109374,-0.49965474009513855,-3.487679958343506,0.028263553977012634
1684200937347278600,10.821278564453126,-0.16660940647125244,-3.1030967235565186,0.7032449841499329
1684200937357303600,10.831303466796875,0.47008395195007324,-2.0516197681427,1.182007074356079
1684200937367327700,10.84132763671875,1.3179543018341064,-0.052547674626111984,1.419613242149353
1684200937377352700,10.851352783203126,1.841612696647644,1.8636308908462524,0.8801960945129395
1684200937387377700,10.861377685546875,1.752642035484314,2.8962130546569824,-0.18413682281970978
1684200937397403000,10.87140283203125,1.2504726648330688,2.846348285675049,-0.6672829985618591
1684200937407426600,10.881426513671874,0.9172995090484619,2.3676581382751465,-0.39195191860198975
1684200937417451500,10.891451416015625,0.6794989705085754,1.9873675107955933,-0.15167540311813354
1684200937427476700,10.901476806640625,0.3373006284236908,1.1695188283920288,0.17301465570926666
1684200937437501700,10.911501708984375,-0.16957031190395355,-0.5437156558036804,0.6305497288703918
1684200937447525600,10.921525634765626,-0.46533724665641785,-2.3401176929473877,0.5847691297531128
1684200937457550800,10.93155078125,-0.32265999913215637,-2.9398624897003174,-0.023968225345015526
1684200937467575600,10.941575439453125,-0.29989129304885864,-2.915656566619873,-0.7102153301239014
1684200937477600500,10.9516005859375,-0.35782888531684875,-2.4944496154785156,-0.9065094590187073
1684200937487624700,10.961624755859376,-0.4073770046234131,-1.4572854042053223,-0.7836071252822876
1684200937497649700,10.971649658203125,-0.27919426560401917,-0.1770143210887909,-0.5255917906761169
1684200937507674600,10.981674560546875,-0.22689378261566162,0.6703608632087708,-0.4201370179653168
1684200937517699800,10.991699951171874,-0.24787043035030365,0.7916284203529358,-0.4402012825012207
1684200937527723500,11.0017236328125,-0.3685276210308075,0.41192060708999634,-0.4372251629829407
1684200937537748500,11.01174853515625,-0.31981518864631653,-0.009961649775505066,-0.3647006154060364
1684200937547773700,11.021773681640624,-0.17966556549072266,-0.28248026967048645,-0.3276773691177368
1684200937557798700,11.031798583984376,-0.1260872781276703,-0.5908594131469727,-0.28485026955604553
1684200937567822600,11.041822509765625,-0.14586152136325836,-0.8632969856262207,-0.24974818527698517
1684200937577847800,11.051847900390625,-0.0662686824798584,-1.1503777503967285,-0.3412935137748718
1684200937587872800,11.061872802734374,0.02944665029644966,-1.3571243286132812,-0.5898023247718811
1684200937597896400,11.071896484375,0.07172166556119919,-1.157576560974121,-0.7614215016365051
1684200937607921700,11.081921630859375,0.1070125550031662,-0.5855404734611511,-0.6781861782073975
1684200937617946600,11.091946533203124,0.09807711839675903,-0.04598644748330116,-0.48317378759384155
1684200937627971600,11.1019716796875,0.0007252576760947704,0.3940947949886322,-0.3403773009777069
1684200937637996800,11.111996826171875,-0.06361991167068481,0.730807900428772,-0.21171388030052185
1684200937648020700,11.122020751953125,-0.07854107022285461,0.9284475445747375,-0.060226377099752426
1684200937658045700,11.132045654296874,-0.06679120659828186,1.3383511304855347,0.15828092396259308
1684200937668070700,11.142070556640626,-0.2678486704826355,1.3882783651351929,0.14253607392311096
1684200937678095600,11.152095703125,-0.3591857850551605,1.239288091659546,0.0594923309981823
1684200937688119600,11.16211962890625,-0.3385428190231323,1.1564102172851562,0.034357938915491104
1684200937698144800,11.172144775390626,-0.3834533095359802,1.0278817415237427,0.04036842659115791
1684200937708169700,11.182169677734375,-0.42629557847976685,0.9365870356559753,0.06086409464478493
1684200937718193400,11.192193359375,-0.3748089373111725,1.0297390222549438,0.07775706052780151
1684200937728218600,11.202218505859374,-0.31593871116638184,1.1664146184921265,0.07694277912378311
1684200937738243600,11.21224365234375,-0.2115742266178131,1.3642462491989136,0.08572455495595932
1684200937748268500,11.2222685546875,-0.16630740463733673,1.626078486442566,0.13381481170654297
1684200937758292700,11.232292724609374,-0.1326032280921936,1.734407901763916,0.13025124371051788
1684200937768317700,11.242317626953126,-0.1735496073961258,1.4439384937286377,-0.008200432173907757
1684200937778342700,11.2523427734375,-0.24604324996471405,0.8490722179412842,-0.16405820846557617
1684200937788368000,11.262367919921875,-0.21866966784000397,0.39493438601493835,-0.27644214034080505
1684200937798391600,11.2723916015625,-0.2568833827972412,0.08543060719966888,-0.3117798864841461
1684200937808416500,11.28241650390625,-0.28329792618751526,-0.07268351316452026,-0.26957395672798157
1684200937818441700,11.292441650390625,-0.26994964480400085,-0.07346967607736588,-0.18430355191230774
1684200937828466700,11.302466796875,-0.321493536233902,-0.27838847041130066,-0.2223692238330841
1684200937838490600,11.31249072265625,-0.42416131496429443,-0.18824125826358795,-0.4034367501735687
1684200937848515000,11.32251513671875,-0.372901052236557,0.23563134670257568,-0.49000996351242065
1684200937858540000,11.3325400390625,-0.23480923473834991,0.6077154874801636,-0.43882426619529724
1684200937868565000,11.34256494140625,-0.0874251052737236,0.773015558719635,-0.3571610152721405
1684200937878589200,11.352589111328125,0.05640822649002075,0.8067415356636047,-0.2580355107784271
1684200937888614100,11.3626142578125,0.1479264348745346,0.9082660675048828,-0.13453267514705658
1684200937898638800,11.372638916015624,0.19245874881744385,1.1293798685073853,0.11200547963380814
1684200937908664000,11.3826640625,0.2019587755203247,1.3231642246246338,0.38309210538864136
1684200937918688000,11.39268798828125,0.17774105072021484,1.4006590843200684,0.5439651012420654
1684200937928713000,11.402712890625,0.14059846103191376,1.3512593507766724,0.5249530076980591
1684200937938738200,11.41273828125,0.09722249954938889,1.2803407907485962,0.4493940770626068
1684200937948763100,11.42276318359375,0.0760359838604927,1.2434961795806885,0.37890952825546265
1684200937958787000,11.432787109375,0.06019337475299835,1.1572808027267456,0.359305202960968
1684200937968812000,11.44281201171875,0.06924011558294296,1.1655067205429077,0.3508141338825226
1684200937978837000,11.4528369140625,0.08547927439212799,1.2719181776046753,0.35009294748306274
1684200937988862000,11.462862060546875,0.12363066524267197,1.2788997888565063,0.3707254230976105
1684200937998886100,11.47288623046875,0.22288906574249268,1.2146600484848022,0.3755928874015808
1684200938008911000,11.4829111328125,0.39846330881118774,1.2575854063034058,0.29347744584083557
1684200938018936000,11.49293603515625,0.31366798281669617,1.3177098035812378,0.3097752034664154
1684200938028961300,11.502961181640625,0.18272167444229126,1.1664707660675049,0.4097916781902313
1684200938038985000,11.51298486328125,0.1688242405653,0.8935023546218872,0.3090200424194336
1684200938049010000,11.523010009765626,0.06683342903852463,0.6915671825408936,0.13742487132549286
1684200938059035100,11.53303515625,0.08768278360366821,0.638481616973877,0.0921950712800026
1684200938069060000,11.54306005859375,0.13108167052268982,0.5064858794212341,0.07016127556562424
1684200938079084000,11.553083984375,0.10918915271759033,0.2689444422721863,0.051858965307474136
1684200938089109200,11.563109130859376,0.13407479226589203,-0.033136818557977676,0.09979955106973648
1684200938099134000,11.573134033203125,0.17878954112529755,-0.301960289478302,0.2346404492855072
1684200938109159000,11.583158935546875,0.22860503196716309,-0.34630873799324036,0.4703981876373291
1684200938119183000,11.59318310546875,0.30329790711402893,-0.18431369960308075,0.7535371780395508
1684200938129208000,11.6032080078125,0.3856002390384674,-0.07398664206266403,0.9537354707717896
1684200938139233000,11.61323291015625,0.4053041636943817,-0.04995347559452057,0.9161739945411682
1684200938149258200,11.62325830078125,0.39731574058532715,-0.0354110486805439,0.8347343802452087
1684200938159282000,11.633281982421876,0.4180915951728821,0.006682341918349266,0.8241387605667114
1684200938169307000,11.643306884765625,0.4602110981941223,0.09284860640764236,0.8490566611289978
1684200938179332000,11.65333203125,0.5877370834350586,0.1231609657406807,0.9146884083747864
1684200938189357000,11.663357177734374,0.7301610708236694,0.15791055560112,1.028815746307373
1684200938199381000,11.673381103515625,0.7939000725746155,0.40474432706832886,1.1431173086166382
1684200938209406200,11.68340625,0.935886561870575,0.7985310554504395,1.2488230466842651
1684200938219431200,11.69343115234375,0.903303861618042,1.2049851417541504,1.292845606803894
1684200938229456000,11.703455810546876,0.867444634437561,1.3627073764801025,1.285220742225647
1684200938239480000,11.71347998046875,0.8882140517234802,1.4435125589370728,1.1999080181121826
1684200938249505000,11.723505126953125,1.1056492328643799,1.420362114906311,1.1498991250991821
1684200938259530000,11.733530029296874,1.3994091749191284,1.218176245689392,1.1565288305282593
1684200938269555200,11.74355517578125,1.7545363903045654,0.943979024887085,1.1633023023605347
1684200938279579100,11.7535791015625,1.8839638233184814,0.7193136811256409,1.0849521160125732
1684200938289603800,11.763603759765624,1.7702258825302124,0.7160722613334656,0.9562402367591858
1684200938299629000,11.773629150390626,1.6302777528762817,0.8590350151062012,0.6479846239089966
1684200938309654000,11.783654052734375,1.5577542781829834,0.23376697301864624,0.7277216911315918
1684200938319678000,11.793677978515625,1.5933881998062134,-0.8012732267379761,1.2962703704833984
1684200938329703200,11.803703125,1.6625797748565674,-0.7853438854217529,1.2405338287353516
1684200938339728100,11.81372802734375,1.7748605012893677,-0.8790679574012756,1.123186707496643
1684200938349753000,11.823753173828125,1.7924139499664307,-0.8794525265693665,1.0118637084960938
1684200938359777000,11.833777099609375,1.5431256294250488,-0.6793301105499268,0.9324011206626892
1684200938369802000,11.843802001953126,1.1908432245254517,-0.2746657431125641,0.6814427375793457
1684200938379827000,11.853826904296875,0.9090725183486938,-0.36188212037086487,0.744554340839386
1684200938389852200,11.86385205078125,0.775624692440033,-0.6566737294197083,1.0325461626052856
1684200938399876000,11.8738759765625,0.6056654453277588,-0.7358018755912781,1.1648991107940674
1684200938409901000,11.883901123046876,0.4385204315185547,-0.5478094220161438,1.1740365028381348
1684200938419926300,11.89392626953125,0.3514004647731781,-0.2839886546134949,1.1013809442520142
1684200938429951000,11.903950927734375,0.37646427750587463,-0.04498877748847008,0.955187201499939
1684200938439975000,11.913974853515626,0.264850378036499,0.14573031663894653,0.7888836860656738
1684200938450000100,11.924000244140625,0.08557090908288956,0.22893521189689636,0.7088454365730286
1684200938460025000,11.934025146484375,0.0010195397771894932,0.2901138663291931,0.6201600432395935
1684200938470050000,11.944050048828124,-0.008423772640526295,0.29519227147102356,0.5670081973075867
1684200938480074200,11.95407421875,0.07437337189912796,0.31206631660461426,0.5106778144836426
1684200938490099000,11.964098876953125,0.16685695946216583,0.3507801592350006,0.4649500250816345
1684200938500124000,11.9741240234375,0.23425598442554474,0.34112808108329773,0.46387091279029846
1684200938510149000,11.984149169921874,0.3362281620502472,0.3901776373386383,0.4671300947666168
1684200938520173000,11.994173095703125,0.5337300300598145,0.47120246291160583,0.505568265914917
1684200938530198000,12.004197998046875,0.7505590319633484,0.5090644955635071,0.5770047903060913
1684200938540223200,12.01422314453125,0.9337983131408691,0.5119225978851318,0.6173980236053467
1684200938550248200,12.024248291015626,0.9176608920097351,0.6069557666778564,0.6138274669647217
1684200938560272000,12.03427197265625,0.7642596364021301,0.6743851900100708,0.5754574537277222
1684200938570297000,12.044297119140625,0.6677003502845764,0.7036191821098328,0.5737471580505371
1684200938580322000,12.054322021484374,0.6174073219299316,0.7597479820251465,0.5635017156600952
1684200938590347000,12.064346923828126,0.5451847910881042,0.8521024584770203,0.5082021951675415
