time,seconds_elapsed,z,y,x
1684206449710247400,0.067247314453125,0.01749037578701973,-0.04249654710292816,-0.048782721161842346
1684206449720272600,0.077272705078125,0.014076203107833862,-0.03997746482491493,-0.03937350958585739
1684206449730298600,0.087298583984375,0.008642499335110188,-0.033730048686265945,-0.02938399650156498
1684206449740323600,0.097323486328125,0.005836326628923416,-0.031254373490810394,-0.03347328305244446
1684206449750349600,0.107349609375,0.01626681163907051,-0.029284756630659103,-0.04218451678752899
1684206449760374500,0.11737451171875,0.03550122678279877,-0.016891736537218094,-0.027163757011294365
1684206449770400500,0.127400390625,0.0542013980448246,-0.008316046558320522,-0.006711765192449093
1684206449780425500,0.137425537109375,0.03035624884068966,-0.0213298499584198,-0.0012157999444752932
1684206449790451000,0.147450927734375,0.010495719499886036,-0.03740030154585838,-0.026967057958245277
1684206449800476200,0.15747607421875,-0.017353488132357597,-0.06373603641986847,-0.05196987837553024
1684206449810502100,0.167502197265625,-0.08148470520973206,-0.12304732203483582,-0.08405778557062149
1684206449820527000,0.177527099609375,-0.12173599004745483,-0.263950377702713,-0.21596255898475647
1684206449830553000,0.187552978515625,-0.1737375110387802,-0.32524144649505615,-0.26795247197151184
1684206449840578000,0.197578125,-0.33283498883247375,-0.2825552225112915,-0.23091349005699158
1684206449850604000,0.20760400390625,-0.47321146726608276,-0.19954244792461395,-0.17012497782707214
1684206449860629000,0.21762890625,-0.5362604856491089,-0.13960081338882446,-0.13050486147403717
1684206449870655000,0.227655029296875,-0.5290821194648743,-0.13890118896961212,-0.13450424373149872
1684206449880680200,0.23768017578125,-0.5412277579307556,-0.16719354689121246,-0.13637590408325195
1684206449890706200,0.2477060546875,-0.4642307162284851,-0.1156843900680542,-0.07516005635261536
1684206449900731100,0.257731201171875,-0.3904547691345215,-0.15637880563735962,-0.10467773675918579
1684206449910757000,0.267757080078125,-0.3271705210208893,-0.20273804664611816,-0.21620003879070282
1684206449920782000,0.277781982421875,-0.3406676948070526,-0.23698389530181885,-0.30765673518180847
1684206449930808000,0.28780810546875,-0.40332746505737305,-0.22848699986934662,-0.39688780903816223
1684206449940833000,0.2978330078125,-0.468336820602417,-0.2408033311367035,-0.4205838143825531
1684206449950859000,0.30785888671875,-0.5010600686073303,-0.20987114310264587,-0.4169592559337616
1684206449960884000,0.317884033203125,-0.5399797558784485,-0.09746471792459488,-0.4278672933578491
1684206449970910000,0.327909912109375,-0.6399601101875305,-0.051075197756290436,-0.39658135175704956
1684206449980935200,0.33793505859375,-0.7512983679771423,-0.040547456592321396,-0.3078807592391968
1684206449990961200,0.347961181640625,-0.8516547679901123,-0.032856106758117676,-0.24751238524913788
1684206450000986000,0.357986083984375,-0.9091556072235107,-0.015121318399906158,-0.16701248288154602
1684206450011012000,0.36801220703125,-0.9277082085609436,-0.0004297971318010241,-0.12149320542812347
1684206450021037000,0.378037109375,-0.9139441847801208,0.013318771496415138,-0.21175839006900787
1684206450031063000,0.38806298828125,-0.9079514741897583,0.09156972914934158,-0.3144659996032715
1684206450041088000,0.398087890625,-0.9265297055244446,0.06589152663946152,-0.4027561843395233
1684206450051114000,0.408114013671875,-0.9125267267227173,0.05268670246005058,-0.4277104437351227
1684206450061139200,0.41813916015625,-0.9560877680778503,-0.04993315041065216,-0.4184468984603882
1684206450071165200,0.428165283203125,-0.9271922707557678,-0.1277085691690445,-0.39223697781562805
1684206450081190100,0.438190185546875,-0.9196200966835022,-0.1029568761587143,-0.39388492703437805
1684206450091216100,0.448216064453125,-0.916342556476593,-0.01549938041716814,-0.3252902030944824
1684206450101241000,0.458240966796875,-0.9318658709526062,0.04670087620615959,-0.28055283427238464
1684206450111267000,0.46826708984375,-0.9246283769607544,0.024186614900827408,-0.24646048247814178
1684206450121292000,0.4782919921875,-0.9549401998519897,0.045959290117025375,-0.25917521119117737
1684206450131318000,0.488318115234375,-0.9427597522735596,0.09271489083766937,-0.3357217013835907
1684206450141343200,0.49834326171875,-0.8725824952125549,0.09655730426311493,-0.3992309272289276
1684206450151369200,0.508369140625,-0.8863982558250427,0.1463160514831543,-0.4499897360801697
1684206450161394200,0.518394287109375,-0.9235786199569702,0.18745656311511993,-0.4599398374557495
1684206450171420200,0.528420166015625,-0.9337660074234009,0.13383498787879944,-0.45350712537765503
1684206450181445000,0.538445068359375,-0.95369952917099,0.04731154441833496,-0.45396867394447327
1684206450191470000,0.548469970703125,-1.0101509094238281,0.012010294944047928,-0.42612510919570923
1684206450201496000,0.55849609375,-1.114822268486023,0.015890521928668022,-0.3547944724559784
1684206450211521000,0.56852099609375,-1.2799962759017944,0.007669875398278236,-0.3387044668197632
1684206450221547000,0.578547119140625,-1.428175926208496,-0.0400337316095829,-0.3759082853794098
1684206450231572200,0.588572265625,-1.5486218929290771,-0.06926992535591125,-0.467418372631073
1684206450241598200,0.59859814453125,-1.6721680164337158,-0.11716314405202866,-0.5299278497695923
1684206450251623200,0.608623046875,-1.769768476486206,-0.15623846650123596,-0.5239638090133667
1684206450261649200,0.618649169921875,-1.8498337268829346,-0.01673915982246399,-0.498543918132782
1684206450271674000,0.628674072265625,-1.8927162885665894,0.23045337200164795,-0.5304351449012756
1684206450281700000,0.6387001953125,-1.7760889530181885,0.49853864312171936,-0.5154061317443848
1684206450291725000,0.64872509765625,-1.7268575429916382,0.5067561864852905,-0.526528000831604
1684206450301751000,0.6587509765625,-1.949387550354004,0.23383276164531708,-0.5618207454681396
1684206450311776300,0.6687763671875,-2.2835733890533447,-0.04438013583421707,-0.6479040384292603
1684206450321802200,0.67880224609375,-2.4489359855651855,-0.08398453891277313,-0.48930320143699646
1684206450331827200,0.6888271484375,-2.2340798377990723,-0.17334485054016113,-0.36813822388648987
1684206450341853200,0.698853271484375,-1.7933012247085571,-0.24654529988765717,-0.33729031682014465
1684206450351878100,0.708878173828125,-1.2034118175506592,-0.17889387905597687,-0.297698974609375
1684206450361904000,0.718904052734375,-0.44088616967201233,-0.07637149840593338,-0.272896945476532
1684206450371929000,0.72892919921875,-0.018213817849755287,0.1425221860408783,-0.17315465211868286
1684206450381955000,0.738955078125,0.2258521169424057,-0.15252064168453217,-0.14760376513004303
1684206450391980300,0.748980224609375,0.3539222478866577,-0.5457401275634766,-0.08775249123573303
1684206450402006300,0.75900634765625,0.44107499718666077,-0.7242653965950012,0.00616841297596693
1684206450412031200,0.76903125,0.4856311082839966,-0.7264266610145569,0.03784435614943504
1684206450422057200,0.77905712890625,0.47969892621040344,-0.575118899345398,0.06207779422402382
1684206450432082200,0.789082275390625,0.42066437005996704,-0.3725491166114807,0.0988616943359375
1684206450442108200,0.799108154296875,0.3037364184856415,-0.18074427545070648,0.11490936577320099
1684206450452133000,0.809133056640625,0.07560364902019501,0.05326298624277115,0.13359299302101135
1684206450462159000,0.8191591796875,0.04578103497624397,0.2659273147583008,0.09464213252067566
1684206450472184000,0.82918408203125,0.06008661910891533,0.24302354454994202,0.058195341378450394
1684206450482210000,0.8392099609375,0.032326892018318176,0.12484415620565414,0.0010811882093548775
1684206450492235300,0.8492353515625,0.0238552987575531,-0.004202159587293863,-0.03819868713617325
1684206450502261200,0.85926123046875,0.03526587784290314,-0.0866008922457695,-0.040460504591464996
1684206450512286200,0.8692861328125,0.03569290414452553,-0.1345568597316742,-0.036224156618118286
1684206450522312200,0.879312255859375,0.05665118247270584,-0.16331394016742706,-0.037720318883657455
1684206450532337200,0.889337158203125,0.03341889753937721,-0.2466525435447693,-0.06735935062170029
1684206450542363100,0.899363037109375,0.003324377117678523,-0.331260085105896,-0.13717065751552582
1684206450552388000,0.90938818359375,0.0009327391162514687,-0.3541201949119568,-0.19011172652244568
1684206450562414000,0.9194140625,-0.008422679267823696,-0.3928806483745575,-0.21696783602237701
1684206450572439300,0.929439208984375,-0.016467934474349022,-0.39860105514526367,-0.20746836066246033
1684206450582465300,0.93946533203125,-0.04059244692325592,-0.43570154905319214,-0.19988101720809937
1684206450592490200,0.949490234375,-0.044745225459337234,-0.4655459225177765,-0.2019452303647995
1684206450602516200,0.95951611328125,-0.06341052055358887,-0.48917001485824585,-0.19381992518901825
1684206450612541200,0.969541259765625,-0.07222026586532593,-0.5104624032974243,-0.19282852113246918
1684206450622567200,0.979567138671875,-0.06802099198102951,-0.5131122469902039,-0.1901850700378418
1684206450632592100,0.989592041015625,-0.06905186921358109,-0.4853566288948059,-0.18218575417995453
1684206450642617000,0.9996171875,-0.057287346571683884,-0.4296765923500061,-0.17164495587348938
1684206450652643300,1.009643310546875,-0.03059946559369564,-0.33937475085258484,-0.15350845456123352
1684206450662668000,1.01966796875,-0.006025947630405426,-0.21518942713737488,-0.11584309488534927
1684206450672694300,1.0296943359375,0.02052038535475731,-0.07840237021446228,-0.0647604763507843
1684206450682719000,1.039718994140625,0.07866784185171127,0.10542312264442444,-0.00036470755003392696
1684206450692745000,1.049744873046875,0.08947490155696869,0.24316123127937317,0.053378909826278687
1684206450702770000,1.05977001953125,0.09057531505823135,0.329321950674057,0.07272490859031677
1684206450712796000,1.0697958984375,0.08688933402299881,0.3893836736679077,0.06627046316862106
1684206450722821000,1.079821044921875,0.07347072660923004,0.4190747141838074,0.06330876052379608
1684206450732846800,1.089846923828125,0.07287030667066574,0.44800296425819397,0.05361752584576607
1684206450742872000,1.0998720703125,0.0863400399684906,0.4585067331790924,0.05008617416024208
1684206450752898000,1.10989794921875,0.07974935322999954,0.4308110773563385,0.025967830792069435
1684206450762923000,1.119923095703125,0.04725879058241844,0.3663037419319153,-0.01967422291636467
1684206450772949000,1.129948974609375,0.02605598047375679,0.29784685373306274,-0.08163642883300781
1684206450782974000,1.139973876953125,0.02497446909546852,0.24630536139011383,-0.13598808646202087
1684206450793003000,1.1500029296875,0.020721975713968277,0.20922337472438812,-0.18191272020339966
1684206450803028200,1.1600283203125,0.01535277720540762,0.18298111855983734,-0.21556921303272247
1684206450813054200,1.17005419921875,0.008699798956513405,0.1569601446390152,-0.22590692341327667
1684206450823079200,1.1800791015625,0.0004983281251043081,0.1379217505455017,-0.21885140240192413
1684206450833105200,1.190105224609375,-0.006672986783087254,0.15742293000221252,-0.19545026123523712
1684206450843130000,1.200130126953125,-0.00860883854329586,0.21307234466075897,-0.16209949553012848
1684206450853156000,1.210156005859375,-0.005806258879601955,0.2796231806278229,-0.12460286915302277
1684206450863181000,1.22018115234375,-0.005437145009636879,0.351047545671463,-0.09372404962778091
1684206450873207000,1.23020703125,0.0017738847527652979,0.41487348079681396,-0.05740312114357948
1684206450883232000,1.24023193359375,0.007719125598669052,0.4928196966648102,-0.02337351255118847
1684206450893258000,1.250258056640625,0.01743432506918907,0.561883807182312,0.013414276763796806
1684206450903283200,1.260283203125,0.02638867124915123,0.6145097017288208,0.04875681921839714
1684206450913309200,1.27030908203125,0.034863851964473724,0.6533135771751404,0.07716044038534164
1684206450923334100,1.280334228515625,0.04241657629609108,0.6793051958084106,0.1067550852894783
1684206450933358800,1.29035888671875,0.045685406774282455,0.7094098925590515,0.12315595895051956
1684206450943384800,1.300384765625,0.049649253487586975,0.7240442037582397,0.1286146342754364
1684206450953409800,1.310409912109375,0.057713862508535385,0.7302095293998718,0.13101957738399506
1684206450963435800,1.320435791015625,0.09099378436803818,0.7597761750221252,0.12293235957622528
1684206450973461000,1.3304609375,0.047038137912750244,0.7075245380401611,0.12093275785446167
1684206450983487000,1.340487060546875,-0.0021749488078057766,0.6446755528450012,0.10988783091306686
1684206450993512000,1.350511962890625,-0.033673230558633804,0.6262995600700378,0.08847915381193161
1684206451003538000,1.360537841796875,-0.04964234307408333,0.6152247786521912,0.08055491745471954
1684206451013563000,1.37056298828125,-0.016061587259173393,0.613893449306488,0.08570635318756104
1684206451023588900,1.3805888671875,0.05099707469344139,0.6086373925209045,0.09558507800102234
1684206451033613800,1.39061376953125,0.006405133754014969,0.4451362192630768,0.11308958381414413
1684206451043639800,1.400639892578125,-0.02638716623187065,0.32225531339645386,0.08507419377565384
1684206451053665000,1.4106650390625,0.004793763160705566,0.30574628710746765,0.05369020998477936
1684206451063691000,1.42069091796875,0.02954837866127491,0.2808837890625,0.06521690636873245
1684206451073716000,1.430716064453125,0.049092233180999756,0.25227686762809753,0.06886529177427292
1684206451083742000,1.440741943359375,0.0639372244477272,0.24257630109786987,0.04484944045543671
1684206451093767000,1.450766845703125,0.08728110045194626,0.2589227855205536,0.008353154174983501
1684206451103793000,1.46079296875,0.11318433284759521,0.2854638397693634,-0.022511817514896393
1684206451113817900,1.47081787109375,0.13168226182460785,0.29624706506729126,-0.057082585990428925
1684206451123843800,1.48084375,0.14363665878772736,0.32540440559387207,-0.08776166290044785
1684206451133869000,1.490869140625,0.1561504453420639,0.37463393807411194,-0.09529814124107361
1684206451143894800,1.500894775390625,0.17930983006954193,0.4342876672744751,-0.10146841406822205
1684206451153920000,1.510919921875,0.1630541831254959,0.5045540928840637,-0.10396413505077362
1684206451163946000,1.520946044921875,0.15273736417293549,0.5713000893592834,-0.10385628044605255
1684206451173971000,1.530970947265625,0.15721535682678223,0.6199074983596802,-0.12595608830451965
1684206451183996000,1.540995849609375,0.1451520323753357,0.6784821152687073,-0.1428450644016266
1684206451194022000,1.55102197265625,0.09243279695510864,0.7227681279182434,-0.0971183031797409
1684206451204046800,1.561046875,0.042787741869688034,0.728701114654541,-0.03881877288222313
1684206451214072800,1.57107275390625,0.002770458348095417,0.6200850009918213,0.010842391289770603
1684206451224098000,1.58109814453125,-0.025423094630241394,0.5040766596794128,0.058115895837545395
1684206451234124000,1.5911240234375,-0.026007814332842827,0.34454816579818726,0.06041155010461807
1684206451244149000,1.60114892578125,0.004682986997067928,0.14213833212852478,0.023778969421982765
1684206451254175000,1.611175048828125,0.03675752133131027,-0.032421406358480453,-0.028943579643964767
1684206451264200000,1.621199951171875,0.05610964447259903,-0.16373921930789948,-0.07599151879549026
1684206451274226000,1.631225830078125,0.08380354195833206,-0.2663668394088745,-0.16081750392913818
1684206451284251000,1.6412509765625,0.09596406668424606,-0.3154323995113373,-0.25499939918518066
1684206451294276900,1.65127685546875,0.10787461698055267,-0.3226943016052246,-0.31351491808891296
1684206451304302000,1.661302001953125,0.15259762108325958,-0.3914451599121094,-0.3249390721321106
1684206451314328000,1.671328125,0.1844046264886856,-0.5092070698738098,-0.27796369791030884
1684206451324353000,1.68135302734375,0.20377379655838013,-0.5920984745025635,-0.15057724714279175
1684206451334379000,1.69137890625,0.21139422059059143,-0.6596558094024658,0.04375412315130234
1684206451344404000,1.701404052734375,0.20657230913639069,-0.6306971311569214,0.28601232171058655
1684206451354430000,1.711429931640625,0.17758803069591522,-0.5836521983146667,0.4760873317718506
1684206451364455000,1.721454833984375,0.23661859333515167,-0.5277306437492371,0.522242546081543
1684206451374481000,1.73148095703125,0.393065869808197,-0.5249330997467041,0.4855276346206665
1684206451384506000,1.741506103515625,0.5077798962593079,-0.6095382571220398,0.5634400248527527
1684206451394531000,1.751531005859375,0.5454734563827515,-0.8656263947486877,0.5964556336402893
1684206451404557000,1.76155712890625,0.5733564496040344,-0.9992329478263855,0.6874191164970398
1684206451414582000,1.77158203125,0.608138918876648,-0.8360164761543274,0.8167836666107178
1684206451424608000,1.78160791015625,0.6041761040687561,-0.421954870223999,0.8857365846633911
1684206451434633000,1.791633056640625,0.4393259286880493,0.01419677585363388,0.9608765840530396
1684206451444659000,1.801658935546875,0.1969020962715149,0.3450450003147125,1.0914992094039917
1684206451454684000,1.811683837890625,0.08478982746601105,0.4291931092739105,1.2636430263519287
1684206451464710000,1.8217099609375,-0.01658046804368496,0.4131805896759033,1.4322704076766968
1684206451474735000,1.831735107421875,-0.07243255525827408,0.4768957495689392,1.556467056274414
1684206451484761000,1.841760986328125,-0.06582924723625183,0.4393734037876129,1.6170785427093506
1684206451494786000,1.8517861328125,0.053269755095243454,0.488444447517395,1.648682713508606
1684206451504812000,1.86181201171875,0.20143604278564453,0.6673441529273987,1.6305804252624512
1684206451514837000,1.8718369140625,0.32710668444633484,0.6881436109542847,1.6067038774490356
1684206451524863000,1.881863037109375,0.42241084575653076,0.5713618993759155,1.5932326316833496
1684206451534888000,1.891887939453125,0.46762922406196594,0.23380228877067566,1.5481431484222412
1684206451544914000,1.901913818359375,0.4695437550544739,-0.21217812597751617,1.4986733198165894
1684206451554939100,1.911939208984375,0.4582042992115021,-0.7140194177627563,1.424289345741272
1684206451564965000,1.921965087890625,0.46357935667037964,-0.9279535412788391,1.3336955308914185
1684206451574990000,1.931989990234375,0.5078534483909607,-0.9841792583465576,1.211597204208374
1684206451585016000,1.94201611328125,0.5749097466468811,-0.9490537643432617,1.0831941366195679
1684206451595041000,1.952041015625,0.6247847676277161,-0.7528455853462219,0.9840959310531616
1684206451605066000,1.96206591796875,0.7392634153366089,-0.5949912667274475,0.8595345616340637
1684206451615092000,1.972092041015625,0.8969825506210327,-0.5229950547218323,0.6932389736175537
1684206451625117200,1.9821171875,1.0219303369522095,-0.4299987852573395,0.5397884249687195
1684206451635143200,1.99214306640625,1.0818164348602295,-0.2989218533039093,0.40901920199394226
1684206451645168000,2.002168212890625,1.1043041944503784,-0.20783483982086182,0.32411229610443115
1684206451655194000,2.012194091796875,1.0652711391448975,-0.12832121551036835,0.2771024703979492
1684206451665219000,2.022218994140625,0.9912171363830566,-0.047600533813238144,0.2673124074935913
1684206451675245000,2.0322451171875,0.9236043691635132,-0.018041478469967842,0.28555455803871155
1684206451685270000,2.04227001953125,0.8723323941230774,-0.03771931305527687,0.3126034736633301
1684206451695296000,2.0522958984375,0.8387166857719421,-0.05166852846741676,0.3369593024253845
1684206451705321000,2.062321044921875,0.8415905237197876,-0.020581182092428207,0.32815277576446533
1684206451715347000,2.072346923828125,0.8455215692520142,0.12507979571819305,0.2677345871925354
1684206451725372200,2.0823720703125,0.8565028309822083,0.35618144273757935,0.19976112246513367
1684206451735398100,2.092398193359375,0.8364192843437195,0.5232887268066406,0.1720438003540039
1684206451745423000,2.102423095703125,0.7832775115966797,0.5705204010009766,0.19906316697597504
1684206451755449000,2.112448974609375,0.7364993691444397,0.6516675353050232,0.2712656259536743
1684206451765474000,2.12247412109375,0.6923790574073792,0.5982117652893066,0.31224632263183594
1684206451775500000,2.1325,0.6226755976676941,0.5921013355255127,0.34258872270584106
1684206451785525000,2.14252490234375,0.5858941674232483,0.5332316160202026,0.33712735772132874
1684206451795547400,2.15254736328125,0.5293726325035095,0.5209994912147522,0.3381454050540924
1684206451805573400,2.162573486328125,0.4891674518585205,0.5847499370574951,0.32285648584365845
1684206451815598600,2.1725986328125,0.443535715341568,0.6966066360473633,0.2985261082649231
1684206451825624600,2.18262451171875,0.38436266779899597,0.7593587040901184,0.2595946788787842
1684206451835649500,2.1926494140625,0.2998906970024109,0.7460197806358337,0.23120205104351044
1684206451845675500,2.202675537109375,0.20795570313930511,0.7085011601448059,0.18318259716033936
1684206451855700500,2.212700439453125,0.12602947652339935,0.6959842443466187,0.13735954463481903
1684206451865726500,2.2227265625,0.061804965138435364,0.7122266292572021,0.11583402007818222
1684206451875751400,2.23275146484375,-0.005609932355582714,0.7183625102043152,0.08181345462799072
1684206451885777400,2.24277734375,-0.06356910616159439,0.7460407614707947,0.022320564836263657
1684206451895802600,2.252802734375,-0.10676246881484985,0.7405697107315063,-0.05817870423197746
1684206451905828400,2.262828369140625,-0.15317976474761963,0.684783935546875,-0.15358246862888336
1684206451915853600,2.272853515625,-0.17296582460403442,0.6296989321708679,-0.2217748612165451
1684206451925879600,2.282879638671875,-0.19479256868362427,0.5518292188644409,-0.3053256869316101
1684206451935904500,2.292904541015625,-0.21080443263053894,0.46201199293136597,-0.3801657259464264
1684206451945930500,2.302930419921875,-0.217803493142128,0.40632131695747375,-0.4155767261981964
1684206451955955500,2.31295556640625,-0.23712316155433655,0.24618197977542877,-0.477164089679718
1684206451965981400,2.3229814453125,-0.2498330920934677,0.13377128541469574,-0.5582685470581055
1684206451976006400,2.33300634765625,-0.23444627225399017,-0.07417338341474533,-0.6874048113822937
1684206451986031600,2.343031494140625,-0.2178688943386078,-0.23716922104358673,-0.8004922270774841
1684206451996057600,2.3530576171875,-0.2061922550201416,-0.37491554021835327,-0.8452092409133911
1684206452006082600,2.36308251953125,-0.17120949923992157,-0.5696591734886169,-0.8502484560012817
1684206452016108500,2.373108642578125,-0.11546032130718231,-0.7355008721351624,-0.8194380402565002
1684206452026133500,2.383133544921875,-0.04264364019036293,-0.8670336008071899,-0.7815926671028137
1684206452036159500,2.393159423828125,0.03585274890065193,-0.8732276558876038,-0.7343885898590088
1684206452046184400,2.403184326171875,0.07867984473705292,-0.7328806519508362,-0.6929221153259277
1684206452056210400,2.41321044921875,0.04772462695837021,-0.6158428192138672,-0.7161666750907898
1684206452066235600,2.423235595703125,-0.022398265078663826,-0.6615222096443176,-0.7719175815582275
1684206452076261600,2.43326171875,-0.11629639565944672,-0.8934097290039062,-0.8665483593940735
1684206452086286600,2.44328662109375,-0.21704883873462677,-1.292726993560791,-0.9833011031150818
1684206452096312600,2.4533125,-0.3270927369594574,-1.639835000038147,-1.0817887783050537
1684206452106337500,2.463337646484375,-0.39935174584388733,-1.8135929107666016,-1.1353532075881958
1684206452116363500,2.473363525390625,-0.47966858744621277,-1.7791311740875244,-1.1303638219833374
1684206452126388500,2.483388427734375,-0.5750142931938171,-1.6450839042663574,-1.0554722547531128
1684206452136414500,2.49341455078125,-0.7031354308128357,-1.5011316537857056,-0.9628166556358337
1684206452146439700,2.503439697265625,-0.8552770614624023,-1.3154631853103638,-0.8653929233551025
1684206452156465400,2.51346533203125,-1.0577694177627563,-1.0992172956466675,-0.7969557046890259
1684206452166490600,2.52349072265625,-1.2210134267807007,-0.8519246578216553,-0.7526721358299255
1684206452176516600,2.5335166015625,-1.320853590965271,-0.6461756229400635,-0.672400176525116
1684206452186541600,2.54354150390625,-1.363129734992981,-0.5210259556770325,-0.5107417702674866
1684206452196567600,2.553567626953125,-1.346089243888855,-0.14561109244823456,-0.31159958243370056
1684206452206592500,2.563592529296875,-0.949355959892273,0.7674784660339355,-0.008302806876599789
1684206452216617500,2.573617431640625,-0.09064344316720963,1.3648675680160522,0.5054179430007935
1684206452226643500,2.5836435546875,0.862053394317627,1.3880867958068848,0.7796388268470764
1684206452236668400,2.59366845703125,1.7057971954345703,0.9461042881011963,0.5586156249046326
1684206452246694700,2.603694580078125,2.094630718231201,0.7231122255325317,0.3173694312572479
1684206452256719400,2.61371923828125,1.406413197517395,0.9191930890083313,0.4088335931301117
1684206452266745600,2.62374560546875,0.23532192409038544,1.078375220298767,0.44642728567123413
1684206452276770300,2.633770263671875,-0.03181420639157295,0.6501874327659607,0.21430470049381256
1684206452286796500,2.643796630859375,-0.23198539018630981,-0.40587949752807617,-0.20341557264328003
1684206452296821200,2.6538212890625,-0.3999766707420349,-1.5295500755310059,-0.5566413402557373
1684206452306847500,2.663847412109375,-0.5104235410690308,-2.3616816997528076,-0.896340548992157
1684206452316872400,2.67387255859375,-0.5709540247917175,-2.634742498397827,-1.1871405839920044
1684206452326898700,2.683898681640625,-0.4637969434261322,-2.7154829502105713,-1.3580139875411987
1684206452336923400,2.69392333984375,-0.2623138725757599,-2.774620294570923,-1.3399730920791626
1684206452346949600,2.70394970703125,-0.09552010148763657,-2.719742774963379,-1.1708670854568481
1684206452356974300,2.713974365234375,0.02534915879368782,-2.382981300354004,-0.9562395215034485
1684206452367000600,2.72400048828125,0.03479645401239395,-1.7369779348373413,-0.7536299824714661
1684206452377025300,2.734025390625,-0.06589937210083008,-0.9967712759971619,-0.556674599647522
1684206452387050500,2.744050537109375,-0.16705848276615143,-0.4335441291332245,-0.4054070711135864
1684206452397076500,2.754076416015625,-0.19485679268836975,-0.13091984391212463,-0.2762255072593689
1684206452407101400,2.764101318359375,-0.20485243201255798,-0.000171677180333063,-0.16903512179851532
1684206452417127400,2.77412744140625,-0.27150195837020874,0.07526011765003204,-0.07947792112827301
1684206452427152400,2.78415234375,-0.3177222013473511,0.1891573965549469,-0.027216583490371704
1684206452437178400,2.794178466796875,-0.33840861916542053,0.32383060455322266,-0.01754249818623066
1684206452447203300,2.804203369140625,-0.32215988636016846,0.2987252473831177,-0.07515839487314224
1684206452457229300,2.814229248046875,-0.2789795398712158,0.16629913449287415,-0.17716830968856812
1684206452467254500,2.824254638671875,-0.20424802601337433,-0.03406751900911331,-0.31419140100479126
1684206452477280300,2.8342802734375,-0.10618159919977188,-0.2732861638069153,-0.4064211845397949
1684206452487305500,2.844305419921875,-0.024454783648252487,-0.5111527442932129,-0.43908005952835083
1684206452497331500,2.85433154296875,0.013340376317501068,-0.685206413269043,-0.41990795731544495
1684206452507356400,2.8643564453125,0.06346746534109116,-0.6858029365539551,-0.3760659098625183
1684206452517382400,2.87438232421875,0.10112246125936508,-0.5605864524841309,-0.3244456946849823
1684206452527407400,2.884407470703125,0.13085052371025085,-0.41696029901504517,-0.2761348783969879
1684206452537433300,2.894433349609375,0.1644151210784912,-0.29539602994918823,-0.2315649688243866
1684206452547458300,2.904458251953125,0.16773155331611633,-0.19996006786823273,-0.17649532854557037
1684206452557483500,2.9144833984375,0.1653829962015152,-0.10754857212305069,-0.15458422899246216
1684206452567509500,2.924509521484375,0.1648482382297516,-0.041578877717256546,-0.1670616716146469
1684206452577534500,2.934534423828125,0.16430914402008057,0.05668962746858597,-0.15360558032989502
1684206452587560400,2.944560546875,0.16981762647628784,0.21250611543655396,-0.11159820854663849
1684206452597585400,2.95458544921875,0.1912197321653366,0.38323143124580383,-0.03892862796783447
1684206452607611400,2.964611328125,0.21782363951206207,0.6311110258102417,0.051555734127759933
1684206452617636400,2.97463623046875,0.19443471729755402,0.6819509863853455,0.09810944646596909
1684206452627662300,2.984662353515625,0.15323027968406677,0.752600908279419,0.1541636437177658
1684206452637687600,2.9946875,0.08933194726705551,0.851443350315094,0.2084706574678421
1684206452647713500,3.004713623046875,0.007647203281521797,0.9655606150627136,0.2560858428478241
1684206452657738500,3.014738525390625,-0.06521006673574448,1.0648170709609985,0.26377010345458984
1684206452667764500,3.024764404296875,-0.11662238836288452,1.0720716714859009,0.23138658702373505
1684206452677789400,3.03478955078125,-0.11876529455184937,1.0025510787963867,0.2085440307855606
1684206452687815400,3.0448154296875,-0.09985658526420593,0.942958652973175,0.20563238859176636
1684206452697840400,3.05484033203125,-0.1017865538597107,0.9063980579376221,0.20582933723926544
1684206452707866400,3.064866455078125,-0.13173086941242218,0.969012975692749,0.24468272924423218
1684206452717891300,3.074891357421875,-0.11462640762329102,0.9343878030776978,0.23558612167835236
1684206452727916500,3.08491650390625,-0.12018655985593796,0.973153829574585,0.21265442669391632
1684206452737942500,3.094942626953125,-0.1435638964176178,1.0339943170547485,0.21219578385353088
1684206452747967500,3.104967529296875,-0.1590331345796585,1.0797455310821533,0.2067165970802307
1684206452757993500,3.114993408203125,-0.1571926325559616,1.0819827318191528,0.19782373309135437
1684206452768018400,3.125018310546875,-0.13283030688762665,1.0574119091033936,0.21697399020195007
1684206452778044400,3.13504443359375,-0.12578043341636658,1.057267189025879,0.2665947675704956
1684206452788069400,3.1450693359375,-0.11327610164880753,1.0689594745635986,0.3128208518028259
1684206452798095600,3.155095703125,-0.09727152436971664,1.079784631729126,0.32645779848098755
1684206452808120800,3.165120849609375,-0.07194725424051285,1.1346266269683838,0.29978546500205994
1684206452818146800,3.175146728515625,-0.05588250979781151,1.2188494205474854,0.28336209058761597
1684206452828171800,3.185171875,-0.008403673768043518,1.3132222890853882,0.30024227499961853
1684206452838197800,3.19519775390625,0.06641978770494461,1.3742526769638062,0.30396345257759094
1684206452848222700,3.20522265625,0.1510811448097229,1.432531714439392,0.27091705799102783
1684206452858248700,3.215248779296875,0.24327057600021362,1.4827172756195068,0.21341446042060852
1684206452868273700,3.225273681640625,0.3203358054161072,1.4761857986450195,0.1547684520483017
1684206452878299000,3.235298828125,0.37929755449295044,1.3285841941833496,0.10315821319818497
1684206452888324900,3.245324951171875,0.4436357915401459,1.0778566598892212,0.05927890166640282
1684206452898349800,3.255349853515625,0.5204278826713562,0.8620678782463074,0.06527207046747208
1684206452908375800,3.265375732421875,0.561835527420044,0.6844726204872131,0.042085256427526474
1684206452918400800,3.27540087890625,0.5803224444389343,0.5961455702781677,0.06993883848190308
1684206452928426800,3.2854267578125,0.5446387529373169,0.5031834244728088,0.18829850852489471
1684206452938451700,3.29545166015625,0.21208012104034424,0.41229337453842163,0.20212504267692566
1684206452948477700,3.305477783203125,-0.0997275784611702,0.06928406655788422,-0.011264998465776443
1684206452958502700,3.315502685546875,-0.1572435349225998,0.24567455053329468,0.14804507791996002
1684206452968528600,3.325528564453125,-0.24564211070537567,-0.08423464000225067,-0.0171209666877985
1684206452978553900,3.335553955078125,-0.25139570236206055,-0.18425819277763367,-0.05636872351169586
1684206452988579800,3.345579833984375,-0.2951016128063202,-0.12635734677314758,0.0072608524933457375
1684206452998604800,3.355604736328125,-0.41530120372772217,-0.09305301308631897,-0.03844444081187248
1684206453008629800,3.365629638671875,-0.27711349725723267,0.04473867267370224,0.05494436249136925
1684206453018655700,3.37565576171875,-0.34102514386177063,0.01440422236919403,0.01681222952902317
1684206453028680700,3.3856806640625,-0.340137779712677,0.0513414666056633,-0.023215079680085182
1684206453038706700,3.395706787109375,-0.31509166955947876,0.03319414332509041,-0.0781591385602951
1684206453048732000,3.40573193359375,-0.28046897053718567,-0.00215000007301569,-0.135008305311203
1684206453058758000,3.4157578125,-0.23621876537799835,-0.049575578421354294,-0.17583969235420227
1684206453068782800,3.425782958984375,-0.17084774374961853,-0.08704198896884918,-0.22433798015117645
1684206453078808800,3.435808837890625,-0.10671323537826538,-0.11756658554077148,-0.26753342151641846
1684206453088833800,3.445833740234375,-0.03798716887831688,-0.13630644977092743,-0.30332523584365845
1684206453098859800,3.45585986328125,0.008610392920672894,-0.15506896376609802,-0.35294169187545776
1684206453108884700,3.465884765625,0.06115802377462387,-0.20191262662410736,-0.40692904591560364
1684206453118910700,3.47591064453125,0.11505594104528427,-0.2973984181880951,-0.4605293273925781
1684206453128936000,3.48593603515625,0.15823963284492493,-0.37504100799560547,-0.48617053031921387
1684206453138961000,3.4959609375,0.1669754683971405,-0.38705477118492126,-0.4686340093612671
1684206453148987000,3.50598681640625,0.13086220622062683,-0.33808642625808716,-0.40413516759872437
1684206453159011800,3.51601171875,0.04355230554938316,-0.2098766416311264,-0.28647682070732117
1684206453169037800,3.526037841796875,-0.045492615550756454,-0.13167504966259003,-0.1832423061132431
1684206453179062800,3.536062744140625,-0.15661819279193878,-0.07273619621992111,-0.06532984226942062
1684206453189088800,3.5460888671875,-0.2730771601200104,0.06977594643831253,0.048377543687820435
1684206453199113700,3.55611376953125,-0.3527677059173584,0.2536683678627014,0.08017496764659882
1684206453209139700,3.5661396484375,-0.4252070188522339,0.3707934021949768,0.07622762024402618
1684206453219165000,3.5761650390625,-0.4923422336578369,0.404732346534729,0.08825575560331345
1684206453229191000,3.58619091796875,-0.549502432346344,0.44351726770401,0.09383800625801086
1684206453239215900,3.5962158203125,-0.5870722532272339,0.5122805237770081,0.0741397961974144
1684206453249241900,3.606241943359375,-0.591841995716095,0.612484872341156,0.05736242234706879
1684206453259266800,3.616266845703125,-0.5775431990623474,0.7307572960853577,0.077324777841568
1684206453269291500,3.62629150390625,-0.5570405721664429,0.8199598789215088,0.11178208887577057
1684206453279317800,3.63631787109375,-0.5323171019554138,0.8512917757034302,0.11343474686145782
1684206453289342700,3.6463427734375,-0.4951283931732178,0.8505911231040955,0.07911698520183563
1684206453299369000,3.656368896484375,-0.45740482211112976,0.8098670244216919,0.047259293496608734
1684206453309393700,3.6663935546875,-0.4364771544933319,0.7170390486717224,0.007687383331358433
1684206453319420000,3.676419921875,-0.4216436445713043,0.6316329836845398,-0.030727725476026535
1684206453329444600,3.686444580078125,-0.403582900762558,0.6193557977676392,-0.04668991267681122
1684206453339470800,3.696470947265625,-0.37777769565582275,0.6434987187385559,-0.08336000889539719
1684206453349495600,3.70649560546875,-0.3609534204006195,0.644385814666748,-0.10672951489686966
1684206453359521800,3.716521728515625,-0.3568195700645447,0.5541121363639832,-0.10040079057216644
1684206453369546800,3.726546630859375,-0.3580433130264282,0.36951351165771484,-0.0799088329076767
1684206453379571700,3.73657177734375,-0.3316776752471924,0.22285765409469604,-0.03977690637111664
1684206453389597700,3.74659765625,-0.25987833738327026,0.16077271103858948,-0.0434454083442688
1684206453399622700,3.75662255859375,-0.18856890499591827,0.11227957904338837,-0.08701136708259583
1684206453409648600,3.766648681640625,-0.11729605495929718,0.04624010622501373,-0.10717335343360901
1684206453419673600,3.776673583984375,-0.04368505999445915,-0.009026091545820236,-0.0839952826499939
1684206453429699600,3.786699462890625,0.01956075429916382,0.011327649466693401,-0.01995185576379299
1684206453439724800,3.796724853515625,0.05468793585896492,0.09662984311580658,0.04721806198358536
1684206453449750800,3.806750732421875,0.06529637426137924,0.14291024208068848,0.1334160566329956
1684206453459775700,3.816775634765625,0.056942448019981384,0.08905573189258575,0.20626087486743927
1684206453469801700,3.8268017578125,0.05174528807401657,0.055716682225465775,0.24860221147537231
1684206453479826700,3.83682666015625,0.10454435646533966,0.09916027635335922,0.28246983885765076
1684206453489851600,3.8468515625,0.0766272321343422,0.11762290447950363,0.3251288831233978
1684206453499877600,3.856877685546875,0.08560610562562943,0.15092451870441437,0.35140207409858704
1684206453509902600,3.866902587890625,0.07425332069396973,0.18656852841377258,0.3552761673927307
1684206453519928600,3.876928466796875,0.06161767989397049,0.21228374540805817,0.35630762577056885
1684206453529953800,3.886953857421875,-0.007690283469855785,0.22658732533454895,0.3589681088924408
1684206453539979800,3.896979736328125,-0.056039951741695404,0.20747467875480652,0.3646296262741089
1684206453550004700,3.907004638671875,-0.11420498788356781,0.12288442999124527,0.3417876958847046
1684206453560030700,3.91703076171875,-0.15833643078804016,0.0005444954731501639,0.2904329001903534
1684206453570055700,3.9270556640625,-0.18538697063922882,-0.1075500100851059,0.2641581594944
1684206453580081700,3.93708154296875,-0.19352883100509644,-0.20435012876987457,0.2733851671218872
1684206453590106600,3.947106689453125,-0.1830274611711502,-0.3186849355697632,0.31118711829185486
1684206453600131800,3.9571318359375,-0.1381887048482895,-0.37496456503868103,0.36657965183258057
1684206453610157800,3.96715771484375,-0.03523462638258934,-0.3205082416534424,0.42141279578208923
1684206453620182800,3.977182861328125,0.11079157888889313,-0.16612392663955688,0.5123518705368042
1684206453630208800,3.987208740234375,0.2613123953342438,-0.01566064916551113,0.6343891024589539
1684206453640233700,3.997233642578125,0.45755037665367126,0.15252135694026947,0.7691112160682678
1684206453650259700,4.007259765625,0.656873881816864,0.30457136034965515,0.9393628239631653
1684206453660284700,4.01728466796875,0.8218372464179993,0.45399120450019836,1.1127846240997314
1684206453670310700,4.027310546875,0.986237645149231,0.5517393350601196,1.2162787914276123
1684206453680336000,4.0373359375,1.1132067441940308,0.7164837121963501,1.2749407291412354
1684206453690360800,4.04736083984375,1.185383677482605,0.8341615796089172,1.2820937633514404
1684206453700386800,4.05738671875,1.1962817907333374,0.8745943307876587,1.2334216833114624
1684206453710411800,4.067411865234375,1.1936577558517456,0.7736759781837463,1.1607521772384644
1684206453720437800,4.077437744140625,1.2326048612594604,0.6152303218841553,1.1123673915863037
1684206453730462700,4.087462646484375,1.246327519416809,0.3923359811306,1.0632121562957764
1684206453740488700,4.09748876953125,1.2176804542541504,0.1838485300540924,1.0027425289154053
1684206453750514000,4.107513916015625,1.1864876747131348,0.030587080866098404,0.9153735637664795
1684206453760539600,4.11753955078125,1.1598871946334839,-0.13410121202468872,0.8238885998725891
1684206453770564900,4.12756494140625,1.1181211471557617,-0.32042473554611206,0.7883897423744202
1684206453780590800,4.1375908203125,1.0744191408157349,-0.46338894963264465,0.7768836617469788
1684206453790615800,4.14761572265625,1.065307378768921,-0.5341259837150574,0.8113422989845276
1684206453800640300,4.15764013671875,1.0280083417892456,-0.45008426904678345,0.8509570360183716
1684206453810666200,4.167666259765625,1.0340031385421753,-0.663962185382843,0.7833228707313538
1684206453820691500,4.17769140625,1.062139630317688,-0.936588704586029,0.6925944089889526
1684206453830717400,4.187717529296875,1.034257173538208,-1.175756573677063,0.5857497453689575
1684206453840742400,4.197742431640625,0.9758524894714355,-1.590164303779602,0.4407871961593628
1684206453850768400,4.207768310546875,0.9701959490776062,-1.8507837057113647,0.4022509753704071
1684206453860793300,4.21779345703125,1.0080771446228027,-1.7416038513183594,0.5216681957244873
1684206453870819300,4.2278193359375,1.1073979139328003,-1.3114200830459595,0.6523976922035217
1684206453880844300,4.23784423828125,1.1686409711837769,-0.7614258527755737,0.7089387774467468
1684206453890869200,4.247869140625,1.1249397993087769,-0.4037180244922638,0.6465646028518677
1684206453900895200,4.257895263671875,1.0078874826431274,-0.39845097064971924,0.4796203672885895
1684206453910920200,4.267920166015625,0.8695767521858215,-0.5292438864707947,0.3334524929523468
1684206453920946400,4.277946533203125,0.7573778033256531,-0.630846381187439,0.26340603828430176
1684206453930971100,4.28797119140625,0.675192654132843,-0.7306984066963196,0.2257060557603836
1684206453940997400,4.297997314453125,0.5567810535430908,-0.807237446308136,0.16452215611934662
1684206453951022000,4.30802197265625,0.40802377462387085,-0.8464934825897217,0.09660383313894272
1684206453961048300,4.31804833984375,0.29557231068611145,-0.845785915851593,0.015180383808910847
1684206453971073000,4.328072998046875,0.18034586310386658,-0.8085485100746155,-0.08704318851232529
1684206453981099300,4.338099365234375,0.08404448628425598,-0.7668827176094055,-0.19568412005901337
1684206453991124200,4.348124267578125,-0.01945767179131508,-0.7153433561325073,-0.2936383783817291
1684206454001149200,4.358149169921875,-0.13430356979370117,-0.610235869884491,-0.36604225635528564
1684206454011175200,4.368175048828125,-0.24188701808452606,-0.47729378938674927,-0.43761497735977173
1684206454021200100,4.3782001953125,-0.33988961577415466,-0.32875746488571167,-0.5204012393951416
1684206454031226000,4.38822607421875,-0.4289694130420685,-0.20369917154312134,-0.6158896684646606
1684206454041251000,4.3982509765625,-0.5402743816375732,-0.04828847944736481,-0.7279059886932373
1684206454051277000,4.408277099609375,-0.6327829957008362,0.1434098482131958,-0.839934229850769
1684206454061302300,4.41830224609375,-0.7081651091575623,0.3644978404045105,-0.9313544034957886
1684206454071328300,4.428328369140625,-0.786111056804657,0.5724537372589111,-0.9882397651672363
1684206454081353200,4.438353271484375,-0.8702719807624817,0.7490125298500061,-1.0092839002609253
1684206454091378200,4.448378173828125,-0.9203391671180725,0.8284546136856079,-0.9802740812301636
1684206454101404200,4.458404052734375,-0.9371868968009949,0.770338773727417,-0.8505183458328247
1684206454111429000,4.46842919921875,-0.9045975208282471,0.5627259016036987,-0.6575211882591248
1684206454121455000,4.478455078125,-0.8262747526168823,0.17823851108551025,-0.38568568229675293
1684206454131480300,4.488480224609375,-0.7254040837287903,-0.2984377443790436,-0.0286460742354393
1684206454141506300,4.49850634765625,-0.5871094465255737,-0.7114315032958984,0.29922276735305786
1684206454151531300,4.50853125,-0.3265068829059601,-0.8136194348335266,0.42244404554367065
1684206454161557200,4.51855712890625,0.011422800831496716,-0.4043739438056946,0.3821624517440796
1684206454171582200,4.528582275390625,0.40096843242645264,0.3755783140659332,0.2936954200267792
1684206454181608200,4.538608154296875,0.6736288070678711,1.4170935153961182,0.20148977637290955
1684206454191633200,4.548633056640625,0.7087143063545227,2.22198748588562,0.08382118493318558
1684206454201658400,4.558658447265625,0.712406575679779,2.553493022918701,0.011622346006333828
1684206454211684400,4.568684326171875,0.6667690277099609,2.419002056121826,-0.005102305673062801
1684206454221709300,4.578709228515625,0.5366564393043518,1.807633638381958,-0.011114009656012058
1684206454231735300,4.5887353515625,0.40305814146995544,0.8567799925804138,-0.0405706986784935
1684206454241760300,4.59876025390625,0.32454386353492737,-0.00926597137004137,-0.11493265628814697
1684206454251786200,4.6087861328125,0.30826929211616516,-0.6147372126579285,-0.3005177080631256
1684206454261811200,4.618811279296875,0.36952435970306396,-0.8627408146858215,-0.5461207628250122
1684206454271837200,4.628837158203125,0.47710490226745605,-0.8302673101425171,-0.772831916809082
1684206454281862100,4.638862060546875,0.5296841263771057,-0.6164560317993164,-0.8900453448295593
1684206454291887400,4.648887451171875,0.4675331711769104,-0.38570085167884827,-0.856889009475708
1684206454301913300,4.658913330078125,0.3271259069442749,-0.27519458532333374,-0.7954512238502502
1684206454311938300,4.668938232421875,0.14233526587486267,-0.26855477690696716,-0.7738045454025269
1684206454321964300,4.67896435546875,-0.03426343947649002,-0.3431627154350281,-0.7920911908149719
1684206454331989200,4.6889892578125,-0.14482642710208893,-0.46717068552970886,-0.8554416298866272
1684206454342015200,4.69901513671875,-0.14470258355140686,-0.623974621295929,-1.017020344734192
1684206454352040200,4.709040283203125,-0.0616614893078804,-0.753086268901825,-1.2501264810562134
1684206454362066200,4.719066162109375,0.013530581258237362,-0.8047364354133606,-1.3952440023422241
1684206454372091400,4.72909130859375,-0.077356718480587,-0.830839991569519,-1.3126591444015503
1684206454382117400,4.739117431640625,-0.29898130893707275,-0.8684232831001282,-1.1119681596755981
1684206454392142300,4.749142333984375,-0.5145562291145325,-0.7687315940856934,-0.8791032433509827
1684206454402167300,4.759167236328125,-0.6700831055641174,-0.5548266768455505,-0.6996309757232666
1684206454412193300,4.769193359375,-0.7753455638885498,-0.1791721135377884,-0.5826324224472046
1684206454422218200,4.77921826171875,-0.8609628677368164,0.2548834979534149,-0.5065999031066895
1684206454432244200,4.789244140625,-0.9215553998947144,0.6119945049285889,-0.4415697753429413
1684206454442269400,4.79926953125,-0.9764406681060791,0.7848618626594543,-0.4010372757911682
1684206454452295400,4.80929541015625,-1.0368024110794067,0.7830056548118591,-0.3680516183376312
1684206454462320400,4.8193203125,-1.0590693950653076,0.6802086234092712,-0.354192852973938
1684206454472346400,4.829346435546875,-1.0440741777420044,0.5750629901885986,-0.3598419725894928
1684206454482371300,4.839371337890625,-1.00902259349823,0.465642511844635,-0.36743760108947754
1684206454492397300,4.849397216796875,-0.9257713556289673,0.31575632095336914,-0.38267436623573303
1684206454502422300,4.85942236328125,-0.8442021608352661,0.15092892944812775,-0.38669443130493164
1684206454512447200,4.869447265625,-0.8093938827514648,0.010868239216506481,-0.3629113435745239
1684206454522473200,4.87947314453125,-0.8129429221153259,-0.08064766228199005,-0.32355165481567383
1684206454532498400,4.88949853515625,-0.8634279370307922,-0.1165366917848587,-0.280576229095459
1684206454542524400,4.8995244140625,-0.8887291550636292,-0.13108384609222412,-0.20563384890556335
1684206454552549400,4.90954931640625,-0.836058497428894,-0.17326192557811737,-0.12671266496181488
1684206454562575400,4.919575439453125,-0.7102953195571899,-0.20612569153308868,-0.07033611088991165
1684206454572600300,4.929600341796875,-0.5009767413139343,-0.19535399973392487,-0.04465018957853317
1684206454582626300,4.939626220703125,-0.22742441296577454,-0.15570227801799774,-0.061918653547763824
1684206454592651300,4.9496513671875,0.01669131964445114,0.004500179551541805,-0.0898301750421524
1684206454602676200,4.95967626953125,0.2368265688419342,0.21125982701778412,-0.10013709217309952
1684206454612702500,4.969702392578125,0.3656143844127655,0.32491371035575867,-0.056023694574832916
1684206454622727200,4.97972705078125,0.3935874402523041,0.23659732937812805,0.06854812055826187
1684206454632753400,4.98975341796875,0.3415050804615021,0.04088534787297249,0.23034445941448212
1684206454642778000,4.999778076171875,0.23898079991340637,-0.27189901471138,0.3190145790576935
1684206454652804000,5.00980419921875,0.09037427604198456,-0.6013488173484802,0.29016613960266113
1684206454662829000,5.0198291015625,-0.10703611373901367,-0.8483414649963379,0.16864237189292908
1684206454672855000,5.02985498046875,-0.25828874111175537,-1.0187995433807373,0.03787211328744888
1684206454682880300,5.03988037109375,-0.40815603733062744,-1.0985232591629028,-0.047534771263599396
1684206454692905200,5.0499052734375,-0.49528536200523376,-1.073046088218689,-0.06680407375097275
1684206454702931200,5.05993115234375,-0.5226768851280212,-1.056563138961792,-0.12336529046297073
1684206454712956200,5.0699560546875,-0.5004525184631348,-0.9682756066322327,-0.23187072575092316
1684206454722982100,5.079982177734375,-0.43513473868370056,-0.7715217471122742,-0.3144659698009491
1684206454733007000,5.090007080078125,-0.3403909206390381,-0.6136136054992676,-0.3838663697242737
1684206454743033000,5.100033203125,-0.27035167813301086,-0.5800725221633911,-0.4284124970436096
1684206454753058300,5.110058349609375,-0.2099573165178299,-0.5777931213378906,-0.43765178322792053
1684206454763084300,5.120084228515625,-0.13807998597621918,-0.628831148147583,-0.43242454528808594
1684206454773109200,5.130109130859375,-0.0755218043923378,-0.7824643850326538,-0.4259466528892517
1684206454783135200,5.14013525390625,-0.015210730023682117,-0.9878284335136414,-0.4058234989643097
1684206454793159700,5.15015966796875,0.025649085640907288,-1.178234338760376,-0.387306272983551
1684206454803184600,5.1601845703125,0.0494387112557888,-1.372902274131775,-0.38399603962898254
1684206454813210600,5.170210693359375,0.09121651947498322,-1.5061569213867188,-0.39478451013565063
1684206454823235800,5.18023583984375,0.09833478927612305,-1.5880051851272583,-0.4619113504886627
1684206454833261800,5.19026171875,0.09934279322624207,-1.48581862449646,-0.5182912349700928
1684206454843286800,5.200286865234375,0.07787064462900162,-1.376905918121338,-0.566564679145813
1684206454853312800,5.210312744140625,0.026476962491869926,-1.3271466493606567,-0.5856553316116333
1684206454863337700,5.220337646484375,-0.030764933675527573,-1.267228603363037,-0.5856530070304871
1684206454873363700,5.23036376953125,-0.09032493084669113,-1.142469048500061,-0.5851962566375732
1684206454883388700,5.240388671875,-0.1510019451379776,-0.9533637762069702,-0.5617938041687012
1684206454893414000,5.250413818359375,-0.21750906109809875,-0.7209808230400085,-0.5219284296035767
1684206454903440000,5.26043994140625,-0.28732940554618835,-0.451707661151886,-0.46661505103111267
1684206454913464800,5.27046484375,-0.29332178831100464,-0.2130679339170456,-0.3947179615497589
1684206454923490800,5.28049072265625,-0.279793381690979,0.07540301978588104,-0.3312627673149109
1684206454933515800,5.290515869140625,-0.28222033381462097,0.40092360973358154,-0.22972603142261505
1684206454943541800,5.300541748046875,-0.2711685597896576,0.719443142414093,-0.11127198487520218
1684206454953566700,5.310566650390625,-0.21969819068908691,1.0177743434906006,0.002991469344124198
1684206454963592700,5.3205927734375,-0.14093363285064697,1.1484694480895996,0.033862724900245667
1684206454973618000,5.330617919921875,-0.0569111630320549,1.1944001913070679,0.029829099774360657
1684206454983643000,5.340642822265625,0.012421729974448681,1.237886905670166,0.057183749973773956
1684206454993668900,5.3506689453125,0.061690475791692734,1.2756409645080566,0.10350944101810455
1684206455003693800,5.36069384765625,0.09246142953634262,1.2926214933395386,0.13895472884178162
1684206455013719800,5.3707197265625,0.09275171160697937,1.2284201383590698,0.16158653795719147
1684206455023744800,5.380744873046875,0.08114905655384064,1.1189988851547241,0.15314005315303802
1684206455033770800,5.390770751953125,0.05373474955558777,0.9951753616333008,0.1203397586941719
1684206455043795700,5.400795654296875,0.03244880214333534,0.8566127419471741,0.08118034899234772
1684206455053821700,5.41082177734375,0.011274807155132294,0.7332290410995483,0.04617389664053917
1684206455063847000,5.420846923828125,-0.010557422414422035,0.6554913520812988,0.01671985723078251
1684206455073872000,5.430871826171875,-0.01869923807680607,0.5805276036262512,-0.02883031778037548
1684206455083897900,5.44089794921875,-0.03752514719963074,0.519294261932373,-0.058190181851387024
1684206455093922800,5.4509228515625,-0.06417273730039597,0.45344895124435425,-0.08096952736377716
1684206455103948800,5.46094873046875,-0.08851254731416702,0.40288451313972473,-0.08753165602684021
1684206455113973800,5.470973876953125,-0.11169829219579697,0.38979294896125793,-0.0788675919175148
1684206455123999700,5.480999755859375,-0.11977896839380264,0.3946245312690735,-0.06419970840215683
1684206455134025000,5.49102490234375,-0.11677145957946777,0.41601768136024475,-0.037265293300151825
1684206455144051000,5.501051025390625,-0.08519361913204193,0.4362693428993225,-0.035415202379226685
1684206455154076000,5.511075927734375,-0.05058957263827324,0.4964522421360016,-0.021399781107902527
1684206455164100900,5.521100830078125,-0.01463119313120842,0.5477861762046814,0.014537220820784569
1684206455174126800,5.531126953125,-0.0064574191346764565,0.6249885559082031,0.07809355854988098
1684206455184151800,5.54115185546875,-0.01778293401002884,0.7817972302436829,0.17959515750408173
1684206455194177800,5.551177734375,-0.03736649081110954,0.8848916888237,0.23408237099647522
1684206455204203000,5.561203125,-0.025592530146241188,0.9301173090934753,0.2421209216117859
1684206455214229000,5.57122900390625,-0.01977298967540264,1.0067476034164429,0.26536819338798523
1684206455224254000,5.58125390625,-0.015705246478319168,1.0954182147979736,0.28589680790901184
1684206455234280000,5.591280029296875,-0.01578647270798683,1.1340938806533813,0.27630650997161865
1684206455244305000,5.601304931640625,-0.0041083781979978085,1.0521211624145508,0.20957127213478088
1684206455254329900,5.611329833984375,-0.006239439360797405,0.9901872873306274,0.16967979073524475
1684206455264355800,5.62135595703125,-0.0422288216650486,1.0463918447494507,0.1936524510383606
1684206455274380800,5.631380859375,-0.07345278561115265,1.0194116830825806,0.20957495272159576
1684206455284406800,5.64140673828125,-0.0855068638920784,0.8798046112060547,0.20412814617156982
1684206455294432000,5.651431884765625,-0.09419889003038406,0.7408669590950012,0.19967108964920044
1684206455304458000,5.6614580078125,-0.07989611476659775,0.637317955493927,0.1954939216375351
1684206455314483000,5.67148291015625,-0.08213077485561371,0.5688355565071106,0.1990223377943039
1684206455324508000,5.6815078125,-0.08683107048273087,0.5333173274993896,0.19832366704940796
1684206455334534000,5.691533935546875,-0.09787626564502716,0.5348331928253174,0.17571955919265747
1684206455344558800,5.701558837890625,-0.11277107894420624,0.5965023040771484,0.1548951417207718
1684206455354584800,5.711584716796875,-0.14474578201770782,0.6324701905250549,0.10672946274280548
1684206455364609800,5.72160986328125,-0.18122456967830658,0.6789138317108154,0.0674181580543518
1684206455374636000,5.731635986328125,-0.20811663568019867,0.7308641076087952,0.044268105179071426
1684206455384660700,5.74166064453125,-0.19926877319812775,0.7801374197006226,0.0010991892777383327
1684206455394687000,5.75168701171875,-0.24842354655265808,0.7071364521980286,-0.06560952961444855
1684206455404711700,5.761711669921875,-0.26718124747276306,0.6403976082801819,-0.11383272707462311
1684206455414736600,5.771736572265625,-0.27348920702934265,0.5972352623939514,-0.12754373252391815
1684206455424762600,5.7817626953125,-0.28726598620414734,0.5628550052642822,-0.11515860259532928
1684206455434787800,5.791787841796875,-0.26428183913230896,0.5939266085624695,-0.0919928327202797
1684206455444813800,5.801813720703125,-0.2210884392261505,0.7018188238143921,-0.07810727506875992
1684206455454838800,5.8118388671875,-0.18179136514663696,0.7671259045600891,-0.10227599740028381
1684206455464864800,5.82186474609375,-0.14871615171432495,0.7755775451660156,-0.14652584493160248
1684206455474889700,5.8318896484375,-0.13131852447986603,0.7843462824821472,-0.17985904216766357
1684206455484915700,5.841915771484375,-0.12753984332084656,0.8204811811447144,-0.21054808795452118
1684206455494940700,5.851940673828125,-0.12775635719299316,0.84434974193573,-0.24414491653442383
1684206455504966000,5.8619658203125,-0.1278221160173416,0.852387547492981,-0.28159475326538086
1684206455514991900,5.871991943359375,-0.12129470705986023,0.8531026244163513,-0.28235241770744324
1684206455525016800,5.882016845703125,-0.12454840540885925,0.8151635527610779,-0.257347971200943
1684206455535042800,5.892042724609375,-0.12380404770374298,0.7578129172325134,-0.2255045771598816
1684206455545067800,5.90206787109375,-0.1383296400308609,0.6391637921333313,-0.22369712591171265
1684206455555093800,5.91209375,-0.15958938002586365,0.471754252910614,-0.20499801635742188
1684206455565118700,5.92211865234375,-0.1123150885105133,0.21607251465320587,-0.12509682774543762
1684206455575144700,5.932144775390625,-0.05667738988995552,-0.12284509837627411,-0.04905959218740463
1684206455585170000,5.942169921875,0.03684496879577637,-0.5380947589874268,-0.03346240893006325
1684206455595195000,5.95219482421875,0.22086992859840393,-0.9975358247756958,-0.09196034073829651
1684206455605220900,5.962220947265625,0.4750019907951355,-1.361767053604126,-0.15495219826698303
1684206455615245800,5.972245849609375,0.6618523001670837,-1.4564990997314453,-0.18258143961429596
1684206455625271800,5.982271728515625,0.6751344203948975,-1.4211807250976562,-0.26317358016967773
1684206455635296800,5.992296875,0.5795304179191589,-1.3159663677215576,-0.4376063644886017
1684206455645322800,6.00232275390625,0.4753294885158539,-1.2544987201690674,-0.6422751545906067
1684206455655347700,6.01234765625,0.4163053035736084,-1.0955767631530762,-0.6322566270828247
1684206455665373000,6.022373046875,0.38551071286201477,-0.820009708404541,-0.4003794193267822
1684206455675399000,6.03239892578125,0.3220941722393036,-0.5876134634017944,-0.08800874650478363
1684206455685423900,6.042423828125,0.24935239553451538,-0.4577672481536865,0.23061557114124298
1684206455695449900,6.052449951171875,0.22494637966156006,-0.300566166639328,0.574755072593689
1684206455705474800,6.062474853515625,0.2200775146484375,-0.07582814246416092,0.9463102221488953
1684206455715500800,6.072500732421875,0.25289061665534973,0.13204969465732574,1.2367117404937744
1684206455725525800,6.08252587890625,0.2998717129230499,0.25090524554252625,1.4314284324645996
1684206455735551700,6.0925517578125,0.3457276225090027,0.30496928095817566,1.5902107954025269
1684206455745577000,6.102576904296875,0.3894159495830536,0.3756639361381531,1.758063793182373
1684206455755602000,6.112601806640625,0.3588181138038635,0.3754967153072357,1.8722341060638428
1684206455765627000,6.122626953125,0.33455410599708557,0.2096310406923294,1.8727697134017944
1684206455775652900,6.13265283203125,0.34027883410453796,0.04971886798739433,1.8474472761154175
1684206455785677800,6.142677734375,0.3769599199295044,-0.026054203510284424,1.8874324560165405
1684206455795703800,6.152703857421875,0.4667028486728668,-0.03566635027527809,1.9471962451934814
1684206455805728800,6.162728759765625,0.5557537078857422,-0.031095119193196297,1.975609302520752
1684206455815754800,6.172754638671875,0.6063982248306274,0.10409571975469589,1.9650871753692627
1684206455825779700,6.18277978515625,0.7284864187240601,0.24342024326324463,1.909936785697937
1684206455835804700,6.1928046875,0.9455696940422058,0.29040318727493286,1.7431237697601318
1684206455845830700,6.20283056640625,1.0900051593780518,0.21693208813667297,1.4435546398162842
1684206455855855600,6.212855712890625,1.186741828918457,0.05589792877435684,1.0523967742919922
1684206455865881600,6.222881591796875,1.2671961784362793,-0.2696588635444641,0.677595317363739
1684206455875906800,6.23290673828125,1.3414722681045532,-0.7164589762687683,0.4044937789440155
1684206455885932800,6.242932861328125,1.4199990034103394,-1.0950448513031006,0.1640259325504303
1684206455895957800,6.252957763671875,1.3473119735717773,-1.381112813949585,-0.02737172320485115
1684206455905982700,6.262982666015625,1.2378513813018799,-1.665574312210083,-0.13918255269527435
1684206455916008700,6.2730087890625,1.142412781715393,-2.073842763900757,-0.21203546226024628
1684206455926033700,6.28303369140625,1.064077615737915,-2.493813991546631,-0.2806716859340668
1684206455936059600,6.2930595703125,0.9943129420280457,-2.7405622005462646,-0.35623034834861755
1684206455946084900,6.3030849609375,0.9459075331687927,-2.7203898429870605,-0.438140332698822
1684206455956110600,6.313110595703125,0.9333387613296509,-2.5608112812042236,-0.5440363883972168
1684206455966135800,6.3231357421875,0.9230257272720337,-2.398202657699585,-0.643941342830658
1684206455976161800,6.333161865234375,0.8613138794898987,-2.338710308074951,-0.7441366314888
1684206455986186800,6.343186767578125,0.8165618181228638,-2.3854806423187256,-0.8217688798904419
1684206455996211500,6.35321142578125,0.8082301020622253,-2.5024139881134033,-0.9024365544319153
1684206456006237700,6.36323779296875,0.7908359169960022,-2.566006660461426,-0.9980930089950562
1684206456016262700,6.3732626953125,0.7832397818565369,-2.580524444580078,-1.0999997854232788
1684206456026288400,6.383288330078125,0.7893611192703247,-2.5757668018341064,-1.21042799949646
1684206456036313600,6.393313720703125,0.80352783203125,-2.5796053409576416,-1.3130279779434204
1684206456046339600,6.403339599609375,0.8133924007415771,-2.6000261306762695,-1.411984920501709
1684206456056364500,6.413364501953125,0.8290262222290039,-2.6382389068603516,-1.5011979341506958
1684206456066390500,6.423390625,0.8493300080299377,-2.759936571121216,-1.5887893438339233
1684206456076415500,6.43341552734375,0.8632727265357971,-2.9231202602386475,-1.6496784687042236
1684206456086440400,6.4434404296875,0.8490132093429565,-3.007765531539917,-1.7408517599105835
1684206456096466400,6.453466552734375,0.8241598010063171,-2.9566104412078857,-1.821350336074829
1684206456106491600,6.46349169921875,0.7726390957832336,-3.0212643146514893,-1.8813230991363525
1684206456116517600,6.473517578125,0.6943789124488831,-2.984304189682007,-1.873299241065979
1684206456126542600,6.48354248046875,0.6225093007087708,-2.9298481941223145,-1.8436338901519775
1684206456136568600,6.493568603515625,0.5374487638473511,-2.937962293624878,-1.81477952003479
1684206456146593500,6.503593505859375,0.4544718265533447,-2.9979288578033447,-1.787065863609314
1684206456156619500,6.51361962890625,0.36518242955207825,-3.130560874938965,-1.8014863729476929
1684206456166644500,6.52364453125,0.31830069422721863,-3.2207608222961426,-1.782249093055725
1684206456176669700,6.533669677734375,0.27182480692863464,-3.343897819519043,-1.7790287733078003
1684206456186695700,6.54369580078125,0.2145891636610031,-3.4595260620117188,-1.8092057704925537
1684206456196720600,6.553720703125,0.19781817495822906,-3.5216028690338135,-1.8345931768417358
1684206456206746600,6.56374658203125,0.18705305457115173,-3.6104307174682617,-1.8769701719284058
1684206456216771600,6.573771484375,0.17355374991893768,-3.7060189247131348,-1.9465104341506958
1684206456226797600,6.583797607421875,0.15749627351760864,-3.788186550140381,-2.0272645950317383
1684206456236822500,6.593822509765625,0.1537848860025406,-3.8727288246154785,-2.1125729084014893
1684206456246848500,6.6038486328125,0.1426413655281067,-3.9780478477478027,-2.187709331512451
1684206456256873700,6.613873779296875,0.10517814755439758,-4.103294372558594,-2.2253236770629883
1684206456266898700,6.623898681640625,0.04293609410524368,-4.219676971435547,-2.225290060043335
1684206456276924700,6.633924560546875,-0.021238362416625023,-4.39240837097168,-2.217379331588745
1684206456286949600,6.64394970703125,-0.061855219304561615,-4.564448833465576,-2.1943435668945312
1684206456296975600,6.6539755859375,-0.09580119699239731,-4.638863563537598,-2.1306254863739014
1684206456307000600,6.66400048828125,-0.13029903173446655,-4.710132122039795,-2.0160670280456543
1684206456317026600,6.674026611328125,-0.1445259153842926,-4.74520206451416,-1.873154878616333
1684206456327051500,6.684051513671875,-0.17528052628040314,-4.721792221069336,-1.711960792541504
1684206456337076700,6.69407666015625,-0.20993517339229584,-4.630070686340332,-1.5775917768478394
1684206456347102700,6.704102783203125,-0.2344585806131363,-4.497279644012451,-1.4896869659423828
1684206456357127700,6.714127685546875,-0.2745167911052704,-4.365951061248779,-1.4611890316009521
1684206456367153700,6.724153564453125,-0.30784305930137634,-4.203684329986572,-1.4777003526687622
1684206456377178600,6.7341787109375,-0.3233722150325775,-4.039825916290283,-1.5016626119613647
1684206456387204600,6.74420458984375,-0.32405006885528564,-3.878383159637451,-1.52606999874115
1684206456397229600,6.7542294921875,-0.29939931631088257,-3.721126079559326,-1.5619547367095947
1684206456407255600,6.764255615234375,-0.26261407136917114,-3.5463027954101562,-1.5862666368484497
1684206456417280800,6.77428076171875,-0.21985836327075958,-3.3001911640167236,-1.604904294013977
1684206456427306800,6.784306640625,-0.16323024034500122,-3.0094568729400635,-1.6303387880325317
1684206456437331700,6.794331787109375,-0.08695117384195328,-2.7166638374328613,-1.648396611213684
1684206456447356700,6.804356689453125,0.007088483311235905,-2.4930057525634766,-1.6629711389541626
1684206456457382700,6.814382568359375,0.10431383550167084,-2.362936496734619,-1.6928088665008545
1684206456467407600,6.82440771484375,0.13972800970077515,-2.369814872741699,-1.7302285432815552
1684206456477433600,6.83443359375,0.13239260017871857,-2.4439663887023926,-1.7671536207199097
1684206456487458800,6.844458740234375,0.11515434086322784,-2.550872802734375,-1.7468290328979492
1684206456497484800,6.85448486328125,0.05512456223368645,-2.7468817234039307,-1.6363378763198853
1684206456507509800,6.864509765625,-0.01912149414420128,-3.007326602935791,-1.4164077043533325
1684206456517534700,6.87453466796875,-0.11079735308885574,-3.339726686477661,-1.1651288270950317
1684206456527560700,6.884560791015625,-0.23321202397346497,-3.6632943153381348,-0.9073765873908997
1684206456537585700,6.894585693359375,-0.3284900486469269,-3.8021605014801025,-0.6353439688682556
1684206456547611600,6.904611572265625,-0.3257153630256653,-3.6319713592529297,-0.3396417498588562
1684206456557636900,6.914636962890625,-0.301003634929657,-3.15982985496521,-0.10689451545476913
1684206456567662600,6.92466259765625,-0.3202771842479706,-2.5655412673950195,0.016921546310186386
1684206456577687800,6.934687744140625,-0.37798309326171875,-2.1313202381134033,0.03806811198592186
1684206456587713800,6.9447138671875,-0.43788471817970276,-1.9677730798721313,-0.04308301955461502
1684206456597738800,6.95473876953125,-0.5085128545761108,-1.9752302169799805,-0.23456749320030212
1684206456607763500,6.964763427734375,-0.5353419780731201,-2.0343074798583984,-0.48733702301979065
1684206456617789700,6.974789794921875,-0.514138400554657,-2.139822006225586,-0.7439738512039185
1684206456627814700,6.984814697265625,-0.4372248351573944,-2.2910537719726562,-0.9527137875556946
1684206456637840600,6.994840576171875,-0.28472957015037537,-2.3832476139068604,-1.1193705797195435
1684206456647865600,7.004865478515625,-0.18702438473701477,-2.4376275539398193,-1.2026246786117554
1684206456657891600,7.0148916015625,-0.14173120260238647,-2.5484793186187744,-1.2008448839187622
1684206456667916500,7.02491650390625,-0.17683358490467072,-2.699390172958374,-1.155253291130066
1684206456677941500,7.03494140625,-0.2201264649629593,-2.8867294788360596,-1.1127541065216064
1684206456687967500,7.044967529296875,-0.25165897607803345,-3.156787395477295,-1.0654404163360596
1684206456697992400,7.054992431640625,-0.23652024567127228,-3.422616958618164,-1.0359302759170532
1684206456708018400,7.065018310546875,-0.1763612926006317,-3.6226541996002197,-1.0053133964538574
1684206456718043600,7.075043701171875,-0.12551063299179077,-3.788616180419922,-0.9612838625907898
1684206456728069600,7.085069580078125,-0.08420473337173462,-3.9007458686828613,-0.940423309803009
1684206456738094600,7.095094482421875,-0.026182709261775017,-3.8950672149658203,-0.9374080896377563
1684206456748120600,7.10512060546875,0.026604415848851204,-3.7337398529052734,-0.9262858629226685
1684206456758145500,7.1151455078125,0.05298782140016556,-3.4427623748779297,-0.8954421877861023
1684206456768170500,7.12517041015625,0.07553109526634216,-3.0665149688720703,-0.8400200009346008
1684206456778196500,7.135196533203125,0.06462305039167404,-2.593402624130249,-0.7652549743652344
1684206456788221700,7.1452216796875,0.09218999743461609,-2.1572914123535156,-0.6342722177505493
1684206456798247700,7.15524755859375,0.15063945949077606,-1.8135974407196045,-0.46144744753837585
1684206456808273000,7.16527294921875,0.15494056046009064,-1.5604439973831177,-0.30128610134124756
1684206456818299000,7.175298828125,0.1280764639377594,-1.3924829959869385,-0.19604168832302094
1684206456828323800,7.18532373046875,0.07163381576538086,-1.2703644037246704,-0.13471326231956482
1684206456838349800,7.195349853515625,-0.0037823840975761414,-1.1278059482574463,-0.09763672947883606
1684206456848374800,7.205374755859375,-0.051314614713191986,-0.9648972153663635,-0.08003681153059006
1684206456858399700,7.215399658203125,-0.09097947180271149,-0.8014252185821533,-0.08930567651987076
1684206456868425700,7.22542578125,-0.113418810069561,-0.6360822319984436,-0.11591026932001114
1684206456878451000,7.235450927734375,-0.10399281978607178,-0.4956172704696655,-0.1608298122882843
1684206456888477000,7.245476806640625,-0.08162210881710052,-0.4721453785896301,-0.21404805779457092
1684206456898502000,7.255501953125,-0.026674173772335052,-0.49735087156295776,-0.25314539670944214
1684206456908527900,7.26552783203125,0.05249043181538582,-0.5056387186050415,-0.2717360556125641
1684206456918552800,7.275552734375,0.11808036267757416,-0.5125616192817688,-0.2195463478565216
1684206456928577800,7.285577880859375,0.1600271463394165,-0.5040853023529053,-0.0801161602139473
1684206456938603800,7.295603759765625,0.24017710983753204,-0.5490796566009521,0.15018148720264435
1684206456948629000,7.30562890625,0.38209328055381775,-0.5744848251342773,0.42694732546806335
1684206456958655000,7.315655029296875,0.5707079768180847,-0.49440303444862366,0.6762381196022034
1684206456968680000,7.325679931640625,0.7756765484809875,-0.36609724164009094,0.83573979139328
1684206456978706000,7.335705810546875,0.9308035373687744,-0.24106769263744354,0.9325606226921082
1684206456988731000,7.34573095703125,0.9723559617996216,-0.1441984325647354,1.0127902030944824
1684206456998756900,7.3557568359375,0.9886766076087952,-0.047775741666555405,1.0603622198104858
1684206457008781800,7.36578173828125,1.1258113384246826,0.11847049742937088,1.0760294198989868
1684206457018807000,7.37580712890625,1.355286955833435,0.26236748695373535,1.043950080871582
1684206457028833000,7.3858330078125,1.556885004043579,0.3639945983886719,0.9660119414329529
1684206457038858000,7.39585791015625,1.681208848953247,0.4575154781341553,0.8505484461784363
1684206457048884000,7.405884033203125,1.7452433109283447,0.5501878261566162,0.7251602411270142
1684206457058909000,7.415908935546875,1.749407410621643,0.6098394393920898,0.6194514036178589
1684206457068935000,7.425934814453125,1.7157648801803589,0.5845152139663696,0.5711831450462341
1684206457078959900,7.4359599609375,1.637693166732788,0.36242809891700745,0.5491353869438171
1684206457088984800,7.44598486328125,1.502012848854065,0.09893301129341125,0.5452242493629456
1684206457099011000,7.456010986328125,1.3248735666275024,-0.2023317664861679,0.5243322849273682
1684206457109035800,7.466035888671875,1.0577949285507202,-0.6518399119377136,0.4416542053222656
1684206457119062000,7.47606201171875,0.7973124980926514,-1.3087586164474487,0.3169122636318207
1684206457129086700,7.486086669921875,0.6509461402893066,-2.0182814598083496,0.20304805040359497
1684206457139113000,7.496113037109375,0.5479348301887512,-2.4672725200653076,0.09903909265995026
1684206457149137700,7.5061376953125,0.46023043990135193,-2.463618040084839,-0.0022199703380465508
1684206457159163000,7.516162841796875,0.41058114171028137,-2.0858983993530273,-0.11496782302856445
1684206457169188900,7.52618896484375,0.4113438129425049,-1.5314315557479858,-0.21840894222259521
1684206457179213800,7.5362138671875,0.42346277832984924,-1.0579787492752075,-0.3071974217891693
1684206457189239800,7.54623974609375,0.4049784541130066,-0.7647608518600464,-0.38488030433654785
1684206457199264800,7.5562646484375,0.356335312128067,-0.5757962465286255,-0.44207409024238586
1684206457209290800,7.566290771484375,0.31942909955978394,-0.3995722234249115,-0.4978432059288025
1684206457219315700,7.576315673828125,0.2996886670589447,-0.19872406125068665,-0.5456967353820801
1684206457229341700,7.586341796875,0.28970760107040405,0.028953123837709427,-0.5760264992713928
1684206457239366700,7.59636669921875,0.2781044542789459,0.19626034796237946,-0.5847230553627014
1684206457249391900,7.606391845703125,0.2421308159828186,0.2673945426940918,-0.575709342956543
1684206457259417900,7.61641796875,0.18128050863742828,0.22603698074817657,-0.5627522468566895
1684206457269442800,7.62644287109375,0.11820891499519348,0.0936247855424881,-0.573089599609375
1684206457279468800,7.63646875,0.04708999767899513,-0.026899227872490883,-0.5544187426567078
1684206457289493800,7.64649365234375,-0.0007648882456123829,-0.13223356008529663,-0.49743378162384033
1684206457299519700,7.656519775390625,-0.05757597088813782,-0.2110695093870163,-0.4561832845211029
1684206457309544700,7.666544677734375,-0.09634879976511002,-0.2725675106048584,-0.4415608048439026
1684206457319570000,7.67656982421875,-0.10869760811328888,-0.24431534111499786,-0.3986058831214905
1684206457329596000,7.686595947265625,-0.10975800454616547,-0.19805872440338135,-0.3522643744945526
1684206457339620900,7.696620849609375,-0.09307889640331268,-0.12638479471206665,-0.31387197971343994
1684206457349646800,7.706646728515625,-0.06637796759605408,-0.03224427253007889,-0.2932584583759308
1684206457359671800,7.716671875,-0.053122345358133316,0.02924812026321888,-0.2980862557888031
1684206457369697800,7.72669775390625,-0.04584473744034767,0.049123380333185196,-0.32489901781082153
1684206457379722800,7.73672265625,-0.023897895589470863,0.08553119003772736,-0.3336043357849121
1684206457389748000,7.746748046875,-0.01813037507236004,0.08127802610397339,-0.35649439692497253
1684206457399774000,7.75677392578125,-0.03181449696421623,-0.0024054194800555706,-0.4200400710105896
1684206457409799000,7.766798828125,-0.052010323852300644,-0.08191533386707306,-0.5091491937637329
1684206457419825000,7.776824951171875,-0.0737992376089096,-0.10475832968950272,-0.5683656334877014
1684206457429849900,7.786849853515625,-0.10636501014232635,-0.1186312735080719,-0.6151528358459473
1684206457439875800,7.796875732421875,-0.12804126739501953,-0.14468072354793549,-0.6667031049728394
1684206457449900800,7.80690087890625,-0.11719903349876404,-0.13577811419963837,-0.7140060663223267
1684206457459926800,7.8169267578125,-0.07699275761842728,-0.11045518517494202,-0.7816287875175476
1684206457469951700,7.82695166015625,-0.014230020344257355,0.013290803879499435,-0.8457431793212891
1684206457479977000,7.83697705078125,0.06786298751831055,0.17672739923000336,-0.8744813203811646
1684206457490003000,7.8470029296875,0.10948386043310165,0.29274189472198486,-0.8891213536262512
1684206457500028000,7.85702783203125,0.10095615684986115,0.31841984391212463,-0.8622375130653381
1684206457510054000,7.867053955078125,0.050282713025808334,0.2371935099363327,-0.8200159668922424
1684206457520078800,7.877078857421875,-0.005743802059441805,0.08904930204153061,-0.7985828518867493
1684206457530103800,7.887103759765625,-0.07347341626882553,-0.0982247069478035,-0.8310257792472839
1684206457540129800,7.8971298828125,-0.1325410008430481,-0.315534383058548,-0.9100854396820068
1684206457550155000,7.907155029296875,-0.17849718034267426,-0.4701497256755829,-1.0112625360488892
1684206457560181000,7.917180908203125,-0.2149672955274582,-0.5385532975196838,-1.086389422416687
1684206457570206000,7.9272060546875,-0.270796537399292,-0.5185533165931702,-1.1104079484939575
1684206457580232000,7.93723193359375,-0.3353097438812256,-0.45800846815109253,-1.1108825206756592
1684206457590257000,7.9472568359375,-0.4278225004673004,-0.4249778985977173,-1.0718308687210083
1684206457600283000,7.957282958984375,-0.5323632955551147,-0.42523300647735596,-0.9938539862632751
1684206457610307800,7.967307861328125,-0.6305496692657471,-0.44064995646476746,-0.9057923555374146
1684206457620332800,7.977332763671875,-0.72379070520401,-0.4373553693294525,-0.8327253460884094
1684206457630359000,7.987359130859375,-0.7962334156036377,-0.38790661096572876,-0.7859484553337097
1684206457640383700,7.9973837890625,-0.8319871425628662,-0.33864185214042664,-0.7562792897224426
1684206457650410000,8.007409912109376,-0.8670134544372559,-0.2884999215602875,-0.7384300231933594
1684206457660434700,8.0174345703125,-0.9184721112251282,-0.20117035508155823,-0.713421106338501
1684206457670461000,8.0274609375,-0.9491907358169556,-0.09799772500991821,-0.6855655908584595
1684206457680485600,8.037485595703124,-0.9633342623710632,-0.02180468663573265,-0.6666488647460938
1684206457690510800,8.0475107421875,-0.9488070607185364,-0.015181849710643291,-0.6645070314407349
1684206457700536800,8.057536865234376,-0.9554271101951599,-0.1127435564994812,-0.6558570861816406
1684206457710561800,8.067561767578125,-0.9984639286994934,-0.26703059673309326,-0.6123220324516296
1684206457720587800,8.077587890625,-1.029800534248352,-0.4689980745315552,-0.5032493472099304
1684206457730612700,8.08761279296875,-0.9660705327987671,-0.7728642225265503,-0.2906578481197357
1684206457740638700,8.097638671875,-0.7830697894096375,-1.107775092124939,-0.033382102847099304
1684206457750663700,8.10766357421875,-0.601870596408844,-1.2840358018875122,0.22607848048210144
1684206457760689000,8.11768896484375,-0.42084938287734985,-1.353042483329773,0.47928839921951294
1684206457770715000,8.12771484375,-0.26178714632987976,-1.2669786214828491,0.6726711392402649
1684206457780739800,8.13773974609375,-0.18162518739700317,-1.024901032447815,0.692084789276123
1684206457790765800,8.147765869140626,-0.15261711180210114,-0.743117094039917,0.6105469465255737
1684206457800791600,8.15779150390625,-0.14891397953033447,-0.5115525722503662,0.5240735411643982
1684206457810817500,8.167817626953125,-0.18214088678359985,-0.43397536873817444,0.39668455719947815
1684206457820842500,8.177842529296875,-0.28321799635887146,-0.4594346582889557,0.22495488822460175
1684206457830867500,8.187867431640624,-0.4205818772315979,-0.4951542913913727,0.07236526161432266
1684206457840893400,8.1978935546875,-0.5927885174751282,-0.45731744170188904,0.026813223958015442
1684206457850918700,8.207918701171875,-0.7634313702583313,-0.35019490122795105,0.03562306985259056
1684206457860944400,8.2179443359375,-0.8219780325889587,-0.20036812126636505,0.10193710774183273
1684206457870969600,8.227969482421875,-0.7496272921562195,-0.05606474354863167,0.1930539608001709
1684206457880995600,8.23799560546875,-0.6063889265060425,0.007754715159535408,0.25178173184394836
1684206457891020500,8.2480205078125,-0.4213327467441559,0.025738773867487907,0.24643756449222565
1684206457901045500,8.25804541015625,-0.20874592661857605,0.049021460115909576,0.21093840897083282
1684206457911071500,8.268071533203125,-0.029264351353049278,0.05527278408408165,0.17726732790470123
1684206457921096400,8.278096435546875,0.13095833361148834,0.09095009416341782,0.14215300977230072
1684206457931122400,8.288122314453124,0.2278972566127777,0.24615104496479034,0.111075259745121
1684206457941147600,8.298147705078126,0.30599525570869446,0.3564613163471222,0.043523117899894714
1684206457951173600,8.308173583984376,0.37062516808509827,0.38214635848999023,-0.0254939217120409
1684206457961198600,8.318198486328125,0.41507038474082947,0.35634538531303406,-0.08372340351343155
1684206457971223300,8.328223388671875,0.45648160576820374,0.22576747834682465,-0.1311461180448532
1684206457981249500,8.33824951171875,0.4589229226112366,0.13224710524082184,-0.19385875761508942
1684206457991274200,8.348274169921876,0.3667907118797302,0.08585848659276962,-0.28182440996170044
1684206458001300500,8.358300537109375,0.27031558752059937,-0.021401390433311462,-0.38349324464797974
1684206458011325400,8.368325439453125,0.192037433385849,-0.13709230720996857,-0.49184298515319824
1684206458021351700,8.3783515625,0.16574057936668396,-0.2776041626930237,-0.5576558113098145
1684206458031376400,8.38837646484375,0.1660749912261963,-0.37072548270225525,-0.5828726887702942
1684206458041401300,8.3984013671875,0.17609167098999023,-0.38826557993888855,-0.5961682200431824
1684206458051427300,8.40842724609375,0.21119683980941772,-0.33257871866226196,-0.5583421587944031
1684206458061452300,8.418452392578125,0.2573273181915283,-0.32665103673934937,-0.504990816116333
1684206458071478300,8.428478271484375,0.31550031900405884,-0.4223715364933014,-0.4501473605632782
1684206458081503500,8.43850341796875,0.3678295612335205,-0.5756833553314209,-0.4147081673145294
1684206458091529500,8.448529541015626,0.4018261134624481,-0.7091115117073059,-0.3636356294155121
1684206458101554400,8.458554443359375,0.3977014124393463,-0.7949151396751404,-0.3036908209323883
1684206458111579400,8.468579345703125,0.34772294759750366,-0.8443509936332703,-0.2690521478652954
1684206458121605400,8.47860546875,0.2470879703760147,-0.7557076811790466,-0.22380557656288147
1684206458131630300,8.48863037109375,0.13588887453079224,-0.568308413028717,-0.15921001136302948
1684206458141656300,8.49865625,0.014792276546359062,-0.3233362138271332,-0.094541534781456
1684206458151681500,8.508681640625,-0.07425153255462646,-0.08922047913074493,-0.07509755343198776
1684206458161707500,8.51870751953125,-0.15492108464241028,0.10074146836996078,-0.1002497747540474
1684206458171732500,8.528732421875,-0.18041782081127167,0.2648249566555023,-0.13927817344665527
1684206458181757400,8.53875732421875,-0.15313853323459625,0.36290809512138367,-0.20261001586914062
1684206458191783400,8.548783447265626,-0.0774756371974945,0.42841583490371704,-0.27826571464538574
1684206458201808400,8.558808349609375,-0.004194498062133789,0.4741436541080475,-0.3306804597377777
1684206458211834400,8.56883447265625,0.06947681307792664,0.5091539025306702,-0.33159831166267395
1684206458221859300,8.578859375,0.13125842809677124,0.5274034738540649,-0.2911278307437897
1684206458231885300,8.58888525390625,0.16147708892822266,0.5090630650520325,-0.20730522274971008
1684206458241910500,8.59891064453125,0.16024909913539886,0.47911104559898376,-0.08175183087587357
1684206458251935500,8.608935546875,0.15073487162590027,0.5413748621940613,0.049070462584495544
1684206458261961500,8.61896142578125,0.14684346318244934,0.6573137044906616,0.12373165041208267
1684206458271986400,8.628986328125,0.14047127962112427,0.7132653594017029,0.1591765582561493
1684206458282012400,8.639012451171874,0.14278583228588104,0.7896959781646729,0.191121444106102
1684206458292037400,8.649037353515626,0.14035725593566895,0.8485137820243835,0.17528636753559113
1684206458302063400,8.6590634765625,0.1501941680908203,0.7556126117706299,0.05886814370751381
1684206458312088600,8.669088623046875,0.15513424575328827,0.7042704820632935,-0.017824670299887657
1684206458322113500,8.679113525390624,0.14143069088459015,0.7700609564781189,-0.004722717218101025
1684206458332139500,8.689139404296874,0.131790891289711,0.7641261219978333,-0.013309385627508163
1684206458342164500,8.69916455078125,0.1266440600156784,0.6296886801719666,-0.04444919526576996
1684206458352190500,8.7091904296875,0.1325204223394394,0.5126949548721313,-0.028348036110401154
1684206458362215400,8.71921533203125,0.15908358991146088,0.36084043979644775,0.05507441982626915
1684206458372241400,8.729241455078125,0.19601216912269592,0.1922541707754135,0.11733230203390121
1684206458382266600,8.7392666015625,0.2628559172153473,0.08555887639522552,0.10514035075902939
1684206458392291600,8.74929150390625,0.34977686405181885,0.12212958186864853,-0.010745606385171413
1684206458402317600,8.759317626953125,0.38990509510040283,0.09245984256267548,-0.02681485377252102
1684206458412342500,8.769342529296875,0.36733278632164,-0.10063256323337555,0.09287116676568985
1684206458422368500,8.779368408203124,0.33686304092407227,-0.18772485852241516,0.15919531881809235
1684206458432393500,8.7893935546875,0.32155755162239075,-0.13526466488838196,0.11568263173103333
1684206458442419500,8.79941943359375,0.3149140179157257,-0.03156277909874916,0.0907069742679596
1684206458452444700,8.809444580078125,0.2876163721084595,0.1067659854888916,0.1377725452184677
1684206458462469600,8.8194697265625,0.253693550825119,0.19594219326972961,0.17729757726192474
1684206458472495600,8.82949560546875,0.2245834767818451,0.25680360198020935,0.2068079560995102
1684206458482520600,8.8395205078125,0.19732655584812164,0.30562201142311096,0.21114331483840942
1684206458492546600,8.849546630859376,0.1696135699748993,0.3790733814239502,0.189887136220932
1684206458502571300,8.8595712890625,0.15426790714263916,0.48236674070358276,0.17656707763671875
1684206458512597500,8.869597412109375,0.1524258852005005,0.5209681987762451,0.1625089943408966
1684206458522622500,8.87962255859375,0.15892082452774048,0.5404146313667297,0.14397045969963074
1684206458532647400,8.8896474609375,0.14106549322605133,0.555221676826477,0.13775628805160522
1684206458542673400,8.89967333984375,0.10843111574649811,0.6281334757804871,0.10685669630765915
1684206458552698400,8.909698486328125,0.08655416965484619,0.6581929326057434,0.07298453897237778
1684206458562724400,8.919724365234375,0.054323263466358185,0.6815549731254578,0.04961583763360977
1684206458572749300,8.929749267578124,0.008318066596984863,0.7123836278915405,0.03026881441473961
1684206458582775300,8.939775390625,-0.026947245001792908,0.7331615686416626,0.013286101631820202
1684206458592800300,8.94980029296875,-0.07062117010354996,0.7810216546058655,0.010517717339098454
1684206458602825500,8.959825439453125,-0.11179763078689575,0.8202114105224609,0.0042824577540159225
1684206458612851500,8.9698515625,-0.14259737730026245,0.8655555844306946,-0.0004990566521883011
1684206458622876400,8.97987646484375,-0.19103814661502838,0.8692054748535156,-0.0024761874228715897
1684206458632902400,8.98990234375,-0.23037126660346985,0.8251702785491943,-0.0038508442230522633
1684206458642927400,8.99992724609375,-0.26357316970825195,0.7352659702301025,-0.03480210155248642
1684206458652953300,9.009953369140625,-0.300588995218277,0.7111486196517944,-0.04154522716999054
1684206458662978300,9.019978271484375,-0.3521808087825775,0.6568811535835266,-0.05894019454717636
1684206458673003500,9.03000341796875,-0.39030638337135315,0.5670986175537109,-0.06561269611120224
1684206458683029500,9.040029541015626,-0.4585948884487152,0.4915742874145508,-0.0029288080986589193
1684206458693054500,9.050054443359375,-0.5046155452728271,0.4387376308441162,0.06251608580350876
1684206458703080400,9.06008056640625,-0.5320562124252319,0.34578052163124084,0.08511567115783691
1684206458713105400,9.07010546875,-0.582170844078064,0.17017486691474915,0.06383109837770462
1684206458723131400,9.08013134765625,-0.6050985455513,0.07846385985612869,0.03680534288287163
1684206458733156400,9.09015625,-0.6057974696159363,0.09364663064479828,0.0006885055918246508
1684206458743181600,9.100181640625,-0.5958852171897888,0.10304812341928482,-0.08976949006319046
1684206458753207600,9.11020751953125,-0.5046996474266052,0.11811069399118423,-0.22477099299430847
1684206458763232500,9.120232421875,-0.36352941393852234,0.14770054817199707,-0.3540802299976349
1684206458773258500,9.130258544921874,-0.1719237118959427,0.06229083985090256,-0.4709615409374237
1684206458783283500,9.140283447265626,-0.057161975651979446,-0.06784798949956894,-0.5477825403213501
1684206458793308400,9.150308349609375,-0.04805683717131615,-0.17926710844039917,-0.5942243337631226
1684206458803334400,9.16033447265625,-0.0789865255355835,-0.1427951157093048,-0.5911774635314941
1684206458813359600,9.170359619140624,-0.08876222372055054,0.042219750583171844,-0.5223473906517029
1684206458823385600,9.180385498046874,-0.1440422534942627,0.27725836634635925,-0.4017653167247772
1684206458833410600,9.19041064453125,-0.22203432023525238,0.48502326011657715,-0.2569511830806732
1684206458843436500,9.2004365234375,-0.30777397751808167,0.7226890921592712,-0.0974760353565216
1684206458853461500,9.21046142578125,-0.37230053544044495,0.9074422121047974,0.03831183537840843
1684206458863486500,9.220486572265624,-0.39620479941368103,0.9247351884841919,0.11898057907819748
1684206458873512400,9.230512451171874,-0.3749825954437256,0.8504118919372559,0.1648797243833542
1684206458883537400,9.240537353515625,-0.30105456709861755,0.7571890354156494,0.19060452282428741
1684206458893563400,9.2505634765625,-0.13489729166030884,0.6400660872459412,0.1926220953464508
1684206458903588600,9.260588623046875,0.04059356823563576,0.4886387586593628,0.19668342173099518
1684206458913614600,9.270614501953125,0.21040122210979462,0.3350646495819092,0.18974173069000244
1684206458923639600,9.2806396484375,0.3477446734905243,0.17265525460243225,0.15484367311000824
1684206458933664500,9.29066455078125,0.42614004015922546,-0.10992611199617386,0.1334380954504013
1684206458943690500,9.3006904296875,0.4934016168117523,-0.3849491477012634,0.08551344275474548
1684206458953715500,9.310715576171875,0.4970759451389313,-0.5320725440979004,0.08187390863895416
1684206458963741400,9.320741455078124,0.4539468288421631,-0.4795462489128113,0.18752098083496094
1684206458973766700,9.3307666015625,0.3857296109199524,-0.335982084274292,0.29816827178001404
1684206458983792600,9.340792724609376,0.3171819746494293,-0.22758980095386505,0.3608825206756592
1684206458993817600,9.350817626953125,0.2463056445121765,-0.17469942569732666,0.4019760191440582
1684206459003842600,9.360842529296875,0.19860735535621643,-0.18995188176631927,0.4711393713951111
1684206459013868500,9.37086865234375,0.16708208620548248,-0.2472524642944336,0.5378345251083374
1684206459023893500,9.3808935546875,0.16140156984329224,-0.37279918789863586,0.5648432374000549
1684206459033919500,9.39091943359375,0.20778289437294006,-0.5521067976951599,0.5436561703681946
1684206459043944700,9.40094482421875,0.2896687090396881,-0.7124056816101074,0.5342512130737305
1684206459053970700,9.410970703125,0.37844982743263245,-0.7748543620109558,0.5346009731292725
1684206459063995600,9.42099560546875,0.4865483343601227,-0.7207018733024597,0.5209072232246399
1684206459074020400,9.431020263671876,0.5434363484382629,-0.6575477719306946,0.5033199191093445
1684206459084046600,9.441046630859375,0.5617508888244629,-0.7222678661346436,0.5002418756484985
1684206459094071300,9.4510712890625,0.5602924227714539,-0.7242513298988342,0.5658132433891296
1684206459104097500,9.46109765625,0.5537546277046204,-0.6545409560203552,0.6503307819366455
1684206459114122500,9.47112255859375,0.5212852358818054,-0.4280698895454407,0.7496863007545471
1684206459124148500,9.4811484375,0.4995062053203583,-0.22100594639778137,0.8174514770507812
1684206459134173400,9.49117333984375,0.43775197863578796,0.01855144090950489,0.9413393139839172
1684206459144198400,9.501198486328125,0.3754206895828247,0.2909339666366577,1.083350419998169
1684206459154224400,9.511224365234375,0.38467732071876526,0.5410118699073792,1.1559371948242188
1684206459164249300,9.521249267578124,0.425234854221344,0.6956717371940613,1.2182338237762451
1684206459174275300,9.531275390625,0.44018182158470154,0.8164833784103394,1.337909460067749
1684206459184300500,9.541300537109375,0.4462761878967285,0.941569447517395,1.4441123008728027
1684206459194326500,9.551326416015625,0.5130637884140015,0.47840186953544617,1.43417227268219
1684206459204351500,9.5613515625,0.614944338798523,-0.016723468899726868,1.4029282331466675
1684206459214376400,9.57137646484375,0.6816684603691101,-0.23491457104682922,1.4084837436676025
1684206459224402400,9.58140234375,0.7385751605033875,-0.3374960720539093,1.4411466121673584
1684206459234427400,9.591427490234375,0.7862042784690857,-0.507926881313324,1.4113332033157349
1684206459244453400,9.601453369140625,0.8084163665771484,-0.6376510262489319,1.3297268152236938
1684206459254478300,9.611478271484375,0.8357573747634888,-0.7320749163627625,1.2666529417037964
1684206459264503600,9.621503662109374,0.8692178130149841,-0.7259544134140015,1.2086607217788696
1684206459274529500,9.631529541015626,0.8659269213676453,-0.6621862649917603,1.1645907163619995
1684206459284554500,9.641554443359375,0.8541259169578552,-0.6667312383651733,1.0961253643035889
1684206459294580500,9.65158056640625,0.8086161017417908,-0.7452967166900635,0.994174063205719
1684206459304605400,9.66160546875,0.7484957575798035,-0.8587101101875305,0.9029248356819153
1684206459314631400,9.67163134765625,0.6671979427337646,-0.9028549790382385,0.8134111166000366
1684206459324656400,9.681656494140626,0.6105815172195435,-0.8470982909202576,0.7017236948013306
1684206459334681600,9.691681640625,0.5582619309425354,-0.7347328662872314,0.5490346550941467
1684206459344707600,9.70170751953125,0.4626065194606781,-0.609473705291748,0.40568625926971436
1684206459354732500,9.711732666015624,0.3706350326538086,-0.5521726012229919,0.2925841808319092
1684206459364758500,9.721758544921874,0.29542550444602966,-0.5857933759689331,0.1997075080871582
1684206459374783500,9.731783447265625,0.2342025339603424,-0.6485754251480103,0.11394825577735901
1684206459384809500,9.7418095703125,0.20115883648395538,-0.6288658976554871,0.01841348223388195
1684206459394834400,9.75183447265625,0.1984521597623825,-0.5528615713119507,-0.06673500686883926
1684206459404859600,9.761859619140624,0.20543843507766724,-0.5075875520706177,-0.13231216371059418
1684206459414885600,9.7718857421875,0.20603887736797333,-0.4740552306175232,-0.16305452585220337
1684206459424910600,9.78191064453125,0.18949292600154877,-0.4338681399822235,-0.1933562457561493
1684206459434936600,9.7919365234375,0.17438329756259918,-0.3808945119380951,-0.252287358045578
1684206459444961500,9.80196142578125,0.19632534682750702,-0.3245638608932495,-0.3237748444080353
1684206459454987500,9.811987548828125,0.22455157339572906,-0.26456451416015625,-0.38884589076042175
1684206459465012500,9.822012451171876,0.24777884781360626,-0.19089296460151672,-0.45328986644744873
1684206459475037700,9.83203759765625,0.2659383714199066,-0.11911250650882721,-0.5032222270965576
1684206459485063700,9.842063720703125,0.29063892364501953,-0.02191857621073723,-0.5232906937599182
1684206459495088600,9.852088623046875,0.30412450432777405,0.07551822066307068,-0.5124929547309875
1684206459505114600,9.862114501953124,0.30778607726097107,0.1513669192790985,-0.4649254083633423
1684206459515139600,9.8721396484375,0.30587050318717957,0.21303658187389374,-0.39351916313171387
1684206459525165600,9.88216552734375,0.30512720346450806,0.24933281540870667,-0.31170952320098877
1684206459535190500,9.8921904296875,0.30459755659103394,0.26945361495018005,-0.20989477634429932
1684206459545215500,9.902215576171875,0.3197919726371765,0.257690966129303,-0.0970960482954979
1684206459555241500,9.912241455078124,0.3368217647075653,0.24270136654376984,0.022420166060328484
1684206459565266700,9.9222666015625,0.35102227330207825,0.2193097472190857,0.12246633321046829
1684206459575292700,9.932292724609376,0.35102972388267517,0.19613565504550934,0.19747641682624817
1684206459585317600,9.942317626953125,0.34188735485076904,0.19416651129722595,0.24567723274230957
1684206459595342300,9.95234228515625,0.3019598424434662,0.20750616490840912,0.2509617805480957
1684206459605368600,9.96236865234375,0.24206297099590302,0.2474922090768814,0.21022313833236694
1684206459615393300,9.972393310546876,0.16740256547927856,0.2807791531085968,0.16049201786518097
1684206459625419500,9.98241943359375,0.07084540277719498,0.2874149680137634,0.10695821046829224
1684206459635444500,9.992444580078125,-0.02093394845724106,0.31233733892440796,0.054409243166446686
1684206459645470700,10.002470703125,-0.10530129075050354,0.4004133939743042,-0.008657608181238174
1684206459655495400,10.012495361328124,-0.1874500960111618,0.48493149876594543,-0.0623106025159359
1684206459665520400,10.022520263671876,-0.27122753858566284,0.5146198272705078,-0.13025103509426117
1684206459675546400,10.03254638671875,-0.347151517868042,0.5229763984680176,-0.20199723541736603
1684206459685571300,10.0425712890625,-0.410997599363327,0.5356980562210083,-0.2757295072078705
1684206459695597300,10.052597412109375,-0.4672093987464905,0.5597853660583496,-0.36230894923210144
1684206459705622500,10.06262255859375,-0.5039722323417664,0.669367253780365,-0.44690772891044617
1684206459715648500,10.0726484375,-0.5565129518508911,0.7723144292831421,-0.5508565902709961
1684206459725673500,10.082673583984375,-0.6100547313690186,0.9446502327919006,-0.6276949048042297
1684206459735698400,10.092698486328125,-0.6599537134170532,1.0588109493255615,-0.6706836819648743
1684206459745724400,10.102724365234375,-0.7190170288085938,1.1143165826797485,-0.6964646577835083
1684206459755749400,10.112749267578126,-0.7914507985115051,1.123858094215393,-0.7238683700561523
1684206459765775400,10.122775390625,-0.8750796914100647,1.0818281173706055,-0.7230638265609741
1684206459775800600,10.132800537109375,-0.9424716234207153,0.9752358794212341,-0.7054357528686523
1684206459785826600,10.14282666015625,-0.9695530533790588,0.7970877289772034,-0.6565805673599243
1684206459795851500,10.1528515625,-0.951836884021759,0.644627571105957,-0.6001464128494263
1684206459805876700,10.162876708984374,-0.8944524526596069,0.5828787088394165,-0.5238276720046997
1684206459815902700,10.17290283203125,-0.8574299812316895,0.6321242451667786,-0.45428186655044556
1684206459825927700,10.182927734375,-0.8266547918319702,0.7299141883850098,-0.44701409339904785
1684206459835953700,10.19295361328125,-0.772006094455719,0.8139542937278748,-0.4729765057563782
1684206459845978600,10.202978515625,-0.73935467004776,0.8645333051681519,-0.48225709795951843
1684206459856003800,10.21300390625,-0.7549370527267456,0.8224025368690491,-0.4707133173942566
1684206459866029800,10.22302978515625,-0.775679886341095,0.6608030200004578,-0.4661793112754822
1684206459876054800,10.2330546875,-0.8187288641929626,0.4703769385814667,-0.48632365465164185
1684206459886080800,10.243080810546875,-0.8798976540565491,0.3367009162902832,-0.5778016448020935
1684206459896105700,10.253105712890624,-0.9018065929412842,0.013662311248481274,-0.8149248361587524
1684206459906131700,10.263131591796874,-0.7328175902366638,-0.3455962538719177,-0.8688607811927795
1684206459916156700,10.27315673828125,-0.5207870006561279,-0.8198407888412476,-0.3844723701477051
1684206459926182000,10.283181884765625,-0.48248088359832764,-1.1697633266448975,0.31709107756614685
1684206459936208000,10.293207763671875,-0.4449968934059143,-0.7507941722869873,0.5532370805740356
1684206459946232800,10.30323291015625,-0.14316006004810333,-0.48767733573913574,0.6666738986968994
1684206459956258800,10.3132587890625,0.1847008317708969,-0.3552452325820923,0.8082650303840637
1684206459966283800,10.32328369140625,0.42710548639297485,0.26777705550193787,0.7171846628189087
1684206459976309800,10.333309814453125,0.31055670976638794,0.9176010489463806,0.44563648104667664
1684206459986334700,10.343334716796875,0.11288756877183914,1.0327428579330444,0.22137035429477692
1684206459996360000,10.35335986328125,-0.033265285193920135,0.47950902581214905,-0.12073007225990295
1684206460006386000,10.363385986328124,-0.24222223460674286,-0.32316213846206665,-0.4792834222316742
1684206460016411000,10.373410888671875,-0.4788283109664917,-0.9379820823669434,-0.6149344444274902
1684206460026436900,10.383436767578125,-0.6574468016624451,-1.0257004499435425,-0.6009496450424194
1684206460036461800,10.3934619140625,-0.7691692113876343,-1.028940200805664,-0.598733127117157
1684206460046487800,10.40348779296875,-0.8553423881530762,-0.974700927734375,-0.5698596835136414
1684206460056512500,10.413512451171876,-0.7339327931404114,-0.9559685587882996,-0.4719274044036865
1684206460066537700,10.423537841796875,-0.5066986083984375,-0.9478768110275269,-0.32930314540863037
1684206460076563700,10.433563720703125,-0.3710620701313019,-0.7392456531524658,-0.21512873470783234
1684206460086588700,10.443588623046875,-0.2631619870662689,-0.4727146029472351,-0.2566511332988739
1684206460096614700,10.45361474609375,-0.02404167130589485,-0.4200528860092163,-0.35706233978271484
1684206460106639600,10.4636396484375,0.1191602274775505,-0.5147301554679871,-0.43133363127708435
1684206460116664600,10.47366455078125,0.1810961812734604,-0.6521416306495667,-0.4072315990924835
1684206460126690600,10.483690673828125,0.22538401186466217,-0.627241313457489,-0.3479887843132019
1684206460136715800,10.4937158203125,0.2555690109729767,-0.47326040267944336,-0.31169113516807556
1684206460146741500,10.503741455078124,0.2507942318916321,-0.270282506942749,-0.3050771653652191
1684206460156766700,10.5137666015625,0.20201732218265533,-0.0681307315826416,-0.30641770362854004
1684206460166792700,10.523792724609375,0.14116941392421722,0.024763256311416626,-0.2747915983200073
1684206460176817700,10.533817626953125,0.08804405480623245,-0.0326354093849659,-0.24994632601737976
1684206460186842600,10.543842529296874,0.041715703904628754,-0.12472166121006012,-0.28202545642852783
1684206460196868600,10.55386865234375,0.012955686077475548,-0.24197974801063538,-0.3536490797996521
1684206460206893600,10.5638935546875,-0.029833590611815453,-0.2182065099477768,-0.41954556107521057
1684206460216919600,10.57391943359375,-0.055695790797472,-0.2010793834924698,-0.4430938959121704
1684206460226945500,10.583945556640625,-0.07510384917259216,-0.2535191476345062,-0.41807031631469727
1684206460236970800,10.593970703125,-0.11414176970720291,-0.2763463258743286,-0.3547556400299072
1684206460246996700,10.603996826171874,-0.09685465693473816,-0.2786276042461395,-0.3373073935508728
1684206460257021700,10.614021728515626,-0.05375053733587265,-0.264978289604187,-0.31394243240356445
1684206460267046700,10.624046630859375,-0.032964300364255905,-0.1599767655134201,-0.25533902645111084
1684206460277072600,10.63407275390625,-0.033776503056287766,-0.04586111009120941,-0.17849482595920563
1684206460287097600,10.64409765625,-0.03299486264586449,0.03897521644830704,-0.12784363329410553
1684206460297123600,10.65412353515625,-0.022834692150354385,0.10372669249773026,-0.10585498064756393
1684206460307148800,10.664148681640626,-0.01793527603149414,0.16930145025253296,-0.0941341444849968
1684206460317173800,10.674173828125,-0.020784256979823112,0.24974647164344788,-0.07498300075531006
1684206460327199700,10.68419970703125,-0.030199330300092697,0.348099946975708,-0.0676766186952591
1684206460337224700,10.694224609375,-0.0365162156522274,0.504795253276825,-0.03256617859005928
1684206460347250700,10.704250732421874,-0.04312191903591156,0.6850656867027283,0.016129987314343452
1684206460357275600,10.714275634765626,-0.054580867290496826,0.8618983030319214,0.06492281705141068
1684206460367301600,10.724301513671875,-0.07362247258424759,1.0071228742599487,0.11173772066831589
1684206460377326800,10.734326904296875,-0.09095101803541183,1.1273285150527954,0.15408572554588318
1684206460387351800,10.744351806640625,-0.09096965938806534,1.2437689304351807,0.19703105092048645
1684206460397377800,10.754377685546874,-0.10300517082214355,1.271941065788269,0.23279225826263428
1684206460407402800,10.76440283203125,-0.09194532781839371,1.2891861200332642,0.2562917172908783
1684206460417428700,10.7744287109375,-0.06410305947065353,1.3023029565811157,0.2844577729701996
1684206460427453700,10.78445361328125,-0.027523476630449295,1.308324933052063,0.3009403645992279
1684206460437479700,10.794479736328125,0.013541237451136112,1.276095986366272,0.3003328740596771
1684206460447504600,10.804504638671874,0.0557938851416111,1.2547270059585571,0.31103479862213135
1684206460457529900,10.81452978515625,0.07013335078954697,1.2551969289779663,0.33260664343833923
1684206460467555800,10.824555908203125,0.0727086290717125,1.264792799949646,0.3687891364097595
1684206460477580800,10.834580810546875,0.059997182339429855,1.2671787738800049,0.3943231999874115
1684206460487606800,10.844606689453125,0.045254193246364594,1.2671172618865967,0.39819997549057007
1684206460497631700,10.8546318359375,-0.00007055816240608692,1.2512218952178955,0.3806074559688568
1684206460507656700,10.86465673828125,-0.045303553342819214,1.1620895862579346,0.35042718052864075
1684206460517682700,10.8746826171875,-0.07462352514266968,1.0275826454162598,0.28627315163612366
1684206460527708000,10.8847080078125,-0.09702736884355545,0.8794389367103577,0.20337136089801788
1684206460537734000,10.89473388671875,-0.12779951095581055,0.7488597631454468,0.13046088814735413
1684206460547758800,10.9047587890625,-0.1441127061843872,0.6519089937210083,0.08208481967449188
1684206460557784800,10.914784912109376,-0.15023916959762573,0.6016726493835449,0.06143218278884888
1684206460567809800,10.924809814453125,-0.1551859974861145,0.5644954442977905,0.025898421183228493
1684206460577834500,10.93483447265625,-0.14455366134643555,0.5135557651519775,-0.010920479893684387
1684206460587860700,10.94486083984375,-0.12885725498199463,0.4673573672771454,-0.04121846333146095
1684206460597885700,10.9548857421875,-0.11021221429109573,0.4299677312374115,-0.04507504403591156
1684206460607912000,10.964911865234376,-0.09230006486177444,0.4078914523124695,-0.031849250197410583
1684206460617936600,10.9749365234375,-0.08214101940393448,0.4078090786933899,-0.007821476086974144
1684206460627963000,10.984962890625,-0.0687575712800026,0.4083092212677002,0.01783408597111702
1684206460637987600,10.994987548828124,-0.05261971428990364,0.3926090896129608,0.03685229644179344
1684206460648012500,11.005012451171876,-0.03794170171022415,0.36045992374420166,0.04965145140886307
1684206460658038500,11.01503857421875,-0.02539844810962677,0.3156384229660034,0.04945001006126404
1684206460668063700,11.025063720703125,-0.028848839923739433,0.24678930640220642,0.0468267984688282
1684206460678089700,11.03508984375,-0.034268997609615326,0.1648900955915451,0.027863560244441032
1684206460688114700,11.04511474609375,-0.05366293713450432,0.07181314378976822,-0.010014314204454422
1684206460698140700,11.055140625,-0.06598445773124695,-0.05141095817089081,-0.07413092255592346
1684206460708165600,11.06516552734375,-0.07951225340366364,-0.19542086124420166,-0.1399994194507599
1684206460718190600,11.075190673828125,-0.0846749022603035,-0.34876692295074463,-0.18275514245033264
1684206460728216600,11.085216552734375,-0.06940193474292755,-0.48792001605033875,-0.2173948734998703
1684206460738241800,11.09524169921875,-0.06422576308250427,-0.5676314830780029,-0.24966223537921906
1684206460748267800,11.105267822265626,-0.08723840117454529,-0.738352358341217,-0.2909601330757141
1684206460758292700,11.115292724609375,-0.10958187282085419,-0.8565378189086914,-0.3081752061843872
1684206460768317700,11.125317626953125,-0.1336403489112854,-0.9057580828666687,-0.3277806043624878
1684206460778343700,11.13534375,-0.14748536050319672,-0.9077207446098328,-0.34558168053627014
1684206460788368600,11.14536865234375,-0.14882732927799225,-0.8527962565422058,-0.32349395751953125
1684206460798393600,11.1553935546875,-0.14193199574947357,-0.7826453447341919,-0.2903379797935486
1684206460808418800,11.165418701171875,-0.11490251123905182,-0.7015068531036377,-0.27730661630630493
1684206460818444800,11.17544482421875,-0.08311652392148972,-0.5667610764503479,-0.27382564544677734
1684206460828469800,11.1854697265625,-0.06603127717971802,-0.3989959955215454,-0.2834939658641815
1684206460838494700,11.19549462890625,-0.058123305439949036,-0.25504690408706665,-0.28099149465560913
1684206460848520700,11.205520751953125,-0.05068190395832062,-0.147409126162529,-0.25839510560035706
1684206460858545700,11.215545654296875,-0.04242154583334923,-0.0496135875582695,-0.2388841211795807
1684206460868571600,11.225571533203125,-0.02739625796675682,0.05407099798321724,-0.23621803522109985
1684206460878596900,11.235596923828124,0.006779713090509176,0.19695793092250824,-0.21833838522434235
1684206460888622800,11.245622802734376,0.03851420432329178,0.3337740898132324,-0.20194289088249207
1684206460898647800,11.255647705078125,0.06407230347394943,0.4368229806423187,-0.20240788161754608
1684206460908672800,11.2656728515625,0.07674894481897354,0.4670559763908386,-0.23733390867710114
1684206460918698800,11.27569873046875,0.09446035325527191,0.46599695086479187,-0.2664766013622284
1684206460928723700,11.2857236328125,0.09048771113157272,0.48708784580230713,-0.2625353932380676
1684206460938749700,11.295749755859376,0.08199430257081985,0.5273172855377197,-0.24178940057754517
1684206460948775000,11.30577490234375,0.0615079328417778,0.5757061243057251,-0.23746682703495026
1684206460958799600,11.315799560546875,0.029398927465081215,0.6092307567596436,-0.24958615005016327
1684206460968825900,11.325825927734375,0.0037228590808808804,0.6291179060935974,-0.27256205677986145
1684206460978850600,11.3358505859375,-0.024122219532728195,0.6532474756240845,-0.2925665080547333
1684206460988876800,11.345876708984376,-0.050904031842947006,0.6159006357192993,-0.34195029735565186
1684206460998901500,11.355901611328125,-0.08764942735433578,0.5565643906593323,-0.4089309573173523
1684206461008927700,11.365927734375,-0.10355569422245026,0.5076088309288025,-0.48356178402900696
1684206461018952700,11.37595263671875,-0.13105890154838562,0.4533168077468872,-0.5693496465682983
1684206461028977700,11.385977783203124,-0.191104918718338,0.20598161220550537,-0.6796926259994507
1684206461039003600,11.396003662109376,-0.2704989016056061,-0.1972961723804474,-0.7673200964927673
1684206461049028600,11.406028564453125,-0.2958258390426636,-0.5388503074645996,-0.819049060344696
1684206461059054600,11.4160546875,-0.32402047514915466,-0.7430249452590942,-0.8267200589179993
1684206461069079600,11.42607958984375,-0.4644060730934143,-0.8543482422828674,-0.7663432955741882
1684206461079105500,11.43610546875,-0.5542067289352417,-0.7328749299049377,-0.6743896007537842
1684206461089130800,11.446130859375,-0.5838271975517273,-0.4828709363937378,-0.5564757585525513
1684206461099155700,11.45615576171875,-0.600176990032196,-0.24786712229251862,-0.3995738923549652
1684206461109181700,11.466181640625,-0.6252152323722839,-0.05948389321565628,-0.26520225405693054
1684206461119206700,11.47620654296875,-0.6554645299911499,0.0799475908279419,-0.17102846503257751
1684206461129232600,11.486232666015624,-0.6759170889854431,0.088018037378788,-0.11103063821792603
1684206461139257600,11.496257568359376,-0.6386901140213013,-0.03085109405219555,-0.06252302974462509
1684206461149282800,11.50628271484375,-0.5095547437667847,-0.1722596287727356,0.00853730272501707
1684206461159308500,11.51630859375,-0.31490734219551086,-0.36077964305877686,0.11485134810209274
1684206461169333800,11.526333740234374,-0.053283460438251495,-0.4175283908843994,0.22259297966957092
1684206461179359700,11.53635986328125,0.24465376138687134,-0.3597141206264496,0.3500117361545563
1684206461189384700,11.546384765625,0.47115349769592285,-0.3376375734806061,0.3747926950454712
1684206461199410700,11.55641064453125,0.6087169051170349,-0.5052860379219055,0.23432229459285736
1684206461209435600,11.566435546875,0.567840576171875,-0.8247261047363281,0.024362409487366676
1684206461219460600,11.576460693359374,0.45341500639915466,-1.1284366846084595,-0.09226693958044052
1684206461229486600,11.586486572265626,0.2850395739078522,-1.2914581298828125,-0.08913719654083252
1684206461239511800,11.59651171875,0.14290902018547058,-1.3324054479599,-0.021819092333316803
1684206461249537800,11.606537841796875,-0.007389935199171305,-1.2291275262832642,0.12275992333889008
1684206461259562800,11.616562744140625,-0.23627254366874695,-0.9996464252471924,0.3117932379245758
1684206461269587700,11.626587646484374,-0.3971858024597168,-0.86823970079422,0.43367332220077515
1684206461279613700,11.63661376953125,-0.5065783262252808,-0.8485710620880127,0.5572454929351807
1684206461289638700,11.646638671875,-0.590834379196167,-0.858329713344574,0.6897242069244385
1684206461299664600,11.65666455078125,-0.6539351344108582,-0.8486564755439758,0.8379260301589966
1684206461309689900,11.66668994140625,-0.6631842851638794,-0.8265157341957092,0.9997721910476685
1684206461319715800,11.6767158203125,-0.6507881879806519,-0.7303743362426758,1.14494788646698
1684206461329740800,11.68674072265625,-0.6047373414039612,-0.6117467284202576,1.2728378772735596
1684206461339765800,11.696765869140625,-0.534648060798645,-0.44772830605506897,1.3700006008148193
1684206461349791700,11.706791748046875,-0.4366234540939331,-0.3137023150920868,1.429100751876831
1684206461359816700,11.716816650390625,-0.29176634550094604,-0.241705983877182,1.4325988292694092
1684206461369842700,11.7268427734375,-0.12464738637208939,-0.08096504211425781,1.3916527032852173
1684206461379868000,11.736867919921876,0.041111111640930176,0.08373372256755829,1.2726176977157593
1684206461389894000,11.746893798828125,0.13730181753635406,0.11144284904003143,1.077386736869812
1684206461399918800,11.7569189453125,0.2578091025352478,0.03736080601811409,0.8528965711593628
1684206461409943800,11.76694384765625,0.3173438012599945,-0.11907434463500977,0.643671452999115
1684206461419969800,11.7769697265625,0.3562602698802948,-0.3665660619735718,0.42718473076820374
1684206461429994800,11.786994873046876,0.39571526646614075,-0.6658129692077637,0.20235934853553772
1684206461440020700,11.797020751953125,0.4055038094520569,-0.9429377317428589,-0.013713396154344082
1684206461450046000,11.8070458984375,0.37959685921669006,-1.1561943292617798,-0.17017464339733124
1684206461460070700,11.817070556640624,0.3352853059768677,-1.2868701219558716,-0.21344242990016937
1684206461470097000,11.827096923828124,0.28601309657096863,-1.365598440170288,-0.19207055866718292
1684206461480121600,11.83712158203125,0.2433568239212036,-1.390920639038086,-0.12009170651435852
1684206461490147800,11.84714794921875,0.2270822525024414,-1.3698440790176392,-0.02374359779059887
1684206461500172500,11.857172607421875,0.24911998212337494,-1.235439419746399,0.0816061943769455
1684206461510198500,11.867198486328125,0.29219532012939453,-1.0021432638168335,0.19939514994621277
1684206461520223700,11.8772236328125,0.36557579040527344,-0.7474534511566162,0.32435742020606995
1684206461530248700,11.887248779296876,0.4403967559337616,-0.5059113502502441,0.45929285883903503
1684206461540274700,11.897274658203125,0.5021685361862183,-0.3049554228782654,0.5939360857009888
1684206461550299600,11.907299560546875,0.5562615990638733,-0.09529995173215866,0.7273892164230347
1684206461560325600,11.91732568359375,0.6084499955177307,0.146352618932724,0.835767924785614
1684206461570350600,11.9273505859375,0.6545644998550415,0.39410677552223206,0.8982270359992981
1684206461580376600,11.93737646484375,0.6835948824882507,0.6811516880989075,0.9381306171417236
1684206461590401500,11.947401611328125,0.6899552941322327,0.8628839254379272,0.9393783211708069
1684206461600426800,11.9574267578125,0.7126238346099854,0.8982312679290771,0.8831546902656555
1684206461610452700,11.96745263671875,0.7098397612571716,0.8771419525146484,0.8172881007194519
1684206461620477700,11.977477783203126,0.6853224635124207,0.8823269605636597,0.7731248736381531
1684206461630503700,11.987503662109376,0.6528859734535217,0.8807567358016968,0.6981446146965027
1684206461640528600,11.997528564453125,0.6095331311225891,0.9355753660202026,0.6069366335868835
1684206461650553600,12.0075537109375,0.5558459162712097,0.9678235650062561,0.5050427913665771
1684206461660579600,12.01757958984375,0.4867286682128906,0.9823707938194275,0.4299204349517822
1684206461670604800,12.027604736328126,0.43592193722724915,0.9123717546463013,0.33138880133628845
1684206461680630800,12.037630859375,0.38416072726249695,0.8757185935974121,0.24376724660396576
1684206461690655700,12.04765576171875,0.3104814291000366,0.8557280898094177,0.169668510556221
1684206461700681700,12.057681640625,0.2302662879228592,0.8283958435058594,0.07715678960084915
1684206461710706700,12.067706787109374,0.15318696200847626,0.7972413897514343,-0.02557571418583393
1684206461720731600,12.077731689453126,0.11896912008523941,0.7102019786834717,-0.14580070972442627
1684206461730757600,12.087757568359375,0.09075985103845596,0.5917052030563354,-0.26010891795158386
1684206461740782800,12.097782958984375,0.08444732427597046,0.4771982729434967,-0.37605753540992737
1684206461750808800,12.107808837890625,0.08098840713500977,0.37917637825012207,-0.4870639443397522
1684206461760833800,12.117833740234374,0.07529359310865402,0.31202539801597595,-0.5794586539268494
1684206461770858800,12.127858642578126,0.10203785449266434,0.22544735670089722,-0.6451553702354431
1684206461780884700,12.137884765625,0.13815973699092865,0.23232212662696838,-0.6340067386627197
1684206461790909700,12.14790966796875,0.13454928994178772,0.3041380047798157,-0.5890933275222778
1684206461800935700,12.157935791015625,0.16348788142204285,0.3892209231853485,-0.5045626759529114
1684206461810961000,12.1679609375,0.08827702701091766,0.42120710015296936,-0.42059555649757385
1684206461820986600,12.177986572265626,-0.015524459071457386,0.35454967617988586,-0.3624930679798126
1684206461831011800,12.18801171875,-0.1186889261007309,0.23029005527496338,-0.3453814387321472
1684206461841036800,12.198036865234375,-0.22933438420295715,0.09328611940145493,-0.36382415890693665
1684206461851062800,12.208062744140625,-0.3135238289833069,-0.012290102429687977,-0.3899739980697632
1684206461861087700,12.218087646484374,-0.3627726137638092,-0.06886860728263855,-0.36466044187545776
1684206461871113700,12.22811376953125,-0.39969122409820557,-0.05086616799235344,-0.3090650737285614
1684206461881138700,12.238138671875,-0.4178008735179901,0.01737697795033455,-0.253238707780838
1684206461891164700,12.24816455078125,-0.385605126619339,0.09433460980653763,-0.16336233913898468
1684206461901190000,12.25818994140625,-0.3194691836833954,0.20461122691631317,0.06552661210298538
1684206461911214800,12.26821484375,-0.190889373421669,0.2760196328163147,0.45205727219581604
1684206461921240800,12.27824072265625,-0.05066487938165665,-0.04448550194501877,1.072088360786438
1684206461931265800,12.288265869140625,0.01475487370043993,0.09023822844028473,1.7819757461547852
1684206461941291800,12.298291748046875,0.25595101714134216,0.3162440359592438,2.031951904296875
1684206461951316700,12.308316650390625,0.5826612710952759,0.5791086554527283,1.6807615756988525
1684206461961342000,12.318342041015624,0.6716418862342834,1.301285982131958,1.116014838218689
1684206461971368000,12.328367919921876,0.5407158136367798,1.9641753435134888,0.6441956758499146
1684206461981393000,12.338392822265625,0.544576108455658,1.9671252965927124,0.06951597332954407
1684206461991419000,12.3484189453125,0.5221323370933533,1.1550880670547485,-0.7038577198982239
1684206462001443800,12.35844384765625,0.5905322432518005,0.07806544750928879,-1.1530669927597046
1684206462011469800,12.3684697265625,0.4932080805301666,-1.0563240051269531,-1.442110538482666
1684206462021494800,12.378494873046876,0.4253203868865967,-1.4504879713058472,-1.2261853218078613
1684206462031519700,12.388519775390625,0.24632799625396729,-1.3822433948516846,-0.661256730556488
1684206462041546000,12.3985458984375,0.011444264091551304,-1.0853646993637085,0.0005384485702961683
1684206462051570700,12.40857080078125,-0.06889371573925018,-0.507312536239624,0.7261699438095093
1684206462061597000,12.418596923828124,-0.07873988896608353,0.25732842087745667,1.0500320196151733
1684206462071621600,12.42862158203125,-0.0798666775226593,0.7981790900230408,0.904213011264801
1684206462081647900,12.43864794921875,-0.08763668686151505,1.023196816444397,0.4870992600917816
1684206462091672600,12.448672607421875,-0.13912436366081238,0.891848623752594,0.03262656182050705
