time,seconds_elapsed,z,y,x
1684206706613819400,0.0358193359375,0.031188715249300003,-0.00827787909656763,0.010041004046797752
1684206706623844400,0.04584423828125,0.024188131093978882,-0.035129938274621964,-0.040254347026348114
1684206706633870300,0.055870361328125,0.010701083578169346,-0.06013382598757744,-0.0729273334145546
1684206706643895300,0.065895263671875,0.005957695655524731,-0.05950988084077835,-0.08518002927303314
1684206706653920500,0.07592041015625,-0.07763706892728806,0.003609436098486185,-0.16152752935886383
1684206706663945500,0.085945556640625,-0.010337818413972855,0.038949575275182724,-0.1616901308298111
1684206706673970400,0.095970458984375,-0.052532412111759186,0.02502923086285591,-0.12750446796417236
1684206706683996400,0.105996337890625,-0.36886483430862427,0.08904846012592316,-0.1719599813222885
1684206706694021400,0.116021484375,-0.5148372650146484,0.15712419152259827,-0.18285150825977325
1684206706704046600,0.126046630859375,-0.5013394355773926,0.10429933667182922,-0.1687072515487671
1684206706714071300,0.1360712890625,-0.41337811946868896,0.0016677671810612082,-0.1716359257698059
1684206706724096300,0.14609619140625,-0.22632893919944763,-0.10646232962608337,-0.18636614084243774
1684206706734122200,0.156122314453125,0.004631577990949154,-0.15167666971683502,-0.19367624819278717
1684206706744147200,0.166147216796875,0.000650275032967329,-0.14093805849552155,-0.1923251897096634
1684206706754172400,0.17617236328125,-0.006229734979569912,-0.15264344215393066,-0.2011309266090393
1684206706764197400,0.186197265625,-0.025789348408579826,-0.16457641124725342,-0.23298123478889465
1684206706774222300,0.196222412109375,-0.040583740919828415,-0.16149140894412994,-0.2658046782016754
1684206706784248300,0.206248291015625,-0.03840155154466629,-0.1553971916437149,-0.2594030499458313
1684206706794273300,0.216273193359375,-0.03460761532187462,-0.13898280262947083,-0.23706018924713135
1684206706804298500,0.226298583984375,-0.1722588986158371,-0.10324663668870926,-0.2465088814496994
1684206706814323500,0.236323486328125,-0.3606194853782654,-0.10744164884090424,-0.2666815221309662
1684206706824348400,0.246348388671875,-0.4743308126926422,-0.10206683725118637,-0.2795763313770294
1684206706834374400,0.25637451171875,-0.5165296196937561,-0.09848115593194962,-0.2988123595714569
1684206706844399400,0.2663994140625,-0.49985194206237793,-0.13518276810646057,-0.3242040276527405
1684206706854424600,0.276424560546875,-0.468397855758667,-0.14916355907917023,-0.3264152705669403
1684206706864449300,0.28644921875,-0.4753340482711792,-0.1748378425836563,-0.328031986951828
1684206706874474200,0.29647412109375,-0.5038370490074158,-0.16305816173553467,-0.3161364495754242
1684206706884499200,0.306499267578125,-0.48692843317985535,-0.1892353892326355,-0.3242277503013611
1684206706894525200,0.316525146484375,-0.45802274346351624,-0.1900007724761963,-0.3237428069114685
1684206706904550400,0.32655029296875,-0.419257253408432,-0.18995817005634308,-0.3180218040943146
1684206706914575400,0.336575439453125,-0.3870109021663666,-0.1639590561389923,-0.31121450662612915
1684206706924600300,0.346600341796875,-0.35293152928352356,-0.1727287769317627,-0.33196112513542175
1684206706934625300,0.356625244140625,-0.3411009609699249,-0.1664932519197464,-0.3745141923427582
1684206706944651300,0.3666513671875,-0.45848190784454346,-0.16196909546852112,-0.39996078610420227
1684206706954676500,0.376676513671875,-0.6911143064498901,-0.1675281822681427,-0.4332367181777954
1684206706964701400,0.386701416015625,-0.9649136662483215,-0.15682688355445862,-0.46390479803085327
1684206706974726400,0.396726318359375,-1.1579581499099731,-0.13694852590560913,-0.46235376596450806
1684206706984751400,0.40675146484375,-1.2216196060180664,-0.15261775255203247,-0.4133163392543793
1684206706994777300,0.41677734375,-1.1983739137649536,-0.21524783968925476,-0.3488691747188568
1684206707004802600,0.426802490234375,-1.1362327337265015,-0.2897423505783081,-0.29938504099845886
1684206707014827500,0.43682763671875,-1.0818616151809692,-0.2576715052127838,-0.35118910670280457
1684206707024852200,0.446852294921875,-1.1150612831115723,-0.1696009337902069,-0.34445664286613464
1684206707034877200,0.456877197265625,-1.1266745328903198,-0.15842844545841217,-0.36650335788726807
1684206707044902700,0.466902587890625,-1.0781179666519165,-0.20915715396404266,-0.3989129066467285
1684206707054927600,0.476927734375,-1.2252647876739502,-0.20047445595264435,-0.3483208417892456
1684206707064952600,0.48695263671875,-1.4558687210083008,-0.12226814031600952,-0.24298936128616333
1684206707074977500,0.4969775390625,-1.6054456233978271,-0.10180414468050003,-0.2321566790342331
1684206707085002800,0.507002685546875,-1.6832550764083862,-0.18451669812202454,-0.22862060368061066
1684206707095028700,0.51702880859375,-1.7192906141281128,-0.3409491777420044,-0.2483018934726715
1684206707105053700,0.5270537109375,-1.753564715385437,-0.3973660171031952,-0.24690960347652435
1684206707115078700,0.53707861328125,-1.7287594079971313,-0.3169044852256775,-0.3036128282546997
1684206707125103600,0.547103515625,-1.5945370197296143,-0.0506693497300148,-0.31309568881988525
1684206707135128800,0.55712890625,-1.4060598611831665,0.07371518015861511,-0.2911160886287689
1684206707145154800,0.56715478515625,-1.223328948020935,-0.09055282175540924,-0.32492923736572266
1684206707155179800,0.5771796875,-1.044311761856079,-0.3326754570007324,-0.36031651496887207
1684206707165204500,0.58720458984375,-0.8365046381950378,-0.5161089301109314,-0.35918712615966797
1684206707175229400,0.5972294921875,-0.5278993844985962,-0.6198529005050659,-0.3032042980194092
1684206707185254700,0.607254638671875,-0.1291378140449524,-0.322183221578598,-0.12714217603206635
1684206707195279600,0.617279541015625,0.08903473615646362,0.13596464693546295,-0.10976266115903854
1684206707205305600,0.6273056640625,0.003297327784821391,-0.10482358187437057,-0.28250202536582947
1684206707215330600,0.63733056640625,0.008741095662117004,-0.26998457312583923,-0.24710065126419067
1684206707225355500,0.64735546875,-0.0026115579530596733,-0.22302237153053284,-0.17182783782482147
1684206707235380700,0.657380615234375,-0.017394497990608215,-0.03229476884007454,-0.15773066878318787
1684206707245405700,0.66740576171875,0.012324768118560314,0.04399620741605759,-0.14334598183631897
1684206707255431700,0.677431640625,0.021862346678972244,0.04493843391537666,-0.14931412041187286
1684206707265456600,0.68745654296875,0.016795098781585693,0.07966206967830658,-0.09361670166254044
1684206707275481600,0.697481689453125,0.008578447625041008,0.05187198147177696,-0.07289464771747589
1684206707285506800,0.7075068359375,0.010396542027592659,0.07453565299510956,-0.05923251062631607
1684206707295531500,0.717531494140625,0.0031122637446969748,0.09181930124759674,-0.07796571403741837
1684206707305557800,0.727557861328125,-0.004700262565165758,0.07368233054876328,-0.11238117516040802
1684206707315582500,0.73758251953125,0.0647810772061348,0.39226269721984863,0.011563406325876713
1684206707325607400,0.747607421875,0.02272339165210724,0.2589581608772278,-0.0410652793943882
1684206707335632600,0.757632568359375,-0.025194332003593445,-0.31208378076553345,-0.4080619215965271
1684206707345657600,0.76765771484375,0.00012608780525624752,-0.15766921639442444,-0.31436124444007874
1684206707355683600,0.77768359375,-0.0003612707369029522,-0.06087557226419449,-0.2467038929462433
1684206707365708500,0.78770849609375,0.013502437621355057,0.007204869296401739,-0.21760326623916626
1684206707375733500,0.7977333984375,0.011525040492415428,0.038669317960739136,-0.18349668383598328
1684206707385758700,0.8077587890625,0.008018086664378643,0.025833427906036377,-0.1486072689294815
1684206707395783700,0.81778369140625,-0.006108918227255344,0.028423085808753967,-0.10523290932178497
1684206707405809700,0.8278095703125,0.00009285635314881802,0.045274727046489716,-0.0750056579709053
1684206707415834600,0.837834716796875,-0.024733928963541985,0.05541311204433441,-0.06757862865924835
1684206707425859600,0.847859619140625,-0.023939009755849838,0.07107247412204742,-0.0715251937508583
1684206707435884800,0.857884765625,-0.025618931278586388,0.1010705828666687,-0.08576058596372604
1684206707445909800,0.86790966796875,-0.02323479950428009,0.16145744919776917,-0.10837951302528381
1684206707455935700,0.877935791015625,-0.024715516716241837,0.2372659295797348,-0.11548428982496262
1684206707465960700,0.887960693359375,-0.016664382070302963,0.2808424234390259,-0.1143435463309288
1684206707475985400,0.8979853515625,-0.018647905439138412,0.3210015594959259,-0.11791910976171494
1684206707486010600,0.9080107421875,-0.01540060993283987,0.3549099564552307,-0.0953550785779953
1684206707496035600,0.91803564453125,0.005788831040263176,0.3659120202064514,-0.054574623703956604
1684206707506060500,0.928060546875,0.019645512104034424,0.3743440508842468,-0.006627987138926983
1684206707516086500,0.93808642578125,0.03236556798219681,0.39376941323280334,0.03766091540455818
1684206707526111500,0.948111572265625,0.04447776824235916,0.4404829442501068,0.08371757715940475
1684206707536136700,0.95813671875,0.06409194320440292,0.5173805952072144,0.13051198422908783
1684206707546161700,0.96816162109375,0.0866365060210228,0.5943824648857117,0.18283364176750183
1684206707556186600,0.9781865234375,0.11087606847286224,0.6613212823867798,0.23645558953285217
1684206707566212600,0.988212646484375,0.09170117229223251,0.7363846898078918,0.27026796340942383
1684206707576237600,0.998237548828125,0.09655558317899704,0.7758426070213318,0.2752020061016083
1684206707586262800,1.0082626953125,0.09941349178552628,0.7824130058288574,0.262186735868454
1684206707596287700,1.018287841796875,0.10058368742465973,0.7421953082084656,0.24380746483802795
1684206707606312400,1.0283125,0.11042619496583939,0.6329303979873657,0.2390773594379425
1684206707616338700,1.038338623046875,0.11907054483890533,0.49547266960144043,0.2262776792049408
1684206707626363400,1.04836328125,0.16044631600379944,0.36824148893356323,0.19755668938159943
1684206707636388600,1.058388671875,0.15442624688148499,0.3499128222465515,0.17780429124832153
1684206707646413600,1.06841357421875,0.11825107038021088,0.40146687626838684,0.17074446380138397
1684206707656438500,1.0784384765625,0.08194765448570251,0.45077505707740784,0.17574508488178253
1684206707666463500,1.08846337890625,0.04573517665266991,0.4744380712509155,0.19661280512809753
1684206707676489500,1.098489501953125,-0.010052189230918884,0.4409581422805786,0.22277197241783142
1684206707686514700,1.1085146484375,-0.08546394109725952,0.45538046956062317,0.25373339653015137
1684206707696539600,1.11853955078125,-0.15942791104316711,0.5302656292915344,0.27142104506492615
1684206707706564600,1.128564697265625,-0.21270927786827087,0.5757087469100952,0.27800315618515015
1684206707716589600,1.138589599609375,-0.2742386758327484,0.48541805148124695,0.28120213747024536
1684206707726615600,1.148615478515625,-0.31762123107910156,0.3629860281944275,0.24738290905952454
1684206707736640800,1.158640869140625,-0.33517971634864807,0.2773451507091522,0.18590596318244934
1684206707746665700,1.168665771484375,-0.3387420177459717,0.20370988547801971,0.13994531333446503
1684206707756690700,1.178690673828125,-0.32498306035995483,0.11305375397205353,0.09764152765274048
1684206707766715600,1.188715576171875,-0.29740408062934875,0.05627980828285217,0.06088127940893173
1684206707776741600,1.19874169921875,-0.28201526403427124,0.05396845191717148,0.029981691390275955
1684206707786766600,1.2087666015625,-0.2643558382987976,0.07789082825183868,0.0006666774861514568
1684206707796791600,1.21879150390625,-0.23187407851219177,0.08673971146345139,-0.012270426377654076
1684206707806816500,1.22881640625,-0.21900413930416107,0.13511453568935394,0.00305394409224391
1684206707816841700,1.238841796875,-0.2133909910917282,0.1802239567041397,-0.010415259748697281
1684206707826866700,1.24886669921875,-0.19804053008556366,0.2407323122024536,-0.05054909735918045
1684206707836892700,1.258892578125,-0.18153347074985504,0.28657516837120056,-0.09071729332208633
1684206707846917600,1.268917724609375,-0.16165786981582642,0.2821900248527527,-0.12405115365982056
1684206707856942600,1.278942626953125,-0.14758305251598358,0.2079767882823944,-0.1477932333946228
1684206707866967600,1.288967529296875,-0.13479028642177582,0.11195740848779678,-0.1594204306602478
1684206707876992800,1.29899267578125,-0.11377261579036713,0.10380253940820694,-0.16854548454284668
1684206707887018800,1.309018798828125,-0.1072179526090622,0.11456772685050964,-0.18360061943531036
1684206707897043700,1.319043701171875,-0.09928199648857117,0.10052114725112915,-0.22918115556240082
1684206707907068700,1.329068603515625,-0.08859124034643173,0.09753374010324478,-0.28126755356788635
1684206707917093600,1.33909375,-0.08812412619590759,0.12299223244190216,-0.3309323191642761
1684206707927118600,1.34911865234375,-0.08587940037250519,0.1367911398410797,-0.36296820640563965
1684206707937144600,1.35914453125,-0.09436503052711487,0.1326427310705185,-0.35251584649086
1684206707947169500,1.36916943359375,-0.14180420339107513,0.12649290263652802,-0.3060222268104553
1684206707957194500,1.379194580078125,-0.22605463862419128,0.12445983290672302,-0.2511081099510193
1684206707967219700,1.3892197265625,-0.2573786973953247,0.09600213170051575,-0.19151799380779266
1684206707977244700,1.39924462890625,-0.243870347738266,0.09182389825582504,-0.14751164615154266
1684206707987270700,1.409270751953125,-0.2603800296783447,0.14343653619289398,-0.14953427016735077
1684206707997295600,1.419295654296875,-0.28941085934638977,0.19810084998607635,-0.14693209528923035
1684206708007320600,1.429320556640625,-0.31432339549064636,0.1911531388759613,-0.1338030993938446
1684206708017345800,1.439345703125,-0.3495921790599823,0.18332956731319427,-0.13157989084720612
1684206708027370800,1.449370849609375,-0.39212295413017273,0.1602785587310791,-0.16542702913284302
1684206708037396000,1.45939599609375,-0.4417206048965454,0.09851052612066269,-0.22161173820495605
1684206708047422000,1.469421875,-0.4592086970806122,0.02974453940987587,-0.2896438241004944
1684206708057447000,1.479447021484375,-0.4476258158683777,-0.0201303418725729,-0.36388877034187317
1684206708067472000,1.489471923828125,-0.4338020384311676,-0.028898680582642555,-0.4318397343158722
1684206708077497000,1.4994970703125,-0.394618958234787,-0.016847344115376472,-0.4432726800441742
1684206708087522000,1.50952197265625,-0.3587910532951355,0.026622522622346878,-0.3896172344684601
1684206708097548000,1.519548095703125,-0.3396589159965515,0.07480257004499435,-0.2886162996292114
1684206708107573000,1.529572998046875,-0.28157126903533936,0.09311091899871826,-0.17253446578979492
1684206708117598000,1.539597900390625,-0.20785737037658691,0.03490167856216431,-0.07215406745672226
1684206708127623200,1.549623046875,-0.1153179183602333,-0.04459953308105469,-0.02117733471095562
1684206708137648000,1.559648193359375,-0.028850678354501724,-0.09733651578426361,0.00995608326047659
1684206708147673000,1.569673095703125,0.045784372836351395,-0.15657447278499603,0.028219161555171013
1684206708157699000,1.579698974609375,0.12710000574588776,-0.21043476462364197,0.04348040372133255
1684206708167724000,1.58972412109375,0.23034006357192993,-0.2307800054550171,0.0459296889603138
1684206708177749200,1.599749267578125,0.35600000619888306,-0.18106038868427277,0.08180885761976242
1684206708187774000,1.60977392578125,0.5037134289741516,-0.06741330772638321,0.1308751255273819
1684206708197799000,1.619798828125,0.6270276308059692,0.05975689738988876,0.17050403356552124
1684206708207825000,1.629824951171875,0.6854146122932434,0.19031769037246704,0.2209034264087677
1684206708217849900,1.639849853515625,0.6558883786201477,0.29917943477630615,0.25418519973754883
1684206708227875000,1.649875,0.5586348176002502,0.33529359102249146,0.271917462348938
1684206708237900000,1.659900146484375,0.46479326486587524,0.3417344391345978,0.2865923047065735
1684206708247925000,1.669925048828125,0.3812865912914276,0.3547710180282593,0.32307687401771545
1684206708257950000,1.679949951171875,0.3380272686481476,0.31203022599220276,0.383370041847229
1684206708267976000,1.689975830078125,0.33740711212158203,0.25760531425476074,0.4878894090652466
1684206708278001200,1.700001220703125,0.3390127420425415,0.24893058836460114,0.5824851393699646
1684206708288026000,1.710026123046875,0.31595781445503235,0.2905934453010559,0.670139729976654
1684206708298051000,1.720051025390625,0.3147316873073578,0.2688945531845093,0.7542378306388855
1684206708308076000,1.730075927734375,0.30066007375717163,0.20511342585086823,0.8536728620529175
1684206708318102000,1.74010205078125,0.3220764100551605,0.1980145126581192,0.9684374928474426
1684206708328127200,1.750127197265625,0.3756091892719269,0.19858978688716888,1.068198800086975
1684206708338152000,1.76015185546875,0.4055393934249878,0.29848042130470276,1.177231788635254
1684206708348177000,1.770177001953125,0.40810906887054443,0.49488401412963867,1.2766568660736084
1684206708358201900,1.780201904296875,0.41836169362068176,0.5984045267105103,1.284880518913269
1684206708368227000,1.79022705078125,0.4039320647716522,0.6037505269050598,1.2607194185256958
1684206708378253000,1.800253173828125,0.39304640889167786,0.49350520968437195,1.2047014236450195
1684206708388278000,1.810278076171875,0.37348130345344543,0.31479611992836,1.145861268043518
1684206708398303000,1.820302978515625,0.3359065055847168,0.10917238891124725,1.0992275476455688
1684206708408328000,1.830327880859375,0.26620325446128845,-0.05342240631580353,1.047326922416687
1684206708418353200,1.840353271484375,0.22381797432899475,-0.12932276725769043,0.9867395758628845
1684206708428379100,1.850379150390625,0.18809960782527924,-0.10154032707214355,0.9395592212677002
1684206708438404000,1.860404052734375,0.15066781640052795,-0.08335147053003311,0.898639976978302
1684206708448429000,1.870428955078125,0.14011608064174652,-0.08299360424280167,0.901649534702301
1684206708458454000,1.8804541015625,0.11649385094642639,-0.13787390291690826,0.9329906702041626
1684206708468479200,1.890479248046875,0.0877305269241333,-0.29197755455970764,0.912493884563446
1684206708478504000,1.90050390625,0.05480533093214035,-0.44294920563697815,0.8352784514427185
1684206708488530200,1.9105302734375,0.06324851512908936,-0.5744401216506958,0.7074524164199829
1684206708498555000,1.920554931640625,0.09534572809934616,-0.6725552082061768,0.573318600654602
1684206708508580000,1.930580078125,0.14828668534755707,-0.7335100173950195,0.4459854066371918
1684206708518605000,1.94060498046875,0.2391960769891739,-0.7046128511428833,0.31839337944984436
1684206708528630000,1.950630126953125,0.33859673142433167,-0.6589534878730774,0.21169261634349823
1684206708538656000,1.960656005859375,0.4156896471977234,-0.6683544516563416,0.1415952891111374
1684206708548681000,1.970680908203125,0.4606737494468689,-0.685776948928833,0.09700725227594376
1684206708558706000,1.980705810546875,0.48958954215049744,-0.6721418499946594,0.06803205609321594
1684206708568731100,1.990731201171875,0.5235106945037842,-0.6402628421783447,0.04979316145181656
1684206708578756000,2.000756103515625,0.5453662276268005,-0.5820863842964172,0.044097721576690674
1684206708588781000,2.010781005859375,0.5538532733917236,-0.4780442714691162,0.033532772213220596
1684206708598807000,2.02080712890625,0.5625106692314148,-0.3955067992210388,0.013100465759634972
1684206708608832000,2.03083203125,0.5683742761611938,-0.37099093198776245,-0.03333364427089691
1684206708618857200,2.040857177734375,0.5761240720748901,-0.40511852502822876,-0.1196855753660202
1684206708628882000,2.0508818359375,0.5952262878417969,-0.4828919470310211,-0.22116148471832275
1684206708638907000,2.060906982421875,0.6636005640029907,-0.5316914319992065,-0.2904883623123169
1684206708648932900,2.070932861328125,0.7662218809127808,-0.48855581879615784,-0.31151026487350464
1684206708658958000,2.0809580078125,0.8617041707038879,-0.36592283844947815,-0.28243839740753174
1684206708668983000,2.090983154296875,0.8721913695335388,-0.16014742851257324,-0.22529837489128113
1684206708679008000,2.101008056640625,0.759505569934845,0.014442496001720428,-0.14323067665100098
1684206708689033000,2.111032958984375,0.5856062173843384,0.011644283309578896,-0.03337610512971878
1684206708699058200,2.12105810546875,0.4365967810153961,-0.0686739906668663,0.09926901757717133
1684206708709084200,2.131084228515625,0.33698371052742004,-0.18956802785396576,0.18709926307201385
1684206708719109000,2.141109130859375,0.3226340413093567,-0.3190389573574066,0.20621517300605774
1684206708729134000,2.151134033203125,0.35702770948410034,-0.4089319109916687,0.19161178171634674
1684206708739159000,2.161158935546875,0.4088629484176636,-0.4762137532234192,0.183558389544487
1684206708749184300,2.171184326171875,0.45580244064331055,-0.49101072549819946,0.1487790197134018
1684206708759210000,2.1812099609375,0.4759122431278229,-0.41448691487312317,0.09229949861764908
1684206708769235200,2.191235107421875,0.42043814063072205,-0.296941339969635,0.000595463439822197
1684206708779260200,2.20126025390625,0.3268333673477173,-0.22119277715682983,-0.1032707467675209
1684206708789284900,2.211284912109375,0.21512538194656372,-0.20787867903709412,-0.1923651099205017
1684206708799310000,2.22131005859375,0.0937211886048317,-0.21347825229167938,-0.2730836570262909
1684206708809335000,2.2313349609375,-0.023555338382720947,-0.22916318476200104,-0.3734533488750458
1684206708819361000,2.241361083984375,-0.10398013889789581,-0.21692515909671783,-0.48043546080589294
1684206708829386000,2.251385986328125,-0.13570746779441833,-0.13987043499946594,-0.6233087182044983
1684206708839411000,2.261410888671875,-0.13442888855934143,0.011423738673329353,-0.7711794376373291
1684206708849436200,2.271436279296875,-0.11592187732458115,0.10975651443004608,-0.8618640303611755
1684206708859461000,2.281461181640625,-0.1379038691520691,0.0849907174706459,-0.8797051310539246
1684206708869486000,2.291486083984375,-0.16000400483608246,-0.02062840573489666,-0.8534981608390808
1684206708879512000,2.301511962890625,-0.1410689353942871,-0.21875640749931335,-0.7758691310882568
1684206708889537000,2.311537109375,-0.13375192880630493,-0.43713244795799255,-0.6987229585647583
1684206708899562200,2.321562255859375,-0.13078810274600983,-0.5614187121391296,-0.6730945706367493
1684206708909587200,2.331587158203125,-0.11822861433029175,-0.5829439163208008,-0.7106298208236694
1684206708919612000,2.34161181640625,-0.1250561624765396,-0.5742081999778748,-0.7537661194801331
1684206708929638100,2.35163818359375,-0.17628434300422668,-0.5384373664855957,-0.736526370048523
1684206708939662800,2.361662841796875,-0.2851589024066925,-0.5279897451400757,-0.6693335175514221
1684206708949688000,2.37168798828125,-0.4370958209037781,-0.5567647814750671,-0.6067138314247131
1684206708959713000,2.381713134765625,-0.605591356754303,-0.5690414309501648,-0.5656212568283081
1684206708969738000,2.391738037109375,-0.7628904581069946,-0.5554141998291016,-0.5644993185997009
1684206708979764000,2.401763916015625,-0.8886203765869141,-0.5348463654518127,-0.5897535681724548
1684206708989789000,2.411788818359375,-0.9728327989578247,-0.5550422072410583,-0.6388477087020874
1684206708999814100,2.421814208984375,-1.0361214876174927,-0.6440554857254028,-0.6812809109687805
1684206709009839000,2.431839111328125,-1.094354510307312,-0.7099224925041199,-0.6427735090255737
1684206709019864000,2.441864013671875,-1.1210750341415405,-0.6883841753005981,-0.4570044279098511
1684206709029889000,2.451888916015625,-1.0899897813796997,-0.6459032893180847,-0.22474057972431183
1684206709039914800,2.461914794921875,-0.8488919138908386,-0.6974599957466125,-0.06768094003200531
1684206709049940000,2.47193994140625,-0.5062530040740967,-0.7592911124229431,0.043653182685375214
1684206709059964700,2.481964599609375,-0.19187985360622406,-0.6155027747154236,0.20618590712547302
1684206709069989600,2.49198974609375,0.053025200963020325,-0.20489159226417542,0.4164826571941376
1684206709080014600,2.5020146484375,0.23380030691623688,0.29379063844680786,0.5524958968162537
1684206709090039800,2.512039794921875,0.31521573662757874,0.7272161245346069,0.5973020195960999
1684206709100065800,2.522065673828125,0.34537577629089355,0.976317286491394,0.49700281023979187
1684206709110090800,2.5320908203125,0.31302085518836975,0.927243709564209,0.2577557861804962
1684206709120115700,2.54211572265625,0.19591926038265228,0.6216859221458435,-0.1152966320514679
1684206709130140700,2.552140625,0.03550342842936516,0.08972173929214478,-0.5004437565803528
1684206709140166000,2.562165771484375,-0.15288805961608887,-0.5468067526817322,-0.7117270231246948
1684206709150191900,2.57219189453125,-0.29992684721946716,-1.0419384241104126,-0.7031844854354858
1684206709160216800,2.582216796875,-0.3746120035648346,-1.1937683820724487,-0.5622504949569702
1684206709170241800,2.59224169921875,-0.46714726090431213,-1.0846304893493652,-0.43708622455596924
1684206709180266800,2.602266845703125,-0.4964127242565155,-0.9056378602981567,-0.3187454640865326
1684206709190291700,2.612291748046875,-0.4609560966491699,-0.6094996333122253,-0.20508818328380585
1684206709200316700,2.622316650390625,-0.42121750116348267,-0.2002120167016983,-0.09506341069936752
1684206709210342700,2.6323427734375,-0.4023175835609436,0.2131415158510208,0.03081498108804226
1684206709220367600,2.64236767578125,-0.410015732049942,0.5258288383483887,0.13196051120758057
1684206709230392600,2.652392578125,-0.40162062644958496,0.7015302777290344,0.15569068491458893
1684206709240417800,2.662417724609375,-0.3254680633544922,0.7346016764640808,0.11313710361719131
1684206709250442800,2.67244287109375,-0.23308992385864258,0.6554145812988281,0.04512443765997887
1684206709260467700,2.6824677734375,-0.1340717375278473,0.5555635690689087,-0.026911936700344086
1684206709270493700,2.69249365234375,-0.026573073118925095,0.5114315748214722,-0.09408871829509735
1684206709280518700,2.7025185546875,0.09288008511066437,0.5425008535385132,-0.15127716958522797
1684206709290543900,2.7125439453125,0.14970479905605316,0.6265048384666443,-0.18391332030296326
1684206709300568800,2.72256884765625,0.14640061557292938,0.7332099676132202,-0.21258759498596191
1684206709310593800,2.73259375,0.1444118618965149,0.8000702857971191,-0.21796149015426636
1684206709320619800,2.742619873046875,0.13091282546520233,0.793504536151886,-0.20069703459739685
1684206709330644700,2.752644775390625,0.10131711512804031,0.7495473027229309,-0.1499129980802536
1684206709340670000,2.762669921875,0.0773199051618576,0.6880871653556824,-0.09945274889469147
1684206709350694700,2.772694580078125,0.042398031800985336,0.6506702899932861,-0.05402974784374237
1684206709360719600,2.7827197265625,0.040227554738521576,0.5508744716644287,-0.04801526665687561
1684206709370744800,2.792744873046875,0.07233253121376038,0.3947699964046478,-0.07286752760410309
1684206709380770600,2.8027705078125,0.10514720529317856,0.2598739564418793,-0.08913224935531616
1684206709390795800,2.812795654296875,0.11202434450387955,0.19424904882907867,-0.07478953897953033
1684206709400820700,2.82282080078125,0.11736957728862762,0.154120534658432,-0.0687183290719986
1684206709410845700,2.832845703125,0.14460566639900208,0.14424963295459747,-0.12077060341835022
1684206709420870700,2.84287060546875,0.18429714441299438,0.12156908214092255,-0.2135213166475296
1684206709430895900,2.852895751953125,0.22814525663852692,0.10197388380765915,-0.31823450326919556
1684206709440921900,2.862921875,0.27290233969688416,0.10111688077449799,-0.3875635266304016
1684206709450946800,2.87294677734375,0.303615927696228,0.12680894136428833,-0.41024067997932434
1684206709460971800,2.8829716796875,0.31136998534202576,0.18415558338165283,-0.3663856089115143
1684206709470996700,2.892996826171875,0.2908456027507782,0.2126404345035553,-0.32208386063575745
1684206709481021700,2.903021728515625,0.2520505487918854,0.2379378080368042,-0.25749263167381287
1684206709491048000,2.9130478515625,0.22011326253414154,0.21895626187324524,-0.18811529874801636
1684206709501072600,2.92307275390625,0.16751901805400848,0.24381180107593536,-0.08956688642501831
1684206709511097600,2.93309765625,0.12067952007055283,0.2479095160961151,-0.016523387283086777
1684206709521122800,2.943122802734375,0.08136594295501709,0.17217561602592468,-0.011453526094555855
1684206709531147800,2.953147705078125,0.05471457168459892,0.0744745209813118,-0.03796197846531868
1684206709541172700,2.9631728515625,0.03093600459396839,-0.017789095640182495,-0.07407071441411972
1684206709551198700,2.97319873046875,0.003971300087869167,-0.0898541733622551,-0.10287434607744217
1684206709561223700,2.9832236328125,-0.029627937823534012,-0.12550751864910126,-0.10207246243953705
1684206709571249000,2.993248779296875,-0.06740421801805496,-0.11889679729938507,-0.08600237220525742
1684206709581273900,3.00327392578125,-0.08903681486845016,-0.08338247984647751,-0.06464408338069916
1684206709591298800,3.013298828125,-0.09668365865945816,-0.04489968717098236,-0.03552714362740517
1684206709601323800,3.02332373046875,-0.10015881806612015,-0.006655361037701368,0.00661125686019659
1684206709611349800,3.033349853515625,-0.09185533225536346,0.03446843847632408,0.06471116095781326
1684206709621374700,3.043374755859375,-0.07511097192764282,0.05409007519483566,0.09508531540632248
1684206709631400000,3.05339990234375,-0.05596958473324776,0.10077596455812454,0.10821585357189178
1684206709641424600,3.063424560546875,-0.04798303171992302,0.1863505095243454,0.12751711905002594
1684206709651449600,3.07344970703125,-0.04524358734488487,0.19421951472759247,0.1544828861951828
1684206709661474800,3.083474853515625,-0.03554568812251091,0.11617264896631241,0.13820910453796387
1684206709671500800,3.093500732421875,-0.025111304596066475,0.061252497136592865,0.10203942656517029
1684206709681525800,3.10352587890625,-0.016991060227155685,0.06541954725980759,0.08915185183286667
1684206709691550700,3.11355078125,-0.017620597034692764,0.09675512462854385,0.09723244607448578
1684206709701575700,3.12357568359375,-0.015998465940356255,0.10610441863536835,0.10290125012397766
1684206709711601000,3.133600830078125,-0.026286762207746506,0.12031783908605576,0.11063583195209503
1684206709721627000,3.143626953125,-0.045729704201221466,0.16147007048130035,0.13215231895446777
1684206709731651800,3.15365185546875,-0.0551154762506485,0.22636081278324127,0.15977413952350616
1684206709741676800,3.1636767578125,-0.0707349106669426,0.28158867359161377,0.18478548526763916
1684206709751701800,3.17370166015625,-0.07561321556568146,0.2764757573604584,0.17537298798561096
1684206709761727000,3.18372705078125,-0.07429042458534241,0.3012527525424957,0.1773916631937027
1684206709771751700,3.193751708984375,-0.06138335168361664,0.335847407579422,0.16160154342651367
1684206709781778000,3.20377783203125,-0.05021032691001892,0.37846410274505615,0.1313783973455429
1684206709791802600,3.213802734375,-0.04473883658647537,0.4179975390434265,0.11315914988517761
1684206709801827600,3.22382763671875,-0.0364830382168293,0.4605311453342438,0.10432011634111404
1684206709811852800,3.233852783203125,-0.009306501597166061,0.4799090325832367,0.09288779646158218
1684206709821877800,3.243877685546875,0.017326174303889275,0.4865530729293823,0.07983750849962234
1684206709831902700,3.25390283203125,0.014842790551483631,0.4942619502544403,0.08954058587551117
1684206709841928700,3.2639287109375,-0.01780703291296959,0.5038338303565979,0.1211075633764267
1684206709851953700,3.27395361328125,-0.08309414237737656,0.4253299832344055,0.1416228711605072
1684206709861979000,3.283978759765625,-0.13174130022525787,0.4067949056625366,0.16499850153923035
1684206709872003800,3.29400390625,-0.15897789597511292,0.46874141693115234,0.16995248198509216
1684206709882028800,3.30402880859375,-0.18867000937461853,0.46825698018074036,0.17353948950767517
1684206709892053800,3.3140537109375,-0.20791542530059814,0.4028717875480652,0.17178228497505188
1684206709902079700,3.324079833984375,-0.22071030735969543,0.33385807275772095,0.15242615342140198
1684206709912105000,3.33410498046875,-0.22287730872631073,0.25857219099998474,0.11677001416683197
1684206709922130000,3.3441298828125,-0.21868681907653809,0.19672586023807526,0.0803757905960083
1684206709932154600,3.354154541015625,-0.2127775251865387,0.18660147488117218,0.04336190223693848
1684206709942179600,3.3641796875,-0.2019251435995102,0.20138521492481232,0.0036318013444542885
1684206709952205600,3.37420556640625,-0.1840197890996933,0.22878417372703552,-0.038053836673498154
1684206709962230800,3.384230712890625,-0.16067878901958466,0.26005953550338745,-0.08372624963521957
1684206709972255700,3.394255859375,-0.13916106522083282,0.2729100286960602,-0.13216754794120789
1684206709982280700,3.40428076171875,-0.13000698387622833,0.25211101770401,-0.16337765753269196
1684206709992305700,3.4143056640625,-0.12630830705165863,0.23132707178592682,-0.16735436022281647
1684206710002331000,3.424330810546875,-0.1235324889421463,0.22601938247680664,-0.13538524508476257
1684206710012356900,3.43435693359375,-0.13576321303844452,0.27156853675842285,-0.09296853840351105
1684206710022381800,3.4443818359375,-0.15914656221866608,0.34023603796958923,-0.06013708561658859
1684206710032406800,3.45440673828125,-0.18172824382781982,0.3983199894428253,-0.029537100344896317
1684206710042431200,3.46443115234375,-0.22597479820251465,0.40150725841522217,0.00699321273714304
1684206710052456400,3.47445654296875,-0.2719457745552063,0.37978726625442505,0.017155449837446213
1684206710062481400,3.4844814453125,-0.3081996440887451,0.3419075310230255,0.000022803200408816338
1684206710072507400,3.49450732421875,-0.34594792127609253,0.2989364266395569,-0.035546138882637024
1684206710082532400,3.504532470703125,-0.4012138247489929,0.2137051522731781,-0.08849004656076431
1684206710092557300,3.514557373046875,-0.46595823764801025,0.0845208689570427,-0.13910937309265137
1684206710102582500,3.52458251953125,-0.48839271068573,-0.08266732096672058,-0.17448893189430237
1684206710112607500,3.534607421875,-0.4774531126022339,-0.2447976917028427,-0.20269440114498138
1684206710122632400,3.544632568359375,-0.4570296108722687,-0.39513951539993286,-0.24981477856636047
1684206710132658400,3.554658447265625,-0.431159645318985,-0.5529340505599976,-0.31387999653816223
1684206710142683400,3.564683349609375,-0.39438754320144653,-0.6586013436317444,-0.36951982975006104
1684206710152708600,3.57470849609375,-0.35099220275878906,-0.6432936787605286,-0.4520013928413391
1684206710162733300,3.5847333984375,-0.30164435505867004,-0.5292499661445618,-0.5525010824203491
1684206710172758300,3.59475830078125,-0.2730720341205597,-0.41636765003204346,-0.6251259446144104
1684206710182784300,3.6047841796875,-0.249791219830513,-0.328129380941391,-0.655198335647583
1684206710192809200,3.614809326171875,-0.1957831233739853,-0.2615419030189514,-0.6584001183509827
1684206710202834400,3.62483447265625,-0.12338960915803909,-0.2109796702861786,-0.6458851099014282
1684206710212859400,3.634859375,-0.04529790207743645,-0.16973739862442017,-0.6119296550750732
1684206710222884400,3.64488427734375,0.03424752503633499,-0.10463269799947739,-0.5598299503326416
1684206710232909600,3.65490966796875,0.10558007657527924,-0.03413910046219826,-0.4725441336631775
1684206710242935300,3.664935302734375,0.170490100979805,0.011155679821968079,-0.322998046875
1684206710252960500,3.67496044921875,0.24762068688869476,0.05793921276926994,-0.08745129406452179
1684206710262985500,3.6849853515625,0.31865599751472473,0.10841197520494461,0.17309319972991943
1684206710273010400,3.695010498046875,0.36201566457748413,0.2146519273519516,0.4020299017429352
1684206710283035400,3.705035400390625,0.387872576713562,0.36933979392051697,0.6026689410209656
1684206710293060400,3.715060302734375,0.41947275400161743,0.5062488913536072,0.7779678702354431
1684206710303086600,3.725086669921875,0.447670042514801,0.6264727711677551,0.9190491437911987
1684206710313111300,3.735111328125,0.4770788550376892,0.691342830657959,0.9913964867591858
1684206710323136300,3.74513623046875,0.5000984072685242,0.6091923117637634,0.9943214058876038
1684206710333161500,3.755161376953125,0.4934384822845459,0.476889967918396,1.014228105545044
1684206710343186400,3.7651865234375,0.4489237666130066,0.3294547200202942,1.046434998512268
1684206710353211400,3.77521142578125,0.4010794162750244,0.12316646426916122,1.0262351036071777
1684206710363237400,3.7852373046875,0.3735676407814026,-0.07592958956956863,1.007084608078003
1684206710373262300,3.795262451171875,0.36034083366394043,-0.2297334372997284,0.988507091999054
1684206710383287600,3.80528759765625,0.37014898657798767,-0.3509349524974823,0.9491746425628662
1684206710393312500,3.8153125,0.3870484232902527,-0.3976238965988159,0.9113885760307312
1684206710403337500,3.82533740234375,0.4006316363811493,-0.4092046320438385,0.8718762993812561
1684206710413362400,3.835362548828125,0.46450892090797424,-0.4291377365589142,0.8206546306610107
1684206710423388400,3.845388427734375,0.5521431565284729,-0.42656004428863525,0.788207471370697
1684206710433413600,3.85541357421875,0.6232544779777527,-0.38314932584762573,0.7583775520324707
1684206710443438600,3.8654384765625,0.6824008822441101,-0.3559989333152771,0.7425243258476257
1684206710453463300,3.87546337890625,0.7236668467521667,-0.37960439920425415,0.7293856143951416
1684206710463488300,3.88548828125,0.7461385726928711,-0.48190972208976746,0.7109506726264954
1684206710473514200,3.89551416015625,0.736720621585846,-0.518991231918335,0.7119912505149841
1684206710483539500,3.90553955078125,0.7568072080612183,-0.5107181072235107,0.6793558597564697
1684206710493564400,3.915564453125,0.7884611487388611,-0.39575400948524475,0.6718811988830566
1684206710503589400,3.92558935546875,0.8129627704620361,-0.26367321610450745,0.6514001488685608
1684206710513614300,3.9356142578125,0.8030729293823242,-0.11136528849601746,0.6218963265419006
1684206710523639600,3.9456396484375,0.7659921646118164,-0.0011383788660168648,0.5789123773574829
1684206710533664500,3.95566455078125,0.708180844783783,-0.013002999126911163,0.570160984992981
1684206710543690500,3.9656904296875,0.6538089513778687,-0.1204889789223671,0.5699093341827393
1684206710553715500,3.975715576171875,0.6007065176963806,-0.2456568479537964,0.5651620626449585
1684206710563740400,3.985740478515625,0.5509341359138489,-0.19185219705104828,0.5976933836936951
1684206710573765600,3.995765625,0.5262730717658997,0.039934415370225906,0.6352705359458923
1684206710583790300,4.005790283203125,0.5238703489303589,0.35279324650764465,0.6501879692077637
1684206710593815300,4.015815185546875,0.5428913235664368,0.6069642305374146,0.5617529153823853
1684206710603841300,4.02584130859375,0.5537890195846558,0.646747350692749,0.4121226370334625
1684206710613866200,4.0358662109375,0.5091251730918884,0.5458971858024597,0.2844923436641693
1684206710623891500,4.045891357421875,0.4433629512786865,0.2411666065454483,0.16990448534488678
1684206710633916400,4.05591650390625,0.38690581917762756,0.02664625085890293,0.12500613927841187
1684206710643941400,4.06594140625,0.3360101282596588,-0.04419036954641342,0.09440907835960388
1684206710653966300,4.07596630859375,0.302796334028244,-0.05478387326002121,0.030195174738764763
1684206710663992300,4.085992431640625,0.26858964562416077,-0.06439176201820374,-0.06322718411684036
1684206710674017500,4.096017578125,0.23260480165481567,-0.09145507216453552,-0.15955038368701935
1684206710684042500,4.10604248046875,0.19397884607315063,-0.08613967150449753,-0.20612721145153046
1684206710694067500,4.1160673828125,0.17023059725761414,-0.04945012927055359,-0.23048070073127747
1684206710704092400,4.126092529296875,0.14939269423484802,-0.003123642411082983,-0.21992340683937073
1684206710714117600,4.13611767578125,0.10089193284511566,0.050126638263463974,-0.2107568085193634
1684206710724143600,4.1461435546875,0.06306172907352448,0.10014559328556061,-0.20676445960998535
1684206710734168600,4.15616845703125,0.039337486028671265,0.12022806704044342,-0.20515170693397522
1684206710744193300,4.166193359375,0.01494373008608818,0.15214897692203522,-0.18968592584133148
1684206710754218200,4.17621826171875,-0.011755203828215599,0.17587719857692719,-0.18508991599082947
1684206710764243500,4.186243408203125,-0.032302822917699814,0.1281951665878296,-0.17650574445724487
1684206710774268400,4.196268310546875,-0.04525861144065857,0.06982354074716568,-0.14402298629283905
1684206710784294400,4.20629443359375,-0.0579693466424942,0.050909772515296936,-0.08507445454597473
1684206710794319400,4.2163193359375,-0.09032820910215378,0.01921767182648182,-0.022439632564783096
1684206710804344300,4.22634423828125,-0.121245376765728,-0.014487294480204582,0.04450078681111336
1684206710814369500,4.23636962890625,-0.15275894105434418,0.005973052699118853,0.1041143536567688
1684206710824394500,4.24639453125,-0.15959954261779785,0.06586860865354538,0.15312369167804718
1684206710834420500,4.25642041015625,-0.15987476706504822,0.16952624917030334,0.14790816605091095
1684206710844445400,4.266445556640625,-0.14276927709579468,0.3307505249977112,0.08371187001466751
1684206710854470400,4.276470458984375,-0.1128842681646347,0.4348415732383728,-0.06166932359337807
1684206710864495600,4.28649560546875,-0.0759667307138443,0.43733376264572144,-0.2475137561559677
1684206710874520300,4.296520263671875,-0.015156708657741547,0.22881563007831573,-0.44688233733177185
1684206710884545300,4.306545166015625,0.03132876753807068,-0.04451630637049675,-0.5736860632896423
1684206710894571300,4.3165712890625,0.0567769855260849,-0.3690212666988373,-0.6835793256759644
1684206710904596200,4.32659619140625,0.13583585619926453,-0.45584535598754883,-0.722973644733429
1684206710914621400,4.336621337890625,0.205339714884758,-0.3147294223308563,-0.7164080739021301
1684206710924646400,4.346646484375,0.2063266783952713,-0.1654435247182846,-0.6861215233802795
1684206710934671400,4.35667138671875,0.1037847176194191,-0.17187058925628662,-0.6136755347251892
1684206710944696300,4.3666962890625,-0.06775347888469696,-0.37139061093330383,-0.5186187624931335
1684206710954722300,4.376722412109375,-0.267304003238678,-0.6590068936347961,-0.4811899662017822
1684206710964747500,4.38674755859375,-0.43949654698371887,-0.9418681859970093,-0.5168377161026001
1684206710974772500,4.3967724609375,-0.5742920637130737,-1.19826078414917,-0.5590972304344177
1684206710984797400,4.40679736328125,-0.6844976544380188,-1.461661458015442,-0.5777130126953125
1684206710994823400,4.416823486328125,-0.7230696678161621,-1.6006464958190918,-0.5404635071754456
1684206711004848400,4.426848388671875,-0.6377582550048828,-1.4526114463806152,-0.4114229381084442
1684206711014873600,4.43687353515625,-0.516952633857727,-1.1388311386108398,-0.3113882839679718
1684206711024898600,4.446898681640625,-0.3616434633731842,-0.5974048376083374,-0.22924759984016418
1684206711034923300,4.45692333984375,-0.17556682229042053,0.03794054687023163,-0.14564411342144012
1684206711044949200,4.46694921875,-0.004484022501856089,0.6147306561470032,-0.04175100848078728
1684206711054975200,4.476975341796875,0.09147261828184128,1.0313136577606201,0.009417548775672913
1684206711065000200,4.487000244140625,0.1311420053243637,1.238946557044983,-0.015657976269721985
1684206711075025400,4.497025390625,0.12024593353271484,1.2469459772109985,-0.09125299006700516
1684206711085050400,4.50705029296875,0.08097735792398453,1.003914475440979,-0.191583052277565
1684206711095075300,4.517075439453125,0.02814418636262417,0.631544828414917,-0.269157350063324
1684206711105100000,4.52710009765625,-0.01780839078128338,0.28757548332214355,-0.28459781408309937
1684206711115126300,4.537126220703125,-0.08585748821496964,0.11455612629652023,-0.20167504251003265
1684206711125151200,4.547151123046875,-0.14136815071105957,0.018323605880141258,-0.11828960478305817
1684206711135176200,4.55717626953125,-0.19947382807731628,-0.013655027374625206,-0.04056907072663307
1684206711145201200,4.567201171875,-0.23336149752140045,0.03433353826403618,0.04464995115995407
1684206711155226000,4.57722607421875,-0.254719614982605,0.13433904945850372,0.0950460433959961
1684206711165252000,4.587252197265625,-0.2612270414829254,0.23655356466770172,0.08997485041618347
1684206711175277300,4.59727734375,-0.24105554819107056,0.34076929092407227,0.022631235420703888
1684206711185302300,4.60730224609375,-0.205236554145813,0.4767444133758545,-0.06874021887779236
1684206711195327200,4.6173271484375,-0.13038980960845947,0.589719295501709,-0.16322198510169983
1684206711205352200,4.627352294921875,-0.024563245475292206,0.6655775904655457,-0.25432342290878296
1684206711215377400,4.63737744140625,0.09127825498580933,0.6822530031204224,-0.30337589979171753
1684206711225403400,4.6474033203125,0.18509262800216675,0.5899174809455872,-0.301434189081192
1684206711235428400,4.657428466796875,0.23178204894065857,0.472824364900589,-0.22684496641159058
1684206711245453300,4.667453369140625,0.2167237401008606,0.3964707553386688,-0.08732488006353378
1684206711255478000,4.67747802734375,0.15334466099739075,0.3799489140510559,0.06470979005098343
1684206711265503200,4.687503173828125,0.07604480534791946,0.40126246213912964,0.18991830945014954
1684206711275528200,4.697528076171875,0.014046675525605679,0.40289562940597534,0.24784737825393677
1684206711285554200,4.70755419921875,-0.020982680842280388,0.35453370213508606,0.23484687507152557
1684206711295579100,4.7175791015625,-0.04335719347000122,0.23307092487812042,0.18662133812904358
1684206711305604000,4.72760400390625,-0.06671950966119766,0.12010017037391663,0.16185632348060608
1684206711315629300,4.73762939453125,-0.10227640718221664,0.024558331817388535,0.15584979951381683
1684206711325654300,4.747654296875,-0.15916739404201508,0.0049207150004804134,0.13124032318592072
1684206711335679200,4.75767919921875,-0.2150745391845703,-0.08546069264411926,0.06357686221599579
1684206711345705200,4.767705322265625,-0.25641876459121704,-0.15242427587509155,0.0016133624594658613
1684206711355730200,4.777730224609375,-0.27745723724365234,-0.16589094698429108,-0.02058059349656105
1684206711365755400,4.78775537109375,-0.27480393648147583,-0.162551611661911,0.003215549746528268
1684206711375780400,4.7977802734375,-0.26751628518104553,-0.18974819779396057,-0.0031570426654070616
1684206711385805300,4.807805419921875,-0.26923906803131104,-0.21132032573223114,-0.009588576853275299
1684206711395830300,4.817830322265625,-0.2457539439201355,-0.18431785702705383,0.00019161892123520374
1684206711405856300,4.827856201171875,-0.1843329221010208,-0.1325814127922058,0.01628190651535988
1684206711415881200,4.837881103515625,-0.1890869289636612,-0.010504781268537045,0.08591930568218231
1684206711425906200,4.84790625,-0.17021231353282928,0.14508268237113953,0.18464455008506775
1684206711435931100,4.85793115234375,-0.12664805352687836,0.26556915044784546,0.2310173660516739
1684206711445956400,4.867956298828125,-0.08606919646263123,0.3670651614665985,0.2348318099975586
1684206711455981300,4.877981201171875,-0.06537487357854843,0.47318407893180847,0.2461603432893753
1684206711466007300,4.88800732421875,-0.0687435045838356,0.5929980874061584,0.28185150027275085
1684206711476032300,4.8980322265625,-0.089360311627388,0.6690376996994019,0.3417249023914337
1684206711486057200,4.90805712890625,-0.11632508784532547,0.7012917995452881,0.3969487249851227
1684206711496082400,4.91808251953125,-0.13978198170661926,0.6976436376571655,0.39354032278060913
1684206711506107400,4.928107421875,-0.16106650233268738,0.6669241189956665,0.3430593013763428
1684206711516132400,4.93813232421875,-0.17851252853870392,0.5761253833770752,0.2760782539844513
1684206711526158300,4.948158447265625,-0.19780473411083221,0.458788126707077,0.217535600066185
1684206711536183300,4.958183349609375,-0.21925686299800873,0.30858132243156433,0.160551518201828
1684206711546208300,4.968208251953125,-0.24379655718803406,0.12627224624156952,0.0730815976858139
1684206711556233200,4.978233154296875,-0.27585700154304504,-0.06236514449119568,-0.03563790023326874
1684206711566258200,4.988258056640625,-0.31447604298591614,-0.25492340326309204,-0.14438650012016296
1684206711576283100,4.998283203125,-0.32734575867652893,-0.3783681392669678,-0.2213476598262787
1684206711586309000,5.00830908203125,-0.33634963631629944,-0.4416999816894531,-0.275745153427124
1684206711596334300,5.018334228515625,-0.34057947993278503,-0.5024145245552063,-0.3118654787540436
1684206711606359300,5.028359375,-0.3522166907787323,-0.5575289130210876,-0.3269951641559601
1684206711616384300,5.03838427734375,-0.35838404297828674,-0.6677133440971375,-0.34920161962509155
1684206711626409200,5.0484091796875,-0.351785272359848,-0.7628997564315796,-0.36511480808258057
1684206711636434400,5.058434326171875,-0.33751848340034485,-0.7871360778808594,-0.38284045457839966
1684206711646460400,5.06846044921875,-0.34841135144233704,-0.787465512752533,-0.39040035009384155
1684206711656485400,5.0784853515625,-0.3395448923110962,-0.701417863368988,-0.3682827949523926
1684206711666510300,5.08851025390625,-0.3228261172771454,-0.6785990595817566,-0.3603130280971527
1684206711676535300,5.098535400390625,-0.3074634075164795,-0.6901988387107849,-0.3897792398929596
1684206711686560300,5.108560302734375,-0.3043626844882965,-0.7196853160858154,-0.44042643904685974
1684206711696585200,5.118585205078125,-0.3244170844554901,-0.7640358805656433,-0.4898686707019806
1684206711706611200,5.128611083984375,-0.32512974739074707,-0.7511948943138123,-0.5286648273468018
1684206711716636200,5.13863623046875,-0.33449265360832214,-0.8382573127746582,-0.5825476050376892
1684206711726661000,5.1486611328125,-0.30977267026901245,-1.021629810333252,-0.6519096493721008
1684206711736686300,5.158686279296875,-0.2822653651237488,-1.2909878492355347,-0.7194872498512268
1684206711746711300,5.168711181640625,-0.2477196455001831,-1.5681089162826538,-0.7378180027008057
1684206711756736300,5.178736328125,-0.24996046721935272,-1.727882981300354,-0.7024306654930115
1684206711766762200,5.18876220703125,-0.2963804602622986,-1.7907346487045288,-0.6663820743560791
1684206711776787200,5.198787109375,-0.3234798014163971,-1.8303838968276978,-0.6744962334632874
1684206711786812400,5.2088125,-0.3141914904117584,-1.8297876119613647,-0.720553457736969
1684206711796837400,5.21883740234375,-0.2859296202659607,-1.807250738143921,-0.7707163691520691
1684206711806862300,5.2288623046875,-0.2501585781574249,-1.809183120727539,-0.808685839176178
1684206711816887000,5.238886962890625,-0.24484628438949585,-1.8217456340789795,-0.7987050414085388
1684206711826913300,5.248913330078125,-0.27833181619644165,-1.7771528959274292,-0.7575008869171143
1684206711836938200,5.258938232421875,-0.3389483392238617,-1.621590256690979,-0.72066730260849
1684206711846963200,5.268963134765625,-0.41017991304397583,-1.2802449464797974,-0.6993127465248108
1684206711856988200,5.27898828125,-0.400007039308548,-0.9240068197250366,-0.6551031470298767
1684206711867013000,5.28901318359375,-0.3209337890148163,-0.6437844634056091,-0.5501157641410828
1684206711877038300,5.299038330078125,-0.30361637473106384,-0.4041768014431,-0.3890380561351776
1684206711887064300,5.309064208984375,-0.22182884812355042,-0.17892128229141235,-0.22146745026111603
1684206711897089300,5.31908935546875,-0.12797875702381134,0.028474632650613785,-0.09262214601039886
1684206711907114200,5.3291142578125,-0.07502207159996033,0.2027769237756729,0.010067744180560112
1684206711917139200,5.33913916015625,-0.013715699315071106,0.3363552689552307,0.07835672050714493
1684206711927164400,5.349164306640625,0.040744081139564514,0.4514017105102539,0.135222926735878
1684206711937189400,5.359189453125,0.07923801988363266,0.5409897565841675,0.18003134429454803
1684206711947215400,5.36921533203125,0.0869782343506813,0.548866331577301,0.19465422630310059
1684206711957240300,5.379240234375,0.09317540377378464,0.5555877685546875,0.17716598510742188
1684206711967265300,5.389265380859375,0.07797780632972717,0.5433902144432068,0.15344388782978058
1684206711977290200,5.399290283203125,0.051688361912965775,0.5183340907096863,0.10876087844371796
1684206711987315200,5.409315185546875,0.02938971482217312,0.47178417444229126,0.06764939427375793
1684206711997340200,5.419340087890625,0.0022446997463703156,0.3838508427143097,0.030098769813776016
1684206712007366100,5.4293662109375,-0.02787964604794979,0.25490617752075195,0.006626999471336603
1684206712017391000,5.43939111328125,-0.07292909175157547,0.0763460174202919,-0.00685344822704792
1684206712027416300,5.449416259765625,-0.11740095168352127,-0.09074470400810242,-0.01779797486960888
1684206712037441300,5.459441162109375,-0.15283378958702087,-0.2030326873064041,-0.028600940480828285
1684206712047466500,5.469466552734375,-0.18055889010429382,-0.31755927205085754,-0.035876426845788956
1684206712057491200,5.4794912109375,-0.20402424037456512,-0.438752144575119,-0.05511167272925377
1684206712067517400,5.489517333984375,-0.20794202387332916,-0.5524390339851379,-0.09050348401069641
1684206712077542400,5.49954248046875,-0.20424288511276245,-0.6331310272216797,-0.14351895451545715
1684206712087567400,5.5095673828125,-0.18951161205768585,-0.6919645071029663,-0.20562972128391266
1684206712097592300,5.51959228515625,-0.16953995823860168,-0.7422669529914856,-0.2633064091205597
1684206712107617300,5.5296171875,-0.16593751311302185,-0.8087892532348633,-0.30169960856437683
1684206712117642500,5.539642578125,-0.17022645473480225,-0.8690902590751648,-0.31751933693885803
1684206712127668500,5.54966845703125,-0.16834279894828796,-0.8859270215034485,-0.30289992690086365
1684206712137693400,5.559693359375,-0.17323529720306396,-0.8639819025993347,-0.2634959816932678
1684206712147718400,5.569718505859375,-0.1717926561832428,-0.7990795969963074,-0.20880955457687378
1684206712157743400,5.579743408203125,-0.16076044738292694,-0.7378557324409485,-0.16480614244937897
1684206712167768600,5.5897685546875,-0.14378413558006287,-0.6666265726089478,-0.14322255551815033
1684206712177793500,5.59979345703125,-0.1117042824625969,-0.5696989297866821,-0.15374146401882172
1684206712187818500,5.609818603515625,-0.06477086246013641,-0.48535504937171936,-0.1829044073820114
1684206712197844500,5.619844482421875,-0.012017374858260155,-0.41801905632019043,-0.19001004099845886
1684206712207869400,5.629869384765625,0.019925378262996674,-0.3327462375164032,-0.1364610642194748
1684206712217894400,5.639894287109375,0.06503264605998993,-0.2506580054759979,-0.0672542080283165
1684206712227919400,5.64991943359375,0.11136632412672043,-0.19831062853336334,-0.03748699650168419
1684206712237944300,5.6599443359375,0.16587889194488525,-0.18982207775115967,0.020762408152222633
1684206712247970300,5.66997021484375,0.22691375017166138,-0.21494846045970917,0.07050120085477829
1684206712257995300,5.679995361328125,0.33579057455062866,-0.22984963655471802,0.11736921966075897
1684206712268020500,5.6900205078125,0.4594019949436188,-0.24277769029140472,0.1601260006427765
1684206712278045400,5.70004541015625,0.6040666699409485,-0.21329808235168457,0.22379997372627258
1684206712288070400,5.7100703125,0.7184308171272278,-0.10021147131919861,0.3345685601234436
1684206712298095400,5.720095458984375,0.7458615899085999,-0.01373286359012127,0.4473245441913605
1684206712308120600,5.73012060546875,0.726645827293396,0.1697743833065033,0.5419842004776001
1684206712318146600,5.740146484375,0.6969138979911804,0.4134519696235657,0.6162107586860657
1684206712328171500,5.750171630859375,0.693888783454895,0.6614694595336914,0.7354835867881775
1684206712338196500,5.760196533203125,0.6585034132003784,0.8966852426528931,0.8903411626815796
1684206712348221200,5.77022119140625,0.5698137879371643,1.183394193649292,1.0396877527236938
1684206712358246400,5.780246337890625,0.4922502338886261,1.5393517017364502,1.1813170909881592
1684206712368271400,5.790271240234375,0.4512753486633301,1.811173915863037,1.2853822708129883
1684206712378297300,5.80029736328125,0.417817085981369,1.9296839237213135,1.3431094884872437
1684206712388322300,5.810322265625,0.4098116159439087,1.9058345556259155,1.3425750732421875
1684206712398347300,5.82034716796875,0.4011012613773346,1.8643584251403809,1.3583482503890991
1684206712408372500,5.83037255859375,0.40865132212638855,1.621323585510254,1.3572288751602173
1684206712418397400,5.8403974609375,0.3898051083087921,1.1798287630081177,1.3304551839828491
1684206712428422400,5.85042236328125,0.3793138563632965,0.7658910155296326,1.3177859783172607
1684206712438448400,5.860448486328125,0.3725719451904297,0.42474815249443054,1.3134499788284302
1684206712448473300,5.870473388671875,0.35635435581207275,0.13281536102294922,1.2880882024765015
1684206712458498600,5.88049853515625,0.33357006311416626,-0.03065284714102745,1.2225345373153687
1684206712468523500,5.8905234375,0.3727262616157532,-0.10786933451890945,1.1374928951263428
1684206712478548500,5.900548583984375,0.41075143218040466,-0.23798586428165436,1.0191645622253418
1684206712488573400,5.910573486328125,0.44651874899864197,-0.3228895962238312,0.8742914795875549
1684206712498599400,5.920599365234375,0.5358686447143555,-0.38863521814346313,0.6743878126144409
1684206712508624400,5.930624267578125,0.6014085412025452,-0.47187310457229614,0.43344980478286743
1684206712518649300,5.9406494140625,0.6403700113296509,-0.5184780359268188,0.18245567381381989
1684206712528674300,5.95067431640625,0.6799877285957336,-0.5935069918632507,-0.079015351831913
1684206712538699300,5.96069921875,0.7085192203521729,-0.6457275748252869,-0.3036518692970276
1684206712548724500,5.970724365234375,0.7426156401634216,-0.651399552822113,-0.4572499394416809
1684206712558750500,5.98075048828125,0.7185507416725159,-0.7972736358642578,-0.6060752868652344
1684206712568775400,5.990775390625,0.6766424179077148,-1.2017455101013184,-0.7311727404594421
1684206712578800400,6.00080029296875,0.6262233853340149,-1.8716707229614258,-0.8109301924705505
1684206712588825300,6.010825439453125,0.5610611438751221,-2.4772536754608154,-0.8169843554496765
1684206712598850600,6.0208505859375,0.5067213177680969,-2.733755588531494,-0.7883813977241516
1684206712608875500,6.03087548828125,0.5279813408851624,-2.560201644897461,-0.810558557510376
1684206712618901500,6.040901611328125,0.5892906188964844,-2.0235800743103027,-0.8552091121673584
1684206712628926500,6.050926513671875,0.6196969747543335,-1.4720470905303955,-0.8781858086585999
1684206712638951400,6.060951416015625,0.5832197070121765,-1.3012899160385132,-0.8920757174491882
1684206712648976400,6.070976318359375,0.5300987362861633,-1.4898680448532104,-0.9087849259376526
1684206712659001300,6.08100146484375,0.5285264849662781,-1.806077003479004,-0.9302799105644226
1684206712669026300,6.0910263671875,0.5827774405479431,-2.013751983642578,-0.9546137452125549
1684206712679052300,6.10105224609375,0.6388557553291321,-2.1096134185791016,-0.9875455498695374
1684206712689077500,6.111077392578125,0.688249945640564,-2.1651711463928223,-1.0156842470169067
1684206712699102500,6.1211025390625,0.7491699457168579,-2.2557506561279297,-1.0429428815841675
1684206712709127400,6.13112744140625,0.7917368412017822,-2.3733203411102295,-1.0490808486938477
1684206712719152400,6.14115234375,0.823265552520752,-2.501209020614624,-1.0563093423843384
1684206712729177600,6.151177490234375,0.8596224784851074,-2.6503002643585205,-1.0798628330230713
1684206712739203300,6.161203369140625,0.869537353515625,-2.802030086517334,-1.116312861442566
1684206712749228500,6.171228515625,0.8596591949462891,-2.873946189880371,-1.1541122198104858
1684206712759253500,6.18125341796875,0.841899573802948,-2.93601393699646,-1.2194323539733887
1684206712769278500,6.191278564453125,0.8411405682563782,-3.034665584564209,-1.3078052997589111
1684206712779303400,6.201303466796875,0.8255710005760193,-3.0884499549865723,-1.3866477012634277
1684206712789328400,6.211328369140625,0.8004475235939026,-3.174907684326172,-1.466192364692688
1684206712799354400,6.221354248046875,0.7781174778938293,-3.2951836585998535,-1.5325642824172974
1684206712809379300,6.23137939453125,0.7499734163284302,-3.420365810394287,-1.5979398488998413
1684206712819404300,6.241404296875,0.7253493070602417,-3.5599429607391357,-1.6727083921432495
1684206712829429500,6.251429443359375,0.6990785598754883,-3.6911230087280273,-1.755994439125061
1684206712839454500,6.261454345703125,0.657200038433075,-3.800793409347534,-1.8354052305221558
1684206712849479400,6.2714794921875,0.5984429717063904,-3.9152278900146484,-1.911592960357666
1684206712859505400,6.28150537109375,0.5137631893157959,-4.0178985595703125,-1.976555347442627
1684206712869530400,6.2915302734375,0.4187594950199127,-4.086084842681885,-2.0251007080078125
1684206712879555600,6.3015556640625,0.30953720211982727,-4.087519645690918,-2.0479493141174316
1684206712889580500,6.31158056640625,0.21453876793384552,-4.075677871704102,-2.065891981124878
1684206712899605500,6.32160546875,0.14382469654083252,-3.994913101196289,-2.0716021060943604
1684206712909630500,6.33163037109375,0.08812442421913147,-3.8741281032562256,-2.054434061050415
1684206712919655400,6.341655517578125,0.05025998875498772,-3.756242513656616,-2.01487135887146
1684206712929681400,6.351681396484375,-0.0020287809893488884,-3.6276021003723145,-1.9633673429489136
1684206712939706400,6.361706298828125,-0.09735383838415146,-3.5129783153533936,-1.9315087795257568
1684206712949731300,6.3717314453125,-0.18923263251781464,-3.4140989780426025,-1.9096181392669678
1684206712959756300,6.38175634765625,-0.27841123938560486,-3.3548436164855957,-1.8866227865219116
1684206712969781500,6.391781494140625,-0.35987040400505066,-3.328287363052368,-1.845361351966858
1684206712979806500,6.401806396484375,-0.4301387667655945,-3.3343045711517334,-1.8040916919708252
1684206712989832400,6.41183251953125,-0.48552370071411133,-3.3468008041381836,-1.7821959257125854
1684206712999857400,6.421857421875,-0.5083314180374146,-3.369536876678467,-1.7515742778778076
1684206713009882400,6.43188232421875,-0.5225828289985657,-3.4129247665405273,-1.7007006406784058
1684206713019907600,6.441907470703125,-0.5121747255325317,-3.491051435470581,-1.6554313898086548
1684206713029932500,6.4519326171875,-0.47978511452674866,-3.570652961730957,-1.6419289112091064
1684206713039957200,6.461957275390625,-0.4455162584781647,-3.635376453399658,-1.666279911994934
1684206713049983200,6.471983154296875,-0.39033663272857666,-3.6729929447174072,-1.679724097251892
1684206713060008200,6.48200830078125,-0.34975072741508484,-3.706085681915283,-1.6591943502426147
1684206713070033200,6.492033203125,-0.32246798276901245,-3.765363931655884,-1.6318562030792236
1684206713080058000,6.50205810546875,-0.2926881015300751,-3.853625774383545,-1.598109245300293
1684206713090083000,6.5120830078125,-0.25450849533081055,-3.905611276626587,-1.5658506155014038
1684206713100108000,6.52210791015625,-0.22506949305534363,-3.875246524810791,-1.553591012954712
1684206713110134000,6.532134033203125,-0.25105419754981995,-3.8003721237182617,-1.5818029642105103
1684206713120159200,6.5421591796875,-0.3519693613052368,-3.624891519546509,-1.589729905128479
1684206713130184200,6.55218408203125,-0.49894627928733826,-3.4326953887939453,-1.559843897819519
1684206713140209200,6.562209228515625,-0.6670396327972412,-3.2314822673797607,-1.496826410293579
1684206713150234000,6.572234130859375,-0.8429741859436035,-2.899712324142456,-1.4261218309402466
1684206713160259300,6.58225927734375,-0.9725790023803711,-2.5506958961486816,-1.3538793325424194
1684206713170285300,6.592285400390625,-0.9915058016777039,-2.2783780097961426,-1.2716652154922485
1684206713180310300,6.602310302734375,-0.8884182572364807,-2.111046552658081,-1.1592971086502075
1684206713190335200,6.612335205078125,-0.790442943572998,-1.9225893020629883,-1.0357965230941772
1684206713200360000,6.62235986328125,-0.7016255855560303,-1.6926069259643555,-0.877943217754364
1684206713210385200,6.63238525390625,-0.5685428977012634,-1.4861732721328735,-0.7467639446258545
1684206713220410000,6.64241015625,-0.4209522306919098,-1.2648940086364746,-0.6722820401191711
1684206713230436000,6.65243603515625,-0.34005260467529297,-1.0408782958984375,-0.6363632082939148
1684206713240461000,6.6624609375,-0.3313058018684387,-0.8484282493591309,-0.5919107794761658
1684206713250486000,6.672486083984375,-0.35269975662231445,-0.6591291427612305,-0.555439293384552
1684206713260511200,6.68251123046875,-0.3844154477119446,-0.5725306272506714,-0.5636403560638428
1684206713270536200,6.6925361328125,-0.38612544536590576,-0.6028506755828857,-0.5951908230781555
1684206713280561200,6.70256103515625,-0.3830289840698242,-0.7846271991729736,-0.6044842600822449
1684206713290587100,6.712587158203125,-0.3328219950199127,-1.0525529384613037,-0.5153714418411255
1684206713300612000,6.722612060546875,-0.27472105622291565,-1.2269569635391235,-0.3748055100440979
1684206713310637300,6.73263720703125,-0.25161945819854736,-1.338708519935608,-0.29765748977661133
1684206713320662300,6.742662353515625,-0.23777168989181519,-1.4349943399429321,-0.314180850982666
1684206713330687200,6.752687255859375,-0.2362012267112732,-1.5609432458877563,-0.4124450981616974
1684206713340712200,6.762712158203125,-0.260044664144516,-1.7644513845443726,-0.5689367651939392
1684206713350738200,6.77273828125,-0.2707039713859558,-2.0380823612213135,-0.7440183162689209
1684206713360763100,6.78276318359375,-0.26126375794410706,-2.2827835083007812,-0.8794581294059753
1684206713370788000,6.7927880859375,-0.2616131603717804,-2.4333062171936035,-0.9363765716552734
1684206713380813000,6.80281298828125,-0.274060994386673,-2.4353044033050537,-0.9250839352607727
1684206713390838300,6.81283837890625,-0.29045647382736206,-2.3433501720428467,-0.8780141472816467
1684206713400863200,6.82286328125,-0.2973631024360657,-2.2226438522338867,-0.8298061490058899
1684206713410888200,6.83288818359375,-0.29087749123573303,-2.118530035018921,-0.7782867550849915
1684206713420914200,6.8429140625,-0.29888322949409485,-2.029320478439331,-0.7234211564064026
1684206713430939100,6.852939208984375,-0.33210137486457825,-1.9194798469543457,-0.6655381321907043
1684206713440964000,6.862964111328125,-0.38039305806159973,-1.7963494062423706,-0.6154026389122009
1684206713450989300,6.8729892578125,-0.39715924859046936,-1.6934189796447754,-0.5752874612808228
1684206713461014300,6.88301416015625,-0.3884919285774231,-1.5874165296554565,-0.5284333825111389
1684206713471039000,6.8930390625,-0.36618077754974365,-1.4810645580291748,-0.47791215777397156
1684206713481065200,6.903065185546875,-0.3316666781902313,-1.3911890983581543,-0.4304182231426239
1684206713491090200,6.913090087890625,-0.27930787205696106,-1.3142293691635132,-0.41448721289634705
1684206713501115100,6.923115234375,-0.2014368772506714,-1.3189653158187866,-0.41045942902565
1684206713511140000,6.93314013671875,-0.14028804004192352,-1.3884642124176025,-0.4272961914539337
1684206713521165000,6.9431650390625,-0.06765726953744888,-1.444872498512268,-0.4506984055042267
1684206713531190300,6.953190185546875,-0.04089675843715668,-1.4756338596343994,-0.47306790947914124
1684206713541216300,6.96321630859375,-0.04286057502031326,-1.5520825386047363,-0.4924836754798889
1684206713551241200,6.9732412109375,-0.039508186280727386,-1.6172724962234497,-0.4599108099937439
1684206713561266200,6.98326611328125,-0.01062780525535345,-1.60879647731781,-0.39784079790115356
1684206713571291100,6.993291015625,0.014334269799292088,-1.5182762145996094,-0.3181515634059906
1684206713581316400,7.00331640625,0.04165750369429588,-1.3724122047424316,-0.1514131873846054
1684206713591341300,7.01334130859375,0.06983374804258347,-1.2704384326934814,0.06658626347780228
1684206713601367300,7.0233671875,0.10116233676671982,-1.2806426286697388,0.20990504324436188
1684206713611392300,7.033392333984375,0.1555454134941101,-1.3580816984176636,0.24314475059509277
1684206713621417200,7.043417236328125,0.21217967569828033,-1.4010095596313477,0.234306201338768
1684206713631442200,7.053442138671875,0.28251639008522034,-1.3353592157363892,0.2594573497772217
1684206713641467100,7.063467041015625,0.3728996515274048,-1.1683439016342163,0.31401190161705017
1684206713651492000,7.0734921875,0.5050073266029358,-0.9661007523536682,0.3581332862377167
1684206713661518000,7.08351806640625,0.6684631109237671,-0.6692183017730713,0.41225555539131165
1684206713671543000,7.09354296875,0.832760751247406,-0.3695599436759949,0.5828840136528015
1684206713681568300,7.103568359375,0.9929207563400269,-0.17988766729831696,0.8554078340530396
1684206713691593200,7.11359326171875,1.0950013399124146,-0.12448246777057648,1.0990616083145142
1684206713701618200,7.1236181640625,1.128550410270691,-0.13121366500854492,1.1949518918991089
1684206713711643100,7.13364306640625,1.0911833047866821,-0.13583292067050934,1.1483876705169678
1684206713721668400,7.14366845703125,1.0308308601379395,-0.06732300668954849,1.04132878780365
1684206713731694300,7.1536943359375,1.0458394289016724,-0.02284102700650692,0.9301791191101074
1684206713741719300,7.16371923828125,1.0808881521224976,-0.27546072006225586,0.7890940308570862
1684206713751744300,7.173744140625,1.117085576057434,-0.6177107095718384,0.6233615279197693
1684206713761769000,7.18376904296875,1.1142022609710693,-0.9721983671188354,0.36851513385772705
1684206713771794200,7.193794189453125,1.0780235528945923,-1.2690199613571167,0.00880996324121952
1684206713781819100,7.203819091796875,1.034804105758667,-1.4414863586425781,-0.3785070776939392
1684206713791845000,7.21384521484375,1.0254257917404175,-1.4255765676498413,-0.6804221868515015
1684206713801870000,7.2238701171875,1.0270156860351562,-1.2109647989273071,-0.8458967208862305
1684206713811895000,7.23389501953125,1.0534718036651611,-0.9191951751708984,-0.9103878736495972
1684206713821920300,7.243920166015625,1.0538747310638428,-0.6684001684188843,-0.8817019462585449
1684206713831945200,7.2539453125,0.9927225112915039,-0.7225052118301392,-0.8160337209701538
1684206713841970200,7.26397021484375,0.8597355484962463,-0.9683250784873962,-0.7786320447921753
1684206713851996200,7.27399609375,0.6648401021957397,-1.16148042678833,-0.7486078143119812
1684206713862021000,7.284021240234375,0.48947280645370483,-1.3066962957382202,-0.7614961862564087
1684206713872046300,7.29404638671875,0.33544808626174927,-1.3502461910247803,-0.8025512099266052
1684206713882071300,7.3040712890625,0.26281270384788513,-1.2093074321746826,-0.8260496258735657
1684206713892096300,7.31409619140625,0.20009498298168182,-1.1631639003753662,-0.8536578416824341
1684206713902121000,7.324120849609375,0.08037986606359482,-1.2040036916732788,-0.8227697014808655
1684206713912147200,7.334147216796875,-0.00938490778207779,-1.174098014831543,-0.7251036167144775
1684206713922172200,7.344172119140625,-0.07894951850175858,-1.1051357984542847,-0.6208686828613281
1684206713932197000,7.354197021484375,-0.13864853978157043,-1.021559476852417,-0.5105893015861511
1684206713942222000,7.36422216796875,-0.1690906584262848,-0.932094156742096,-0.39742544293403625
1684206713952247000,7.3742470703125,-0.19594357907772064,-0.8363364934921265,-0.28460967540740967
1684206713962272300,7.384272216796875,-0.21095985174179077,-0.7766823172569275,-0.17517387866973877
1684206713972297200,7.394297119140625,-0.23583324253559113,-0.7606295943260193,-0.09493283182382584
1684206713982323200,7.4043232421875,-0.24954798817634583,-0.6978048086166382,-0.061964765191078186
1684206713992348200,7.41434814453125,-0.2418309599161148,-0.5552021265029907,-0.0452188104391098
1684206714002373000,7.424373046875,-0.22476699948310852,-0.37664327025413513,-0.03942897915840149
1684206714012398300,7.4343984375,-0.19680434465408325,-0.18625065684318542,-0.0366198755800724
1684206714022423300,7.44442333984375,-0.14894038438796997,0.023631228134036064,-0.04756889492273331
1684206714032448000,7.454447998046875,-0.08677048981189728,0.16124342381954193,-0.054721347987651825
1684206714042473700,7.4644736328125,-0.024770991876721382,0.18298086524009705,-0.06348758190870285
1684206714052499000,7.4744990234375,0.019558655098080635,0.09149062633514404,-0.07008849829435349
1684206714062524000,7.48452392578125,0.028398295864462852,-0.007375804707407951,-0.052141331136226654
1684206714072548900,7.494548828125,0.004076974466443062,-0.043376147747039795,-0.010124372318387032
1684206714082573800,7.50457373046875,0.006448390427976847,0.04268315061926842,-0.005582415498793125
1684206714092598800,7.514598876953125,0.020872071385383606,0.24956628680229187,-0.09000595659017563
1684206714102624800,7.524624755859375,0.07054367661476135,0.5102038383483887,-0.24238470196723938
1684206714112649700,7.534649658203125,0.12961605191230774,0.6590393781661987,-0.4063374102115631
1684206714122674700,7.5446748046875,0.14749161899089813,0.5952006578445435,-0.5413510799407959
1684206714132699600,7.55469970703125,0.1207316443324089,0.36727216839790344,-0.6135398149490356
1684206714142724900,7.564724853515625,0.06530877202749252,0.06622372567653656,-0.6583685278892517
1684206714152749800,7.574749755859375,0.000647219829261303,-0.1467932015657425,-0.6618452668190002
1684206714162775800,7.58477587890625,-0.08109909296035767,-0.21427354216575623,-0.6251057982444763
1684206714172800800,7.59480078125,-0.15102997422218323,-0.16437309980392456,-0.5633401870727539
1684206714182825700,7.60482568359375,-0.22633591294288635,-0.037357181310653687,-0.4418732821941376
1684206714192851000,7.614850830078125,-0.30978232622146606,0.09778252989053726,-0.337683767080307
1684206714202876000,7.6248759765625,-0.3799011707305908,0.16965121030807495,-0.2912173569202423
1684206714212900900,7.63490087890625,-0.4255346953868866,0.12018966674804688,-0.31593841314315796
1684206714222926800,7.6449267578125,-0.44524291157722473,-0.010113383643329144,-0.3746691644191742
1684206714232951800,7.654951904296875,-0.4612801969051361,-0.16211649775505066,-0.4407760202884674
1684206714242977000,7.66497705078125,-0.46884578466415405,-0.27568694949150085,-0.49900057911872864
1684206714253001700,7.675001708984375,-0.4766501784324646,-0.3361484110355377,-0.5523799061775208
1684206714263026700,7.685026611328125,-0.49747923016548157,-0.3264298439025879,-0.5778071284294128
1684206714273051600,7.6950517578125,-0.5234535932540894,-0.26635050773620605,-0.561045229434967
1684206714283076900,7.705076904296875,-0.5668790936470032,-0.1803455650806427,-0.5188705325126648
1684206714293102800,7.715102783203125,-0.6209561824798584,-0.0716254860162735,-0.4558526873588562
1684206714303127800,7.7251279296875,-0.6701958775520325,0.07007856667041779,-0.3762616217136383
1684206714313152800,7.73515283203125,-0.7463889122009277,0.1949501782655716,-0.31562864780426025
1684206714323177700,7.745177734375,-0.7916005253791809,0.25276339054107666,-0.2968793213367462
1684206714333203000,7.755202880859375,-0.860920786857605,0.23120616376399994,-0.2890203297138214
1684206714343228000,7.765227783203125,-0.9170542359352112,0.2892746031284332,-0.19455428421497345
1684206714353254000,7.77525390625,-0.9117718935012817,0.45594722032546997,-0.0165464598685503
1684206714363278800,7.78527880859375,-0.8647157549858093,0.6556785106658936,0.18745705485343933
1684206714373303800,7.7953037109375,-0.6301698684692383,0.7906717658042908,0.329555869102478
1684206714383329000,7.8053291015625,-0.2940230071544647,0.727626621723175,0.435007244348526
1684206714393353700,7.815353759765625,-0.06310006231069565,0.5354121327400208,0.6038835644721985
1684206714403378700,7.825378662109375,0.0640072375535965,0.5860853791236877,0.7802414298057556
1684206714413404700,7.83540478515625,0.18453526496887207,0.8747789859771729,0.8348754048347473
1684206714423429600,7.8454296875,0.29037338495254517,1.2394652366638184,0.8111277222633362
1684206714433454800,7.855454833984375,0.25907403230667114,1.491469144821167,0.7427899837493896
1684206714443479800,7.865479736328125,0.13030725717544556,1.5553979873657227,0.599168062210083
1684206714453504800,7.8755048828125,-0.003917656373232603,1.3182259798049927,0.36985093355178833
1684206714463529700,7.88552978515625,-0.10728488117456436,0.8140716552734375,0.08910452574491501
1684206714473555700,7.8955556640625,-0.24243789911270142,0.1316012144088745,-0.20157843828201294
1684206714483581000,7.905580810546875,-0.36774420738220215,-0.469230055809021,-0.30505234003067017
1684206714493606000,7.91560595703125,-0.47542300820350647,-1.02690589427948,-0.29766845703125
1684206714503630800,7.925630859375,-0.5756216049194336,-1.4582277536392212,-0.23530466854572296
1684206714513655800,7.93565576171875,-0.6339150071144104,-1.7225757837295532,-0.13932088017463684
1684206714523680800,7.9456806640625,-0.5982277393341064,-1.8516387939453125,-0.0892266109585762
1684206714533705700,7.955705810546875,-0.5621616244316101,-1.7284060716629028,-0.10215012729167938
1684206714543730700,7.965730712890625,-0.48765215277671814,-1.4364100694656372,-0.1305510550737381
1684206714553755600,7.975755615234375,-0.414628267288208,-1.117738127708435,-0.1467076539993286
1684206714563781600,7.98578173828125,-0.33450791239738464,-0.8283793926239014,-0.13385504484176636
1684206714573806800,7.995806884765625,-0.2431284636259079,-0.5509307384490967,-0.09484346956014633
1684206714583831800,8.005831787109376,-0.14960964024066925,-0.325450599193573,-0.05126776173710823
1684206714593856800,8.015856689453125,-0.10474975407123566,-0.23231558501720428,-0.05649687722325325
1684206714603881700,8.0258818359375,-0.04468667134642601,-0.265167236328125,-0.10506296157836914
1684206714613907000,8.035906982421874,-0.024392584338784218,-0.38414156436920166,-0.1887778341770172
1684206714623933000,8.045932861328126,-0.04532136023044586,-0.5015184879302979,-0.264119416475296
1684206714633958000,8.0559580078125,-0.06243962422013283,-0.5761687755584717,-0.31229811906814575
1684206714643982800,8.06598291015625,-0.10600598901510239,-0.5192493200302124,-0.3360903561115265
1684206714654007800,8.0760078125,-0.13212281465530396,-0.41357988119125366,-0.3466806709766388
1684206714664032800,8.08603271484375,-0.135359525680542,-0.2860441207885742,-0.32729682326316833
1684206714674057700,8.0960576171875,-0.14150050282478333,-0.15560008585453033,-0.288844496011734
1684206714684083700,8.106083740234375,-0.1640995591878891,-0.02061244286596775,-0.23934008181095123
1684206714694108700,8.116108642578125,-0.1922864466905594,0.09799277037382126,-0.20634430646896362
1684206714704133600,8.126133544921874,-0.2047612965106964,0.25199565291404724,-0.19810442626476288
1684206714714158800,8.136158935546876,-0.20381399989128113,0.9706619381904602,-0.17085470259189606
1684206714724183800,8.146183837890625,-0.37661874294281006,2.2132372856140137,-0.21672971546649933
1684206714734208800,8.156208740234375,-0.6695414185523987,3.559554100036621,-0.10886849462985992
1684206714744234800,8.16623486328125,0.16505347192287445,1.937227487564087,0.3233344256877899
1684206714754259700,8.176259765625,0.07871885597705841,1.0294667482376099,0.23112407326698303
1684206714764285000,8.186284912109375,0.07487643510103226,0.9648543000221252,-0.1662566363811493
1684206714774310000,8.196309814453125,0.10631292313337326,0.6783120036125183,-0.41869527101516724
1684206714784334800,8.2063349609375,0.1296871304512024,0.23672178387641907,-0.4829480051994324
1684206714794359800,8.21635986328125,0.27694153785705566,-0.2827804982662201,-0.517570436000824
1684206714804384800,8.226384765625,0.4436177611351013,-0.6301097869873047,-0.4432428777217865
1684206714814410800,8.23641064453125,0.5904902815818787,-0.8690643310546875,-0.3177129030227661
1684206714824435700,8.246435791015625,0.6181138753890991,-0.9680987596511841,-0.25687888264656067
1684206714834460700,8.256460693359376,0.5293722748756409,-0.8694451451301575,-0.2412344217300415
1684206714844485600,8.266485595703125,0.38437989354133606,-0.6604575514793396,-0.15714602172374725
1684206714854510800,8.2765107421875,0.17468604445457458,-0.45548707246780396,-0.03719485551118851
1684206714864535800,8.286535888671875,-0.032383959740400314,-0.3163836598396301,0.008560300804674625
1684206714874561800,8.296561767578124,-0.17172107100486755,-0.23119527101516724,-0.04269782826304436
1684206714884586800,8.306586669921876,-0.1913907825946808,-0.19645723700523376,-0.14515770971775055
1684206714894611700,8.31661181640625,-0.1290067732334137,-0.19867512583732605,-0.24741803109645844
1684206714904637000,8.326636962890625,0.010448983870446682,-0.11162536591291428,-0.2862391769886017
1684206714914662000,8.336661865234374,0.06644993275403976,0.09212163835763931,-0.29081472754478455
1684206714924686800,8.346686767578126,0.02802807092666626,0.2850973606109619,-0.24184152483940125
1684206714934712800,8.356712890625,0.034202609211206436,0.33231067657470703,-0.11862318962812424
1684206714944737800,8.36673779296875,0.017246922478079796,0.29305386543273926,0.008502298034727573
1684206714954762800,8.3767626953125,-0.02592291869223118,0.3424839973449707,0.058355338871479034
1684206714964787700,8.38678759765625,-0.06492754071950912,0.4662003517150879,0.05395263433456421
1684206714974813700,8.396813720703125,-0.07568591088056564,0.5463961362838745,0.06616722047328949
1684206714984838700,8.406838623046875,-0.07540677487850189,0.48699861764907837,0.07295459508895874
1684206714994863900,8.41686376953125,-0.08371903747320175,0.40043389797210693,0.07173832505941391
1684206715004888800,8.426888916015624,-0.09227282553911209,0.39072272181510925,0.06467733532190323
1684206715014913800,8.436913818359375,-0.09234286844730377,0.46627500653266907,0.048714082688093185
1684206715024938800,8.446938720703125,-0.10138162225484848,0.5679941773414612,0.034294579178094864
1684206715034964000,8.4569638671875,-0.11631476879119873,0.5881372690200806,0.0215044803917408
1684206715044989700,8.46698974609375,-0.1217162013053894,0.5518612861633301,0.008642299100756645
1684206715055014700,8.4770146484375,-0.12011085450649261,0.5084930658340454,-0.012595346197485924
1684206715065039600,8.48703955078125,-0.1041111871600151,0.4633292555809021,-0.05763505771756172
1684206715075064600,8.497064697265625,-0.08322454988956451,0.4281070828437805,-0.0994432270526886
1684206715085089800,8.50708984375,-0.08585429191589355,0.39059218764305115,-0.1077069491147995
1684206715095114800,8.51711474609375,-0.1320207267999649,0.28282630443573,-0.08322157710790634
1684206715105140700,8.527140625,-0.18456609547138214,0.16201433539390564,-0.05760135501623154
1684206715115165700,8.537165771484375,-0.21642282605171204,0.1724129170179367,-0.048990026116371155
1684206715125190700,8.547190673828124,-0.21309977769851685,0.18727423250675201,-0.06323190778493881
1684206715135215600,8.557215576171876,-0.2361971139907837,0.15345768630504608,-0.07328959554433823
1684206715145240600,8.567240478515625,-0.2515363097190857,0.16163738071918488,-0.08086595684289932
1684206715155265500,8.577265625,-0.2577611804008484,0.14050891995429993,-0.08278902620077133
1684206715165291500,8.58729150390625,-0.2695774435997009,0.06863177567720413,-0.07540033012628555
1684206715175316500,8.59731640625,-0.25252658128738403,0.010293901897966862,-0.0592581182718277
1684206715185341700,8.607341796875,-0.22177466750144958,-0.020901847630739212,-0.045238006860017776
1684206715195366700,8.61736669921875,-0.19073180854320526,-0.011792773380875587,-0.027173256501555443
1684206715205391600,8.6273916015625,-0.1586311310529709,0.01029249094426632,0.003964037634432316
1684206715215416600,8.63741650390625,-0.1520688235759735,0.03208407387137413,0.05572017654776573
1684206715225441800,8.64744189453125,-0.15081733465194702,0.05640355125069618,0.08569084107875824
1684206715235467800,8.6574677734375,-0.1426781862974167,0.10337372124195099,0.09542336314916611
1684206715245492700,8.66749267578125,-0.12129689007997513,0.16806896030902863,0.07890307158231735
1684206715255517700,8.677517578125,-0.10085126757621765,0.22428934276103973,0.04976729303598404
1684206715265542700,8.687542724609376,-0.07501787692308426,0.26264074444770813,0.030175084248185158
1684206715275567600,8.697567626953125,-0.07146655023097992,0.253317266702652,0.008578179404139519
1684206715285592600,8.707592529296875,-0.05475958064198494,0.2602667212486267,-0.019494829699397087
1684206715295618600,8.71761865234375,-0.02257474511861801,0.3202773332595825,-0.030569585040211678
1684206715305643500,8.7276435546875,-0.002779293106868863,0.39224281907081604,-0.029307760298252106
1684206715315668500,8.73766845703125,-0.0166008323431015,0.42004063725471497,-0.03806716576218605
1684206715325693700,8.747693603515625,-0.005104654468595982,0.4796626567840576,-0.045158736407756805
1684206715335718700,8.75771875,0.0035988222807645798,0.5576701164245605,-0.04544129595160484
1684206715345743600,8.76774365234375,0.007463587913662195,0.6363251805305481,-0.041421107947826385
1684206715355769600,8.77776953125,0.01717214100062847,0.7059447169303894,-0.024947326630353928
1684206715365794600,8.787794677734375,0.04503108561038971,0.7929684519767761,0.006098518148064613
1684206715375819800,8.79781982421875,0.06382235139608383,0.8486056327819824,0.03754352405667305
1684206715385844700,8.8078447265625,0.07374250888824463,0.8706523180007935,0.05998777598142624
1684206715395869700,8.81786962890625,0.07540032267570496,0.8620007634162903,0.06561263650655746
1684206715405894400,8.827894287109375,0.06967711448669434,0.8182529807090759,0.0597701333463192
1684206715415920600,8.837920654296875,0.057467326521873474,0.7514464855194092,0.03484880551695824
1684206715425945600,8.847945556640624,0.03819403424859047,0.6807735562324524,0.006863301619887352
1684206715435970600,8.857970458984376,0.018128449097275734,0.6137945652008057,0.004869393073022366
1684206715445995500,8.86799560546875,-0.000645302003249526,0.5291282534599304,-0.011271236464381218
1684206715456020500,8.8780205078125,-0.024644112214446068,0.4429454207420349,-0.0643288642168045
1684206715466045700,8.888045654296874,-0.04730384051799774,0.32144609093666077,-0.14741221070289612
1684206715476071700,8.89807177734375,-0.0523579902946949,0.16818754374980927,-0.25914353132247925
1684206715486096600,8.9080966796875,-0.04292348772287369,0.02112826704978943,-0.38096141815185547
1684206715496121600,8.91812158203125,-0.02229757234454155,-0.12776854634284973,-0.49274948239326477
1684206715506146600,8.928146484375,-0.03351081162691116,-0.2522156536579132,-0.5849624872207642
1684206715516171800,8.938171875,-0.055171899497509,-0.3685702085494995,-0.6211018562316895
1684206715526196700,8.94819677734375,-0.08109049499034882,-0.49032852053642273,-0.5884596109390259
1684206715536222700,8.95822265625,-0.09829851239919662,-0.6058833003044128,-0.5329545140266418
1684206715546247700,8.96824755859375,-0.12687046825885773,-0.7199669480323792,-0.5013219714164734
1684206715556272600,8.978272705078124,-0.1539364457130432,-0.825995147228241,-0.4737494885921478
1684206715566297600,8.988297607421876,-0.18662500381469727,-0.8993425369262695,-0.41830188035964966
1684206715576322600,8.998322509765625,-0.14998815953731537,-0.8885830640792847,-0.30966994166374207
1684206715586347500,9.008347412109375,-0.040026746690273285,-0.8242347240447998,-0.24094714224338531
1684206715596372500,9.01837255859375,0.062268998473882675,-0.6497877836227417,-0.2524586617946625
1684206715606398500,9.0283984375,0.10876034200191498,-0.3445295989513397,-0.26918160915374756
1684206715616423700,9.038423583984375,0.08587367087602615,-0.04876077547669411,-0.22303727269172668
1684206715626448600,9.04844873046875,0.05166034400463104,0.056873805820941925,-0.13742245733737946
1684206715636473600,9.0584736328125,0.038556527346372604,0.0805189460515976,-0.02399551123380661
1684206715646498600,9.06849853515625,0.045131079852581024,0.10815607011318207,0.08028780668973923
1684206715656523800,9.078523681640625,0.04216831177473068,0.1731981784105301,0.12825001776218414
1684206715666549800,9.0885498046875,0.041493937373161316,0.22313734889030457,0.11653102934360504
1684206715676574700,9.09857470703125,0.05892778933048248,0.23724837601184845,0.07763183861970901
1684206715686599700,9.108599609375,0.07054776698350906,0.26989078521728516,0.047635383903980255
1684206715696624600,9.118624755859376,0.11057853698730469,0.22026440501213074,-0.007982869632542133
1684206715706649600,9.128649658203125,0.1356084793806076,0.11302147060632706,-0.10073506087064743
1684206715716674600,9.138674560546875,0.12991251051425934,-0.04726700857281685,-0.16768878698349
1684206715726699500,9.148699462890624,0.11542274802923203,-0.22046156227588654,-0.21671943366527557
1684206715736725500,9.1587255859375,0.11157394200563431,-0.3098202049732208,-0.23978906869888306
1684206715746750700,9.168750732421875,0.12043684720993042,-0.29007378220558167,-0.2123522162437439
1684206715756775700,9.178775634765625,0.16088733077049255,-0.20102912187576294,-0.10969588160514832
1684206715766800600,9.188800537109374,0.22696425020694733,-0.09967941790819168,0.0076029542833566666
1684206715776825600,9.19882568359375,0.2827311158180237,0.12664532661437988,0.14055994153022766
1684206715786850800,9.208850830078125,0.33745077252388,0.3060532212257385,0.22167520225048065
1684206715796876500,9.21887646484375,0.3958403170108795,0.4421389102935791,0.299187034368515
1684206715806901800,9.22890185546875,0.46372219920158386,0.48390865325927734,0.36023426055908203
1684206715816926700,9.2389267578125,0.5491638779640198,0.39350366592407227,0.3806300759315491
1684206715826951700,9.24895166015625,0.6393061876296997,0.1608913689851761,0.34784671664237976
1684206715836976600,9.2589765625,0.7247022986412048,-0.10446839779615402,0.29906320571899414
1684206715847001600,9.269001708984375,0.7899416089057922,-0.36151430010795593,0.229387104511261
1684206715857027600,9.279027587890624,0.8111209273338318,-0.5568182468414307,0.18591845035552979
1684206715867052500,9.289052490234376,0.8062887191772461,-0.7163559198379517,0.17457708716392517
1684206715877077500,9.299077392578125,0.7500797510147095,-0.8997875452041626,0.18511629104614258
1684206715887102700,9.309102783203125,0.6058922410011292,-1.0268298387527466,0.24235031008720398
1684206715897127700,9.319127685546874,0.43070363998413086,-0.9960796236991882,0.3450910747051239
1684206715907152600,9.329152587890626,0.2791194021701813,-0.8678666353225708,0.4673078954219818
1684206715917177600,9.339177490234375,0.15274468064308167,-0.6032232642173767,0.6679704189300537
1684206715927203600,9.34920361328125,0.08234401792287827,-0.2344987690448761,0.8724378347396851
1684206715937228800,9.359228759765625,0.04741772264242172,0.16354846954345703,0.9987656474113464
1684206715947253800,9.369253662109376,0.021636992692947388,0.572248637676239,1.0949156284332275
1684206715957278700,9.37927880859375,-0.03931264579296112,0.8152546286582947,1.196630597114563
1684206715967303400,9.389303466796875,-0.11297029256820679,0.9243127703666687,1.3250248432159424
1684206715977328600,9.39932861328125,-0.17452234029769897,0.9896931052207947,1.420972466468811
1684206715987354600,9.409354736328124,-0.23067308962345123,1.0923324823379517,1.4907007217407227
1684206715997379600,9.419379638671876,-0.2094556838274002,1.1483060121536255,1.469315528869629
1684206716007404500,9.429404541015625,-0.1516796499490738,1.1632373332977295,1.3567944765090942
1684206716017429500,9.439429443359375,-0.09064345806837082,0.9927707314491272,1.2035325765609741
1684206716027454700,9.449454833984374,-0.06640007346868515,0.7289820909500122,1.0619828701019287
1684206716037479700,9.459479736328126,-0.011695556342601776,0.5108556151390076,0.9060018062591553
1684206716047506000,9.469505859375,0.05019988492131233,0.3949069380760193,0.7604856491088867
1684206716057531000,9.47953076171875,0.11041715741157532,0.2924759089946747,0.6282141208648682
1684206716067555800,9.489555908203124,0.17681744694709778,0.1687697470188141,0.540600061416626
1684206716077581000,9.4995810546875,0.216757670044899,0.056710321456193924,0.45718398690223694
1684206716087606000,9.50960595703125,0.22154711186885834,-0.04664406552910805,0.3625412881374359
1684206716097631000,9.519630859375,0.20682889223098755,-0.17491255700588226,0.2850704491138458
1684206716107655700,9.52965576171875,0.18779659271240234,-0.31520482897758484,0.22879406809806824
1684206716117682000,9.539681884765624,0.1599026471376419,-0.39919614791870117,0.16794084012508392
1684206716127707000,9.549706787109375,0.1424483358860016,-0.4155071973800659,0.12396089732646942
1684206716137731800,9.55973193359375,0.13204975426197052,-0.38383209705352783,0.10596698522567749
1684206716147756800,9.5697568359375,0.1313769519329071,-0.349757581949234,0.10487117618322372
1684206716157781800,9.57978173828125,0.12812070548534393,-0.32542163133621216,0.10470286756753922
1684206716167807000,9.589806884765625,0.12017445266246796,-0.2847755551338196,0.12114327400922775
1684206716177833000,9.5998330078125,0.12241576611995697,-0.26771241426467896,0.13139058649539948
1684206716187858000,9.60985791015625,0.1438709944486618,-0.26050865650177,0.14878427982330322
1684206716197883000,9.6198828125,0.1677267998456955,-0.3216303288936615,0.1919405460357666
1684206716207907800,9.629907958984376,0.16946180164813995,-0.4078787565231323,0.24692721664905548
1684206716217933000,9.63993310546875,0.17596790194511414,-0.4106449782848358,0.3161206841468811
1684206716227958000,9.6499580078125,0.17847800254821777,-0.3794543445110321,0.3673413395881653
1684206716237984000,9.65998388671875,0.19314776360988617,-0.35682839155197144,0.3914536237716675
1684206716248009000,9.670009033203126,0.21713441610336304,-0.30517876148223877,0.41347014904022217
1684206716258034000,9.680033935546875,0.25114163756370544,-0.27708879113197327,0.4010459780693054
1684206716268059000,9.690058837890625,0.31394726037979126,-0.2486937940120697,0.3784032166004181
1684206716278083800,9.700083740234374,0.3660288453102112,-0.22112953662872314,0.33610740303993225
1684206716288108800,9.71010888671875,0.39638474583625793,-0.20597153902053833,0.26728397607803345
1684206716298133800,9.7201337890625,0.40320083498954773,-0.24890701472759247,0.19303077459335327
1684206716308159700,9.73015966796875,0.4132898151874542,-0.3500846028327942,0.08554767817258835
1684206716318185000,9.74018505859375,0.43560150265693665,-0.5147953033447266,-0.039814505726099014
1684206716328210000,9.7502099609375,0.4599671959877014,-0.6717653870582581,-0.17280542850494385
1684206716338235000,9.76023486328125,0.48026156425476074,-0.7953557968139648,-0.3110959529876709
1684206716348259800,9.770259765625,0.4750986397266388,-0.8961986303329468,-0.4557654559612274
1684206716358285000,9.78028515625,0.4870684742927551,-0.856357991695404,-0.5317568778991699
1684206716368311000,9.79031103515625,0.4762898087501526,-0.7536276578903198,-0.573159396648407
1684206716378336000,9.8003359375,0.44901371002197266,-0.5872749090194702,-0.5744393467903137
1684206716388361000,9.81036083984375,0.40905654430389404,-0.42514607310295105,-0.559537947177887
1684206716398385700,9.8203857421875,0.35698720812797546,-0.26748907566070557,-0.5230278372764587
1684206716408411000,9.830410888671874,0.29305189847946167,-0.164481982588768,-0.45770931243896484
1684206716418435800,9.840435791015626,0.2132745236158371,-0.13504153490066528,-0.4071960747241974
1684206716428461800,9.8504619140625,0.14024776220321655,-0.18628491461277008,-0.3721620440483093
1684206716438486800,9.86048681640625,0.0715981274843216,-0.3113786578178406,-0.38978311419487
1684206716448511700,9.87051171875,0.03884153813123703,-0.40688613057136536,-0.44041383266448975
1684206716458537000,9.880536865234374,0.009827996604144573,-0.44106194376945496,-0.502484917640686
1684206716468562000,9.89056201171875,-0.022112824022769928,-0.4639512300491333,-0.5862671136856079
1684206716478587000,9.9005869140625,-0.07000099122524261,-0.44509392976760864,-0.6357139945030212
1684206716488612900,9.91061279296875,-0.1335926204919815,-0.35420992970466614,-0.6124687790870667
1684206716498637800,9.920637939453124,-0.23977205157279968,-0.26927560567855835,-0.5496610403060913
1684206716508663000,9.9306630859375,-0.3635942339897156,-0.18516074120998383,-0.46967002749443054
1684206716518688000,9.94068798828125,-0.4947671592235565,-0.10411117225885391,-0.398471474647522
1684206716528713000,9.950712890625,-0.6147650480270386,-0.022554542869329453,-0.34849417209625244
1684206716538737700,9.960737548828124,-0.7182725667953491,0.05798877030611038,-0.3358188569545746
1684206716548763000,9.970762939453126,-0.8022759556770325,0.10528222471475601,-0.33415594696998596
1684206716558788900,9.980788818359375,-0.8546584844589233,0.1439199000597,-0.33678555488586426
1684206716568813800,9.990813720703125,-0.8797882199287415,0.17640694975852966,-0.3339734673500061
1684206716578838800,10.0008388671875,-0.9089457988739014,0.17156319320201874,-0.34105056524276733
1684206716588863700,10.01086376953125,-0.942602813243866,0.16266891360282898,-0.3539775609970093
1684206716598889000,10.020888916015625,-0.9812932014465332,0.13114400207996368,-0.3470381796360016
1684206716608914000,10.030913818359375,-0.9521916508674622,0.14102505147457123,-0.26030969619750977
1684206716618940000,10.04093994140625,-0.9222154021263123,0.19577378034591675,-0.08402202278375626
1684206716628964900,10.05096484375,-0.8492967486381531,0.23953117430210114,0.09637637436389923
1684206716638989800,10.06098974609375,-0.6072531938552856,0.24256397783756256,0.22169674932956696
1684206716649015000,10.07101513671875,-0.3484233021736145,0.28909456729888916,0.3795144259929657
1684206716659040000,10.0810400390625,-0.17035315930843353,0.46277981996536255,0.5431107878684998
1684206716669064700,10.091064697265624,-0.056333303451538086,0.7004036903381348,0.56275475025177
1684206716679091000,10.101091064453126,0.04155677184462547,1.002158761024475,0.47518813610076904
1684206716689115600,10.11111572265625,0.13484355807304382,1.2967851161956787,0.3573915362358093
1684206716699140900,10.121140869140625,0.17858438193798065,1.35259211063385,0.19652171432971954
1684206716709165800,10.131165771484374,0.2145393192768097,1.1220954656600952,-0.005270674359053373
1684206716719190800,10.141190673828126,0.26300302147865295,0.6760868430137634,-0.271403044462204
1684206716729215700,10.1512158203125,0.2558175325393677,0.12748926877975464,-0.5434485673904419
1684206716739241000,10.161240966796875,0.17581351101398468,-0.2964364290237427,-0.5937620401382446
1684206716749267000,10.171266845703125,0.0884874239563942,-0.5379890203475952,-0.5026324391365051
1684206716759292000,10.1812919921875,-0.06409040093421936,-0.6782201528549194,-0.3892696499824524
1684206716769316900,10.19131689453125,-0.18596120178699493,-0.682223916053772,-0.1824817657470703
1684206716779341800,10.201341796875,-0.2588364779949188,-0.5097482800483704,0.037079356610774994
1684206716789367000,10.211366943359375,-0.30088573694229126,-0.19474437832832336,0.1699828952550888
1684206716799392000,10.22139208984375,-0.33185750246047974,0.0994800552725792,0.1761355996131897
1684206716809418000,10.23141796875,-0.36240851879119873,0.31034544110298157,0.14585363864898682
1684206716819443000,10.24144287109375,-0.3866417109966278,0.4570864140987396,0.15015411376953125
1684206716829467600,10.251467529296875,-0.3740558326244354,0.5250495076179504,0.1468019336462021
1684206716839492900,10.261492919921874,-0.34540343284606934,0.5241575837135315,0.10044883191585541
1684206716849517800,10.271517822265626,-0.31450286507606506,0.45747560262680054,0.04396197199821472
1684206716859542800,10.281542724609375,-0.27393442392349243,0.35041624307632446,0.008440198376774788
1684206716869568800,10.29156884765625,-0.21186798810958862,0.2634958326816559,-0.024982718750834465
1684206716879593700,10.30159375,-0.12613524496555328,0.23175440728664398,-0.0856681689620018
1684206716889619000,10.311618896484376,-0.039954934269189835,0.22087007761001587,-0.14919617772102356
1684206716899644000,10.321643798828125,0.04167335107922554,0.2024836242198944,-0.1697525829076767
1684206716909668900,10.3316689453125,0.09423118084669113,0.21450258791446686,-0.16115225851535797
1684206716919693800,10.34169384765625,0.14128710329532623,0.24987788498401642,-0.13585515320301056
1684206716929719000,10.351718994140626,0.192536398768425,0.29651781916618347,-0.09151267260313034
1684206716939745000,10.3617451171875,0.2427002340555191,0.3236149549484253,-0.057497184723615646
1684206716949770000,10.37177001953125,0.2811340391635895,0.3083718419075012,-0.0516529381275177
1684206716959794700,10.381794677734375,0.3102954030036926,0.28130269050598145,-0.05829353258013725
1684206716969820000,10.39181982421875,0.33050283789634705,0.2548494338989258,-0.04891291260719299
1684206716979844900,10.401844970703126,0.34178292751312256,0.22244194149971008,-0.024187859147787094
1684206716989869800,10.411869873046875,0.3446024954319,0.16794389486312866,-0.005069991573691368
1684206716999895800,10.421895751953125,0.3650995194911957,0.0998452678322792,-0.017040101811289787
1684206717009920800,10.431920654296874,0.3786219358444214,0.04944352060556412,-0.06417953222990036
1684206717019946000,10.441946044921876,0.38750436902046204,0.017011279240250587,-0.11157554388046265
1684206717029971000,10.451970947265625,0.39546671509742737,-0.054775964468717575,-0.1671629399061203
1684206717039996000,10.461995849609375,0.4049968421459198,-0.2356216311454773,-0.2638489902019501
1684206717050020000,10.47202001953125,0.4253765046596527,-0.5078637599945068,-0.421265184879303
1684206717060046000,10.482046142578126,0.47878754138946533,-0.7623770236968994,-0.6033270955085754
1684206717070071300,10.4920712890625,0.5643579959869385,-0.8526365160942078,-0.6970762014389038
1684206717080096300,10.50209619140625,0.5508120656013489,-0.8854450583457947,-0.6632735133171082
1684206717090121200,10.512121337890624,0.4988371729850769,-0.957571804523468,-0.6047437191009521
1684206717100146200,10.522146240234376,0.5082038044929504,-1.0468854904174805,-0.6288772821426392
1684206717110171400,10.53217138671875,0.492524117231369,-1.0819491147994995,-0.674065351486206
1684206717120196400,10.5421962890625,0.4006282687187195,-1.0457431077957153,-0.6393206715583801
1684206717130222300,10.552222412109375,0.3002733290195465,-1.0566372871398926,-0.5686575174331665
1684206717140247300,10.562247314453124,0.21565698087215424,-1.1133830547332764,-0.49978846311569214
1684206717150272300,10.572272216796875,0.18194827437400818,-1.171626329421997,-0.45710405707359314
1684206717160297500,10.58229736328125,0.1439974308013916,-1.1684941053390503,-0.44268330931663513
1684206717170322200,10.592322265625,0.08244887739419937,-1.0289586782455444,-0.3974383771419525
1684206717180347100,10.60234716796875,0.03225920721888542,-0.8549003005027771,-0.34223106503486633
1684206717190373000,10.612373046875,0.015402469784021378,-0.6408687829971313,-0.289602667093277
1684206717200398000,10.622398193359375,-0.004211178049445152,-0.4311797618865967,-0.23003415763378143
1684206717210423300,10.63242333984375,-0.023956358432769775,-0.28533002734184265,-0.15388323366641998
1684206717220448300,10.6424482421875,-0.04733917862176895,-0.20117785036563873,-0.06500183045864105
1684206717230473200,10.65247314453125,-0.0689844861626625,-0.1794586479663849,-0.004339217208325863
1684206717240498400,10.66249853515625,-0.08890599012374878,-0.17585565149784088,-0.006536324508488178
1684206717250524200,10.672524169921875,-0.10354368388652802,-0.18435105681419373,-0.054169073700904846
1684206717260549400,10.68254931640625,-0.11481364816427231,-0.2152344137430191,-0.11364252120256424
1684206717270574300,10.69257421875,-0.11538578569889069,-0.20573529601097107,-0.16541527211666107
1684206717280599300,10.702599365234375,-0.11841566860675812,-0.21412105858325958,-0.20052744448184967
1684206717290624300,10.712624267578125,-0.13029268383979797,-0.22831612825393677,-0.21994423866271973
1684206717300649500,10.7226494140625,-0.14462341368198395,-0.2506592571735382,-0.2161463052034378
1684206717310675500,10.732675537109374,-0.14148733019828796,-0.3071722090244293,-0.20626519620418549
1684206717320700400,10.742700439453126,-0.1157500222325325,-0.32851505279541016,-0.21704407036304474
1684206717330725000,10.75272509765625,-0.07379253953695297,-0.2776757776737213,-0.24435801804065704
1684206717340750300,10.762750244140625,-0.059540096670389175,-0.23828259110450745,-0.2346116453409195
1684206717350775300,10.772775390625,-0.052366144955158234,-0.2397947907447815,-0.18930602073669434
1684206717360800300,10.78280029296875,-0.03097829595208168,-0.17006976902484894,-0.1729142665863037
1684206717370825200,10.7928251953125,-0.04759267345070839,-0.04083378612995148,-0.17111964523792267
1684206717380851200,10.802851318359375,-0.0539562962949276,0.09623724967241287,-0.14754188060760498
1684206717390876400,10.81287646484375,-0.07424741983413696,0.20438382029533386,-0.08913586288690567
1684206717400901400,10.8229013671875,-0.09642382711172104,0.27556267380714417,-0.05592677742242813
1684206717410926300,10.83292626953125,-0.11300890147686005,0.3376369774341583,-0.06046796962618828
1684206717420951300,10.842951416015625,-0.1289878636598587,0.3737145662307739,-0.07595983892679214
1684206717430976500,10.8529765625,-0.14899364113807678,0.35430023074150085,-0.0776602178812027
1684206717441002500,10.86300244140625,-0.18698151409626007,0.28980085253715515,-0.08699273318052292
1684206717451027500,10.87302734375,-0.23432208597660065,0.18694497644901276,-0.13879723846912384
1684206717461052200,10.88305224609375,-0.2819173038005829,0.06904657185077667,-0.1938895285129547
1684206717471077000,10.8930771484375,-0.33164381980895996,-0.052059948444366455,-0.2477838397026062
1684206717481102300,10.903102294921876,-0.37337979674339294,-0.17451874911785126,-0.32757240533828735
1684206717491127300,10.913127197265625,-0.40679287910461426,-0.35184577107429504,-0.4288844168186188
1684206717501153300,10.9231533203125,-0.4068043529987335,-0.48019149899482727,-0.5616456866264343
1684206717511178200,10.93317822265625,-0.3890831768512726,-0.5818939208984375,-0.6789134740829468
1684206717521203200,10.943203125,-0.4366472363471985,-0.7382691502571106,-0.682185709476471
1684206717531228400,10.953228515625,-0.4407035708427429,-0.9567241072654724,-0.6605224013328552
1684206717541253400,10.96325341796875,-0.44508713483810425,-1.226331353187561,-0.6537944674491882
1684206717551278300,10.9732783203125,-0.516277015209198,-1.405903697013855,-0.6330029368400574
1684206717561304300,10.98330419921875,-0.5539101958274841,-1.3651560544967651,-0.6180199980735779
1684206717571329300,10.993329345703126,-0.5238168835639954,-1.0740842819213867,-0.6000803709030151
1684206717581354500,11.0033544921875,-0.4624139666557312,-0.748587965965271,-0.558849036693573
1684206717591379500,11.01337939453125,-0.40650591254234314,-0.5389207005500793,-0.4931613802909851
1684206717601404200,11.023404052734374,-0.3635355532169342,-0.4252093434333801,-0.39315250515937805
1684206717611429000,11.03342919921875,-0.33046555519104004,-0.30470651388168335,-0.2755485475063324
1684206717621454300,11.043454345703125,-0.2845667898654938,-0.12409253418445587,-0.1430504322052002
1684206717631480300,11.053480224609375,-0.20977924764156342,0.05092313885688782,-0.023091040551662445
1684206717641505300,11.06350537109375,-0.11976812779903412,0.08381078392267227,0.06544841080904007
1684206717651530200,11.0735302734375,-0.04456576332449913,0.014055364765226841,0.14700017869472504
1684206717661555200,11.08355517578125,0.030666407197713852,0.028752818703651428,0.2482069432735443
1684206717671580400,11.093580322265625,0.10250256955623627,0.1597241461277008,0.36933228373527527
1684206717681605400,11.10360546875,0.11819684505462646,0.23777367174625397,0.4686308801174164
1684206717691631400,11.11363134765625,0.08000166714191437,0.12164585292339325,0.49647292494773865
1684206717701656300,11.12365625,0.00046263542026281357,-0.0917428582906723,0.44935309886932373
1684206717711681300,11.133681396484375,-0.08622930943965912,-0.39839208126068115,0.34624814987182617
1684206717721706500,11.14370654296875,-0.15726140141487122,-0.7197122573852539,0.22030672430992126
1684206717731731200,11.153731201171874,-0.2140130251646042,-0.855068564414978,0.16881383955478668
1684206717741756200,11.163756103515626,-0.2475973516702652,-0.9327122569084167,0.14325681328773499
1684206717751782100,11.1737822265625,-0.2833317816257477,-1.0316210985183716,0.10623235255479813
1684206717761807000,11.18380712890625,-0.3216264545917511,-1.1415382623672485,0.07305122911930084
1684206717771832300,11.193832275390625,-0.3588714301586151,-1.1976648569107056,0.049256693571805954
1684206717781857300,11.203857177734376,-0.382079541683197,-1.229511022567749,0.06974385678768158
1684206717791882200,11.21388232421875,-0.39905887842178345,-1.2180333137512207,0.12634436786174774
1684206717801907200,11.2239072265625,-0.39498770236968994,-1.1815125942230225,0.18461832404136658
1684206717811932400,11.233932373046875,-0.3497370183467865,-1.1535576581954956,0.21280227601528168
1684206717821958400,11.24395849609375,-0.2752358913421631,-1.1471344232559204,0.19627656042575836
1684206717831983400,11.2539833984375,-0.1801275759935379,-1.1247482299804688,0.13830974698066711
1684206717842008300,11.26400830078125,-0.10058402270078659,-1.0712560415267944,0.08137908577919006
1684206717852033300,11.274033203125,-0.05588231235742569,-1.0448575019836426,0.07588542997837067
1684206717862058500,11.28405859375,-0.04278568923473358,-1.0094395875930786,0.1181412786245346
1684206717872083200,11.294083251953126,-0.038688775151968,-0.9586401581764221,0.18959465622901917
1684206717882109400,11.304109375,-0.04767614230513573,-0.8741828203201294,0.3040754199028015
1684206717892134100,11.314134033203125,-0.05425596237182617,-0.735606849193573,0.46280375123023987
1684206717902159000,11.3241591796875,-0.04280596971511841,-0.577731728553772,0.6164476275444031
1684206717912184300,11.334184326171876,-0.01026926189661026,-0.3857406973838806,0.7417778968811035
1684206717922209300,11.344209228515625,0.025263965129852295,-0.1730577051639557,0.8215970993041992
1684206717932234200,11.354234130859375,0.051557622849941254,0.005073947366327047,0.8664284944534302
1684206717942260200,11.36426025390625,0.07910642772912979,0.09997595846652985,0.8604278564453125
1684206717952285200,11.37428515625,0.09080815315246582,0.1186293289065361,0.8354938626289368
1684206717962310400,11.384310302734375,0.09752731025218964,0.10048387944698334,0.7994887232780457
1684206717972335400,11.39433544921875,0.09687040001153946,0.10402574390172958,0.7747674584388733
1684206717982360300,11.4043603515625,0.10017139464616776,0.15416240692138672,0.7768979668617249
1684206717992385300,11.41438525390625,0.10994665324687958,0.21252749860286713,0.7780567407608032
1684206718002410500,11.424410400390625,0.12543265521526337,0.2648029625415802,0.7775774002075195
1684206718012436500,11.4344365234375,0.1431588977575302,0.31288453936576843,0.7689446806907654
1684206718022461400,11.44446142578125,0.15548880398273468,0.3384583592414856,0.7492879033088684
1684206718032486100,11.454486083984374,0.17294339835643768,0.33810266852378845,0.7114987373352051
1684206718042511000,11.464510986328126,0.18551857769489288,0.34022387862205505,0.6822055578231812
1684206718052536800,11.474536865234375,0.20644830167293549,0.3067112863063812,0.6633594036102295
1684206718062561800,11.484561767578125,0.2281075119972229,0.2486003339290619,0.6582096815109253
1684206718072587800,11.494587890625,0.25332558155059814,0.1977882832288742,0.6484741568565369
1684206718082612700,11.50461279296875,0.27644848823547363,0.1409929096698761,0.6311678290367126
1684206718092637700,11.5146376953125,0.2962099313735962,0.09345485270023346,0.6112514734268188
1684206718102662700,11.52466259765625,0.3085467517375946,-0.006031793542206287,0.575374186038971
1684206718112687600,11.5346875,0.3221432566642761,-0.04216230288147926,0.5583851933479309
1684206718122712600,11.544712646484374,0.3159562051296234,-0.06784822791814804,0.5432227849960327
1684206718132738600,11.554738525390626,0.31519395112991333,-0.06642196327447891,0.5257452726364136
1684206718142763500,11.564763427734375,0.3120993673801422,-0.076261006295681,0.4901931583881378
1684206718152788700,11.574788818359375,0.30547234416007996,-0.020167946815490723,0.4705866277217865
1684206718162813700,11.584813720703124,0.32744982838630676,0.0317264087498188,0.4416865408420563
1684206718172838700,11.594838623046876,0.3290557861328125,0.08546965569257736,0.3989836871623993
1684206718182863600,11.604863525390625,0.35020580887794495,0.21100734174251556,0.3796009421348572
1684206718192889600,11.6148896484375,0.45937496423721313,0.29747992753982544,0.34853512048721313
1684206718202914800,11.624914794921875,0.46634578704833984,0.33076196908950806,0.2969936430454254
1684206718212939800,11.634939697265626,0.437451034784317,0.3453967273235321,0.24348627030849457
1684206718222964700,11.64496484375,0.40569764375686646,0.33233046531677246,0.26079389452934265
1684206718232989700,11.65498974609375,0.39982107281684875,0.28343936800956726,0.2625199854373932
1684206718243014700,11.6650146484375,0.41459816694259644,0.29801300168037415,0.2582980692386627
1684206718253040600,11.67504052734375,0.4212550222873688,0.31729310750961304,0.24562165141105652
1684206718263065600,11.685065673828126,0.3985190987586975,0.3916546702384949,0.24524641036987305
1684206718273090600,11.695090576171875,0.3933199942111969,0.4329005777835846,0.24483276903629303
1684206718283115500,11.705115478515625,0.3960886299610138,0.32937684655189514,0.18961797654628754
1684206718293140700,11.715140625,0.3868466019630432,0.30391326546669006,0.17930667102336884
1684206718303165700,11.725165771484376,0.40998440980911255,0.37996914982795715,0.18424896895885468
1684206718313191700,11.735191650390625,0.4212748408317566,0.4337241053581238,0.1716671735048294
1684206718323216600,11.745216552734375,0.4280776381492615,0.5144612789154053,0.14493009448051453
1684206718333241600,11.75524169921875,0.41438645124435425,0.5208441019058228,0.08799047768115997
1684206718343266800,11.765266845703126,0.40276628732681274,0.5246580243110657,0.04481317847967148
1684206718353291800,11.775291748046875,0.42112576961517334,0.5550752878189087,0.03199070692062378
1684206718363316700,11.785316650390625,0.417188823223114,0.566108226776123,-0.011614829301834106
1684206718373342700,11.7953427734375,0.389405757188797,0.5905517935752869,-0.043971020728349686
1684206718383367700,11.80536767578125,0.3534032702445984,0.5682182908058167,-0.08700770139694214
1684206718393392600,11.815392578125,0.2985399663448334,0.508077085018158,-0.1270383894443512
1684206718403417600,11.82541748046875,0.23202431201934814,0.4217386841773987,-0.15289023518562317
1684206718413442600,11.835442626953125,0.1457371562719345,0.3175731897354126,-0.16011211276054382
1684206718423467500,11.845467529296876,0.06594565510749817,0.2962106466293335,-0.1468770056962967
1684206718433492700,11.85549267578125,-0.012873566709458828,0.32282793521881104,-0.13733287155628204
1684206718443518700,11.865518798828125,-0.07555745542049408,0.38506895303726196,-0.13398127257823944
1684206718453543700,11.875543701171875,-0.12258519232273102,0.43905723094940186,-0.11841924488544464
1684206718463568600,11.885568603515624,-0.1617613583803177,0.4850417673587799,-0.11504422128200531
1684206718473593600,11.895593505859376,-0.16351816058158875,0.4488427937030792,-0.15138547122478485
1684206718483618800,11.905618896484375,-0.1720791608095169,0.2979888617992401,-0.23676614463329315
1684206718493643800,11.915643798828125,-0.2543972432613373,0.05607864260673523,-0.37525469064712524
1684206718503668700,11.925668701171874,-0.2862369418144226,-0.1067345067858696,-0.5050800442695618
1684206718513693700,11.935693603515626,-0.2898119390010834,-0.2153298258781433,-0.6095332503318787
1684206718523719700,11.9457197265625,-0.2690110504627228,-0.36472252011299133,-0.673997700214386
1684206718533744600,11.95574462890625,-0.2760050892829895,-0.4390208423137665,-0.6824031472206116
1684206718543769600,11.96576953125,-0.354684978723526,-0.4072149693965912,-0.7225995659828186
1684206718553794600,11.975794677734376,-0.43019813299179077,-0.3395085036754608,-0.7637693285942078
1684206718563819500,11.985819580078125,-0.40992510318756104,-0.1400877982378006,-0.7631877064704895
1684206718573844700,11.9958447265625,-0.3075333535671234,0.212592214345932,-0.7401301860809326
1684206718583870700,12.00587060546875,-0.15450811386108398,0.5127946138381958,-0.7463332414627075
1684206718593895700,12.015895751953124,-0.024572281166911125,0.5731786489486694,-0.7789648771286011
1684206718603920600,12.025920654296876,0.07395216822624207,0.5019161701202393,-0.8240841627120972
1684206718613945600,12.035945556640625,0.10022949427366257,0.43484511971473694,-0.8243733048439026
1684206718623970800,12.045970703125,0.15310922265052795,0.6066281199455261,-0.7101141214370728
1684206718633995800,12.055995849609374,0.15394385159015656,0.8011894226074219,-0.5684077739715576
1684206718644021800,12.066021728515626,0.07570338249206543,0.8219211101531982,-0.5252839922904968
1684206718654046700,12.076046630859375,0.02198837138712406,0.6688230037689209,-0.5709174871444702
1684206718664071700,12.08607177734375,-0.014358717948198318,0.3587181568145752,-0.6132676005363464
1684206718674096600,12.0960966796875,-0.04728119447827339,0.04195171967148781,-0.6435076594352722
1684206718684121600,12.10612158203125,-0.155888631939888,-0.09072989225387573,-0.7559561729431152
1684206718694146600,12.116146484375,-0.21375583112239838,-0.18329200148582458,-0.851392924785614
1684206718704172500,12.126172607421875,-0.22333309054374695,-0.18920554220676422,-0.798494279384613
1684206718714197800,12.13619775390625,-0.17708738148212433,-0.01719922013580799,-0.7452876567840576
1684206718724222700,12.14622265625,-0.24471037089824677,-0.15187101066112518,-0.7261592149734497
1684206718734247700,12.15624755859375,-0.33205726742744446,-0.4372783303260803,-0.4988603889942169
1684206718744272600,12.166272705078125,-0.1385517120361328,-0.28831174969673157,0.4403667449951172
1684206718754297900,12.1762978515625,0.0008588109631091356,0.11486275494098663,2.0050389766693115
1684206718764323600,12.186323486328124,0.19105592370033264,0.7586244344711304,2.8125131130218506
1684206718774348800,12.196348876953126,0.3571045994758606,1.3541737794876099,2.039005994796753
1684206718784373800,12.206373779296875,0.40331870317459106,1.2215321063995361,1.011276364326477
1684206718794398700,12.216398681640625,0.15958909690380096,0.5876275897026062,0.3137691915035248
1684206718804423700,12.226423583984374,-0.0171302892267704,-0.019574983045458794,-0.1788026988506317
1684206718814448600,12.23644873046875,-0.12447357922792435,-0.4596036672592163,-0.3623373508453369
1684206718824474600,12.246474609375,-0.10762163251638412,-0.9601472020149231,-0.3678687512874603
1684206718834499600,12.25649951171875,0.02212359942495823,-1.3069597482681274,-0.4080820381641388
1684206718844524500,12.266524658203124,0.18221552670001984,-1.1980308294296265,-0.3250627815723419
1684206718854549800,12.2765498046875,0.2722933888435364,-0.6793705821037292,0.030527589842677116
1684206718864574700,12.28657470703125,0.32655397057533264,-0.09233901649713516,0.43820589780807495
1684206718874599700,12.296599609375,0.3371317684650421,0.25722214579582214,0.6264723539352417
1684206718884624600,12.306624755859374,0.3388364613056183,0.30143433809280396,0.5810417532920837
1684206718894650600,12.316650634765624,0.3363858759403229,0.23919923603534698,0.4243248999118805
1684206718904675800,12.32667578125,0.3180446922779083,0.09478985518217087,0.26660504937171936
1684206718914700800,12.33670068359375,0.18793299794197083,-0.10840609669685364,0.11170343309640884
1684206718924725800,12.346725830078125,0.14791473746299744,-0.11525122076272964,-0.00492996908724308
1684206718934750500,12.35675048828125,0.21040292084217072,-0.02555273473262787,-0.15719696879386902
1684206718944775700,12.366775634765625,0.24840781092643738,-0.04040971398353577,-0.22201697528362274
1684206718954801700,12.3768017578125,0.2686871290206909,-0.09766373038291931,-0.19923098385334015
1684206718964826600,12.38682666015625,0.2841326892375946,-0.1311149001121521,-0.07652850449085236
