time,seconds_elapsed,z,y,x
1684206761487066400,0.02606640625,-0.03327734023332596,-0.15801720321178436,-0.24037985503673553
1684206761497091300,0.03609130859375,-0.07685776799917221,-0.08991409838199615,-0.24345675110816956
1684206761507117300,0.046117431640625,-0.06885497272014618,-0.14066089689731598,-0.23072870075702667
1684206761517142300,0.056142333984375,-0.07018127292394638,-0.2146768867969513,-0.24268831312656403
1684206761527167200,0.066167236328125,-0.07693558186292648,-0.2111804187297821,-0.2709321975708008
1684206761537192400,0.0761923828125,-0.0810389444231987,-0.15919692814350128,-0.30557745695114136
1684206761547217400,0.086217529296875,-0.08309756219387054,-0.0787670761346817,-0.34982186555862427
1684206761557242400,0.096242431640625,-0.1267380714416504,0.029188936576247215,-0.38156431913375854
1684206761567268400,0.106268310546875,-0.22673949599266052,0.1752990037202835,-0.4738162159919739
1684206761577293300,0.116293212890625,-0.3393082618713379,0.21022339165210724,-0.5109046697616577
1684206761587318300,0.126318359375,-0.4887837767601013,0.16214613616466522,-0.45005863904953003
1684206761597343200,0.13634326171875,-0.706936776638031,0.4552888870239258,-0.6659208536148071
1684206761607368200,0.1463681640625,-1.040379524230957,0.5251638889312744,-0.7411852478981018
1684206761617393200,0.15639306640625,-1.3869645595550537,0.34465116262435913,-0.6610236167907715
1684206761627419100,0.166419189453125,-1.691189169883728,0.11577217280864716,-0.5328696966171265
1684206761637444400,0.1764443359375,-1.947191596031189,-0.03258208930492401,-0.38576510548591614
1684206761647469300,0.18646923828125,-2.117128610610962,-0.08620297163724899,-0.2969963550567627
1684206761657494300,0.196494384765625,-2.190640926361084,-0.13407501578330994,-0.28359341621398926
1684206761667519200,0.206519287109375,-2.068087339401245,-0.4373432993888855,-0.45109719038009644
1684206761677545200,0.216545166015625,-1.9114238023757935,-0.38796237111091614,-0.5615849494934082
1684206761687570400,0.2265703125,-1.7858407497406006,-0.20729777216911316,-0.5006579160690308
1684206761697595400,0.236595458984375,-1.6827011108398438,-0.16946543753147125,-0.41761550307273865
1684206761707620400,0.246620361328125,-1.6149159669876099,-0.21996936202049255,-0.3672812283039093
1684206761717645300,0.256645263671875,-1.5788309574127197,-0.26245903968811035,-0.34066566824913025
1684206761727670300,0.266670166015625,-1.5835540294647217,-0.26415520906448364,-0.3075577914714813
1684206761737696500,0.276696533203125,-1.584201693534851,-0.297525554895401,-0.28543704748153687
1684206761747721200,0.28672119140625,-1.5770207643508911,-0.32484450936317444,-0.3089636564254761
1684206761757746200,0.29674609375,-1.5504460334777832,-0.3520542085170746,-0.3718634247779846
1684206761767771100,0.306771240234375,-1.493371844291687,-0.3960844874382019,-0.45293909311294556
1684206761777796400,0.31679638671875,-1.4042284488677979,-0.46229276061058044,-0.4812954366207123
1684206761787821300,0.3268212890625,-1.2851848602294922,-0.5197318196296692,-0.4527879059314728
1684206761797847300,0.336847412109375,-1.1543748378753662,-0.6647393703460693,-0.44033727049827576
1684206761807872300,0.346872314453125,-1.0084609985351562,-0.7736624479293823,-0.43773430585861206
1684206761817897200,0.356897216796875,-0.8820487856864929,-0.7488012909889221,-0.42615973949432373
1684206761827922400,0.36692236328125,-0.7742051482200623,-0.5893074870109558,-0.39100706577301025
1684206761837947400,0.376947509765625,-0.6675019860267639,-0.459647536277771,-0.35729432106018066
1684206761847972400,0.386972412109375,-0.5849202871322632,-0.44634291529655457,-0.3197762370109558
1684206761857998300,0.396998291015625,-0.2151654064655304,-0.5207266807556152,-0.1202019676566124
1684206761868023300,0.407023193359375,0.38229426741600037,0.1706019937992096,0.09972213953733444
1684206761878048300,0.41704833984375,0.19808363914489746,0.22890125215053558,-0.22575630247592926
1684206761888073200,0.4270732421875,0.1155589297413826,-0.2502799928188324,-0.38033363223075867
1684206761898098200,0.43709814453125,0.0838143453001976,-0.46216335892677307,-0.33855798840522766
1684206761908123100,0.447123046875,0.06874404847621918,-0.39517951011657715,-0.2923297584056854
1684206761918149000,0.457149169921875,0.09957016259431839,-0.26455336809158325,-0.2407473474740982
1684206761928174300,0.46717431640625,0.10831411927938461,-0.10940533131361008,-0.19557879865169525
1684206761938199300,0.47719921875,0.1188957467675209,0.039236534386873245,-0.14628231525421143
1684206761948224300,0.487224365234375,0.11174968630075455,0.08900249004364014,-0.08808746933937073
1684206761958249200,0.497249267578125,0.1107754036784172,0.06141897663474083,-0.0354059673845768
1684206761968274400,0.5072744140625,0.08994203060865402,-0.0008166983025148511,-0.017287151888012886
1684206761978300400,0.517300537109375,0.08201508224010468,-0.12053316831588745,-0.04010334238409996
1684206761988325400,0.527325439453125,0.0762738436460495,-0.1950252503156662,-0.07050306349992752
1684206761998350300,0.537350341796875,0.06342815607786179,-0.2884258031845093,-0.10955660045146942
1684206762008375300,0.547375244140625,0.08325646072626114,-0.38362422585487366,-0.13756293058395386
1684206762018400300,0.557400146484375,0.10621495544910431,-0.38270679116249084,-0.10118306428194046
1684206762028426500,0.567426513671875,0.13091550767421722,-0.2736538052558899,-0.049448493868112564
1684206762038451200,0.577451171875,0.1629929542541504,-0.11696119606494904,-0.02408781088888645
1684206762048476200,0.58747607421875,0.17607653141021729,-0.007359869312494993,-0.026263080537319183
1684206762058501000,0.597501220703125,0.1619863659143448,0.10400012880563736,0.008106117136776447
1684206762068526300,0.6075263671875,0.13687968254089355,0.18417513370513916,0.02319665253162384
1684206762078551300,0.61755126953125,0.12808719277381897,0.27083033323287964,0.01642390340566635
1684206762088577300,0.627577392578125,0.12462187558412552,0.2908410429954529,0.008799273520708084
1684206762098602000,0.63760205078125,0.12331818044185638,0.2628999352455139,-0.004511997103691101
1684206762108627200,0.647627197265625,0.11609195917844772,0.21905550360679626,-0.02676403895020485
1684206762118652200,0.657652099609375,0.10459500551223755,0.16688522696495056,-0.06152918189764023
1684206762128677000,0.667677001953125,0.09192688018083572,0.10283353179693222,-0.08910834789276123
1684206762138702000,0.6777021484375,0.08219974488019943,0.024135148152709007,-0.1154685765504837
1684206762148728000,0.68772802734375,0.06475364416837692,-0.04985279217362404,-0.1279846429824829
1684206762158753300,0.697753173828125,0.04425565525889397,-0.11613208800554276,-0.14151763916015625
1684206762168778200,0.7077783203125,0.016164368018507957,-0.14679545164108276,-0.15802578628063202
1684206762178803200,0.71780322265625,-0.020063959062099457,-0.1286066621541977,-0.16769663989543915
1684206762188828200,0.727828125,-0.052002184092998505,-0.11171557009220123,-0.1568104326725006
1684206762198853000,0.73785302734375,-0.08433470875024796,-0.10591638088226318,-0.14734135568141937
1684206762208879400,0.74787939453125,-0.13047850131988525,-0.0937766283750534,-0.1340886652469635
1684206762218904000,0.757904052734375,-0.1725158840417862,-0.07702602446079254,-0.13385972380638123
1684206762228929000,0.767928955078125,-0.209276020526886,-0.0363616868853569,-0.12455596774816513
1684206762238954000,0.7779541015625,-0.23772378265857697,0.007918477058410645,-0.1045311838388443
1684206762248979200,0.787979248046875,-0.267854779958725,0.023008747026324272,-0.094382144510746
1684206762259004200,0.798004150390625,-0.29257768392562866,0.020517956465482712,-0.11758215725421906
1684206762269030100,0.808030029296875,-0.29949551820755005,0.0070471554063260555,-0.17402438819408417
1684206762279055000,0.81805517578125,-0.29653605818748474,0.011368682608008385,-0.2506723701953888
1684206762289080000,0.828080078125,-0.2648146152496338,0.08710471540689468,-0.3078720271587372
1684206762299105300,0.838105224609375,-0.2273508906364441,0.1784866601228714,-0.3343050181865692
1684206762309130200,0.848130126953125,-0.19089114665985107,0.27974456548690796,-0.3466128408908844
1684206762319155200,0.8581552734375,-0.16491155326366425,0.3899134695529938,-0.3241685926914215
1684206762329181200,0.86818115234375,-0.1514415442943573,0.44871020317077637,-0.28936347365379333
1684206762339206100,0.8782060546875,-0.16224358975887299,0.4788646996021271,-0.22763130068778992
1684206762349231400,0.8882314453125,-0.18145190179347992,0.5398558974266052,-0.14475399255752563
1684206762359256000,0.898256103515625,-0.1924353390932083,0.6200833320617676,-0.08953285217285156
1684206762369281000,0.908281005859375,-0.1872786581516266,0.7421314716339111,-0.07570039480924606
1684206762379306000,0.918305908203125,-0.16739210486412048,0.785012423992157,-0.08407749235630035
1684206762389332000,0.92833203125,-0.15042245388031006,0.6454156041145325,-0.08291768282651901
1684206762399357200,0.938357177734375,-0.15824057161808014,0.4820464551448822,-0.011395557783544064
1684206762409382100,0.948382080078125,-0.16037270426750183,0.5908427238464355,0.07213474810123444
1684206762419407000,0.958406982421875,-0.1704300493001938,0.8884238004684448,0.17735929787158966
1684206762429432000,0.96843212890625,-0.18871478736400604,1.098508358001709,0.22050809860229492
1684206762439458000,0.9784580078125,-0.17028294503688812,1.110182523727417,0.172129288315773
1684206762449483300,0.988483154296875,-0.16259892284870148,0.9646181464195251,0.09022323787212372
1684206762459508200,0.99850830078125,-0.17083688080310822,0.8044106364250183,0.0005175869446247816
1684206762469533200,1.008533203125,-0.1678543984889984,0.6793373823165894,-0.09980423003435135
1684206762479558100,1.01855810546875,-0.13444669544696808,0.609937846660614,-0.19408832490444183
1684206762489583000,1.0285830078125,-0.08851223438978195,0.60679692029953,-0.2512640058994293
1684206762499609300,1.038609375,-0.030964214354753494,0.6944253444671631,-0.23169851303100586
1684206762509634000,1.048634033203125,0.026078565046191216,0.7821109890937805,-0.16032740473747253
1684206762519659000,1.058658935546875,0.08143483847379684,0.7987332940101624,-0.098012775182724
1684206762529684000,1.06868408203125,0.13855618238449097,0.7898798584938049,-0.04453010484576225
1684206762539709200,1.078709228515625,0.17522920668125153,0.759851336479187,0.005570581182837486
1684206762549734100,1.088734130859375,0.19785037636756897,0.7167792320251465,0.09430337697267532
1684206762559760100,1.098760009765625,0.19646742939949036,0.6812852025032043,0.22393162548542023
1684206762569785000,1.10878515625,0.16985180974006653,0.6843845844268799,0.3413195013999939
1684206762579810000,1.11881005859375,0.1447734534740448,0.6723331212997437,0.3872237205505371
1684206762589835300,1.128835205078125,0.1583893895149231,0.6587358117103577,0.38012051582336426
1684206762599860200,1.138860107421875,0.19983439147472382,0.6469144821166992,0.3507445752620697
1684206762609885200,1.14888525390625,0.24590708315372467,0.6353827118873596,0.30235201120376587
1684206762619911200,1.1589111328125,0.2872903645038605,0.5219766497612,0.21883931756019592
1684206762629936000,1.16893603515625,0.2675829529762268,0.2949445843696594,0.12388776987791061
1684206762639961300,1.17896142578125,0.19357416033744812,0.07262313365936279,0.12189248949289322
1684206762649986000,1.188986083984375,0.07902282476425171,-0.14588125050067902,0.15172122418880463
1684206762660011000,1.199010986328125,-0.06311652064323425,-0.3193913400173187,0.15458610653877258
1684206762670036000,1.209035888671875,-0.18277607858181,-0.40959635376930237,0.1345740556716919
1684206762680062000,1.21906201171875,-0.2487175017595291,-0.48301294445991516,0.13385993242263794
1684206762690087200,1.229087158203125,-0.2656000852584839,-0.5122565627098083,0.14951425790786743
1684206762700112100,1.239112060546875,-0.26006847620010376,-0.4469705820083618,0.15604692697525024
1684206762710137000,1.24913720703125,-0.22221271693706512,-0.3730257749557495,0.12561233341693878
1684206762720162000,1.259162109375,-0.15688838064670563,-0.31211215257644653,0.07732781767845154
1684206762730187300,1.269187255859375,-0.07321079820394516,-0.26968640089035034,0.0723293274641037
1684206762740213200,1.279213134765625,0.0035988360177725554,-0.20493343472480774,0.12000184506177902
1684206762750238200,1.28923828125,0.05188034847378731,-0.14561951160430908,0.19779491424560547
1684206762760263200,1.29926318359375,0.09409090131521225,-0.1728748083114624,0.27124446630477905
1684206762770288000,1.3092880859375,0.11558128148317337,-0.16378037631511688,0.35459285974502563
1684206762780313000,1.31931298828125,0.12381765246391296,-0.12201229482889175,0.44085583090782166
1684206762790338000,1.329338134765625,0.13841576874256134,-0.038240697234869,0.5113129615783691
1684206762800364000,1.339364013671875,0.15526121854782104,0.05280986428260803,0.5649638175964355
1684206762810389000,1.349388916015625,0.16257531940937042,0.14979100227355957,0.5890206694602966
1684206762820414000,1.3594140625,0.18433082103729248,0.23365862667560577,0.6299419403076172
1684206762830439200,1.369439208984375,0.2185915857553482,0.28469276428222656,0.7161620259284973
1684206762840464100,1.379464111328125,0.2595706284046173,0.24674540758132935,0.8060591816902161
1684206762850489000,1.389489013671875,0.30529579520225525,0.17942149937152863,0.916040301322937
1684206762860515000,1.39951513671875,0.3512684404850006,0.07871884107589722,1.0492606163024902
1684206762870540000,1.4095400390625,0.3692210912704468,-0.07955335825681686,1.210964560508728
1684206762880565200,1.419565185546875,0.33827799558639526,-0.16735947132110596,1.4015096426010132
1684206762890590200,1.429590087890625,0.27989086508750916,-0.15269316732883453,1.536110520362854
1684206762900615200,1.439615234375,0.22973689436912537,-0.04767121374607086,1.5956051349639893
1684206762910640000,1.44964013671875,0.24273578822612762,0.03447478637099266,1.606127381324768
1684206762920665000,1.4596650390625,0.3096393942832947,0.06344705820083618,1.5881738662719727
1684206762930691300,1.46969140625,0.3948829174041748,0.04453621432185173,1.5653878450393677
1684206762940716000,1.479716064453125,0.5185061097145081,0.008432697504758835,1.512536644935608
1684206762950741000,1.489740966796875,0.6934441328048706,-0.019864453002810478,1.390720248222351
1684206762960766000,1.499765869140625,0.886055588722229,-0.06464385986328125,1.2181049585342407
1684206762970791200,1.509791259765625,1.064404845237732,-0.021410908550024033,1.0661156177520752
1684206762980817200,1.519817138671875,1.2320367097854614,0.1000596284866333,0.893440842628479
1684206762990842000,1.529842041015625,1.3768516778945923,0.22641488909721375,0.7080451250076294
1684206763000867000,1.5398671875,1.4658688306808472,0.2905130386352539,0.5299188494682312
1684206763010892000,1.54989208984375,1.4844801425933838,0.26600077748298645,0.36441612243652344
1684206763020917200,1.559917236328125,1.4514400959014893,0.049506042152643204,0.19927355647087097
1684206763030942200,1.569942138671875,1.3953502178192139,-0.40217727422714233,-0.02073071524500847
1684206763040967200,1.57996728515625,1.3283318281173706,-0.9931159615516663,-0.21821998059749603
1684206763050993200,1.5899931640625,1.2357981204986572,-1.502073884010315,-0.32551899552345276
1684206763061018000,1.60001806640625,1.1016587018966675,-1.7743778228759766,-0.3662205934524536
1684206763071043000,1.61004296875,1.0285367965698242,-1.725711703300476,-0.34868982434272766
1684206763081068000,1.620068115234375,1.0452678203582764,-1.3528777360916138,-0.29099541902542114
1684206763091093000,1.630093017578125,1.0243196487426758,-0.7992681264877319,-0.26475661993026733
1684206763101118200,1.6401181640625,0.9054965972900391,-0.41060885787010193,-0.2978459894657135
1684206763111144200,1.650144287109375,0.6654149889945984,-0.3400404155254364,-0.3457759618759155
1684206763121169200,1.660169189453125,0.43483200669288635,-0.48898541927337646,-0.4192371368408203
1684206763131194000,1.670194091796875,0.26443496346473694,-0.6274255514144897,-0.47723013162612915
1684206763141218800,1.68021875,0.15632633864879608,-0.6392040252685547,-0.4939613938331604
1684206763151244000,1.690244140625,0.1088741272687912,-0.6142579317092896,-0.5140448212623596
1684206763161269000,1.70026904296875,0.07753586769104004,-0.5612877011299133,-0.5187891125679016
1684206763171295000,1.710294921875,-0.003914249129593372,-0.4232816994190216,-0.5229929089546204
1684206763181320000,1.72031982421875,-0.12697312235832214,-0.25351712107658386,-0.5412445664405823
1684206763191345000,1.730344970703125,-0.23792973160743713,-0.09343826025724411,-0.5621141791343689
1684206763201370000,1.7403701171875,-0.3350333273410797,0.018279079347848892,-0.556947648525238
1684206763211395000,1.75039501953125,-0.40727052092552185,0.07726303488016129,-0.5238595008850098
1684206763221420000,1.760419921875,-0.47642651200294495,0.10337330400943756,-0.444534569978714
1684206763231446000,1.770446044921875,-0.55246502161026,0.07899206876754761,-0.33025938272476196
1684206763241471000,1.780470947265625,-0.6453365087509155,0.011628987267613411,-0.19068248569965363
1684206763251496200,1.79049609375,-0.7402986884117126,-0.11392893642187119,-0.01838848739862442
1684206763261521200,1.800521240234375,-0.8245922327041626,-0.2794680595397949,0.18185222148895264
1684206763271546000,1.810546142578125,-0.8809247612953186,-0.5286579132080078,0.36940455436706543
1684206763281570800,1.82057080078125,-0.8881947994232178,-0.7361748218536377,0.5036718845367432
1684206763291596800,1.8305966796875,-0.8130446672439575,-0.8759332895278931,0.5314473509788513
1684206763301622000,1.8406220703125,-0.6366970539093018,-0.8292011618614197,0.4645819067955017
1684206763311647000,1.85064697265625,-0.3908398449420929,-0.529703676700592,0.38559335470199585
1684206763321672000,1.860671875,-0.13771581649780273,0.04266948252916336,0.2591266632080078
1684206763331697000,1.87069677734375,0.032346196472644806,0.7711318731307983,0.05796343460679054
1684206763341722000,1.88072216796875,0.14222006499767303,1.4881170988082886,-0.09794430434703827
1684206763351747000,1.8907470703125,0.2897813022136688,1.9260344505310059,-0.18387891352176666
1684206763361773000,1.90077294921875,0.38413360714912415,2.0139665603637695,-0.2025795578956604
1684206763371798000,1.910798095703125,0.4254637360572815,1.8579227924346924,-0.1787293404340744
1684206763381823000,1.920822998046875,0.450723797082901,1.5050286054611206,-0.20635633170604706
1684206763391848200,1.93084814453125,0.4984806478023529,1.0251275300979614,-0.36896175146102905
1684206763401873200,1.940873046875,0.6189935207366943,0.6017788648605347,-0.6548620462417603
1684206763411897900,1.95089794921875,0.7015501856803894,0.34112438559532166,-0.915877640247345
1684206763421924000,1.960924072265625,0.6355776786804199,0.24118471145629883,-0.9615386724472046
1684206763431948800,1.97094873046875,0.4218786954879761,0.11815013736486435,-0.8500579595565796
1684206763441974000,1.98097412109375,0.12136851996183395,-0.042801711708307266,-0.7679488062858582
1684206763451999000,1.9909990234375,-0.18454080820083618,-0.15226829051971436,-0.7700572609901428
1684206763462024000,2.00102392578125,-0.4310629963874817,-0.24270877242088318,-0.7718965411186218
1684206763472049000,2.011048828125,-0.5814602375030518,-0.3136196732521057,-0.7657475471496582
1684206763482075000,2.021074951171875,-0.670494019985199,-0.26782476902008057,-0.7828770875930786
1684206763492100000,2.03110009765625,-0.7214520573616028,-0.1457529217004776,-0.8035493493080139
1684206763502125000,2.041125,-0.77872633934021,-0.1385650634765625,-0.728381872177124
1684206763512150000,2.05114990234375,-0.8069974184036255,-0.21938800811767578,-0.49500802159309387
1684206763522175000,2.061175048828125,-0.8116570711135864,-0.26568129658699036,-0.20676928758621216
1684206763532200200,2.0712001953125,-0.8285231590270996,-0.15930959582328796,0.009810155257582664
1684206763542226200,2.08122607421875,-0.8380016684532166,0.14641991257667542,0.15880542993545532
1684206763552251100,2.091251220703125,-0.8236275315284729,0.5529330372810364,0.273114413022995
1684206763562276000,2.101276123046875,-0.7744788527488708,0.8271908760070801,0.3546751141548157
1684206763572300800,2.11130078125,-0.7066942453384399,0.8471454381942749,0.41173386573791504
1684206763582326000,2.121325927734375,-0.6331945657730103,0.698034942150116,0.4349099397659302
1684206763592351000,2.13135107421875,-0.5423815846443176,0.5498385429382324,0.4005490243434906
1684206763602376000,2.1413759765625,-0.4718468487262726,0.4637671411037445,0.32681551575660706
1684206763612402000,2.15140185546875,-0.4142304062843323,0.4723894000053406,0.2882888913154602
1684206763622427000,2.161427001953125,-0.3768042325973511,0.4493275582790375,0.28332629799842834
1684206763632452000,2.1714521484375,-0.3952580690383911,0.30752941966056824,0.2900731563568115
1684206763642477000,2.18147705078125,-0.3855639100074768,0.08459299057722092,0.2704962491989136
1684206763652502000,2.191501953125,-0.3338610529899597,-0.13368554413318634,0.22737006843090057
1684206763662527000,2.20152685546875,-0.28291013836860657,-0.2328600436449051,0.1494978368282318
1684206763672553000,2.211552978515625,-0.2390499711036682,-0.231597438454628,0.028318151831626892
1684206763682578200,2.221578125,-0.21333198249340057,-0.22340601682662964,-0.07554777711629868
1684206763692603100,2.23160302734375,-0.20657314360141754,-0.22024084627628326,-0.15056823194026947
1684206763702627800,2.2416279296875,-0.21015432476997375,-0.21919754147529602,-0.21149121224880219
1684206763712652800,2.25165283203125,-0.21008507907390594,-0.21682147681713104,-0.2599993348121643
1684206763722678000,2.261677978515625,-0.2285587340593338,-0.2729998230934143,-0.3110201060771942
1684206763732704000,2.2717041015625,-0.2541746199131012,-0.3838014304637909,-0.35222959518432617
1684206763742729000,2.28172900390625,-0.27767762541770935,-0.5379376411437988,-0.37388885021209717
1684206763752754000,2.29175390625,-0.299630343914032,-0.7096489667892456,-0.3786492347717285
1684206763762779000,2.30177880859375,-0.29890117049217224,-0.8510111570358276,-0.3738497495651245
1684206763772804000,2.31180419921875,-0.2860279679298401,-0.9103676676750183,-0.3645681142807007
1684206763782829000,2.3218291015625,-0.25254732370376587,-0.8798595666885376,-0.3492412269115448
1684206763792855000,2.33185498046875,-0.20520828664302826,-0.7813095450401306,-0.343626469373703
1684206763802880000,2.3418798828125,-0.14068810641765594,-0.6570454239845276,-0.33747342228889465
1684206763812905000,2.351905029296875,-0.05981216952204704,-0.5215403437614441,-0.34158986806869507
1684206763822930200,2.36193017578125,0.028286725282669067,-0.40130695700645447,-0.3605372905731201
1684206763832955100,2.371955078125,0.12445028126239777,-0.3145366311073303,-0.3959951400756836
1684206763842979800,2.381979736328125,0.22041042149066925,-0.2649678587913513,-0.4291030168533325
1684206763853005000,2.392005126953125,0.3024160861968994,-0.24525995552539825,-0.45132389664649963
1684206763863030800,2.40203076171875,0.3786051869392395,-0.2676461637020111,-0.46701836585998535
1684206763873056000,2.412055908203125,0.44827374815940857,-0.30643269419670105,-0.4737234115600586
1684206763883081000,2.4220810546875,0.5156658887863159,-0.37095966935157776,-0.5046931505203247
1684206763893106000,2.43210595703125,0.5693592429161072,-0.4715467393398285,-0.5654009580612183
1684206763903131100,2.442131103515625,0.6080026626586914,-0.6146152019500732,-0.6246483325958252
1684206763913156000,2.452156005859375,0.620354950428009,-0.8047076463699341,-0.6509608626365662
1684206763923182000,2.46218212890625,0.5846283435821533,-1.034453272819519,-0.631828248500824
1684206763933207000,2.47220703125,0.5370909571647644,-1.2108887434005737,-0.5741623044013977
1684206763943232000,2.48223193359375,0.4614875614643097,-1.3449110984802246,-0.5160439014434814
1684206763953257000,2.492257080078125,0.39316949248313904,-1.3494722843170166,-0.49689656496047974
1684206763963282200,2.5022822265625,0.2899782955646515,-1.2078200578689575,-0.495696485042572
1684206763973307000,2.512306884765625,0.1458413302898407,-0.9563196301460266,-0.4731680154800415
1684206763983333000,2.5223330078125,0.009242509491741657,-0.7086902856826782,-0.42276400327682495
1684206763993357800,2.53235791015625,-0.127450630068779,-0.5849035978317261,-0.3607512414455414
1684206764003383000,2.542383056640625,-0.26322823762893677,-0.5945520997047424,-0.28646600246429443
1684206764013408000,2.552407958984375,-0.40870848298072815,-0.6671040654182434,-0.20048744976520538
1684206764023433000,2.562432861328125,-0.5551948547363281,-0.6729767322540283,-0.10029254853725433
1684206764033458000,2.5724580078125,-0.6722897887229919,-0.5596363544464111,-0.017797941341996193
1684206764043483100,2.582483154296875,-0.735782265663147,-0.3922386169433594,0.04623281583189964
1684206764053509000,2.592509033203125,-0.7579589486122131,-0.19777485728263855,0.09316810220479965
1684206764063534000,2.6025341796875,-0.7385736107826233,-0.08720231056213379,0.13042782247066498
1684206764073559000,2.61255908203125,-0.6732348203659058,0.009110111743211746,0.19198837876319885
1684206764083584000,2.622583984375,-0.5422735810279846,0.02418620139360428,0.2422085553407669
1684206764093609200,2.632609130859375,-0.42746978998184204,0.023439718410372734,0.21877408027648926
1684206764103634400,2.642634521484375,-0.34554243087768555,0.017147567123174667,0.13699206709861755
1684206764113660400,2.652660400390625,-0.28768685460090637,-0.05852588638663292,0.040796827524900436
1684206764123685400,2.662685302734375,-0.2387785166501999,-0.23376131057739258,-0.04850761219859123
1684206764133710300,2.67271044921875,-0.1865517944097519,-0.47837477922439575,-0.13464729487895966
1684206764143735300,2.6827353515625,-0.15122728049755096,-0.6301112771034241,-0.16885659098625183
1684206764153760500,2.692760498046875,-0.10159182548522949,-0.7872002124786377,-0.20815792679786682
1684206764163785500,2.702785400390625,-0.061708662658929825,-0.9196646213531494,-0.20363807678222656
1684206764173811500,2.7128115234375,-0.03707335516810417,-0.9168754816055298,-0.13425661623477936
1684206764183836400,2.72283642578125,-0.01583658903837204,-0.8762089014053345,-0.07728932797908783
1684206764193861400,2.732861328125,0.004968557506799698,-0.694230318069458,-0.029712487012147903
1684206764203886300,2.74288623046875,0.005336801055818796,-0.3924615979194641,-0.05871715396642685
1684206764213911300,2.752911376953125,0.06703798472881317,-0.132291778922081,-0.15458641946315765
1684206764223936300,2.762936279296875,0.12697985768318176,0.0546317920088768,-0.2403760850429535
1684206764233961200,2.772961181640625,0.14212152361869812,0.23006406426429749,-0.26019343733787537
1684206764243987200,2.7829873046875,0.09715640544891357,0.4041008949279785,-0.23131395876407623
1684206764254012400,2.793012451171875,0.0181268360465765,0.49454185366630554,-0.15694065392017365
1684206764264037400,2.803037353515625,-0.0804479718208313,0.5462561845779419,-0.05960429087281227
1684206764274062300,2.813062255859375,-0.14026524126529694,0.5639312863349915,-0.004158611409366131
1684206764284087300,2.82308740234375,-0.1750161498785019,0.5542422533035278,-0.006452525965869427
1684206764294112500,2.833112548828125,-0.19188381731510162,0.5257019996643066,-0.03948663920164108
1684206764304138500,2.843138427734375,-0.19151774048805237,0.48038914799690247,-0.06125068664550781
1684206764314163500,2.85316357421875,-0.2084205597639084,0.5010288953781128,-0.02410225011408329
1684206764324188400,2.8631884765625,-0.2519661486148834,0.5888841152191162,0.05667293444275856
1684206764334213400,2.87321337890625,-0.2933673858642578,0.6438238024711609,0.1359720230102539
1684206764344238300,2.88323828125,-0.34560924768447876,0.6645890474319458,0.1822013407945633
1684206764354263300,2.89326318359375,-0.41082048416137695,0.6164396405220032,0.20179980993270874
1684206764364289300,2.903289306640625,-0.4585329294204712,0.5378034114837646,0.19349052011966705
1684206764374314200,2.913314208984375,-0.49060219526290894,0.4977329671382904,0.18272602558135986
1684206764384339500,2.92333935546875,-0.5033345818519592,0.4417421817779541,0.1722431629896164
1684206764394364400,2.933364501953125,-0.4904153048992157,0.3542778491973877,0.1376689374446869
1684206764404389400,2.943389404296875,-0.45745962858200073,0.2624723017215729,0.07245205342769623
1684206764414414300,2.953414306640625,-0.41966351866722107,0.18252581357955933,0.005682608112692833
1684206764424439600,2.963439453125,-0.39249351620674133,0.12744855880737305,-0.03127669543027878
1684206764434465500,2.973465576171875,-0.36644992232322693,0.0925840437412262,-0.05379212275147438
1684206764444490500,2.983490478515625,-0.3385902941226959,0.06222836673259735,-0.07934073358774185
1684206764454515500,2.993515380859375,-0.30892640352249146,0.004670262336730957,-0.08779440820217133
1684206764464540400,3.00354052734375,-0.26183295249938965,-0.07316693663597107,-0.08725334703922272
1684206764474565400,3.0135654296875,-0.2144731730222702,-0.17312708497047424,-0.07495594024658203
1684206764484590300,3.02359033203125,-0.17693215608596802,-0.2742513418197632,-0.05909423530101776
1684206764494615300,3.033615234375,-0.1390361785888672,-0.32223379611968994,-0.06185726821422577
1684206764504641300,3.043641357421875,-0.10313835740089417,-0.3236919641494751,-0.08010944724082947
1684206764514666200,3.053666259765625,-0.05185919255018234,-0.22558218240737915,-0.13760443031787872
1684206764524691500,3.06369140625,0.002698212629184127,-0.08528231084346771,-0.19782106578350067
1684206764534716400,3.07371630859375,0.03164650872349739,0.03897998481988907,-0.22826020419597626
1684206764544741400,3.083741455078125,0.054626040160655975,0.16030459105968475,-0.2639859914779663
1684206764554766300,3.093766357421875,0.10285535454750061,0.2847767472267151,-0.3163006007671356
1684206764564792300,3.103792236328125,0.1377962827682495,0.2970533072948456,-0.345903605222702
1684206764574817500,3.113817626953125,0.12404584884643555,0.121414914727211,-0.28182023763656616
1684206764584842500,3.123842529296875,0.05146348103880882,-0.06868410855531693,-0.12060987949371338
1684206764594867500,3.133867431640625,-0.0448492057621479,-0.02244284749031067,-0.010974198579788208
1684206764604892400,3.143892333984375,-0.09866641461849213,0.3041495680809021,-0.027339745312929153
1684206764614917400,3.15391748046875,-0.11089058965444565,0.6224691867828369,-0.061158958822488785
1684206764624943600,3.163943603515625,-0.09777210652828217,0.821782648563385,-0.0531400628387928
1684206764634968300,3.17396826171875,-0.07302601635456085,0.9521385431289673,-0.035243354737758636
1684206764644993300,3.1839931640625,-0.03869488090276718,1.040421962738037,-0.04777218773961067
1684206764655018200,3.194018310546875,-0.0059891315177083015,1.0584185123443604,-0.09516792744398117
1684206764665043500,3.20404345703125,0.015213281847536564,0.9836201667785645,-0.15467479825019836
1684206764675068400,3.214068359375,0.03386393189430237,0.9721238613128662,-0.18892064690589905
1684206764685093400,3.22409326171875,0.03300214558839798,0.9878509640693665,-0.1764095276594162
1684206764695119400,3.234119384765625,0.01086408831179142,0.9290598630905151,-0.1707409918308258
1684206764705144300,3.244144287109375,-0.0025103208608925343,0.8340674638748169,-0.21983835101127625
1684206764715169500,3.25416943359375,-0.051307953894138336,0.7583338022232056,-0.2665126323699951
1684206764725194500,3.264194580078125,-0.14431464672088623,0.7183586955070496,-0.24220192432403564
1684206764735219500,3.274219482421875,-0.2324756681919098,0.7214255928993225,-0.14847570657730103
1684206764745244200,3.284244140625,-0.28659096360206604,0.7384979724884033,-0.06443943083286285
1684206764755270400,3.2942705078125,-0.3228483200073242,0.7085139751434326,-0.043693408370018005
1684206764765295400,3.30429541015625,-0.34101226925849915,0.6219425201416016,-0.06568527966737747
1684206764775320300,3.3143203125,-0.34994345903396606,0.4961177706718445,-0.08094172924757004
1684206764785345300,3.32434521484375,-0.35826531052589417,0.33353304862976074,-0.07812449336051941
1684206764795370200,3.334370361328125,-0.3195061981678009,0.17158222198486328,-0.07620622217655182
1684206764805395500,3.3443955078125,-0.2379172146320343,0.029933743178844452,-0.07058252394199371
1684206764815420400,3.35442041015625,-0.10291731357574463,-0.059158314019441605,-0.05690532550215721
1684206764825446400,3.3644462890625,0.09269122034311295,-0.02732803486287594,-0.022879021242260933
1684206764835471400,3.374471435546875,0.29052841663360596,0.12092907726764679,-0.008699020370841026
1684206764845496300,3.384496337890625,0.44126835465431213,0.2990577816963196,-0.04605149105191231
1684206764855521500,3.394521484375,0.5768014192581177,0.46416977047920227,-0.11866417527198792
1684206764865546500,3.40454638671875,0.6784118413925171,0.5769132971763611,-0.18403169512748718
1684206764875571500,3.414571533203125,0.7331464290618896,0.6916593313217163,-0.23682034015655518
1684206764885597400,3.424597412109375,0.712599515914917,0.7201204299926758,-0.255219429731369
1684206764895622400,3.434622314453125,0.6540336608886719,0.6376711130142212,-0.2381799817085266
1684206764905647400,3.4446474609375,0.614583432674408,0.5144835710525513,-0.1593996286392212
1684206764915672300,3.45467236328125,0.5959266424179077,0.4528665244579315,-0.016533011570572853
1684206764925697300,3.464697265625,0.5948055386543274,0.5383865833282471,0.1276879608631134
1684206764935722200,3.47472216796875,0.6134532690048218,0.6723816394805908,0.26487216353416443
1684206764945747500,3.48474755859375,0.6449947953224182,0.7473954558372498,0.38659796118736267
1684206764955773400,3.4947734375,0.6458473205566406,0.7194945812225342,0.4643345773220062
1684206764965798400,3.50479833984375,0.6158402562141418,0.5827198028564453,0.4561730921268463
1684206764975823400,3.5148232421875,0.5500415563583374,0.4229183793067932,0.4199026823043823
1684206764985848300,3.524848388671875,0.48337090015411377,0.3357754945755005,0.4225245714187622
1684206764995873500,3.53487353515625,0.4229123890399933,0.3247738480567932,0.47695958614349365
1684206765005898500,3.5448984375,0.3697744905948639,0.30348822474479675,0.5518202185630798
1684206765015924500,3.554924560546875,0.25470995903015137,0.23888368904590607,0.6381220817565918
1684206765025949400,3.564949462890625,0.10567181557416916,0.15913954377174377,0.7456494569778442
1684206765035974100,3.57497412109375,-0.023649953305721283,0.12644417583942413,0.8835240006446838
1684206765045999400,3.584999267578125,-0.10137994587421417,-0.028372498229146004,0.9543243050575256
1684206765056024300,3.5950244140625,-0.18609829246997833,-0.204038605093956,1.066953182220459
1684206765066049300,3.60504931640625,-0.27421581745147705,-0.2244018167257309,1.271040678024292
1684206765076074200,3.61507421875,-0.32957175374031067,-0.22008882462978363,1.4317435026168823
1684206765086100200,3.625100341796875,-0.3213602304458618,-0.36555466055870056,1.4542590379714966
1684206765096125400,3.63512548828125,-0.30703988671302795,-0.439047247171402,1.436521053314209
1684206765106150400,3.645150390625,-0.25682857632637024,-0.357134610414505,1.4114928245544434
1684206765116175400,3.65517529296875,-0.15851666033267975,-0.1451139748096466,1.3564209938049316
1684206765126200300,3.665200439453125,-0.013310819864273071,0.08248045295476913,1.2309740781784058
1684206765136225500,3.6752255859375,0.11449640989303589,0.11057360470294952,1.0887751579284668
1684206765146251500,3.68525146484375,0.1803392618894577,-0.07329446077346802,1.0015615224838257
1684206765156276500,3.6952763671875,0.21435901522636414,-0.4448951780796051,0.9914245009422302
1684206765166301400,3.705301513671875,0.1923537403345108,-0.9354882836341858,1.0359772443771362
1684206765176326400,3.715326416015625,0.07794807106256485,-1.4238070249557495,1.0947707891464233
1684206765186351400,3.725351318359375,-0.018849864602088928,-1.6652122735977173,1.1219837665557861
1684206765196376300,3.735376220703125,-0.08158142119646072,-1.333181619644165,1.1831965446472168
1684206765206401300,3.7454013671875,-0.066622793674469,-0.9764696955680847,1.166549801826477
1684206765216427300,3.75542724609375,-0.0010882557835429907,-0.6366005539894104,1.0939096212387085
1684206765226452200,3.7654521484375,0.10693338513374329,-0.5818585753440857,0.9468510150909424
1684206765236477400,3.7754775390625,0.16112178564071655,-0.7141545414924622,0.820091724395752
1684206765246502400,3.78550244140625,0.14425507187843323,-0.9889898896217346,0.6670339703559875
1684206765256527400,3.79552734375,0.14080627262592316,-1.1980916261672974,0.49773627519607544
1684206765266552600,3.805552490234375,0.1784384548664093,-1.1982265710830688,0.3415871858596802
1684206765276577500,3.81557763671875,0.22149458527565002,-1.0373435020446777,0.19676795601844788
1684206765286603500,3.825603515625,0.24496980011463165,-0.8306614756584167,0.06642820686101913
1684206765296628500,3.83562841796875,0.24454715847969055,-0.601487934589386,-0.026724107563495636
1684206765306653400,3.8456533203125,0.24522346258163452,-0.3982650339603424,-0.07912791520357132
1684206765316678400,3.855678466796875,0.23615726828575134,-0.3026988208293915,-0.09119416028261185
1684206765326703400,3.865703369140625,0.20611825585365295,-0.33581817150115967,-0.07913529872894287
1684206765336728300,3.875728271484375,0.14528100192546844,-0.4305287003517151,-0.04842638596892357
1684206765346754300,3.88575439453125,0.07188168913125992,-0.5409131050109863,0.01460866816341877
1684206765356779300,3.895779296875,0.00979195348918438,-0.6367610692977905,0.09405555576086044
1684206765366804500,3.905804443359375,-0.04695519432425499,-0.7321760654449463,0.18650071322917938
1684206765376829400,3.915829345703125,-0.09382336586713791,-0.8051536083221436,0.3026808500289917
1684206765386854400,3.9258544921875,-0.12302933633327484,-0.8926441669464111,0.4276861548423767
1684206765396879400,3.93587939453125,-0.1348457783460617,-0.9888814687728882,0.5119903683662415
1684206765406904600,3.945904541015625,-0.11670729517936707,-0.9831542372703552,0.6012586355209351
1684206765416930600,3.9559306640625,-0.011420557275414467,-0.8676223158836365,0.6580239534378052
1684206765426955500,3.96595556640625,0.09028097987174988,-0.6470159888267517,0.6686189770698547
1684206765436980500,3.97598046875,0.26112034916877747,-0.3891889750957489,0.6467940807342529
1684206765447005200,3.986005126953125,0.38554897904396057,-0.1396978199481964,0.6039777398109436
1684206765457030400,3.996030517578125,0.5029717683792114,0.06989481300115585,0.5499362945556641
1684206765467055400,4.006055419921875,0.5573405027389526,0.16391059756278992,0.4935770332813263
1684206765477080300,4.016080322265625,0.5852296352386475,0.1217263862490654,0.39276066422462463
1684206765487106300,4.026106201171875,0.583103597164154,0.009799488820135593,0.24692872166633606
1684206765497131300,4.03613134765625,0.5462480783462524,-0.15053878724575043,0.09146883338689804
1684206765507156500,4.046156494140625,0.5018813610076904,-0.2392084002494812,-0.045929066836833954
1684206765517181400,4.056181396484375,0.4648623764514923,-0.25073882937431335,-0.1516331285238266
1684206765527206400,4.066206298828125,0.417555034160614,-0.16764672100543976,-0.2204957902431488
1684206765537231400,4.0762314453125,0.3841360807418823,0.008123505860567093,-0.2691751718521118
1684206765547256600,4.086256591796875,0.34732356667518616,0.2367325723171234,-0.3019089698791504
1684206765557282600,4.096282470703125,0.33707547187805176,0.495697021484375,-0.3337492048740387
1684206765567307500,4.1063076171875,0.32677727937698364,0.7229472994804382,-0.3554503619670868
1684206765577332500,4.11633251953125,0.3119000494480133,0.8858347535133362,-0.34255215525627136
1684206765587357200,4.126357177734375,0.27753782272338867,0.9973008036613464,-0.331225723028183
1684206765597382400,4.13638232421875,0.23969323933124542,1.056288719177246,-0.3628896474838257
1684206765607407400,4.146407470703125,0.19463013112545013,1.0438288450241089,-0.4311337172985077
1684206765617433300,4.156433349609375,0.1390739232301712,0.9682331681251526,-0.4934793710708618
1684206765627458300,4.166458251953125,0.07012761384248734,0.8710733652114868,-0.5479463934898376
1684206765637483300,4.176483154296875,0.0008606596384197474,0.7764655947685242,-0.5839635133743286
1684206765647508500,4.186508544921875,-0.05549874156713486,0.7102558016777039,-0.5995838046073914
1684206765657533400,4.196533447265625,-0.09410712122917175,0.6410942673683167,-0.6135814189910889
1684206765667558400,4.206558349609375,-0.14087755978107452,0.5183924436569214,-0.6433929204940796
1684206765677583400,4.216583251953125,-0.18935534358024597,0.33854755759239197,-0.688646674156189
1684206765687609300,4.226609375,-0.2546272873878479,0.1254124790430069,-0.7382593154907227
1684206765697634600,4.236634521484375,-0.3168504536151886,-0.025167981162667274,-0.789563775062561
1684206765707659500,4.246659423828125,-0.37783366441726685,-0.11369504779577255,-0.8315958976745605
1684206765717684200,4.256684326171875,-0.441928505897522,-0.1310916244983673,-0.8325676918029785
1684206765727709200,4.266709228515625,-0.4981706738471985,-0.15784284472465515,-0.8218033313751221
1684206765737734400,4.276734375,-0.5358927249908447,-0.16131213307380676,-0.8039398789405823
1684206765747759400,4.28675927734375,-0.590749204158783,-0.20567527413368225,-0.7970657348632812
1684206765757785300,4.296785400390625,-0.6482475996017456,-0.3407031297683716,-0.7831488847732544
1684206765767810300,4.306810302734375,-0.6972536444664001,-0.48748674988746643,-0.7916219234466553
1684206765777835300,4.316835205078125,-0.7469096183776855,-0.626377284526825,-0.8258749842643738
1684206765787860500,4.326860595703125,-0.7880112528800964,-0.6952481865882874,-0.8445463180541992
1684206765797885400,4.336885498046875,-0.8111855387687683,-0.7013814449310303,-0.7986470460891724
1684206765807910400,4.346910400390625,-0.8213286399841309,-0.688916802406311,-0.7277777791023254
1684206765817936400,4.356936279296875,-0.8226666450500488,-0.679578423500061,-0.6572859883308411
1684206765827961300,4.36696142578125,-0.7585184574127197,-0.7567982077598572,-0.5816608667373657
1684206765837986600,4.376986572265625,-0.634242594242096,-0.8828773498535156,-0.47630274295806885
1684206765848011500,4.387011474609375,-0.5194656848907471,-0.9621106386184692,-0.36737439036369324
1684206765858036200,4.3970361328125,-0.4046488106250763,-0.9807285070419312,-0.27584022283554077
1684206765868062500,4.4070625,-0.28372862935066223,-0.9496288299560547,-0.184742733836174
1684206765878087200,4.417087158203125,-0.14364315569400787,-0.7881430387496948,-0.09371322393417358
1684206765888112400,4.4271123046875,-0.01053684949874878,-0.6123279333114624,0.02767452970147133
1684206765898137300,4.437137451171875,0.09778722375631332,-0.4747777581214905,0.21515627205371857
1684206765908162300,4.447162353515625,0.16425621509552002,-0.2701907455921173,0.4039077162742615
1684206765918187300,4.457187255859375,0.14884397387504578,-0.02758902497589588,0.5176737308502197
1684206765928212500,4.46721240234375,0.08255556970834732,0.30958080291748047,0.505473256111145
1684206765938238500,4.477238525390625,0.025837697088718414,0.6194986701011658,0.4207291305065155
1684206765948263400,4.487263427734375,-0.025330156087875366,0.7593722939491272,0.31350380182266235
1684206765958288400,4.497288330078125,-0.08700497448444366,0.722014307975769,0.1628463864326477
1684206765968313300,4.507313232421875,-0.1675492227077484,0.5147817730903625,-0.01714584417641163
1684206765978338600,4.517338623046875,-0.2762807607650757,0.2827126085758209,-0.18115289509296417
1684206765988363300,4.52736328125,-0.36287203431129456,0.16604116559028625,-0.2860294282436371
1684206765998389500,4.537389404296875,-0.37187913060188293,0.14057202637195587,-0.3013244867324829
1684206766008414200,4.547414306640625,-0.34412962198257446,0.08841775357723236,-0.2833443284034729
1684206766018439200,4.557439208984375,-0.2955072224140167,-0.009523722343146801,-0.2230655550956726
1684206766028464400,4.56746435546875,-0.2265683114528656,-0.07299451529979706,-0.15981726348400116
1684206766038489300,4.5774892578125,-0.12349091470241547,-0.20958352088928223,-0.1279006153345108
1684206766048514300,4.587514404296875,0.03161238878965378,-0.2796148955821991,-0.10167267173528671
1684206766058539300,4.597539306640625,0.14774832129478455,-0.21452485024929047,-0.028688210994005203
1684206766068565200,4.607565185546875,0.24852488934993744,-0.12576071918010712,0.03885822370648384
1684206766078590500,4.617590576171875,0.30712586641311646,-0.06617887318134308,0.05953606963157654
1684206766088615400,4.627615478515625,0.33011355996131897,-0.030987275764346123,-0.013943392783403397
1684206766098640600,4.637640625,0.31651148200035095,-0.07532251626253128,-0.15433140099048615
1684206766108665600,4.64766552734375,0.27870818972587585,-0.20818832516670227,-0.2698290944099426
1684206766118690800,4.65769091796875,0.21903209388256073,-0.2804374694824219,-0.3621060252189636
1684206766128715500,4.667715576171875,0.17977450788021088,-0.24944692850112915,-0.3554275929927826
1684206766138741800,4.67774169921875,0.15034231543540955,-0.23642860352993011,-0.3272271156311035
1684206766148766500,4.687766357421875,0.15047600865364075,-0.2775629758834839,-0.31752973794937134
1684206766158791400,4.69779150390625,0.16019760072231293,-0.344392865896225,-0.2967672049999237
1684206766168816600,4.707816650390625,0.1413562148809433,-0.40432825684547424,-0.2622622549533844
1684206766178841600,4.717841552734375,0.1781264841556549,-0.5259074568748474,-0.25836098194122314
1684206766188866600,4.727866455078125,0.17787963151931763,-0.5193490386009216,-0.2897021174430847
1684206766198892500,4.737892578125,0.20898881554603577,-0.41248539090156555,-0.28049105405807495
1684206766208917500,4.74791748046875,0.22849224507808685,-0.2844167947769165,-0.2667989730834961
1684206766218942700,4.757942626953125,0.239972323179245,-0.23551076650619507,-0.2837340235710144
1684206766228967700,4.7679677734375,0.24367433786392212,-0.29110968112945557,-0.29753655195236206
1684206766238992600,4.77799267578125,0.21745657920837402,-0.3280535936355591,-0.273741751909256
1684206766249017600,4.788017578125,0.18889299035072327,-0.3350057303905487,-0.251010924577713
1684206766259042800,4.798042724609375,0.23482319712638855,-0.3136988580226898,-0.25702807307243347
1684206766269068800,4.80806884765625,0.27858081459999084,-0.21924446523189545,-0.2717989981174469
1684206766279093800,4.81809375,0.3271835148334503,-0.018732134252786636,-0.22765524685382843
1684206766289118500,4.828118408203125,0.31667381525039673,0.23277370631694794,-0.14533363282680511
1684206766299143700,4.838143798828125,0.24313168227672577,0.4533151388168335,-0.06407953053712845
1684206766309168600,4.848168701171875,0.14109443128108978,0.5751250982284546,-0.01203268114477396
1684206766319193600,4.858193603515625,0.059794772416353226,0.6322536468505859,0.021412095054984093
1684206766329219600,4.868219482421875,0.024332581087946892,0.6833847165107727,0.06530969589948654
1684206766339244500,4.87824462890625,0.028521999716758728,0.6982738971710205,0.10651865601539612
1684206766349269500,4.88826953125,0.04530717059969902,0.6846229434013367,0.10615355521440506
1684206766359294700,4.898294677734375,0.046468041837215424,0.6770356297492981,0.09324228018522263
1684206766369319700,4.908319580078125,0.06198129057884216,0.6659001708030701,0.08823241293430328
1684206766379344600,4.9183447265625,0.06650227308273315,0.6288409233093262,0.08428134769201279
1684206766389369600,4.92836962890625,0.049327101558446884,0.5912809371948242,0.0721132904291153
1684206766399395600,4.9383955078125,0.03617934137582779,0.5501406788825989,0.05926726758480072
1684206766409420800,4.9484208984375,0.023999184370040894,0.5213759541511536,0.03984746336936951
1684206766419445500,4.958445556640625,0.019330130890011787,0.4941538870334625,0.017019644379615784
1684206766429470500,4.968470458984375,0.00451430631801486,0.4475167393684387,-0.0008183286990970373
1684206766439495700,4.97849560546875,-0.009351974353194237,0.4110300838947296,-0.016303278505802155
1684206766449520600,4.988520751953125,-0.02474864199757576,0.4060332775115967,-0.031086836010217667
1684206766459545600,4.998545654296875,-0.03134768828749657,0.41189274191856384,-0.06373772770166397
1684206766469571600,5.008571533203125,-0.03750373050570488,0.4088249206542969,-0.09097523987293243
1684206766479596500,5.018596435546875,-0.041923247277736664,0.39053088426589966,-0.11305604130029678
1684206766489621800,5.028621826171875,-0.051090218126773834,0.36258572340011597,-0.12641297280788422
1684206766499646700,5.038646728515625,-0.05421117693185806,0.35248860716819763,-0.1409170776605606
1684206766509671700,5.048671630859375,-0.07020208984613419,0.37219923734664917,-0.14364145696163177
1684206766519696600,5.058696533203125,-0.07872527092695236,0.4002780020236969,-0.14283451437950134
1684206766529721900,5.068721923828125,-0.07629916816949844,0.4371350407600403,-0.13537131249904633
1684206766539747800,5.078747802734375,-0.07345251739025116,0.49530407786369324,-0.13165433704853058
1684206766549772800,5.088772705078125,-0.0688510537147522,0.5849133133888245,-0.13254760205745697
1684206766559797500,5.098797607421875,-0.0664757788181305,0.7013504505157471,-0.13755914568901062
1684206766569822500,5.108822509765625,-0.058900415897369385,0.7749087810516357,-0.1461494266986847
1684206766579847700,5.11884765625,-0.04796254634857178,0.7297275066375732,-0.13792292773723602
1684206766589872600,5.12887255859375,-0.02975369431078434,0.6044588088989258,-0.1323852390050888
1684206766599898600,5.138898681640625,-0.004357257857918739,0.4935719072818756,-0.1505005955696106
1684206766609923600,5.148923583984375,0.033660631626844406,0.40355053544044495,-0.17403282225131989
1684206766619948500,5.158948486328125,0.06714749336242676,0.36364492774009705,-0.19669578969478607
1684206766629973800,5.168973876953125,0.09079741686582565,0.37265583872795105,-0.20443899929523468
1684206766639998700,5.178998779296875,0.10786162316799164,0.3677029013633728,-0.18372893333435059
1684206766650023700,5.189023681640625,0.11383252590894699,0.37678229808807373,-0.16807322204113007
1684206766660048600,5.199048583984375,0.12309872359037399,0.4180157482624054,-0.2169555425643921
1684206766670074600,5.20907470703125,0.13498710095882416,0.47509199380874634,-0.2916383147239685
1684206766680099800,5.219099853515625,0.12964986264705658,0.553571879863739,-0.2935289144515991
1684206766690124800,5.229124755859375,0.09042781591415405,0.5812892913818359,-0.23934702575206757
1684206766700149500,5.2391494140625,0.025628849864006042,0.541993260383606,-0.20580317080020905
1684206766710174500,5.249174560546875,-0.04574223607778549,0.46153733134269714,-0.18793413043022156
1684206766720199700,5.25919970703125,-0.09488315135240555,0.43296003341674805,-0.22538402676582336
1684206766730224600,5.269224609375,-0.12485100328922272,0.5180388689041138,-0.31886348128318787
1684206766740250600,5.279250732421875,-0.13278749585151672,0.4708178639411926,-0.35326728224754333
1684206766750275600,5.289275634765625,-0.11309387534856796,0.23933744430541992,-0.359497606754303
1684206766760300500,5.299300537109375,-0.11022351682186127,0.25026705861091614,-0.3286328911781311
1684206766770325800,5.30932568359375,-0.12195009738206863,0.45141974091529846,-0.24924464523792267
1684206766780350700,5.319350830078125,-0.12074848264455795,0.6469325423240662,-0.1937185376882553
1684206766790375700,5.329375732421875,-0.12601658701896667,0.8160339593887329,-0.17334631085395813
1684206766800400600,5.339400634765625,-0.13535523414611816,0.8498377203941345,-0.18279601633548737
1684206766810426600,5.349426513671875,-0.1480712890625,0.717025637626648,-0.2156389057636261
1684206766820451800,5.359451904296875,-0.1686364859342575,0.5120234489440918,-0.28337135910987854
1684206766830476500,5.3694765625,-0.20583000779151917,0.38093286752700806,-0.3624899983406067
1684206766840501500,5.37950146484375,-0.24951010942459106,0.34223684668540955,-0.43278440833091736
1684206766850526500,5.3895263671875,-0.28017792105674744,0.3189937472343445,-0.464685320854187
1684206766860551700,5.3995517578125,-0.3035258650779724,0.2113804817199707,-0.4853759706020355
1684206766870576600,5.40957666015625,-0.3365693986415863,0.04387710988521576,-0.48746752738952637
1684206766880602600,5.4196025390625,-0.3635794222354889,-0.1188574731349945,-0.4646466374397278
1684206766890627600,5.429627685546875,-0.38761091232299805,-0.2203000783920288,-0.43791550397872925
1684206766900652500,5.439652587890625,-0.3940403163433075,-0.2975618541240692,-0.392992228269577
1684206766910677800,5.449677734375,-0.425904244184494,-0.4336387813091278,-0.31340456008911133
1684206766920702700,5.45970263671875,-0.4669983983039856,-0.6436785459518433,-0.2517542541027069
1684206766930727700,5.469727783203125,-0.4801691174507141,-0.8992022275924683,-0.22290346026420593
1684206766940752600,5.479752685546875,-0.45394203066825867,-1.1004942655563354,-0.18768581748008728
1684206766950778600,5.489778564453125,-0.38317546248435974,-1.0881118774414062,-0.11831491440534592
1684206766960803800,5.499803955078125,-0.2825591266155243,-0.8815822005271912,-0.040675509721040726
1684206766970828500,5.50982861328125,-0.1386520117521286,-0.5904979109764099,0.04830031096935272
1684206766980853500,5.519853515625,0.03726228326559067,-0.28422269225120544,0.13112035393714905
1684206766990878500,5.52987841796875,0.23857972025871277,0.032564427703619,0.2099887877702713
1684206767000903700,5.539903564453125,0.4314679503440857,0.2675822675228119,0.3138912320137024
1684206767010928600,5.5499287109375,0.5955090522766113,0.3687904477119446,0.43041160702705383
1684206767020954600,5.55995458984375,0.7007031440734863,0.3662359416484833,0.5322245359420776
1684206767030979600,5.5699794921875,0.7525842189788818,0.3915826678276062,0.6511388421058655
1684206767041004500,5.580004638671875,0.7533072829246521,0.44613006711006165,0.7920770645141602
1684206767051029800,5.59002978515625,0.713246762752533,0.4203221797943115,0.9184621572494507
1684206767061054700,5.6000546875,0.6488019824028015,0.295737087726593,1.005466341972351
1684206767071079700,5.61007958984375,0.5797424912452698,0.08969061821699142,1.0500309467315674
1684206767081104600,5.620104736328125,0.48238638043403625,-0.16934894025325775,1.076054334640503
1684206767091130600,5.630130615234375,0.3910791873931885,-0.39425328373908997,1.0956342220306396
1684206767101155800,5.64015576171875,0.36643269658088684,-0.6302498579025269,1.110219120979309
1684206767111180800,5.650180908203125,0.37777507305145264,-0.8439040184020996,1.123112440109253
1684206767121205800,5.660205810546875,0.40158265829086304,-0.8683478236198425,1.1693207025527954
1684206767131230700,5.670230712890625,0.439312219619751,-0.7804694175720215,1.21384859085083
1684206767141256000,5.680255859375,0.5019832849502563,-0.7700066566467285,1.2120672464370728
1684206767151282000,5.690281982421875,0.5733189582824707,-0.788235604763031,1.1396489143371582
1684206767161307000,5.700306884765625,0.6224715709686279,-0.7918828129768372,1.0389900207519531
1684206767171331600,5.71033154296875,0.6504701972007751,-0.7748516201972961,0.9182226657867432
1684206767181356500,5.7203564453125,0.6674992442131042,-0.7624812126159668,0.7304759621620178
1684206767191381800,5.7303818359375,0.6861431002616882,-0.7103664875030518,0.5167014598846436
1684206767201406700,5.74040673828125,0.6929623484611511,-0.7335994243621826,0.33986756205558777
1684206767211431700,5.750431640625,0.6664801836013794,-0.93052738904953,0.1874670833349228
1684206767221457700,5.760457763671875,0.5971242785453796,-1.2292560338974,0.027040382847189903
1684206767231482600,5.770482666015625,0.49758654832839966,-1.5726312398910522,-0.09138427674770355
1684206767241507800,5.7805078125,0.421425998210907,-1.8657445907592773,-0.19168931245803833
1684206767251532800,5.79053271484375,0.36946901679039,-1.979352355003357,-0.27530917525291443
1684206767261557800,5.800557861328125,0.33846476674079895,-1.9894694089889526,-0.3814191222190857
1684206767271582700,5.810582763671875,0.37875422835350037,-1.9835686683654785,-0.5447468161582947
1684206767281608000,5.82060791015625,0.43657171726226807,-1.795054316520691,-0.6957153081893921
1684206767291634000,5.830634033203125,0.5215461254119873,-1.6034636497497559,-0.8285372257232666
1684206767301659000,5.840658935546875,0.5909478664398193,-1.5189813375473022,-0.9905820488929749
1684206767311683600,5.85068359375,0.6371490955352783,-1.5562191009521484,-1.187937617301941
1684206767321708800,5.860708740234375,0.6762949228286743,-1.7063900232315063,-1.3938801288604736
1684206767331733800,5.870733642578125,0.710439145565033,-1.9827886819839478,-1.5692883729934692
1684206767341758700,5.8807587890625,0.7404689788818359,-2.3347365856170654,-1.7165560722351074
1684206767351783700,5.89078369140625,0.7532491087913513,-2.6503279209136963,-1.8287725448608398
1684206767361809700,5.9008095703125,0.7610316276550293,-2.85693621635437,-1.8723615407943726
1684206767371835000,5.9108349609375,0.727139413356781,-2.96101713180542,-1.8607732057571411
1684206767381859800,5.92085986328125,0.6419800519943237,-3.042464256286621,-1.8041319847106934
1684206767391884800,5.930884765625,0.5037330985069275,-3.104426860809326,-1.6955486536026
1684206767401909800,5.94090966796875,0.3103013038635254,-3.0753889083862305,-1.5554841756820679
1684206767411935000,5.95093505859375,0.16413895785808563,-2.949810743331909,-1.380611777305603
1684206767421959700,5.960959716796875,0.10368732362985611,-2.803380012512207,-1.2073923349380493
1684206767431986000,5.97098583984375,0.08873691409826279,-2.690769672393799,-1.0583746433258057
1684206767442010600,5.9810107421875,0.09016010910272598,-2.6767842769622803,-0.9554683566093445
1684206767452035600,5.99103564453125,0.09229215979576111,-2.780452251434326,-0.916016697883606
1684206767462060800,6.001060791015625,0.10889297723770142,-2.9020514488220215,-0.908610463142395
1684206767472085800,6.011085693359375,0.12593455612659454,-2.9973955154418945,-0.9296031594276428
1684206767482110700,6.02111083984375,0.12310388684272766,-3.0718963146209717,-1.0251257419586182
1684206767492135700,6.0311357421875,0.14148671925067902,-3.115093231201172,-1.1741697788238525
1684206767502161700,6.04116162109375,0.18698124587535858,-3.051466941833496,-1.3222742080688477
1684206767512187000,6.051186767578125,0.19841104745864868,-2.9039180278778076,-1.386213779449463
1684206767522211800,6.0612119140625,0.10122564435005188,-2.837538003921509,-1.3573395013809204
1684206767532236800,6.07123681640625,-0.07283728569746017,-2.87420654296875,-1.348078727722168
1684206767542261800,6.08126171875,-0.22753524780273438,-3.0398077964782715,-1.4307234287261963
1684206767552287000,6.091286865234375,-0.3798062205314636,-3.236297130584717,-1.5538815259933472
1684206767562311700,6.101311767578125,-0.5017268061637878,-3.3140032291412354,-1.6444391012191772
1684206767572338000,6.111337890625,-0.5801721811294556,-3.3306374549865723,-1.665442705154419
1684206767582362600,6.121362548828125,-0.6347837448120117,-3.342372417449951,-1.6364717483520508
1684206767592387600,6.1313876953125,-0.6980268359184265,-3.285033941268921,-1.5948784351348877
1684206767602412800,6.141412841796875,-0.7559955716133118,-3.105642795562744,-1.529389500617981
1684206767612437800,6.151437744140625,-0.8109960556030273,-2.882270097732544,-1.4528114795684814
1684206767622462700,6.161462646484375,-0.8489130735397339,-2.7075085639953613,-1.3720191717147827
1684206767632487700,6.17148779296875,-0.8503707647323608,-2.5952975749969482,-1.2840120792388916
1684206767642513700,6.181513671875,-0.844981849193573,-2.533475160598755,-1.1936100721359253
1684206767652539000,6.191538818359375,-0.8362347483634949,-2.5108280181884766,-1.0947939157485962
1684206767662563800,6.201563720703125,-0.8332064747810364,-2.4929091930389404,-0.9894248247146606
1684206767672588800,6.2115888671875,-0.8509408235549927,-2.5034730434417725,-0.8893889784812927
1684206767682613800,6.22161376953125,-0.8771921396255493,-2.534062385559082,-0.8040264248847961
1684206767692639000,6.231638916015625,-0.9095780849456787,-2.5082848072052,-0.6936399936676025
1684206767702663700,6.24166357421875,-0.9245359897613525,-2.3561501502990723,-0.5213164687156677
1684206767712689700,6.251689697265625,-0.8945814967155457,-2.11456036567688,-0.32370319962501526
1684206767722714600,6.261714599609375,-0.8431939482688904,-1.816872000694275,-0.14317655563354492
1684206767732739600,6.271739501953125,-0.7735767960548401,-1.5565683841705322,0.037970419973134995
1684206767742764800,6.281764892578125,-0.7251373529434204,-1.407328486442566,0.19005928933620453
1684206767752789800,6.291789794921875,-0.6039064526557922,-1.2821829319000244,0.2678612172603607
1684206767762814700,6.301814697265625,-0.42221471667289734,-1.1424486637115479,0.29574424028396606
1684206767772839700,6.311839599609375,-0.30344149470329285,-0.88416987657547,0.24796690046787262
1684206767782865700,6.32186572265625,-0.3610347509384155,-0.7573311924934387,0.2694985270500183
1684206767792891000,6.331890869140625,-0.5391419529914856,-0.8371811509132385,0.4257628321647644
1684206767802915800,6.341915771484375,-0.4711652994155884,-0.6941736936569214,0.548393964767456
1684206767812940800,6.35194091796875,0.02768288180232048,0.0336204431951046,0.5158879160881042
1684206767822965800,6.3619658203125,0.6096517443656921,0.9554483294487,0.28495562076568604
1684206767832990700,6.37199072265625,0.5004085898399353,1.1177376508712769,0.034142520278692245
1684206767843015700,6.382015625,0.11839170753955841,0.6625951528549194,-0.11311297118663788
1684206767853041700,6.392041748046875,-0.18196384608745575,0.6185997128486633,-0.07467556744813919
1684206767863066600,6.402066650390625,-0.3539217710494995,0.6557827591896057,0.15686072409152985
1684206767873091600,6.412091552734375,-0.2723163664340973,-0.012668188661336899,0.2010197788476944
1684206767883116800,6.42211669921875,-0.14932334423065186,-0.8477036952972412,0.004833224695175886
1684206767893141800,6.432141845703125,-0.16455978155136108,-1.3552736043930054,0.07358889281749725
1684206767903166700,6.442166748046875,-0.1573505997657776,-1.6624336242675781,0.11745595186948776
1684206767913191700,6.452191650390625,-0.2257418930530548,-1.9055454730987549,-0.0485113300383091
1684206767923217700,6.4622177734375,-0.32395368814468384,-2.1807632446289062,-0.3441768288612366
1684206767933243000,6.472242919921875,-0.2638247013092041,-2.5918726921081543,-0.7017314434051514
1684206767943267800,6.482267822265625,-0.25270041823387146,-3.0780675411224365,-1.027396321296692
1684206767953292800,6.492292724609375,-0.22746092081069946,-3.364455461502075,-1.259932518005371
1684206767963317800,6.50231787109375,-0.23567090928554535,-3.374318838119507,-1.3908755779266357
1684206767973342700,6.5123427734375,-0.2635011672973633,-3.0863897800445557,-1.4441817998886108
1684206767983367700,6.52236767578125,-0.33370980620384216,-2.7690577507019043,-1.4081071615219116
1684206767993393700,6.5323935546875,-0.38056349754333496,-2.6302871704101562,-1.2604151964187622
1684206768003418600,6.542418701171875,-0.3599570393562317,-2.6802849769592285,-1.0833256244659424
1684206768013443600,6.552443603515625,-0.30005165934562683,-2.6784822940826416,-0.9506288170814514
1684206768023468800,6.56246875,-0.3145783841609955,-2.56480073928833,-0.8905218243598938
1684206768033493800,6.57249365234375,-0.356344997882843,-2.36137056350708,-0.8608285188674927
1684206768043518700,6.582518798828125,-0.39676299691200256,-2.205364227294922,-0.820528507232666
1684206768053543700,6.592543701171875,-0.4725301265716553,-2.1512365341186523,-0.7835111618041992
1684206768063569700,6.602569580078125,-0.5437175035476685,-2.0910494327545166,-0.7669697403907776
1684206768073595000,6.612594970703125,-0.5498599410057068,-1.9879580736160278,-0.7552498579025269
1684206768083619800,6.622619873046875,-0.4950004518032074,-1.8363453149795532,-0.6980432868003845
1684206768093644800,6.632644775390625,-0.5305942296981812,-1.6894702911376953,-0.6519601345062256
1684206768103670000,6.642669921875,-0.550788164138794,-1.6609691381454468,-0.6702568531036377
1684206768113695000,6.652695068359375,-0.5746864080429077,-1.7564030885696411,-0.7191030979156494
1684206768123720000,6.662719970703125,-0.6080430150032043,-1.8750970363616943,-0.7518855333328247
1684206768133746000,6.672745849609375,-0.6235090494155884,-2.044382095336914,-0.805141031742096
1684206768143771000,6.68277099609375,-0.6220507025718689,-2.2215933799743652,-0.836663007736206
1684206768153795800,6.6927958984375,-0.5845111012458801,-2.391385793685913,-0.8336661458015442
1684206768163821000,6.702821044921875,-0.5149988532066345,-2.528770923614502,-0.8038456439971924
1684206768173846000,6.712845947265625,-0.43966811895370483,-2.51582407951355,-0.7437214851379395
1684206768183871000,6.72287109375,-0.3771599531173706,-2.437795877456665,-0.6920745372772217
1684206768193896000,6.73289599609375,-0.3232848048210144,-2.3971664905548096,-0.6606107950210571
1684206768203921200,6.742921142578125,-0.25685304403305054,-2.4407708644866943,-0.6644782423973083
1684206768213947100,6.752947021484375,-0.201233372092247,-2.6119630336761475,-0.6462169289588928
1684206768223972000,6.76297216796875,-0.0977085754275322,-2.8669073581695557,-0.5895949602127075
1684206768233997000,6.7729970703125,0.08859945833683014,-3.1695449352264404,-0.46792247891426086
1684206768244022000,6.78302197265625,0.3239659070968628,-3.3916494846343994,-0.3357450067996979
1684206768254047000,6.793046875,0.5142204761505127,-3.4060416221618652,-0.25691720843315125
1684206768264072000,6.803072021484375,0.5999995470046997,-3.1683123111724854,-0.28896409273147583
1684206768274097000,6.813096923828125,0.5506943464279175,-2.732621669769287,-0.4051133394241333
1684206768284123000,6.823122802734375,0.444865882396698,-2.296480655670166,-0.5020092725753784
1684206768294148000,6.833148193359375,0.37175673246383667,-2.083174705505371,-0.4304390549659729
1684206768304173000,6.843173095703125,0.3060144782066345,-1.8926043510437012,-0.22416523098945618
1684206768314198000,6.853197998046875,0.2474936693906784,-1.5458624362945557,0.01991485431790352
1684206768324223000,6.863222900390625,0.1848531812429428,-1.106812596321106,0.1808970719575882
1684206768334248200,6.873248291015625,0.1390078216791153,-0.7748821377754211,0.2414519190788269
1684206768344273200,6.883273193359375,0.09849262237548828,-0.638831615447998,0.2597816586494446
1684206768354299100,6.893299072265625,0.05897481366991997,-0.5931923389434814,0.27893149852752686
1684206768364324000,6.903323974609375,0.010748695582151413,-0.6176369786262512,0.26737257838249207
1684206768374349000,6.91334912109375,-0.03734087198972702,-0.6883180737495422,0.1955917924642563
1684206768384374000,6.9233740234375,-0.09379828721284866,-0.7852185368537903,0.09286860376596451
1684206768394399000,6.93339892578125,-0.14902859926223755,-0.8675036430358887,0.03430427983403206
1684206768404424000,6.943423828125,-0.2019464075565338,-0.9888129830360413,-0.024152636528015137
1684206768414449000,6.953448974609375,-0.2615010738372803,-1.1709192991256714,-0.11271653324365616
1684206768424475000,6.963474853515625,-0.30661076307296753,-1.3723634481430054,-0.21972420811653137
1684206768434500000,6.9735,-0.32080766558647156,-1.5225512981414795,-0.318543940782547
1684206768444525000,6.983525146484375,-0.3088466227054596,-1.5354098081588745,-0.3874521851539612
1684206768454550000,6.993550048828125,-0.26883307099342346,-1.37437903881073,-0.4264405369758606
1684206768464575000,7.003574951171875,-0.22469250857830048,-1.076254963874817,-0.43802687525749207
1684206768474600200,7.01360009765625,-0.18003259599208832,-0.7390608191490173,-0.4288128912448883
1684206768484625200,7.023625244140625,-0.14146070182323456,-0.4800100326538086,-0.4154225289821625
1684206768494651100,7.033651123046875,-0.12750492990016937,-0.41859152913093567,-0.38711410760879517
1684206768504676000,7.043676025390625,-0.13347333669662476,-0.5536116361618042,-0.35364776849746704
1684206768514700800,7.05370068359375,-0.15856824815273285,-0.7202985882759094,-0.32776281237602234
1684206768524726000,7.06372607421875,-0.16414889693260193,-0.8023268580436707,-0.34364938735961914
1684206768534751000,7.0737509765625,-0.13867458701133728,-0.8112431168556213,-0.39295223355293274
1684206768544776000,7.08377587890625,-0.08823539316654205,-0.7874477505683899,-0.41535767912864685
1684206768554801000,7.09380078125,-0.002110692672431469,-0.7335900068283081,-0.4026104807853699
1684206768564827000,7.103826904296875,0.0931955873966217,-0.6553804278373718,-0.36422526836395264
1684206768574852000,7.11385205078125,0.15718479454517365,-0.5676849484443665,-0.2848869860172272
1684206768584877000,7.123876953125,0.23423564434051514,-0.49196144938468933,-0.16338665783405304
1684206768594902000,7.133902099609375,0.3167042136192322,-0.4106268882751465,0.013651998713612556
1684206768604927000,7.143927001953125,0.3985234498977661,-0.3451501429080963,0.23205970227718353
1684206768614952200,7.1539521484375,0.46294108033180237,-0.2843374013900757,0.4621179401874542
1684206768624977200,7.16397705078125,0.5075747966766357,-0.19601765275001526,0.68088299036026
1684206768635003100,7.174003173828125,0.5249464511871338,-0.05283002555370331,0.8788748979568481
1684206768645028000,7.184028076171875,0.5427747368812561,0.10536414384841919,1.0591816902160645
1684206768655052800,7.194052734375,0.5698807835578918,0.05512262135744095,1.1426841020584106
1684206768665078000,7.204078125,0.618280291557312,-0.1884375810623169,1.1203149557113647
1684206768675103000,7.21410302734375,0.6823868155479431,-0.47239476442337036,1.0364768505096436
1684206768685128000,7.2241279296875,0.7335065007209778,-0.6946518421173096,0.9159347414970398
1684206768695153000,7.23415283203125,0.8025700449943542,-0.7903724908828735,0.7515886425971985
1684206768705178000,7.24417822265625,0.9151591658592224,-0.881044328212738,0.5578330159187317
1684206768715204000,7.2542041015625,1.0093339681625366,-0.8800697922706604,0.37852227687835693
1684206768725229000,7.26422900390625,1.0732277631759644,-0.8243119716644287,0.1868135780096054
1684206768735254000,7.27425390625,1.0744404792785645,-0.75294029712677,-0.008706841617822647
1684206768745279000,7.284279052734375,1.0367729663848877,-0.6306924223899841,-0.16237708926200867
1684206768755304200,7.29430419921875,0.940719723701477,-0.4533180594444275,-0.27633699774742126
1684206768765329200,7.3043291015625,0.8470065593719482,-0.48088338971138,-0.37909188866615295
1684206768775353900,7.314353759765625,0.7197840809822083,-0.582710325717926,-0.4160873591899872
1684206768785380000,7.324380126953125,0.6028867363929749,-0.788475751876831,-0.3951146900653839
1684206768795404800,7.33440478515625,0.5092904567718506,-1.0400540828704834,-0.36108702421188354
1684206768805430000,7.344429931640625,0.440135657787323,-1.2572319507598877,-0.37467554211616516
1684206768815455000,7.354455078125,0.3761875629425049,-1.382081151008606,-0.43485525250434875
1684206768825480000,7.36447998046875,0.24702425301074982,-1.4374029636383057,-0.49199017882347107
1684206768835505000,7.3745048828125,0.1054181382060051,-1.4762126207351685,-0.4945952296257019
1684206768845530000,7.384530029296875,-0.014018779620528221,-1.4779242277145386,-0.4630753695964813
1684206768855556000,7.39455615234375,-0.10715191811323166,-1.491416573524475,-0.44825541973114014
1684206768865581000,7.4045810546875,-0.1893346756696701,-1.4631543159484863,-0.44988182187080383
1684206768875606000,7.41460595703125,-0.2613474726676941,-1.3207405805587769,-0.4292736053466797
1684206768885631000,7.424630859375,-0.3089804947376251,-1.1615610122680664,-0.3868185579776764
1684206768895656200,7.43465625,-0.33198273181915283,-1.0511195659637451,-0.3263215124607086
1684206768905681000,7.444680908203125,-0.3423483073711395,-0.9769158363342285,-0.27270087599754333
1684206768915705900,7.454705810546875,-0.32446980476379395,-0.912539005279541,-0.2120373249053955
1684206768925731800,7.46473193359375,-0.305184006690979,-0.9121426939964294,-0.1455613672733307
1684206768935756800,7.4747568359375,-0.2541850507259369,-0.9912534356117249,-0.07790004462003708
1684206768945782000,7.484781982421875,-0.17832227051258087,-1.1224383115768433,-0.030753836035728455
1684206768955807000,7.494806884765625,-0.06848971545696259,-1.1994839906692505,-0.010483436286449432
1684206768965832000,7.50483203125,0.035020165145397186,-1.226344347000122,-0.04865159094333649
1684206768975857000,7.51485693359375,0.15989165008068085,-1.1103928089141846,-0.1253017783164978
1684206768985882000,7.524882080078125,0.288225919008255,-0.9336960911750793,-0.18853694200515747
1684206768995908000,7.534908203125,0.3624694049358368,-0.6432984471321106,-0.209162175655365
1684206769005933000,7.54493310546875,0.38921767473220825,-0.2857525944709778,-0.21094223856925964
1684206769015958000,7.5549580078125,0.38673901557922363,0.08078023791313171,-0.23305261135101318
1684206769025983000,7.56498291015625,0.36443474888801575,0.38407033681869507,-0.2824087142944336
1684206769036008200,7.57500830078125,0.3243180215358734,0.5023276209831238,-0.3877071440219879
1684206769046033000,7.585032958984375,0.2907049357891083,0.4193677604198456,-0.5432836413383484
1684206769056057900,7.595057861328125,0.2440088838338852,0.26568177342414856,-0.7287420630455017
1684206769066083800,7.605083740234375,0.19558222591876984,0.107682004570961,-0.8732971549034119
1684206769076109000,7.615109130859375,0.12262633442878723,0.023929813876748085,-0.9051357507705688
1684206769086134000,7.625134033203125,0.030878577381372452,-0.013786938972771168,-0.8458141088485718
1684206769096159000,7.635158935546875,-0.07295359671115875,-0.02525993064045906,-0.7422239780426025
1684206769106183400,7.645183349609375,-0.18431633710861206,0.009003768675029278,-0.623450756072998
1684206769116208600,7.655208740234375,-0.31876033544540405,0.05000198632478714,-0.5323907732963562
1684206769126233600,7.665233642578125,-0.44297975301742554,0.0830233171582222,-0.5030512809753418
1684206769136259600,7.675259521484375,-0.5305514335632324,0.09510694444179535,-0.5288137793540955
1684206769146284500,7.685284423828125,-0.5963237881660461,0.08132801949977875,-0.5775629281997681
1684206769156309500,7.6953095703125,-0.650476336479187,0.04803841933608055,-0.6220125555992126
1684206769166334700,7.705334716796875,-0.7052003145217896,-0.008125252090394497,-0.6344106197357178
1684206769176359700,7.715359619140625,-0.773125171661377,-0.07619067281484604,-0.6164278388023376
1684206769186384600,7.725384521484375,-0.8675107955932617,-0.17406104505062103,-0.6231405735015869
1684206769196409600,7.73540966796875,-0.9669049978256226,-0.36405035853385925,-0.6225753426551819
1684206769206434800,7.745434814453125,-1.0019513368606567,-0.4634874761104584,-0.4574977159500122
1684206769216460800,7.755460693359375,-0.8722839951515198,-0.41054031252861023,-0.16167505085468292
1684206769226485800,7.76548583984375,-0.449748694896698,-0.4753991961479187,0.07319419831037521
1684206769236510500,7.775510498046875,0.17464342713356018,-0.5389246940612793,0.26379942893981934
1684206769246535400,7.785535400390625,0.5435333251953125,-0.27470529079437256,0.5957845449447632
1684206769256560600,7.795560546875,0.6255736351013184,0.2615872323513031,0.8427578806877136
1684206769266585600,7.805585693359375,0.5034674406051636,0.8070515990257263,0.7840567231178284
1684206769276610600,7.815610595703125,0.26494407653808594,1.2206224203109741,0.6826067566871643
1684206769286636500,7.825636474609375,0.1460629552602768,1.0524495840072632,0.5430749654769897
1684206769296661500,7.83566162109375,0.020727071911096573,0.23941533267498016,0.2902669310569763
1684206769306686700,7.845686767578125,-0.18895505368709564,-0.7839850187301636,-0.08657008409500122
1684206769316711700,7.855711669921875,-0.4641883373260498,-1.5563702583312988,-0.4550986886024475
1684206769326736600,7.865736572265625,-0.6422784924507141,-1.8998762369155884,-0.6220890283584595
1684206769336761600,7.87576171875,-0.6555684804916382,-1.8977875709533691,-0.6477342247962952
1684206769346786800,7.885786865234375,-0.599753201007843,-1.6555569171905518,-0.5221225023269653
1684206769356812800,7.895812744140625,-0.6228469014167786,-1.2954788208007812,-0.32676902413368225
1684206769366837800,7.905837646484375,-0.5850492119789124,-0.928998589515686,-0.13698764145374298
1684206769376862500,7.915862548828125,-0.452380508184433,-0.5581622123718262,0.029808271676301956
1684206769386887400,7.925887451171875,-0.2613452970981598,-0.2964504361152649,0.13118602335453033
1684206769396912600,7.93591259765625,-0.14436262845993042,-0.19964604079723358,0.08569349348545074
1684206769406937600,7.9459375,-0.05413953214883804,-0.2095111906528473,-0.04667706787586212
1684206769416962600,7.955962646484375,-0.02884296327829361,-0.2885841429233551,-0.18732526898384094
1684206769426987800,7.96598779296875,-0.02703254669904709,-0.4394785761833191,-0.30711719393730164
1684206769437012700,7.9760126953125,0.00016082567162811756,-0.6449503302574158,-0.3886110186576843
1684206769447037700,7.98603759765625,-0.0009140262845903635,-0.700666069984436,-0.40906012058258057
1684206769457063700,7.996063720703125,-0.014245926402509212,-0.655456006526947,-0.3696824014186859
1684206769467088600,8.006088623046875,-0.021752046421170235,-0.5957692265510559,-0.32181182503700256
1684206769477113600,8.016113525390624,-0.01617354340851307,-0.458708792924881,-0.2992132008075714
1684206769487138800,8.026138916015626,-0.027775337919592857,-0.2649574279785156,-0.2498355507850647
1684206769497163500,8.03616357421875,-0.07022373378276825,-0.056383877992630005,-0.21353618800640106
1684206769507188500,8.0461884765625,-0.12415860593318939,0.06962145864963531,-0.21047727763652802
1684206769517213700,8.056213623046874,-0.15885406732559204,0.11899737268686295,-0.25592440366744995
1684206769527239700,8.06623974609375,-0.1666424721479416,0.13860009610652924,-0.31727084517478943
1684206769537264600,8.0762646484375,-0.12823434174060822,0.10477792471647263,-0.37222820520401
1684206769547289600,8.08628955078125,-0.0990317240357399,0.05640292912721634,-0.3838944435119629
1684206769557314600,8.096314453125,-0.1046346053481102,0.008126327767968178,-0.36075741052627563
1684206769567339800,8.10633984375,-0.1347019523382187,-0.07388784736394882,-0.3244771659374237
1684206769577364700,8.11636474609375,-0.19791077077388763,-0.15156832337379456,-0.2769320011138916
1684206769587389700,8.1263896484375,-0.2637750208377838,-0.23496468365192413,-0.25655481219291687
1684206769597415700,8.136415771484375,-0.3153359293937683,-0.2536774277687073,-0.233204185962677
1684206769607440600,8.146440673828126,-0.37364503741264343,-0.17457008361816406,-0.19389300048351288
1684206769617465900,8.1564658203125,-0.3911864459514618,-0.06737595796585083,-0.17475615441799164
1684206769627490600,8.166490478515625,-0.39787524938583374,-0.006923534907400608,-0.19601669907569885
1684206769637515500,8.176515625,-0.37877294421195984,0.02696489728987217,-0.24577216804027557
1684206769647540500,8.18654052734375,-0.35832679271698,0.0838787779211998,-0.28047874569892883
1684206769657565700,8.196565673828125,-0.33644187450408936,0.19174940884113312,-0.29946455359458923
1684206769667591700,8.206591796875,-0.29885536432266235,0.28230512142181396,-0.304255872964859
1684206769677616600,8.21661669921875,-0.2272629290819168,0.31164464354515076,-0.30554455518722534
1684206769687641600,8.2266416015625,-0.19916577637195587,0.3174647092819214,-0.3019697964191437
1684206769697666600,8.23666650390625,-0.1386401504278183,0.3463906943798065,-0.2739375829696655
1684206769707691800,8.24669189453125,-0.07186431437730789,0.3888145685195923,-0.22297397255897522
1684206769717716700,8.256716796875,-0.01718178018927574,0.4514254927635193,-0.15983904898166656
1684206769727741700,8.26674169921875,0.022823693230748177,0.47441309690475464,-0.11972038447856903
1684206769737766700,8.2767666015625,0.05441338196396828,0.4419761300086975,-0.07610638439655304
1684206769747792600,8.286792724609375,0.07454954832792282,0.35728439688682556,-0.048036929219961166
1684206769757817900,8.29681787109375,0.09093175828456879,0.2681134343147278,-0.026157094165682793
1684206769767842600,8.306842529296874,0.08401206880807877,0.21636687219142914,-0.012570179998874664
1684206769777867500,8.316867431640626,0.06312383711338043,0.1721591055393219,-0.015906525775790215
1684206769787892500,8.326892578125,0.03398938477039337,0.16285134851932526,-0.04036100581288338
1684206769797917700,8.336917724609375,0.005623523145914078,0.1933962106704712,-0.059425242245197296
1684206769807942700,8.346942626953124,-0.02648993767797947,0.23478493094444275,-0.06117813661694527
1684206769817968600,8.35696875,-0.04214891046285629,0.25535520911216736,-0.05931743234395981
1684206769827993600,8.36699365234375,-0.036263857036828995,0.2388840764760971,-0.04670363664627075
1684206769838018600,8.3770185546875,-0.015442044474184513,0.23315110802650452,-0.017380546778440475
1684206769848043800,8.387043701171875,-0.0013850814430043101,0.2633891701698303,0.011100895702838898
1684206769858068700,8.39706884765625,0.008033454418182373,0.31729286909103394,0.025470247492194176
1684206769868094700,8.4070947265625,0.010005791671574116,0.3608941435813904,0.03860389441251755
1684206769878119700,8.41711962890625,-0.004706266336143017,0.38683170080184937,0.04495563358068466
1684206769888144600,8.42714453125,-0.01817360520362854,0.3979929983615875,0.026915645226836205
1684206769898169600,8.437169677734374,-0.02117617055773735,0.3881712555885315,0.011176715604960918
1684206769908194600,8.447194580078126,-0.029627978801727295,0.3606445789337158,0.021968111395835876
1684206769918219500,8.457219482421875,-0.025274118408560753,0.31942591071128845,0.04492533579468727
1684206769928244500,8.467244384765625,-0.01821061596274376,0.28458669781684875,0.06507773697376251
1684206769938270500,8.4772705078125,-0.00805805716663599,0.1922098845243454,0.044100239872932434
1684206769948295700,8.487295654296876,0.014589464291930199,0.12987753748893738,0.00564472796395421
1684206769958320600,8.497320556640625,0.029034176841378212,0.10850097239017487,-0.002860404085367918
1684206769968345600,8.507345703125,0.03834884986281395,0.09274198859930038,0.008496912196278572
1684206769978370600,8.51737060546875,0.03742671757936478,0.09666097909212112,0.016680916771292686
1684206769988395800,8.527395751953126,0.03135684132575989,0.11878252774477005,0.014966373331844807
1684206769998420700,8.537420654296875,0.022139044478535652,0.15623679757118225,0.007177937310189009
1684206770008446700,8.54744677734375,0.01846068538725376,0.1954912692308426,-0.00009169313125312328
1684206770018471700,8.5574716796875,0.023975027725100517,0.232130229473114,-0.02132268063724041
1684206770028496600,8.56749658203125,0.016996746882796288,0.25749099254608154,-0.06586484611034393
1684206770038521600,8.577521484375,0.008506358601152897,0.2793411910533905,-0.11888434737920761
1684206770048546600,8.587546630859375,0.00006706779822707176,0.3263649046421051,-0.15290382504463196
1684206770058571500,8.597571533203125,0.0024286084808409214,0.38378050923347473,-0.16027022898197174
1684206770068596500,8.607596435546874,0.039909135550260544,0.41360658407211304,-0.1525406688451767
1684206770078622500,8.61762255859375,0.08451803773641586,0.43601682782173157,-0.12501654028892517
1684206770088647700,8.627647705078125,0.12262441217899323,0.5143909454345703,-0.07903227210044861
1684206770098673200,8.637673095703125,0.13363340497016907,0.6572789549827576,-0.020834356546401978
1684206770108697900,8.64769775390625,0.12969139218330383,0.7860888838768005,0.031713005155324936
1684206770118722800,8.657722900390626,0.12293297052383423,0.85331130027771,0.06994370371103287
1684206770128748000,8.667748046875,0.10316512733697891,0.841425359249115,0.07129579037427902
1684206770138773000,8.67777294921875,0.07952751964330673,0.7701074481010437,0.029190152883529663
1684206770148798000,8.6877978515625,0.04409868270158768,0.6586368680000305,-0.0471472293138504
1684206770158824000,8.697823974609374,0.0018308067228645086,0.5296005010604858,-0.13024628162384033
1684206770168849000,8.707848876953125,-0.044481031596660614,0.3938485383987427,-0.20068928599357605
1684206770178874000,8.7178740234375,-0.07723226398229599,0.23472315073013306,-0.25390198826789856
1684206770188899000,8.727899169921875,-0.07936039566993713,0.054985348135232925,-0.26056069135665894
1684206770198924000,8.737924072265624,-0.04571074619889259,-0.13138484954833984,-0.229658305644989
1684206770208949000,8.747948974609375,-0.007721555419266224,-0.36641573905944824,-0.24658802151679993
1684206770218974200,8.75797412109375,-0.01589890755712986,-0.5494374632835388,-0.3573601245880127
1684206770229000200,8.768000244140625,-0.018864870071411133,-0.4858097434043884,-0.41597071290016174
1684206770239025200,8.778025146484374,0.005932377651333809,-0.3518253564834595,-0.33436980843544006
1684206770249049900,8.7880498046875,0.04356524348258972,-0.27001357078552246,-0.2017848640680313
1684206770259074800,8.79807470703125,0.10214987397193909,-0.18296495079994202,-0.14093248546123505
1684206770269100000,8.80810009765625,0.17369569838047028,0.015308188274502754,-0.08680399507284164
1684206770279125000,8.818125,0.24439331889152527,0.1966959536075592,-0.07125487923622131
1684206770289150000,8.82814990234375,0.3192574679851532,0.33463919162750244,-0.06952595710754395
1684206770299176000,8.838176025390625,0.4067850112915039,0.437248557806015,-0.039513543248176575
1684206770309201000,8.848200927734375,0.5252711772918701,0.5264532566070557,-0.013462768867611885
1684206770319226000,8.85822607421875,0.6723219156265259,0.58807772397995,-0.020288266241550446
1684206770329251000,8.8682509765625,0.8153277635574341,0.6206668019294739,0.0015906670596450567
1684206770339276000,8.878276123046875,0.8956744074821472,0.5253846049308777,0.027483675628900528
1684206770349301000,8.888301025390625,0.8443773984909058,0.3512623608112335,0.03145631402730942
1684206770359326200,8.898326171875,0.7071177363395691,0.2032744139432907,0.03300002962350845
1684206770369351000,8.908350830078126,0.51143878698349,0.1706424355506897,0.04969272390007973
1684206770379377000,8.918376953125,0.29871854186058044,0.16843393445014954,0.07969788461923599
1684206770389401900,8.92840185546875,0.11758389323949814,0.153904527425766,0.09747155755758286
1684206770399426800,8.9384267578125,-0.007014580070972443,0.1628960371017456,0.11740244925022125
1684206770409452000,8.9484521484375,-0.08457967638969421,0.21003931760787964,0.15991421043872833
1684206770419477000,8.95847705078125,-0.13461190462112427,0.2155715972185135,0.21762429177761078
1684206770429502000,8.968501953125,-0.13788412511348724,0.21045459806919098,0.2587837278842926
1684206770439527000,8.97852685546875,-0.11148341000080109,0.22702158987522125,0.2634884715080261
1684206770449553000,8.988552978515624,-0.07749961316585541,0.2660517990589142,0.25653892755508423
1684206770459578000,8.998578125,-0.030469125136733055,0.26800474524497986,0.24665145576000214
1684206770469603000,9.00860302734375,0.040719300508499146,0.22546875476837158,0.22125206887722015
1684206770479628000,9.0186279296875,0.11376884579658508,0.18361522257328033,0.19970516860485077
1684206770489653000,9.028653076171874,0.2077009230852127,0.08167101442813873,0.1255369335412979
1684206770499678000,9.038677978515626,0.3010002076625824,-0.03129773959517479,0.030146248638629913
1684206770509703000,9.048702880859375,0.36935317516326904,-0.13661536574363708,-0.07183657586574554
1684206770519729000,9.05872900390625,0.3544021546840668,-0.35178452730178833,-0.16573667526245117
1684206770529753900,9.06875390625,0.2510792315006256,-0.5844318866729736,-0.18593649566173553
1684206770539779000,9.078779052734374,0.09177492558956146,-0.7849724888801575,-0.0923222005367279
1684206770549804000,9.088803955078125,-0.08308370411396027,-0.9515846371650696,0.07471126317977905
1684206770559829000,9.0988291015625,-0.2261517196893692,-1.0210846662521362,0.25887662172317505
1684206770569854000,9.10885400390625,-0.3267419636249542,-0.8951200842857361,0.4007466733455658
1684206770579879200,9.118879150390624,-0.38485202193260193,-0.5872606039047241,0.5120236277580261
1684206770589904100,9.128904052734375,-0.39525488018989563,-0.23643437027931213,0.5796127915382385
1684206770599930000,9.13893017578125,-0.360178679227829,0.05065080523490906,0.5949348211288452
1684206770609955000,9.148955078125,-0.2990442216396332,0.21965499222278595,0.5783443450927734
1684206770619980000,9.15897998046875,-0.24768252670764923,0.29260075092315674,0.5312917232513428
1684206770630005200,9.169005126953126,-0.22732558846473694,0.25146690011024475,0.4681990444660187
1684206770640030000,9.179030029296875,-0.210343599319458,0.1080169528722763,0.37184029817581177
1684206770650055000,9.189054931640625,-0.2076367735862732,-0.09624004364013672,0.2739899158477783
1684206770660079900,9.199079833984374,-0.20248179137706757,-0.33829477429389954,0.19927863776683807
1684206770670105900,9.20910595703125,-0.21322578191757202,-0.6093363761901855,0.19039753079414368
1684206770680131000,9.219131103515625,-0.22558915615081787,-0.8500073552131653,0.2334921509027481
1684206770690156000,9.229156005859375,-0.22367726266384125,-1.0059607028961182,0.2970370650291443
1684206770700181000,9.239180908203124,-0.20893797278404236,-1.0436304807662964,0.39498141407966614
1684206770710206000,9.2492060546875,-0.17441807687282562,-0.9668148159980774,0.5069095492362976
1684206770720231200,9.259231201171875,-0.12552960216999054,-0.7672407031059265,0.6335852742195129
1684206770730256100,9.269256103515625,-0.07459744811058044,-0.5286169648170471,0.7677696943283081
1684206770740282000,9.2792822265625,-0.016312049701809883,-0.2621818482875824,0.8925663828849792
1684206770750307000,9.28930712890625,0.061708979308605194,0.019999779760837555,0.9785944819450378
1684206770760332000,9.29933203125,0.1631137728691101,0.2940726578235626,1.0148037672042847
1684206770770357000,9.30935693359375,0.26726865768432617,0.5584684014320374,1.0487375259399414
1684206770780382000,9.3193818359375,0.3991107940673828,0.680640697479248,1.026160478591919
1684206770790407000,9.329406982421874,0.5003389120101929,0.763290524482727,0.9896546602249146
1684206770800431900,9.339431884765625,0.5858999490737915,0.7850821018218994,0.9333577752113342
1684206770810457000,9.34945703125,0.620023250579834,0.7031992077827454,0.8929059505462646
1684206770820483000,9.359483154296875,0.6028923392295837,0.5960211753845215,0.8730441331863403
1684206770830508000,9.369508056640624,0.5599552392959595,0.3540825843811035,0.769885241985321
1684206770840533000,9.379532958984376,0.4990955889225006,0.11429595947265625,0.6554335355758667
1684206770850558000,9.389557861328125,0.4295825660228729,-0.07819093018770218,0.5613690614700317
1684206770860583200,9.399583251953125,0.37954917550086975,-0.13034707307815552,0.48787784576416016
1684206770870608100,9.409608154296874,0.351326584815979,-0.19498145580291748,0.3996840715408325
1684206770880633000,9.419633056640626,0.3224239647388458,-0.302120178937912,0.31752291321754456
1684206770890657800,9.42965771484375,0.29735642671585083,-0.4571995139122009,0.22410272061824799
1684206770900684000,9.43968408203125,0.275250107049942,-0.5597001314163208,0.14535127580165863
1684206770910709000,9.449708984375,0.27722084522247314,-0.6792460083961487,0.08692284673452377
1684206770920734000,9.45973388671875,0.3015419542789459,-0.7989225387573242,0.022656742483377457
1684206770930759000,9.469759033203125,0.32305896282196045,-0.8680906891822815,-0.045899681746959686
1684206770940783900,9.479783935546875,0.33743607997894287,-0.9057572484016418,-0.07975341379642487
1684206770950809000,9.48980908203125,0.3528328835964203,-0.8855387568473816,-0.11222480237483978
1684206770960834000,9.499833984375,0.3484219014644623,-0.8127315640449524,-0.16130289435386658
1684206770970860000,9.509860107421876,0.3543301224708557,-0.6534798741340637,-0.1608554720878601
1684206770980885000,9.519885009765625,0.3670262396335602,-0.5060918927192688,-0.15807010233402252
1684206770990910000,9.529909912109375,0.3934999406337738,-0.37518149614334106,-0.1515677273273468
1684206771000935200,9.53993505859375,0.4232436418533325,-0.3041245937347412,-0.13713859021663666
1684206771010960100,9.549960205078126,0.45448145270347595,-0.2871469259262085,-0.15224911272525787
1684206771020984800,9.55998486328125,0.4911077916622162,-0.32241857051849365,-0.19615554809570312
1684206771031009800,9.570009765625,0.5189167261123657,-0.3786557614803314,-0.24712471663951874
1684206771041035000,9.580034912109374,0.5359957814216614,-0.44670072197914124,-0.29474276304244995
1684206771051061000,9.59006103515625,0.5401929616928101,-0.502282977104187,-0.3371554911136627
1684206771061086000,9.6000859375,0.5314377546310425,-0.5235265493392944,-0.3845924735069275
1684206771071111000,9.61011083984375,0.5034133195877075,-0.5002901554107666,-0.41108718514442444
1684206771081135900,9.620135986328124,0.4641668498516083,-0.48309898376464844,-0.4411972165107727
1684206771091161000,9.6301611328125,0.44759801030158997,-0.4790845215320587,-0.4576832354068756
1684206771101185000,9.64018505859375,0.4188045263290405,-0.4796738922595978,-0.4738713502883911
1684206771111210000,9.6502099609375,0.3627396821975708,-0.4982406497001648,-0.5069717764854431
1684206771121236000,9.660236083984374,0.2908723056316376,-0.5092149972915649,-0.5204859375953674
1684206771131261200,9.67026123046875,0.20015063881874084,-0.5006585121154785,-0.5041080117225647
1684206771141286100,9.6802861328125,0.09852641075849533,-0.43885278701782227,-0.4638617932796478
1684206771151311000,9.69031103515625,-0.007430119439959526,-0.32278501987457275,-0.42774108052253723
1684206771161336000,9.700336181640624,-0.10300707817077637,-0.1777954399585724,-0.39130091667175293
1684206771171361300,9.710361328125,-0.18074874579906464,-0.03145980462431908,-0.3367987871170044
1684206771181386200,9.72038623046875,-0.2340317666530609,0.11160518229007721,-0.3184971511363983
1684206771191411200,9.7304111328125,-0.27069976925849915,0.28689712285995483,-0.3305884301662445
1684206771201437200,9.740437255859375,-0.28695157170295715,0.4569229185581207,-0.3641854524612427
1684206771211462100,9.750462158203124,-0.31758564710617065,0.5471014976501465,-0.3607800602912903
1684206771221487400,9.7604873046875,-0.32574373483657837,0.47569504380226135,-0.25267666578292847
1684206771231512000,9.770511962890625,-0.26106247305870056,0.37786540389060974,-0.003225844819098711
1684206771241537000,9.780537109375,-0.2242000848054886,0.36274874210357666,0.2533150911331177
1684206771251562200,9.790562255859374,-0.20652629435062408,0.506709098815918,0.4352009892463684
1684206771261587200,9.800587158203125,-0.1900244951248169,0.8793716430664062,0.5838522911071777
1684206771271613200,9.81061328125,-0.17506472766399384,1.2728962898254395,0.6821416020393372
1684206771281638100,9.82063818359375,-0.1797090768814087,1.4453015327453613,0.6833808422088623
1684206771291663000,9.8306630859375,-0.19812802970409393,1.390787959098816,0.5805500745773315
1684206771301688300,9.840688232421876,-0.2212792932987213,1.2223095893859863,0.3834962546825409
1684206771311713300,9.85071337890625,-0.25630253553390503,0.9646852016448975,0.12955692410469055
1684206771321738200,9.86073828125,-0.2472069263458252,0.5731717944145203,-0.16300059854984283
1684206771331763200,9.87076318359375,-0.15491056442260742,0.10766053944826126,-0.40731340646743774
1684206771341788400,9.880788330078126,-0.07908926159143448,-0.23901258409023285,-0.5518183708190918
1684206771351814100,9.890814208984375,-0.029365647584199905,-0.4833539128303528,-0.62239670753479
1684206771361839000,9.900839111328125,-0.05765437334775925,-0.5539215207099915,-0.6285492777824402
1684206771371864000,9.910864013671874,-0.05189875140786171,-0.39767521619796753,-0.4945342242717743
1684206771381889000,9.920888916015626,-0.056509919464588165,-0.07181002199649811,-0.20192749798297882
1684206771391914200,9.930914306640625,-0.197824165225029,0.21985352039337158,0.13267232477664948
1684206771401939200,9.940939208984375,-0.3716183304786682,0.4866054356098175,0.36894577741622925
1684206771411964200,9.950964111328124,-0.44387948513031006,0.6808995008468628,0.49417585134506226
1684206771421990100,9.960990234375,-0.44943109154701233,0.7111685276031494,0.5240563154220581
1684206771432015000,9.97101513671875,-0.4745771884918213,0.6186566948890686,0.5223284363746643
1684206771442040300,9.981040283203125,-0.4804311990737915,0.4844636917114258,0.4730275571346283
1684206771452065300,9.991065185546875,-0.4543614983558655,0.19266565144062042,0.3580876588821411
1684206771462090200,10.00109033203125,-0.299586683511734,-0.1500871628522873,0.17818324267864227
1684206771472115200,10.011115234375,-0.05640094354748726,-0.4472240209579468,0.00557977519929409
1684206771482140200,10.02114013671875,0.12547700107097626,-0.5687695741653442,-0.10714025795459747
1684206771492165000,10.0311650390625,0.15441836416721344,-0.37176117300987244,-0.14763203263282776
1684206771502191000,10.041191162109374,0.0770176500082016,-0.022595388814806938,-0.0958118885755539
1684206771512216000,10.051216064453126,0.031929269433021545,0.36667487025260925,0.009822923690080643
1684206771522241000,10.061240966796875,0.042761750519275665,0.6619065999984741,0.10106542706489563
1684206771532266200,10.071266357421875,0.004020213149487972,0.7749524116516113,0.16705429553985596
1684206771542291200,10.081291259765624,-0.03416622057557106,0.7372561097145081,0.18313558399677277
1684206771552316200,10.091316162109376,-0.0613003671169281,0.587742269039154,0.15317369997501373
1684206771562341000,10.101341064453125,-0.08681774884462357,0.456479549407959,0.10205241292715073
1684206771572367000,10.1113671875,-0.13361454010009766,0.4101850092411041,0.04502880945801735
1684206771582392300,10.121392333984375,-0.16359293460845947,0.4415278136730194,0.014461438171565533
1684206771592417300,10.131417236328126,-0.1556263566017151,0.5315727591514587,0.06227370351552963
1684206771602442200,10.141442138671875,-0.1599821150302887,0.5110942125320435,0.10325560718774796
1684206771612467200,10.15146728515625,-0.16640619933605194,0.42964088916778564,0.09287566691637039
1684206771622492200,10.1614921875,-0.129084974527359,0.4062986373901367,0.06125114858150482
1684206771632517000,10.17151708984375,-0.10097851604223251,0.4114358723163605,0.013617049902677536
1684206771642542000,10.1815419921875,-0.07805348187685013,0.355305552482605,-0.052512045949697495
1684206771652568000,10.191568115234375,-0.06292086839675903,0.2334102988243103,-0.11430057883262634
1684206771662593000,10.201593017578125,-0.061975955963134766,0.06108696386218071,-0.15912273526191711
1684206771672618200,10.2116181640625,-0.06898246705532074,-0.11759942770004272,-0.19214673340320587
1684206771682643200,10.221643310546876,-0.09297020733356476,-0.28427162766456604,-0.22596405446529388
1684206771692668200,10.231668212890625,-0.10836195200681686,-0.38213083148002625,-0.23529496788978577
1684206771702693000,10.241693115234375,-0.12388041615486145,-0.4585057497024536,-0.24886293709278107
1684206771712718300,10.25171826171875,-0.15174028277397156,-0.583853006362915,-0.29334649443626404
1684206771722743300,10.261743408203126,-0.15871968865394592,-0.7422583699226379,-0.35716912150382996
1684206771732769300,10.271769287109375,-0.13975505530834198,-0.9056731462478638,-0.4432997405529022
1684206771742794200,10.281794189453125,-0.10760966688394547,-1.081230878829956,-0.5325444936752319
1684206771752819000,10.29181884765625,-0.08584018796682358,-1.22714364528656,-0.5951825380325317
1684206771762844200,10.30184423828125,-0.0622120127081871,-1.3078311681747437,-0.6468809843063354
1684206771772869000,10.311869140625,-0.02921384945511818,-1.3026762008666992,-0.6688835024833679
1684206771782894000,10.32189404296875,-0.0002978069242089987,-1.2391148805618286,-0.6302684545516968
1684206771792919000,10.3319189453125,0.006659168750047684,-1.126837134361267,-0.5502594113349915
1684206771802945000,10.341945068359376,-0.01577656716108322,-1.0437990427017212,-0.48312264680862427
1684206771812970200,10.35197021484375,-0.043176498264074326,-0.9733496904373169,-0.45172157883644104
1684206771822995200,10.3619951171875,-0.08777277171611786,-0.9020706415176392,-0.4298765957355499
1684206771833020200,10.372020263671875,-0.12081460654735565,-0.8041547536849976,-0.4278049170970917
1684206771843045000,10.382045166015626,-0.16324493288993835,-0.6398241519927979,-0.4221270680427551
1684206771853070300,10.3920703125,-0.19117990136146545,-0.46370580792427063,-0.4261876046657562
1684206771863095300,10.40209521484375,-0.1393132507801056,-0.16411426663398743,-0.39997217059135437
1684206771873120000,10.4121201171875,-0.12128471583127975,-0.05944298952817917,-0.37918540835380554
1684206771883146200,10.422146240234374,-0.09689301997423172,-0.058499641716480255,-0.36275386810302734
1684206771893171200,10.432171142578126,-0.04659043624997139,-0.03246511146426201,-0.3241356313228607
1684206771903196200,10.442196044921875,-0.012436797842383385,0.06413433700799942,-0.28006789088249207
1684206771913221000,10.45222119140625,0.01671922206878662,0.24416935443878174,-0.20920249819755554
1684206771923246000,10.46224609375,0.03394348546862602,0.4059838056564331,-0.11724140495061874
1684206771933271300,10.472271240234376,0.04515752196311951,0.5029428601264954,-0.026269152760505676
1684206771943296300,10.482296142578125,0.02674894593656063,0.525737464427948,0.058552999049425125
1684206771953322200,10.492322265625,-0.0009937346912920475,0.5360947847366333,0.09733261168003082
1684206771963347200,10.50234716796875,-0.03570189327001572,0.5345844626426697,0.12069804221391678
1684206771973372200,10.5123720703125,-0.06279023736715317,0.5352351069450378,0.1321621537208557
1684206771983397000,10.522397216796875,-0.07605814933776855,0.5178505778312683,0.12115015089511871
1684206771993422300,10.53242236328125,-0.0751579999923706,0.5024402141571045,0.07833051681518555
1684206772003447000,10.542447021484374,-0.05994047969579697,0.4285658895969391,0.033239442855119705
1684206772013472000,10.552471923828126,-0.04134442284703255,0.3428829312324524,0.0035478612408041954
1684206772023497200,10.562497314453125,-0.00808772537857294,0.2635803818702698,-0.007412866689264774
1684206772033523200,10.572523193359375,0.026044145226478577,0.1763743758201599,0.001014173962175846
1684206772043548200,10.582548095703125,0.06015152111649513,0.08385685831308365,0.026152344420552254
1684206772053573000,10.592572998046874,0.07465828955173492,0.0031817229464650154,0.05693076178431511
1684206772063598000,10.60259814453125,0.06368251889944077,-0.07734537124633789,0.09794078022241592
1684206772073623300,10.612623291015625,0.03690895438194275,-0.15289205312728882,0.12185463309288025
1684206772083648300,10.622648193359375,0.0033838122617453337,-0.1837754100561142,0.12519393861293793
1684206772093673200,10.632673095703124,-0.024568725377321243,-0.21135883033275604,0.1252163052558899
1684206772103698200,10.6426982421875,-0.0694684386253357,-0.17479054629802704,0.1144857332110405
1684206772113724200,10.65272412109375,-0.07628266513347626,-0.12033849209547043,0.09991104900836945
1684206772123749400,10.662749267578125,-0.0799877941608429,-0.03975987806916237,0.1066586822271347
1684206772133774300,10.6727744140625,-0.053276561200618744,0.058596786111593246,0.12984521687030792
1684206772143799300,10.68279931640625,-0.026855669915676117,0.1731402575969696,0.15672849118709564
1684206772153824300,10.69282421875,-0.001523682032711804,0.33836913108825684,0.1888027936220169
1684206772163849500,10.702849365234375,0.016521703451871872,0.530285120010376,0.22673295438289642
1684206772173874400,10.71287451171875,0.017558738589286804,0.7328640222549438,0.2749076783657074
1684206772183899400,10.7228994140625,0.009015504270792007,0.9100828170776367,0.32449662685394287
1684206772193925400,10.73292529296875,-0.0013007826637476683,1.068107008934021,0.37005481123924255
1684206772203950300,10.742950439453125,-0.012164068408310413,1.1771992444992065,0.40035906434059143
1684206772213975300,10.752975341796875,-0.012125984765589237,1.2492822408676147,0.43232443928718567
1684206772224000300,10.763000244140626,-0.007880957797169685,1.303422451019287,0.452406108379364
1684206772234025200,10.773025146484375,0.007473497651517391,1.3435477018356323,0.47503846883773804
1684206772244050200,10.78305029296875,0.03249272704124451,1.38215172290802,0.497377872467041
1684206772254075400,10.793075439453125,0.058355480432510376,1.4156172275543213,0.5252103209495544
1684206772264101400,10.803101318359374,0.09062127023935318,1.4651494026184082,0.5457323789596558
1684206772274126300,10.813126220703126,0.106157086789608,1.5537629127502441,0.5530760288238525
1684206772284151300,10.8231513671875,0.10690666735172272,1.666776180267334,0.5562798976898193
1684206772294176300,10.83317626953125,0.09565134346485138,1.7861294746398926,0.5660443902015686
1684206772304201500,10.843201416015624,0.06677446514368057,1.8771510124206543,0.5804564356803894
1684206772314226400,10.853226318359376,0.03850340470671654,1.8699716329574585,0.5651152729988098
1684206772324251400,10.86325146484375,0.021171346306800842,1.7870208024978638,0.5122981071472168
1684206772334276000,10.873276123046875,0.019328173249959946,1.7280278205871582,0.49913087487220764
1684206772344302300,10.88330224609375,0.035902731120586395,1.690813422203064,0.5230683088302612
1684206772354327300,10.893327392578126,0.05795157328248024,1.6684715747833252,0.5368019342422485
1684206772364352300,10.903352294921875,0.07420045137405396,1.7128833532333374,0.5334156155586243
1684206772374377200,10.913377197265625,0.08062160015106201,1.836045503616333,0.5258165597915649
1684206772384402200,10.923402099609374,0.07709337025880814,2.0019280910491943,0.5148019790649414
1684206772394427400,10.933427490234376,0.03824317455291748,2.2237889766693115,0.5106969475746155
1684206772404452400,10.943452392578125,-0.04712866619229317,2.4368486404418945,0.49564170837402344
1684206772414478300,10.953478271484375,-0.17511805891990662,2.450406074523926,0.4314936101436615
1684206772424503300,10.96350341796875,-0.29024308919906616,2.2496843338012695,0.3390674591064453
1684206772434528300,10.9735283203125,-0.3440573215484619,1.9913192987442017,0.23443451523780823
1684206772444553500,10.983553466796875,-0.34022068977355957,1.8323979377746582,0.1334797739982605
1684206772454578400,10.993578369140625,-0.31684932112693787,1.7251561880111694,0.06294994056224823
1684206772464603100,11.00360302734375,-0.2673313617706299,1.5772303342819214,0.0352625697851181
1684206772474628000,11.013628173828126,-0.24447214603424072,1.317770004272461,-0.01645442098379135
1684206772484653300,11.0236533203125,-0.2255127727985382,1.0596550703048706,-0.09749151766300201
1684206772494679300,11.03367919921875,-0.23918864130973816,0.8281661868095398,-0.16034452617168427
1684206772504704300,11.043704345703125,-0.22163866460323334,0.6572794318199158,-0.18309497833251953
1684206772514729200,11.053729248046874,-0.18027737736701965,0.5316450595855713,-0.19681479036808014
1684206772524754200,11.063754150390626,-0.1310288906097412,0.37709560990333557,-0.2211161106824875
1684206772534779400,11.073779296875,-0.07418344914913177,0.201194629073143,-0.2503001093864441
1684206772544804400,11.083804443359375,-0.02894454449415207,0.046618349850177765,-0.2685060501098633
1684206772554829300,11.093829345703124,0.02695494145154953,-0.06658783555030823,-0.23305244743824005
1684206772564854300,11.103854248046876,0.09813414514064789,-0.15861929953098297,-0.13714970648288727
1684206772574880300,11.11388037109375,0.1714690774679184,-0.2895142138004303,-0.035975947976112366
1684206772584905500,11.123905517578125,0.23172467947006226,-0.5080858469009399,0.05710732936859131
1684206772594930400,11.133930419921874,0.30868178606033325,-0.7259331941604614,0.1639951765537262
1684206772604955100,11.143955078125,0.4045955240726471,-0.8862464427947998,0.2944447696208954
1684206772614980000,11.15397998046875,0.5238995552062988,-1.113214135169983,0.41784659028053284
1684206772625005300,11.16400537109375,0.681340217590332,-1.2988132238388062,0.4759620130062103
1684206772635030300,11.1740302734375,0.8061543107032776,-1.3541611433029175,0.4198031425476074
1684206772645056300,11.18405615234375,0.8105007410049438,-1.402308464050293,0.24545228481292725
1684206772655081200,11.194081298828126,0.7104756236076355,-1.581386923789978,0.031545329838991165
1684206772665106200,11.204106201171875,0.5495154857635498,-1.8991429805755615,-0.13939179480075836
1684206772675131400,11.21413134765625,0.4155641198158264,-2.406689405441284,-0.232624813914299
1684206772685156400,11.22415625,0.2917962968349457,-2.9412219524383545,-0.27793559432029724
1684206772695181300,11.234181396484376,0.14748415350914001,-3.1571178436279297,-0.34153056144714355
1684206772705206300,11.244206298828125,-0.02035195752978325,-3.1384873390197754,-0.4801110327243805
1684206772715231200,11.254231201171875,-0.19032369554042816,-3.036844253540039,-0.564537525177002
1684206772725257500,11.264257568359374,-0.3975256085395813,-2.9584858417510986,-0.5532339811325073
1684206772735282200,11.2742822265625,-0.601076602935791,-2.9842944145202637,-0.5281140208244324
1684206772745307100,11.28430712890625,-0.7106510400772095,-3.1658761501312256,-0.504659116268158
1684206772755332400,11.294332275390625,-0.7089421153068542,-3.353778839111328,-0.44832074642181396
1684206772765357300,11.304357421875,-0.6408135294914246,-3.3112430572509766,-0.4151245951652527
1684206772775382300,11.31438232421875,-0.5718458890914917,-2.9896388053894043,-0.4108254611492157
1684206772785407200,11.3244072265625,-0.5325440764427185,-2.407487392425537,-0.3735886812210083
1684206772795432400,11.334432373046875,-0.5130178332328796,-1.6285609006881714,-0.23574373126029968
1684206772805458400,11.34445849609375,-0.4359445571899414,-0.9017339944839478,-0.02647075243294239
1684206772815483400,11.3544833984375,-0.3270769417285919,-0.344586044549942,0.1479327380657196
1684206772825508400,11.36450830078125,-0.22085918486118317,0.034126102924346924,0.24969740211963654
1684206772835533300,11.374533203125,-0.15330970287322998,0.15392999351024628,0.3003976047039032
1684206772845558500,11.38455859375,-0.08506837487220764,0.14715047180652618,0.3355938494205475
1684206772855583200,11.394583251953126,-0.0062449341639876366,0.093657948076725,0.3311530351638794
1684206772865608200,11.404608154296875,0.06980638951063156,0.02693241462111473,0.2898217737674713
1684206772875634200,11.41463427734375,0.15156303346157074,-0.04628613963723183,0.22514931857585907
1684206772885659100,11.4246591796875,0.23137140274047852,-0.11976812034845352,0.16924385726451874
1684206772895684400,11.434684326171874,0.298693984746933,-0.2073533684015274,0.13473141193389893
1684206772905709300,11.444709228515626,0.33782413601875305,-0.3259430229663849,0.08394269645214081
1684206772915734300,11.454734375,0.36338356137275696,-0.4940723776817322,0.0271004531532526
1684206772925759200,11.46475927734375,0.4012804329395294,-0.6935104727745056,-0.013134671375155449
1684206772935784400,11.474784423828124,0.40683630108833313,-0.8722972869873047,-0.017758719623088837
1684206772945809400,11.484809326171876,0.38052618503570557,-0.9946892857551575,0.034870244562625885
1684206772955835400,11.49483544921875,0.3523930609226227,-1.0144540071487427,0.10474413633346558
1684206772965860400,11.5048603515625,0.32982417941093445,-0.9302265644073486,0.20501232147216797
1684206772975885300,11.51488525390625,0.3386416435241699,-0.7554020285606384,0.35134902596473694
1684206772985910500,11.52491064453125,0.37250301241874695,-0.6475986242294312,0.4611314535140991
1684206772995935200,11.534935302734375,0.40718403458595276,-0.5642472505569458,0.5784072279930115
1684206773005960200,11.544960205078125,0.43537288904190063,-0.43463748693466187,0.7096691727638245
1684206773015985200,11.554985107421874,0.44398659467697144,-0.3289182484149933,0.8003066778182983
1684206773026010400,11.56501025390625,0.4583069980144501,-0.22769172489643097,0.851600170135498
1684206773036036400,11.575036376953125,0.47202998399734497,-0.1424252986907959,0.8848018050193787
1684206773046061300,11.585061279296875,0.49537888169288635,-0.05986591801047325,0.8942177891731262
1684206773056086300,11.595086181640625,0.5548387169837952,-0.09775896370410919,0.8489909172058105
1684206773066111200,11.605111328125,0.6016150712966919,-0.18017685413360596,0.7616075277328491
1684206773076136400,11.615136474609375,0.6264272332191467,-0.28132903575897217,0.6260622143745422
1684206773086161400,11.625161376953125,0.6316906213760376,-0.38432517647743225,0.4575684070587158
1684206773096186400,11.635186279296875,0.6086979508399963,-0.47915899753570557,0.283760130405426
1684206773106212000,11.645212158203124,0.5368759036064148,-0.5703694224357605,0.12371977418661118
1684206773116237000,11.655237060546876,0.44881105422973633,-0.705873429775238,-0.013080420903861523
1684206773126262300,11.66526220703125,0.36191800236701965,-0.836609959602356,-0.1383885145187378
1684206773136287200,11.675287353515625,0.2855265736579895,-0.8887256383895874,-0.20472945272922516
1684206773146312200,11.685312255859374,0.22803574800491333,-0.9500645995140076,-0.23602353036403656
1684206773156337200,11.695337158203126,0.1932186484336853,-0.9432668685913086,-0.26605546474456787
1684206773166362400,11.7053623046875,0.18399442732334137,-0.8232595920562744,-0.3020533621311188
1684206773176387000,11.715386962890625,0.23863902688026428,-0.6323668956756592,-0.34201356768608093
1684206773186413300,11.725413330078124,0.32572314143180847,-0.441189706325531,-0.3860878348350525
1684206773196438000,11.73543798828125,0.42462921142578125,-0.30111435055732727,-0.42616868019104004
1684206773206463000,11.745462890625,0.5298348665237427,-0.1971774399280548,-0.4765021800994873
1684206773216488200,11.75548828125,0.599977433681488,-0.13952426612377167,-0.53107088804245
1684206773226513200,11.76551318359375,0.6178784370422363,-0.14684425294399261,-0.6022841930389404
1684206773236538000,11.7755380859375,0.5850815773010254,-0.18968066573143005,-0.6505782008171082
1684206773246563000,11.78556298828125,0.4949864149093628,-0.24604977667331696,-0.6653299927711487
1684206773256588300,11.79558837890625,0.36826255917549133,-0.2564544677734375,-0.6329155564308167
1684206773266614300,11.8056142578125,0.23244568705558777,-0.22531013190746307,-0.6082071661949158
1684206773276639200,11.81563916015625,0.10722864419221878,-0.17260722815990448,-0.6129299998283386
1684206773286664200,11.825664306640626,-0.0070684487000107765,-0.14336195588111877,-0.6603679656982422
1684206773296689200,11.835689208984375,-0.09358682483434677,-0.13745053112506866,-0.7079626321792603
1684206773306714000,11.845714111328125,-0.14106373488903046,-0.0782577246427536,-0.7281179428100586
1684206773316739000,11.855739013671876,-0.18110889196395874,0.009273187257349491,-0.6922922730445862
1684206773326764000,11.865763916015625,-0.19612255692481995,0.20905083417892456,-0.6133471727371216
1684206773336790000,11.8757900390625,-0.20317913591861725,0.44513019919395447,-0.5288919806480408
1684206773346815200,11.885815185546875,-0.19280704855918884,0.6889441013336182,-0.4252895712852478
1684206773356840200,11.895840087890624,-0.1449175477027893,0.8561930060386658,-0.31757694482803345
1684206773366865200,11.905865234375,-0.12205631285905838,0.9790138602256775,-0.1980232298374176
1684206773376890000,11.91589013671875,-0.08643946796655655,1.0777041912078857,-0.04409170523285866
1684206773386915300,11.925915283203125,-0.03392845019698143,1.1353932619094849,0.14176109433174133
1684206773396940300,11.935940185546874,0.008693046867847443,1.1790169477462769,0.34027791023254395
1684206773406965200,11.94596533203125,0.0317925289273262,1.2250943183898926,0.5059629678726196
1684206773416990200,11.955990234375,0.09185533970594406,1.2967344522476196,0.6048149466514587
1684206773427015200,11.96601513671875,0.16739274561405182,1.4063743352890015,0.6373183727264404
1684206773437041400,11.97604150390625,0.26115331053733826,1.5646649599075317,0.6123184561729431
1684206773447066000,11.986066162109376,0.35011738538742065,1.7105488777160645,0.5277514457702637
1684206773457091000,11.996091064453125,0.4336405098438263,1.774735927581787,0.4281444549560547
1684206773467116000,12.006115966796875,0.4816342890262604,1.7078980207443237,0.35520678758621216
1684206773477141200,12.016141357421875,0.4966515898704529,1.513329029083252,0.34137940406799316
1684206773487166200,12.026166259765626,0.4676089286804199,1.3183810710906982,0.3597468137741089
1684206773497191200,12.036191162109375,0.4349266290664673,1.2657051086425781,0.3831879794597626
1684206773507216100,12.046216064453125,0.4436120092868805,1.2722116708755493,0.4164596199989319
1684206773517242000,12.0562421875,0.45433977246284485,1.2302322387695312,0.4675031006336212
1684206773527267300,12.066267333984374,0.46394312381744385,1.160868763923645,0.5275183916091919
1684206773537292300,12.076292236328126,0.5005224347114563,1.0395582914352417,0.5744608640670776
1684206773547317200,12.086317138671875,0.5184186697006226,0.8974524736404419,0.5762929916381836
1684206773557342200,12.09634228515625,0.47459957003593445,0.7967716455459595,0.509303867816925
1684206773567367200,12.1063671875,0.37599220871925354,0.6963487267494202,0.3877018392086029
1684206773577392000,12.11639208984375,0.27735111117362976,0.5412139892578125,0.3050021827220917
1684206773587417000,12.1264169921875,0.20920614898204803,0.4630371332168579,0.22761982679367065
1684206773597443000,12.136443115234375,0.21072255074977875,0.5302510261535645,0.07892116159200668
1684206773607468000,12.146468017578124,0.24148151278495789,0.4711625277996063,-0.1400725096464157
1684206773617493200,12.1564931640625,0.28885409235954285,0.3091416656970978,-0.2527526915073395
1684206773627518200,12.166518310546875,0.27037757635116577,0.10239388793706894,-0.2491210550069809
1684206773637543200,12.176543212890625,0.22813530266284943,-0.13707862794399261,-0.22770258784294128
1684206773647568100,12.186568115234374,0.06717097014188766,-0.17922481894493103,-0.14829501509666443
1684206773657593300,12.19659326171875,-0.012334777042269707,0.2997944951057434,0.02686908468604088
1684206773667619300,12.206619384765625,-0.05325201526284218,0.4355407953262329,0.046792786568403244
1684206773677644300,12.216644287109375,-0.0938899889588356,0.12071334570646286,0.003702307352796197
1684206773687669200,12.226669189453125,-0.17763260006904602,-0.13390980660915375,-0.019291527569293976
1684206773697694000,12.23669384765625,-0.2962234318256378,-0.20193679630756378,-0.030035782605409622
1684206773707719200,12.24671923828125,-0.36218202114105225,-0.180283322930336,-0.03736269474029541
1684206773717744000,12.256744140625,-0.4723777770996094,-0.21368736028671265,-0.13793350756168365
1684206773727769000,12.26676904296875,-0.5143777132034302,-0.5334948897361755,-0.285456120967865
1684206773737794000,12.2767939453125,-0.4601835012435913,-0.5940906405448914,-0.2670888304710388
1684206773747820000,12.286820068359376,-0.31374862790107727,-0.17483267188072205,-0.24102112650871277
1684206773757845200,12.29684521484375,-0.21088747680187225,0.36998507380485535,-0.29216235876083374
1684206773767870200,12.3068701171875,-0.2587221562862396,0.7753426432609558,-0.3579621911048889
1684206773777895200,12.316895263671874,-0.34712231159210205,0.8926205635070801,-0.2716110646724701
1684206773787920100,12.326920166015626,-0.4660031795501709,0.8314178586006165,-0.12582191824913025
1684206773797945300,12.3369453125,-0.48189985752105713,0.42922812700271606,-0.20181415975093842
1684206773807970300,12.34697021484375,-0.48032060265541077,0.12871138751506805,-0.2997448146343231
1684206773817995000,12.3569951171875,-0.5740944743156433,-0.19345466792583466,-0.4975111484527588
1684206773828021200,12.367021240234376,-0.7009453177452087,-0.606189489364624,-0.7423397898674011
1684206773838046000,12.3770458984375,-0.599544107913971,-1.2034499645233154,-0.9438087344169617
