time,seconds_elapsed,z,y,x
1684201208128387300,0.03538720703125,-0.045115869492292404,-0.06765992939472198,-0.10666931420564651
1684201208138412500,0.04541259765625,-0.038651324808597565,-0.05518890172243118,-0.07133747637271881
1684201208148436500,0.0554365234375,-0.03777780383825302,-0.05491646006703377,-0.050823941826820374
1684201208158461400,0.06546142578125,-0.03658841922879219,-0.038512855768203735,-0.03692377358675003
1684201208168486400,0.075486328125,-0.034691184759140015,-0.015631508082151413,-0.030501559376716614
1684201208178511400,0.085511474609375,-0.029247157275676727,0.017984664067626,-0.024703344330191612
1684201208188536300,0.095536376953125,-0.016979040578007698,0.04427618533372879,-0.006929141469299793
1684201208198561500,0.1055615234375,-0.015917502343654633,0.06393323093652725,0.0018652346916496754
1684201208208586500,0.11558642578125,-0.01129238959401846,0.06943824887275696,0.004442109260708094
1684201208218610400,0.1256103515625,-0.0069069769233465195,0.06795524805784225,0.016682546585798264
1684201208228635600,0.1356357421875,-0.004380436148494482,0.06564495712518692,0.02279796451330185
1684201208238660400,0.145660400390625,-0.002622217871248722,0.004127096384763718,0.00844456348568201
1684201208248685300,0.155685302734375,-0.029932934790849686,0.03577583655714989,0.004434108734130859
1684201208258710300,0.165710205078125,-0.08072900027036667,0.06612537056207657,-0.036465272307395935
1684201208268735500,0.175735595703125,-0.20292069017887115,0.12548936903476715,-0.13360993564128876
1684201208278760400,0.185760498046875,-0.4854501187801361,0.1916792243719101,-0.2477169930934906
1684201208288784400,0.195784423828125,-0.761505663394928,0.21739603579044342,-0.3101140558719635
1684201208298809600,0.2058095703125,-0.855507493019104,0.16975772380828857,-0.32272854447364807
1684201208308834600,0.21583447265625,-0.8949755430221558,0.007234320510178804,-0.3269160985946655
1684201208318859300,0.225859375,-0.8173902630805969,-0.2745419442653656,-0.34756234288215637
1684201208328884500,0.235884521484375,-0.7904393672943115,-0.3340822458267212,-0.2907712161540985
1684201208338909400,0.245909423828125,-0.744616687297821,-0.29741811752319336,-0.18402519822120667
1684201208348934400,0.255934326171875,-0.6304999589920044,-0.1679123342037201,-0.06702639907598495
1684201208358958600,0.26595849609375,-0.45640167593955994,-0.17692585289478302,-0.02991153858602047
1684201208368983600,0.275983642578125,-0.25085383653640747,-0.23654285073280334,-0.06859714537858963
1684201208379008500,0.286008544921875,-0.015850134193897247,-0.21529105305671692,-0.09302809089422226
1684201208389033500,0.296033447265625,0.03420664370059967,-0.14731040596961975,-0.0974300354719162
1684201208399058400,0.306058349609375,0.031240949407219887,-0.11285506933927536,-0.07314082980155945
1684201208409083400,0.31608349609375,0.05414173752069473,-0.08671560883522034,-0.05055828392505646
1684201208419108400,0.3261083984375,0.06376347690820694,-0.08162099868059158,-0.056705042719841
1684201208429132500,0.336132568359375,0.06927195936441422,-0.07344909012317657,-0.07174896448850632
1684201208439157500,0.346157470703125,0.07256602495908737,-0.039617761969566345,-0.08143921941518784
1684201208449182500,0.356182373046875,0.06317970901727676,0.015349084511399269,-0.07315199077129364
1684201208459207400,0.36620751953125,0.06952203065156937,0.09455356746912003,-0.04618842527270317
1684201208469232600,0.376232666015625,0.09028775990009308,0.12010553479194641,-0.009072216227650642
1684201208479257300,0.38625732421875,0.08035630732774734,0.19967150688171387,0.041783470660448074
1684201208489282300,0.3962822265625,0.07781698554754257,0.2460280805826187,0.07850287109613419
1684201208499306500,0.406306396484375,0.06682132184505463,0.28653717041015625,0.10597977042198181
1684201208509331500,0.41633154296875,0.03490626439452171,0.3217659890651703,0.12865819036960602
1684201208519356400,0.4263564453125,-0.0635950043797493,0.345610648393631,0.1539652794599533
1684201208529381600,0.436381591796875,0.0028175765182822943,0.25927311182022095,0.1569373607635498
1684201208539406600,0.446406494140625,0.03471318259835243,0.2568237781524658,0.12955737113952637
1684201208549431300,0.456431396484375,0.07039075344800949,0.37298154830932617,0.12268347293138504
1684201208559456300,0.466456298828125,0.04565983638167381,0.41057953238487244,0.14771071076393127
1684201208569480400,0.47648046875,0.008680781349539757,0.36619529128074646,0.1656484305858612
1684201208579505400,0.48650537109375,-0.001346017001196742,0.3401015102863312,0.15445715188980103
1684201208589530400,0.4965302734375,-0.019768167287111282,0.3363555073738098,0.13335825502872467
1684201208599555600,0.5065556640625,-0.0350928008556366,0.3427775800228119,0.11011060327291489
1684201208609580500,0.51658056640625,-0.055305659770965576,0.33531326055526733,0.09378249943256378
1684201208619605500,0.52660546875,-0.07624582201242447,0.33237019181251526,0.06814824044704437
1684201208629630200,0.536630126953125,-0.19812539219856262,0.30876579880714417,0.052760496735572815
1684201208639654400,0.546654296875,-0.17206797003746033,0.2906607985496521,0.0398474857211113
1684201208649679400,0.556679443359375,-0.10430809110403061,0.30409085750579834,0.007262110710144043
1684201208659704300,0.566704345703125,-0.0875307098031044,0.2618047297000885,-0.045243386179208755
1684201208669729500,0.5767294921875,-0.17288102209568024,0.27433115243911743,-0.05923456698656082
1684201208679754500,0.58675439453125,-0.19406993687152863,0.25869473814964294,-0.055291082710027695
1684201208689779500,0.596779541015625,-0.20417210459709167,0.247329443693161,-0.061898648738861084
1684201208699804700,0.6068046875,-0.2435072809457779,0.2440551519393921,-0.08814777433872223
1684201208709828400,0.616828369140625,-0.26179811358451843,0.2070167064666748,-0.1267649382352829
1684201208719853300,0.626853271484375,-0.2648780643939972,0.1802777647972107,-0.14781488478183746
1684201208729878500,0.63687841796875,-0.26229560375213623,0.15895037353038788,-0.1606380045413971
1684201208739903500,0.646903564453125,-0.2519785165786743,0.13667519390583038,-0.164613738656044
1684201208749928400,0.656928466796875,-0.24422764778137207,0.10535508394241333,-0.1632552593946457
1684201208759953400,0.666953369140625,-0.24228593707084656,0.08044897764921188,-0.15137360990047455
1684201208769978600,0.676978515625,-0.23291081190109253,0.0634838417172432,-0.12267272174358368
1684201208780002300,0.687002197265625,-0.29337549209594727,0.04117737337946892,-0.0951642319560051
1684201208790027300,0.69702734375,-0.21830469369888306,0.04978577420115471,-0.04825983941555023
1684201208800052500,0.707052490234375,-0.17811493575572968,0.11750563979148865,-0.0006601088680326939
1684201208810077400,0.717077392578125,-0.16778826713562012,0.19593015313148499,0.03697328642010689
1684201208820102400,0.727102294921875,-0.13414694368839264,0.28043708205223083,0.0624479316174984
1684201208830127400,0.73712744140625,-0.09704193472862244,0.38235437870025635,0.09272115677595139
1684201208840152600,0.747152587890625,-0.06170390918850899,0.4896585941314697,0.11355206370353699
1684201208850176300,0.75717626953125,-0.03166637942194939,0.5645197629928589,0.11921394616365433
1684201208860201500,0.767201416015625,-0.004628368653357029,0.6393227577209473,0.10740527510643005
1684201208870226400,0.777226318359375,0.01366195548325777,0.6806057095527649,0.09064626693725586
1684201208880251400,0.78725146484375,0.021056227385997772,0.7004789710044861,0.09162914752960205
1684201208890276400,0.7972763671875,0.08561044931411743,0.6591256856918335,0.10222639888525009
1684201208900301600,0.807301513671875,0.14349398016929626,0.6475145220756531,0.06963139027357101
1684201208910326500,0.817326416015625,0.06285905838012695,0.7223224639892578,0.12110523879528046
1684201208920350500,0.8273505859375,0.0026572358328849077,0.7628504037857056,0.19099345803260803
1684201208930375400,0.83737548828125,-0.007621234282851219,0.7984907031059265,0.2323608696460724
1684201208940400400,0.847400390625,-0.05483962967991829,0.7974873781204224,0.22079314291477203
1684201208950425300,0.85742529296875,-0.08148481696844101,0.7776700258255005,0.18307985365390778
1684201208960450300,0.8674501953125,-0.10899099707603455,0.7828084230422974,0.14933522045612335
1684201208970475500,0.8774755859375,-0.13565509021282196,0.7789431214332581,0.11544755846261978
1684201208980500500,0.88750048828125,-0.14945240318775177,0.7441365718841553,0.06412892043590546
1684201208990524400,0.8975244140625,-0.16513416171073914,0.7448359131813049,0.017728399485349655
1684201209000549600,0.907549560546875,-0.17500010132789612,0.746684730052948,-0.01603447087109089
1684201209010574300,0.91757421875,-0.16780531406402588,0.721423327922821,-0.05321486294269562
1684201209020599300,0.927599365234375,-0.1670854538679123,0.6511455178260803,-0.09225061535835266
1684201209030624500,0.93762451171875,-0.18154296278953552,0.538415789604187,-0.12358617782592773
1684201209040649500,0.9476494140625,-0.193113312125206,0.40923967957496643,-0.15447133779525757
1684201209050674400,0.95767431640625,-0.17604272067546844,0.32000964879989624,-0.18323267996311188
1684201209060698600,0.96769873046875,-0.15078291296958923,0.26052969694137573,-0.21060121059417725
1684201209070723600,0.9777236328125,-0.13070720434188843,0.20340889692306519,-0.23114830255508423
1684201209080748500,0.98774853515625,-0.10663329064846039,0.16203781962394714,-0.2534434199333191
1684201209090773200,0.997773193359375,-0.0854923278093338,0.11022122949361801,-0.2803000807762146
1684201209100798500,1.007798583984375,-0.032794754952192307,0.028905222192406654,-0.29146793484687805
1684201209110823000,1.017822998046875,0.003158185863867402,-0.03116610459983349,-0.2848805785179138
1684201209120848000,1.027847900390625,0.03535101190209389,-0.042374856770038605,-0.27146369218826294
1684201209130872000,1.0378720703125,0.061584483832120895,-0.023545240983366966,-0.25770819187164307
1684201209140897000,1.04789697265625,0.09400180727243423,0.0130162900313735,-0.24268236756324768
1684201209150921700,1.057921630859375,0.21302299201488495,0.061267975717782974,-0.27635136246681213
1684201209160947000,1.067947021484375,0.1851775348186493,0.10590997338294983,-0.22967104613780975
1684201209170972000,1.077971923828125,0.13764730095863342,0.14624594151973724,-0.16038945317268372
1684201209180996900,1.087996826171875,0.12218896299600601,0.15315748751163483,-0.12792590260505676
1684201209191021800,1.098021728515625,0.15056787431240082,0.16379974782466888,-0.14122067391872406
1684201209201046000,1.1080458984375,0.1707218885421753,0.1328134387731552,-0.16443613171577454
1684201209211071000,1.118071044921875,0.16986754536628723,0.05114440247416496,-0.16120998561382294
1684201209221096000,1.128095947265625,0.1700454205274582,-0.024946844205260277,-0.13470487296581268
1684201209231121000,1.138120849609375,0.20276448130607605,-0.048224467784166336,-0.0854337140917778
1684201209241145900,1.148145751953125,0.3599168360233307,-0.013607350178062916,-0.07091451436281204
1684201209251170800,1.1581708984375,0.39187318086624146,-0.012790292501449585,-0.031653665006160736
1684201209261195000,1.168195068359375,0.4170418977737427,-0.03791002929210663,0.054044995456933975
1684201209271220000,1.178219970703125,0.44470441341400146,-0.019596533849835396,0.13348761200904846
1684201209281245000,1.188244873046875,0.4756610095500946,0.05198659002780914,0.20054127275943756
1684201209291270100,1.198270263671875,0.5160624384880066,0.1515139937400818,0.26278600096702576
1684201209301295000,1.208295166015625,0.5765039920806885,0.25014105439186096,0.31140756607055664
1684201209311319800,1.21831982421875,0.6857345700263977,0.30408740043640137,0.3458036184310913
1684201209321344800,1.2283447265625,0.7709326148033142,0.29366499185562134,0.4122201204299927
1684201209331369000,1.238368896484375,0.7129217982292175,0.2113988846540451,0.457702100276947
1684201209341394000,1.248393798828125,0.7187738418579102,0.03626163303852081,0.5055791735649109
1684201209351419000,1.2584189453125,0.7385169267654419,-0.23376771807670593,0.6585607528686523
1684201209361444000,1.268444091796875,0.7295119762420654,-0.515133798122406,0.8845847249031067
1684201209371469000,1.278468994140625,0.6847977638244629,-0.7450159788131714,1.0680571794509888
1684201209381494000,1.288493896484375,0.5780075788497925,-0.7712165713310242,1.1581648588180542
1684201209391518700,1.298518798828125,0.4994518458843231,-0.6962531208992004,1.1698604822158813
1684201209401543000,1.30854296875,0.42510488629341125,-0.5985963940620422,1.1137036085128784
1684201209411567900,1.31856787109375,0.35233640670776367,-0.6109830141067505,1.0153106451034546
1684201209421592800,1.3285927734375,0.29814615845680237,-0.6442115902900696,1.0194469690322876
1684201209431618000,1.3386181640625,0.2257598340511322,-0.6542186737060547,1.1178539991378784
1684201209441643000,1.34864306640625,0.2393411546945572,-0.5870077013969421,1.204103946685791
1684201209451668000,1.35866796875,0.27606746554374695,-0.46414992213249207,1.2225128412246704
1684201209461693000,1.36869287109375,0.33861714601516724,-0.23640501499176025,1.2294301986694336
1684201209471716900,1.378716796875,0.4861477315425873,0.13906635344028473,1.1898671388626099
1684201209481741800,1.388741943359375,0.6346786022186279,0.5793344378471375,1.1035573482513428
1684201209491767000,1.39876708984375,0.8986527323722839,0.8202844262123108,0.9239670634269714
1684201209501792000,1.4087919921875,1.0151973962783813,0.9141300916671753,0.7059229612350464
1684201209511817000,1.41881689453125,1.0869898796081543,0.6942102909088135,0.5112512111663818
1684201209521842000,1.428842041015625,1.110906958580017,0.31627708673477173,0.34267789125442505
1684201209531865900,1.438865966796875,1.0673909187316895,-0.24589435756206512,0.1797097623348236
1684201209541890800,1.448890869140625,0.97163987159729,-0.9894810318946838,0.00922953151166439
1684201209551915800,1.458915771484375,0.8435988426208496,-1.6335997581481934,-0.057717278599739075
1684201209561941000,1.46894091796875,0.7614279985427856,-2.0269246101379395,0.01051933690905571
1684201209571966000,1.478966064453125,0.7038544416427612,-2.0046119689941406,0.14422786235809326
1684201209581991000,1.488990966796875,0.6620162129402161,-1.4189504384994507,0.26194506883621216
1684201209592016000,1.499015869140625,0.6225428581237793,-0.6529700756072998,0.28120744228363037
1684201209602040000,1.5090400390625,0.4829216003417969,-0.11007541418075562,0.24123631417751312
1684201209612064800,1.519064697265625,0.3264845609664917,0.08335956186056137,0.1868409812450409
1684201209622090000,1.529090087890625,0.22939106822013855,0.057862378656864166,0.13300086557865143
1684201209632115000,1.539114990234375,0.20117966830730438,-0.06683507561683655,0.09884900599718094
1684201209642140000,1.549139892578125,0.22369614243507385,-0.2786597013473511,0.06961748749017715
1684201209652164900,1.559164794921875,0.1955513209104538,-0.2961942255496979,0.08323236554861069
1684201209662190000,1.569190185546875,0.14565514028072357,-0.25024649500846863,0.08750606328248978
1684201209672214000,1.579214111328125,0.11192433536052704,-0.21036513149738312,0.05556917190551758
1684201209682239000,1.589239013671875,0.08016082644462585,-0.10557014495134354,-0.015417587012052536
1684201209692264000,1.599263916015625,0.06147848442196846,0.010741549544036388,-0.11434949934482574
1684201209702289000,1.609288818359375,0.06267823278903961,0.0832509845495224,-0.2267698496580124
1684201209712313900,1.61931396484375,0.03564448282122612,0.0550726056098938,-0.35349664092063904
1684201209722338800,1.6293388671875,-0.0440032035112381,-0.145961195230484,-0.4606142044067383
1684201209732364000,1.639364013671875,-0.15789489448070526,-0.2148747444152832,-0.48004409670829773
1684201209742388000,1.649387939453125,-0.24565669894218445,-0.3104003667831421,-0.4636884033679962
1684201209752413000,1.659412841796875,-0.33389708399772644,-0.4370397925376892,-0.4065558910369873
1684201209762438100,1.669438232421875,-0.39367014169692993,-0.5108776688575745,-0.31336262822151184
1684201209772462800,1.679462890625,-0.41839250922203064,-0.501203179359436,-0.19305141270160675
1684201209782487800,1.68948779296875,-0.41125205159187317,-0.4757693409919739,-0.07756588608026505
1684201209792512800,1.6995126953125,-0.42012545466423035,-0.4592907428741455,0.03480326756834984
1684201209802537000,1.709536865234375,-0.42304614186286926,-0.4399946928024292,0.12765799462795258
1684201209812562000,1.71956201171875,-0.3812512755393982,-0.42237550020217896,0.20822474360466003
1684201209822587100,1.729587158203125,-0.3350726068019867,-0.40321967005729675,0.3031662702560425
1684201209832612000,1.739612060546875,-0.27330324053764343,-0.2998866140842438,0.39151665568351746
1684201209842636800,1.74963671875,-0.16116896271705627,0.0491945706307888,0.5028734803199768
1684201209852661800,1.759661865234375,-0.11613491922616959,0.3534596562385559,0.5250129103660583
1684201209862687000,1.76968701171875,-0.08917441964149475,0.6165043115615845,0.5017746686935425
1684201209872711000,1.7797109375,-0.061582472175359726,0.7868344783782959,0.4217267334461212
1684201209882735900,1.78973583984375,-0.04786241054534912,0.8854581117630005,0.23317615687847137
1684201209892761000,1.799760986328125,-0.06291965395212173,0.86075758934021,-0.08870095014572144
1684201209902786000,1.8097861328125,-0.107783243060112,0.6050304174423218,-0.4103969931602478
1684201209912811000,1.81981103515625,-0.1957344114780426,-0.05032692104578018,-0.6968823075294495
1684201209922835700,1.829835693359375,-0.2332754135131836,-0.6106926798820496,-0.973292350769043
1684201209932860000,1.83985986328125,-0.22695758938789368,-0.9047144651412964,-1.175492763519287
1684201209942884900,1.849884765625,-0.15470975637435913,-0.6301330924034119,-1.0253455638885498
1684201209952909800,1.859909912109375,-0.14452557265758514,-0.14632359147071838,-0.6407029032707214
1684201209962935000,1.86993505859375,-0.190416619181633,0.19224943220615387,-0.29564720392227173
1684201209972960000,1.8799599609375,-0.288353830575943,0.4225987493991852,-0.09833118319511414
1684201209982985000,1.88998486328125,-0.4079856872558594,0.4477503001689911,-0.05691123381257057
1684201209993010000,1.900010009765625,-0.5005576610565186,0.28730204701423645,-0.1504228115081787
1684201210003033900,1.910033935546875,-0.6563462018966675,-0.03869950398802757,-0.3460192084312439
1684201210013058800,1.920058837890625,-0.6092092990875244,-0.17164716124534607,-0.48334723711013794
1684201210023084000,1.930083984375,-0.5324791073799133,-0.25373056530952454,-0.5459151864051819
1684201210033109000,1.94010888671875,-0.546402096748352,-0.31746959686279297,-0.45669740438461304
1684201210043134000,1.950134033203125,-0.5487167239189148,-0.24960124492645264,-0.23083113133907318
1684201210053159000,1.960158935546875,-0.5756122469902039,-0.15801967680454254,-0.009172237478196621
1684201210063184100,1.97018408203125,-0.5886199474334717,-0.016122648492455482,0.16482052206993103
1684201210073207800,1.980207763671875,-0.5684033632278442,0.1769019365310669,0.24925576150417328
1684201210083232800,1.990232666015625,-0.5265725255012512,0.3709453344345093,0.33611342310905457
1684201210093258000,2.000258056640625,-0.44831687211990356,0.5778260231018066,0.3870048224925995
1684201210103283000,2.010282958984375,-0.3740098774433136,0.8470167517662048,0.39984601736068726
1684201210113308200,2.02030810546875,-0.27843356132507324,1.0497632026672363,0.38537946343421936
1684201210123333000,2.0303330078125,-0.18031790852546692,1.019663691520691,0.3438008725643158
1684201210133357300,2.040357421875,-0.10432513058185577,0.8209097981452942,0.2504059374332428
1684201210143382300,2.05038232421875,-0.061216291040182114,0.5948867797851562,0.09458664059638977
1684201210153407200,2.0604072265625,0.08241251111030579,0.4903004765510559,-0.05837228521704674
1684201210163432400,2.070432373046875,0.2451673448085785,0.40121835470199585,-0.19195327162742615
1684201210173457400,2.08045751953125,0.3504894971847534,0.30800026655197144,-0.2630072236061096
1684201210183482000,2.090482177734375,0.4107685685157776,0.24093639850616455,-0.2220715582370758
1684201210193507000,2.100507080078125,0.36861711740493774,0.1986699104309082,-0.09774721413850784
1684201210203531300,2.11053125,0.3080781400203705,0.15149939060211182,0.08438258618116379
1684201210213556200,2.12055615234375,0.2480912208557129,0.038848210126161575,0.14096011221408844
1684201210223581400,2.13058154296875,0.18351437151432037,0.2587077021598816,0.20950843393802643
1684201210233606400,2.1406064453125,0.22674599289894104,0.608877420425415,0.2549283504486084
1684201210243631400,2.15063134765625,0.21156971156597137,0.7327257990837097,0.2281806766986847
1684201210253656300,2.16065625,0.0871627926826477,0.6865116953849792,0.18487688899040222
1684201210263680300,2.17068017578125,-0.07441971451044083,0.5084042549133301,0.1346941739320755
1684201210273705200,2.180705322265625,-0.24861255288124084,0.3344572186470032,0.05532052740454674
1684201210283730200,2.190730224609375,-0.39491674304008484,0.16117607057094574,-0.08382122963666916
1684201210293755400,2.20075537109375,-0.49472084641456604,0.10014574974775314,-0.1770148128271103
1684201210303780400,2.2107802734375,-0.5736750364303589,0.1128382459282875,-0.1876857876777649
1684201210313805300,2.220805419921875,-0.67207270860672,0.10311078280210495,-0.11916238069534302
1684201210323830300,2.230830322265625,-0.79220050573349,-0.011524282395839691,-0.0772203579545021
1684201210333854200,2.240854248046875,-0.914056122303009,-0.19986702501773834,-0.12416522949934006
1684201210343879200,2.250879150390625,-1.0008004903793335,-0.37312084436416626,-0.2319411039352417
1684201210353904000,2.260904052734375,-1.0515007972717285,-0.4383816123008728,-0.33213159441947937
1684201210363929300,2.270929443359375,-1.0566630363464355,-0.2898809015750885,-0.38242191076278687
1684201210373954300,2.280954345703125,-1.0226792097091675,-0.07467830926179886,-0.43288615345954895
1684201210383979300,2.290979248046875,-0.9794492125511169,0.06547226756811142,-0.4572122097015381
1684201210394003500,2.30100341796875,-0.9496175646781921,0.06571675091981888,-0.44776013493537903
1684201210404028200,2.311028076171875,-0.9410807490348816,-0.0809263363480568,-0.4121870696544647
1684201210414053000,2.32105322265625,-0.9478304982185364,-0.2673012614250183,-0.38750916719436646
1684201210424078300,2.331078369140625,-0.991543173789978,-0.35684922337532043,-0.2552151083946228
1684201210434103300,2.341103271484375,-0.8372734189033508,0.04294050112366676,0.0211179181933403
1684201210444128300,2.351128173828125,-0.22530828416347504,0.7345529794692993,0.1036609411239624
1684201210454153200,2.3611533203125,0.05851943418383598,0.6993502974510193,-0.016363199800252914
1684201210464177400,2.371177490234375,-0.11261583119630814,0.5354757308959961,0.015696588903665543
1684201210474202000,2.3812021484375,-0.13521701097488403,0.4881548285484314,0.042057622224092484
1684201210484227000,2.39122705078125,-0.15225060284137726,0.56732577085495,-0.003382668364793062
1684201210494252300,2.401252197265625,-0.1627325415611267,0.6813111901283264,-0.0387856662273407
1684201210504277200,2.41127734375,-0.16937977075576782,0.7378708124160767,-0.03571260720491409
1684201210514302200,2.42130224609375,-0.1826566904783249,0.8038090467453003,0.010483117774128914
1684201210524327200,2.4313271484375,-0.2095772624015808,0.8446037173271179,0.07197529822587967
1684201210534351400,2.441351318359375,-0.20796045660972595,0.8932847380638123,0.1389005333185196
1684201210544376300,2.451376220703125,-0.23455345630645752,0.967790961265564,0.16720697283744812
1684201210554401300,2.4614013671875,-0.2517854571342468,1.0072184801101685,0.14560286700725555
1684201210564426200,2.47142626953125,-0.2379780262708664,0.9867967367172241,0.1142074316740036
1684201210574451200,2.481451171875,-0.22463078796863556,0.8882925510406494,0.06680715084075928
1684201210584476200,2.49147607421875,-0.20206527411937714,0.771390438079834,0.01663430593907833
1684201210594500400,2.501500244140625,-0.1825147420167923,0.6726329326629639,-0.0013857058947905898
1684201210604525300,2.511525390625,-0.162893146276474,0.5681191086769104,0.01349817868322134
1684201210614550300,2.52155029296875,-0.14319001138210297,0.49222487211227417,0.03177545219659805
1684201210624575500,2.531575439453125,-0.12301520258188248,0.453853577375412,0.04144606739282608
1684201210634600200,2.54160009765625,-0.10277677327394485,0.38934701681137085,0.028362222015857697
1684201210644625200,2.551625244140625,-0.09505600482225418,0.2848372757434845,0.009628862142562866
1684201210654649300,2.5616494140625,-0.09629730135202408,0.16399578750133514,-0.0064419833943247795
1684201210664674300,2.57167431640625,-0.09506559371948242,0.0724644735455513,-0.004456387832760811
1684201210674699300,2.58169921875,-0.10250353813171387,0.0030555736739188433,-0.011039722710847855
1684201210684724200,2.59172412109375,-0.10173948854207993,-0.05093199014663696,-0.03089282661676407
1684201210694749400,2.60174951171875,-0.10456536710262299,-0.06963963806629181,-0.03678826615214348
1684201210704774400,2.6117744140625,-0.1317615509033203,-0.10153280943632126,-0.04848530516028404
1684201210714799000,2.621799072265625,-0.16118282079696655,-0.13760054111480713,-0.048928454518318176
1684201210724823300,2.6318232421875,-0.18830393254756927,-0.20241977274417877,-0.05856560170650482
1684201210734848300,2.64184814453125,-0.22015559673309326,-0.2739240527153015,-0.10067123919725418
1684201210744873200,2.651873291015625,-0.2251807302236557,-0.34021759033203125,-0.173432856798172
1684201210754898400,2.6618984375,-0.2199670672416687,-0.3777628540992737,-0.23579955101013184
1684201210764923400,2.67192333984375,-0.20906861126422882,-0.40949398279190063,-0.2755889296531677
1684201210774948400,2.6819482421875,-0.19454745948314667,-0.41103941202163696,-0.28382954001426697
1684201210784972300,2.69197216796875,-0.2061159610748291,-0.3878590166568756,-0.23768052458763123
1684201210794997200,2.701997314453125,-0.23524774610996246,-0.37999922037124634,-0.18065345287322998
1684201210805022200,2.712022216796875,-0.23858973383903503,-0.31735870242118835,-0.14226046204566956
1684201210815047200,2.722047119140625,-0.25071483850479126,-0.3119908273220062,-0.12263163924217224
1684201210825072400,2.732072265625,-0.263439416885376,-0.3087689280509949,-0.11775539070367813
1684201210835097300,2.742097412109375,-0.2715229094028473,-0.26713815331459045,-0.12960778176784515
1684201210845122300,2.752122314453125,-0.2636924386024475,-0.22268874943256378,-0.1355515420436859
1684201210855146200,2.762146240234375,-0.23496891558170319,-0.22025328874588013,-0.1337919980287552
1684201210865171200,2.772171142578125,-0.2046312391757965,-0.2639564573764801,-0.13718855381011963
1684201210875196200,2.782196044921875,-0.1764398068189621,-0.30946749448776245,-0.13225717842578888
1684201210885221000,2.79222119140625,-0.15310359001159668,-0.3369119167327881,-0.11862988770008087
1684201210895246300,2.802246337890625,-0.14266160130500793,-0.3536967635154724,-0.1089053526520729
1684201210905271300,2.812271240234375,-0.1357903927564621,-0.3569633662700653,-0.11240731924772263
1684201210915295500,2.82229541015625,-0.13162361085414886,-0.39773449301719666,-0.1300097405910492
1684201210925320400,2.832320556640625,-0.12687864899635315,-0.43796974420547485,-0.1677604466676712
1684201210935345200,2.84234521484375,-0.13302069902420044,-0.4732358455657959,-0.2181764841079712
1684201210945370000,2.8523701171875,-0.1509578973054886,-0.5179463028907776,-0.26536187529563904
1684201210955395300,2.862395263671875,-0.1819983720779419,-0.5471092462539673,-0.31812310218811035
1684201210965420300,2.872420166015625,-0.20642542839050293,-0.5444605946540833,-0.40745243430137634
1684201210975445200,2.8824453125,-0.2056158185005188,-0.5769322514533997,-0.4685647785663605
1684201210985469400,2.892469482421875,-0.20584431290626526,-0.6543094515800476,-0.4680284261703491
1684201210995494400,2.902494384765625,-0.23854900896549225,-0.7178165316581726,-0.46819567680358887
1684201211005519400,2.912519287109375,-0.2862459421157837,-0.817598819732666,-0.4252552092075348
1684201211015544000,2.9225439453125,-0.3491884171962738,-0.7309951782226562,-0.2948130667209625
1684201211025569300,2.9325693359375,-0.43779125809669495,-0.711124062538147,-0.21470944583415985
1684201211035594200,2.94259423828125,-0.5001049637794495,-0.7799260020256042,-0.2301453948020935
1684201211045618200,2.9526181640625,-0.5254105925559998,-0.8524131178855896,-0.30695971846580505
1684201211055643400,2.962643310546875,-0.5081778168678284,-0.8556309938430786,-0.4050908088684082
1684201211065668400,2.97266845703125,-0.47899356484413147,-0.7584001421928406,-0.519931972026825
1684201211075693300,2.982693359375,-0.42236727476119995,-0.6907289624214172,-0.6232487559318542
1684201211085718300,2.99271826171875,-0.3545728325843811,-0.6673195362091064,-0.6641080379486084
1684201211095743200,3.0027431640625,-0.3006880283355713,-0.627894401550293,-0.6201698780059814
1684201211105768200,3.012768310546875,-0.2558600604534149,-0.5996007323265076,-0.5591294169425964
1684201211115792000,3.0227919921875,-0.24734142422676086,-0.5276407599449158,-0.5007718205451965
1684201211125816800,3.03281689453125,-0.2620236873626709,-0.41604194045066833,-0.4427932798862457
1684201211135841800,3.042841796875,-0.2756316363811493,-0.29526758193969727,-0.42136630415916443
1684201211145866800,3.05286669921875,-0.2927775979042053,-0.14704814553260803,-0.4197840988636017
1684201211155892000,3.06289208984375,-0.33970171213150024,-0.01348421722650528,-0.40729814767837524
1684201211165917000,3.0729169921875,-0.382425457239151,0.04497325420379639,-0.4063476324081421
1684201211175940900,3.08294091796875,-0.39870962500572205,0.021504413336515427,-0.40970003604888916
1684201211185966000,3.092966064453125,-0.38654059171676636,-0.032081183046102524,-0.42556971311569214
1684201211195990800,3.10299072265625,-0.31241574883461,-0.03605062514543533,-0.43837419152259827
1684201211206015700,3.113015625,-0.20969097316265106,0.04856973513960838,-0.4184417426586151
1684201211216041000,3.123041015625,-0.08581351488828659,0.1760491281747818,-0.3379788398742676
1684201211226066000,3.13306591796875,0.03881815820932388,0.26090800762176514,-0.1989925652742386
1684201211236089900,3.14308984375,0.16339311003684998,0.3504576086997986,-0.02221193164587021
1684201211246115000,3.153114990234375,0.32502517104148865,0.478855699300766,0.15537992119789124
1684201211256140000,3.16314013671875,0.4859647750854492,0.5543655753135681,0.30830609798431396
1684201211266164700,3.173164794921875,0.6424683332443237,0.5355607271194458,0.4425744116306305
1684201211276189700,3.183189697265625,0.7798733115196228,0.47485634684562683,0.5708774924278259
1684201211286215000,3.19321484375,0.885870099067688,0.44028452038764954,0.6933168768882751
1684201211296239900,3.203239990234375,0.9651148319244385,0.4766579866409302,0.8164358735084534
1684201211306263800,3.213263916015625,1.0203298330307007,0.6264464855194092,0.9473439455032349
1684201211316289000,3.2232890625,1.0607484579086304,0.8383866548538208,1.0763897895812988
1684201211326314000,3.23331396484375,1.0644696950912476,0.935552179813385,1.1664061546325684
1684201211336339000,3.2433388671875,1.0734496116638184,1.0811176300048828,1.3037354946136475
1684201211346364000,3.253364013671875,1.1200900077819824,1.1764225959777832,1.4475752115249634
1684201211356388900,3.263388916015625,1.1602566242218018,1.15477454662323,1.5773204565048218
1684201211366412800,3.273412841796875,1.1991395950317383,1.115524172782898,1.7473320960998535
1684201211376438000,3.28343798828125,1.2027931213378906,1.2408841848373413,1.975691795349121
1684201211386463000,3.293462890625,1.1398770809173584,1.448962688446045,2.071321725845337
1684201211396488000,3.303488037109375,1.036636471748352,1.460510492324829,1.970916986465454
1684201211406513000,3.313512939453125,0.9579711556434631,1.4152017831802368,1.8338347673416138
1684201211416538000,3.3235380859375,1.0138064622879028,1.287123680114746,1.65239417552948
1684201211426561800,3.333561767578125,1.1696828603744507,1.186511754989624,1.480067491531372
1684201211436586800,3.343586669921875,1.2638757228851318,0.8815576434135437,1.3176774978637695
1684201211446612000,3.353612060546875,1.2231024503707886,0.4711162745952606,1.2041316032409668
1684201211456637000,3.363636962890625,1.183483600616455,0.13572175800800323,1.1299265623092651
1684201211466662000,3.373661865234375,1.1607857942581177,-0.28152334690093994,1.054579257965088
1684201211476686800,3.383686767578125,1.0966483354568481,-0.6875462532043457,1.0446256399154663
1684201211486712000,3.393712158203125,0.966550350189209,-1.0862033367156982,1.128607153892517
1684201211496735700,3.40373583984375,0.8416566252708435,-1.281076192855835,1.2523682117462158
1684201211506761000,3.413760986328125,0.7542169690132141,-1.0083138942718506,1.3235820531845093
1684201211516786000,3.423785888671875,0.7164245843887329,-0.3425992429256439,1.2649084329605103
1684201211526811000,3.433810791015625,0.6923536062240601,0.2922181189060211,1.0798131227493286
1684201211536835800,3.4438359375,0.6493837833404541,0.5562439560890198,0.8632640242576599
1684201211546861000,3.453861083984375,0.6130989789962769,0.4244464039802551,0.6961196064949036
1684201211556885000,3.463885009765625,0.6151579022407532,0.09882169961929321,0.550750732421875
1684201211566909700,3.47390966796875,0.5972249507904053,-0.21220161020755768,0.40252816677093506
1684201211576935000,3.483934814453125,0.5613085031509399,-0.3406469523906708,0.2317233830690384
1684201211586960000,3.4939599609375,0.543743908405304,-0.35308536887168884,0.046048399060964584
1684201211596984800,3.50398486328125,0.5368865132331848,-0.34626954793930054,-0.11917757987976074
1684201211607009800,3.514009765625,0.4980451166629791,-0.36507925391197205,-0.24645018577575684
1684201211617035000,3.524034912109375,0.46232736110687256,-0.3353053629398346,-0.31936514377593994
1684201211627059000,3.534058837890625,0.3967975974082947,-0.24128179252147675,-0.37441661953926086
1684201211637084000,3.544083984375,0.35390204191207886,-0.07371596246957779,-0.44596484303474426
1684201211647108900,3.55410888671875,0.3330361843109131,0.12511490285396576,-0.5101706981658936
1684201211657133800,3.5641337890625,0.30517739057540894,0.3071430027484894,-0.5870846509933472
1684201211667158800,3.57415869140625,0.2250349074602127,0.4223007559776306,-0.6555220484733582
1684201211677183700,3.584183837890625,0.10218540579080582,0.40578916668891907,-0.7250491976737976
1684201211687209000,3.594208984375,-0.03679564222693443,0.4391544461250305,-0.7255418300628662
1684201211697233000,3.60423291015625,-0.19874832034111023,0.40910521149635315,-0.7101309299468994
1684201211707258000,3.614258056640625,-0.3477569818496704,0.300320029258728,-0.6681069135665894
1684201211717283000,3.624282958984375,-0.5083248615264893,0.0353245809674263,-0.6314546465873718
1684201211727307800,3.634307861328125,-0.6197988986968994,-0.18967768549919128,-0.5237472653388977
1684201211737332700,3.644332763671875,-0.6914557814598083,-0.4091794192790985,-0.3815901577472687
1684201211747358000,3.65435791015625,-0.7265650033950806,-0.5476723313331604,-0.23047968745231628
1684201211757382000,3.6643818359375,-0.710457980632782,-0.5823674201965332,-0.07465972751379013
1684201211767406800,3.67440673828125,-0.665184736251831,-0.5601880550384521,0.020593751221895218
1684201211777432000,3.68443212890625,-0.6057366132736206,-0.35824695229530334,0.015509777702391148
1684201211787457000,3.69445703125,-0.5404175519943237,-0.028475284576416016,-0.07519937306642532
1684201211797482000,3.70448193359375,-0.4698897898197174,0.33947664499282837,-0.2038407176733017
1684201211807506700,3.714506591796875,-0.44210636615753174,0.6327864527702332,-0.3229629099369049
1684201211817531000,3.72453076171875,-0.4114472568035126,0.7760453820228577,-0.4018939435482025
1684201211827555800,3.734555908203125,-0.36774933338165283,0.7491764426231384,-0.45430150628089905
1684201211837580800,3.744580810546875,-0.34689387679100037,0.5626446008682251,-0.5334264039993286
1684201211847606000,3.75460595703125,-0.33344992995262146,0.25181078910827637,-0.6446871161460876
1684201211857631000,3.764630859375,-0.313012033700943,-0.13753162324428558,-0.7574842572212219
1684201211867656000,3.774656005859375,-0.25987374782562256,-0.5362151265144348,-0.8508702516555786
1684201211877679900,3.784679931640625,-0.18959078192710876,-0.8381257057189941,-0.9153823852539062
1684201211887704800,3.794704833984375,-0.13014823198318481,-0.9480099678039551,-0.9407725930213928
1684201211897729800,3.804729736328125,-0.09560757130384445,-0.8924689292907715,-0.8952834010124207
1684201211907755000,3.814755126953125,-0.11072391271591187,-0.7659204602241516,-0.7911975979804993
1684201211917780000,3.824780029296875,-0.1698911041021347,-0.6429351568222046,-0.6987504959106445
1684201211927805000,3.834804931640625,-0.24034877121448517,-0.6204962134361267,-0.6653554439544678
1684201211937830000,3.844829833984375,-0.3238189220428467,-0.6760321855545044,-0.6748027801513672
1684201211947853800,3.854853759765625,-0.432174414396286,-0.7564734816551208,-0.7268191576004028
1684201211957878800,3.864878662109375,-0.6018627882003784,-0.8729045391082764,-0.7946405410766602
1684201211967903700,3.87490380859375,-0.7770300507545471,-1.04168701171875,-0.8471279144287109
1684201211977929000,3.884928955078125,-0.8979492783546448,-1.2538881301879883,-0.8658283948898315
1684201211987954000,3.894953857421875,-0.93551105260849,-1.4617094993591309,-0.836414635181427
1684201211997979000,3.904978759765625,-0.8629311323165894,-1.5922887325286865,-0.7343588471412659
1684201212008003000,3.915003173828125,-0.8649482131004333,-1.5993926525115967,-0.5443011522293091
1684201212018027800,3.92502783203125,-0.9581279754638672,-1.5471800565719604,-0.34282422065734863
1684201212028052700,3.935052734375,-0.9504694938659668,-1.4681302309036255,-0.17598356306552887
1684201212038078000,3.945077880859375,-0.842265784740448,-1.3076670169830322,-0.09328976273536682
1684201212048103000,3.95510302734375,-0.6922730803489685,-0.9828166365623474,-0.12044735997915268
1684201212058128000,3.9651279296875,-0.5316488146781921,-0.6123672127723694,-0.197462260723114
1684201212068152000,3.975152099609375,-0.3902445137500763,-0.28683945536613464,-0.23833157122135162
1684201212078177000,3.985177001953125,-0.3120628893375397,-0.10264698415994644,-0.28841763734817505
1684201212088202000,3.995201904296875,-0.25641053915023804,-0.027625545859336853,-0.3510960042476654
1684201212098226700,4.005226806640625,-0.1716354787349701,0.034053001552820206,-0.3747933506965637
1684201212108252000,4.015251953125,-0.052207618951797485,0.2384440302848816,-0.32332131266593933
1684201212118277600,4.025277587890625,0.09673765301704407,0.4697057604789734,-0.23693394660949707
1684201212128302300,4.03530224609375,0.2531405985355377,0.5262740254402161,-0.15642358362674713
1684201212138326500,4.045326416015625,0.36176374554634094,0.3747204542160034,-0.06799386441707611
1684201212148351500,4.0553515625,0.439019113779068,0.13588164746761322,0.10349327325820923
1684201212158376400,4.06537646484375,0.5162661671638489,-0.033662378787994385,0.35772421956062317
1684201212168401400,4.0754013671875,0.5287691950798035,-0.08462310582399368,0.6072145104408264
1684201212178426600,4.085426513671875,0.4694254696369171,-0.024105701595544815,0.6785470247268677
1684201212188451600,4.09545166015625,0.37308162450790405,0.02356427162885666,0.5543172955513
1684201212198475300,4.105475341796875,0.2658052444458008,-0.07591278105974197,0.3002086281776428
1684201212208500500,4.11550048828125,0.11196161061525345,-0.3656361997127533,-0.001265483908355236
1684201212218525400,4.125525390625,-0.044586457312107086,-0.6168447136878967,-0.2497253566980362
1684201212228550400,4.13555029296875,-0.1729617416858673,-0.7066302299499512,-0.44042864441871643
1684201212238575400,4.145575439453125,-0.22355780005455017,-0.7112193703651428,-0.5143662691116333
1684201212248600600,4.1556005859375,-0.3095739185810089,-0.7125754952430725,-0.49541762471199036
1684201212258624500,4.16562451171875,-0.4470455050468445,-0.6314018368721008,-0.4043388366699219
1684201212268649200,4.175649169921875,-0.5143632888793945,-0.4447953402996063,-0.2634641230106354
1684201212278674400,4.18567431640625,-0.5114516615867615,-0.2645067870616913,-0.11663230508565903
1684201212288699400,4.195699462890625,-0.45963290333747864,-0.14409354329109192,-0.05006033927202225
1684201212298724400,4.205724365234375,-0.3542763888835907,-0.07711132615804672,-0.014138824306428432
1684201212308749300,4.215749267578125,-0.2228107899427414,-0.18896879255771637,0.04663536697626114
1684201212318774500,4.2257744140625,-0.1436254233121872,-0.42875316739082336,0.02486402541399002
1684201212328798500,4.235798583984375,-0.09018082171678543,-0.6263859868049622,-0.07769092172384262
1684201212338823700,4.24582373046875,0.016797557473182678,-0.5395078659057617,-0.23026955127716064
1684201212348848400,4.255848388671875,0.12264274805784225,-0.3354692757129669,-0.34794703125953674
1684201212358873300,4.265873291015625,0.25516510009765625,-0.18003840744495392,-0.4752509295940399
1684201212368898300,4.275898193359375,0.33317601680755615,-0.06062624230980873,-0.5856635570526123
1684201212378923500,4.285923583984375,0.35361790657043457,0.1132507398724556,-0.5785992741584778
1684201212388947500,4.295947509765625,0.3195107877254486,0.25954991579055786,-0.48031774163246155
1684201212398972400,4.305972412109375,0.2063075453042984,0.3317010998725891,-0.3561275899410248
1684201212408997600,4.31599755859375,0.03599758818745613,0.28795990347862244,-0.25648197531700134
1684201212419022600,4.326022705078125,-0.11830995976924896,0.25893038511276245,-0.18044395744800568
1684201212429047300,4.33604736328125,-0.21926240622997284,0.2441370189189911,-0.0960480272769928
1684201212439072300,4.346072265625,-0.33943861722946167,0.2774590253829956,-0.05001422017812729
1684201212449096400,4.356096435546875,-0.38132691383361816,0.27070915699005127,-0.019906669855117798
1684201212459121400,4.366121337890625,-0.32983842492103577,0.19142629206180573,-0.030118294060230255
1684201212469146400,4.376146484375,-0.30424201488494873,0.1738254576921463,-0.06736274063587189
1684201212479171600,4.386171630859375,-0.3093433082103729,0.11588679999113083,-0.11202900856733322
1684201212489196500,4.396196533203125,-0.29485997557640076,0.039960842579603195,-0.16619060933589935
1684201212499221200,4.40622119140625,-0.24200259149074554,-0.026488756760954857,-0.22860045731067657
1684201212509246500,4.41624658203125,-0.2079751193523407,-0.042099520564079285,-0.2852979898452759
1684201212519270400,4.4262705078125,-0.16432057321071625,-0.04633953794836998,-0.3022894859313965
1684201212529295400,4.43629541015625,-0.13011042773723602,-0.1929149031639099,-0.3704570233821869
1684201212539320600,4.446320556640625,-0.1334465742111206,-0.23429083824157715,-0.43049320578575134
1684201212549345500,4.456345458984375,-0.11720847338438034,-0.09874185919761658,-0.38568219542503357
1684201212559370500,4.46637060546875,-0.09270286560058594,0.11095650494098663,-0.3275216817855835
1684201212569395500,4.4763955078125,-0.08496956527233124,0.2571457326412201,-0.3210371732711792
1684201212579420400,4.48642041015625,-0.07961367815732956,0.3590041995048523,-0.3211924135684967
1684201212589444400,4.4964443359375,-0.0800858661532402,0.429243266582489,-0.27720800042152405
1684201212599469300,4.50646923828125,-0.1046372801065445,0.4795525074005127,-0.17985348403453827
1684201212609494500,4.51649462890625,-0.10962989926338196,0.5931448936462402,-0.06164613738656044
1684201212619519500,4.52651953125,-0.10861842334270477,0.7440550327301025,0.023944931104779243
1684201212629544400,4.53654443359375,-0.10448040813207626,0.8425814509391785,0.07149253785610199
1684201212639569400,4.5465693359375,-0.09742648899555206,0.8367195725440979,0.09748125821352005
1684201212649593300,4.55659326171875,-0.08652325719594955,0.7559919357299805,0.11275137215852737
1684201212659618300,4.566618408203125,-0.07276696711778641,0.6747117042541504,0.11149542778730392
1684201212669643500,4.5766435546875,-0.06351806223392487,0.6154152154922485,0.1149933785200119
1684201212679668500,4.58666845703125,-0.05913076922297478,0.5744752883911133,0.12658292055130005
1684201212689693400,4.596693359375,-0.05406678095459938,0.5157034993171692,0.16007889807224274
1684201212699718400,4.606718505859375,-0.03764839097857475,0.4353378117084503,0.18958033621311188
1684201212709742600,4.61674267578125,-0.00860263779759407,0.36266839504241943,0.16714484989643097
1684201212719767300,4.626767333984375,0.025602202862501144,0.3124627470970154,0.12860730290412903
1684201212729792300,4.636792236328125,0.04600123316049576,0.27611395716667175,0.10125982761383057
1684201212739817500,4.6468173828125,0.0513555184006691,0.23778602480888367,0.08095641434192657
1684201212749842400,4.656842529296875,0.029513327404856682,0.183685764670372,0.05828213319182396
1684201212759867400,4.666867431640625,-0.01512258592993021,0.10724877566099167,0.005728110671043396
1684201212769892400,4.676892333984375,-0.07349373400211334,0.021839646622538567,-0.04653819277882576
1684201212779916500,4.68691650390625,-0.12702620029449463,-0.053499046713113785,-0.07617171853780746
1684201212789941500,4.69694140625,-0.17399291694164276,-0.07446415722370148,-0.10839200019836426
1684201212799966200,4.70696630859375,-0.21606473624706268,-0.0019627921283245087,-0.13838879764080048
1684201212809991400,4.716991455078125,-0.24917981028556824,0.1480458676815033,-0.15860500931739807
1684201212820016400,4.727016357421875,-0.28340062499046326,0.3158226013183594,-0.1547844409942627
1684201212830041300,4.737041259765625,-0.2978155016899109,0.481891930103302,-0.13976508378982544
1684201212840065500,4.7470654296875,-0.31552526354789734,0.6351792216300964,-0.12190378457307816
1684201212850090500,4.757090576171875,-0.338627427816391,0.7689011096954346,-0.09970811009407043
1684201212860115500,4.767115478515625,-0.36896589398384094,0.8771612644195557,-0.08564102649688721
1684201212870140700,4.777140625,-0.40424132347106934,0.9464536905288696,-0.0690094605088234
1684201212880165400,4.787165283203125,-0.44055724143981934,0.9631019234657288,-0.06046551093459129
1684201212890190300,4.7971904296875,-0.46720242500305176,0.9490315914154053,-0.07465075701475143
1684201212900214500,4.807214599609375,-0.4942130148410797,0.943834125995636,-0.1091405600309372
1684201212910239500,4.817239501953125,-0.5086590647697449,0.9059930443763733,-0.14765608310699463
1684201212920264400,4.827264404296875,-0.5168197751045227,0.8379091024398804,-0.18302525579929352
1684201212930289400,4.837289306640625,-0.5204297304153442,0.7561085820198059,-0.21944020688533783
1684201212940314600,4.847314697265625,-0.5258489847183228,0.6898877620697021,-0.25803446769714355
1684201212950339600,4.857339599609375,-0.5325092673301697,0.6898435354232788,-0.2591675817966461
1684201212960364300,4.8673642578125,-0.5691298842430115,0.7254177927970886,-0.24540624022483826
1684201212970388500,4.877388427734375,-0.5613270401954651,0.7348943948745728,-0.2499893307685852
1684201212980413400,4.887413330078125,-0.5242875814437866,0.7260878086090088,-0.27248984575271606
1684201212990438400,4.8974384765625,-0.47171837091445923,0.7066970467567444,-0.31605803966522217
1684201213000463400,4.90746337890625,-0.37613645195961,0.6925767064094543,-0.35169699788093567
1684201213010488600,4.917488525390625,-0.2685484290122986,0.6883435845375061,-0.38198062777519226
1684201213020513500,4.927513427734375,-0.17257291078567505,0.6998960971832275,-0.40802446007728577
1684201213030537500,4.937537353515625,-0.06525364518165588,0.6452761292457581,-0.42437660694122314
1684201213040562400,4.9475625,0.032809801399707794,0.5781455636024475,-0.4137585759162903
1684201213050587400,4.95758740234375,0.12856322526931763,0.5407670140266418,-0.3619498610496521
1684201213060612400,4.9676123046875,0.22838754951953888,0.551363468170166,-0.28759440779685974
1684201213070637600,4.977637451171875,0.32391834259033203,0.5728453397750854,-0.2614888846874237
1684201213080662500,4.98766259765625,0.3962191939353943,0.5058266520500183,-0.27030953764915466
1684201213090686200,4.997686279296875,0.4350922405719757,0.4014127850532532,-0.23277691006660461
1684201213100711400,5.00771142578125,0.44985947012901306,0.28647395968437195,-0.1552506983280182
1684201213110736100,5.017736083984375,0.45114684104919434,0.14313332736492157,-0.08316398411989212
1684201213120761000,5.027760986328125,0.4530677795410156,0.005671861581504345,-0.040655408054590225
1684201213130786300,5.037786376953125,0.4872084856033325,-0.09984081238508224,-0.024361757561564445
1684201213140811300,5.047811279296875,0.4818155765533447,-0.2517557740211487,0.039428673684597015
1684201213150836200,5.057836181640625,0.5077208876609802,-0.3274063766002655,0.13422533869743347
1684201213160860400,5.0678603515625,0.5157636404037476,-0.17744910717010498,0.263408899307251
1684201213170885000,5.077885009765625,0.4662856161594391,0.2132083922624588,0.45748916268348694
1684201213180910000,5.08791015625,0.43738579750061035,0.5003746151924133,0.7195671200752258
1684201213190935000,5.09793505859375,0.44235122203826904,0.5313473343849182,0.9787096977233887
1684201213200960300,5.107960205078125,0.4283752143383026,0.468386173248291,1.181742787361145
1684201213210984200,5.117984130859375,0.4535069465637207,0.3943385183811188,1.3467189073562622
1684201213221009200,5.128009033203125,0.49837350845336914,0.39226043224334717,1.4827214479446411
1684201213231034400,5.138034423828125,0.5848170518875122,0.4720397889614105,1.5584125518798828
1684201213241059300,5.148059326171875,0.6657299995422363,0.5604287385940552,1.5626230239868164
1684201213251084000,5.158083984375,0.7126280069351196,0.5413969159126282,1.4371436834335327
1684201213261109000,5.16810888671875,0.7794256806373596,0.48891904950141907,1.2950022220611572
1684201213271134200,5.17813427734375,0.8935149312019348,0.36926743388175964,1.215852975845337
1684201213281158100,5.188158203125,0.9599698781967163,0.33378666639328003,1.3014544248580933
1684201213291183400,5.198183349609375,0.8514742851257324,0.1801072210073471,1.439785122871399
1684201213301208300,5.208208251953125,0.6587133407592773,-0.2844069004058838,1.4299087524414062
1684201213311233300,5.2182333984375,0.45146989822387695,-0.9385019540786743,1.3745850324630737
1684201213321258200,5.22825830078125,0.212518572807312,-1.467634677886963,1.410971760749817
1684201213331283200,5.238283203125,0.024743616580963135,-1.7550631761550903,1.5537331104278564
1684201213341307100,5.24830712890625,-0.1136494129896164,-1.702405571937561,1.5939351320266724
1684201213351332000,5.25833203125,-0.15412865579128265,-1.4607425928115845,1.5269967317581177
1684201213361357300,5.268357421875,-0.07843310385942459,-1.1877278089523315,1.4221760034561157
1684201213371382300,5.27838232421875,0.05601445958018303,-0.7029324173927307,1.3030952215194702
1684201213381407200,5.2884072265625,0.2530641555786133,-0.4179441034793854,1.1087828874588013
1684201213391432200,5.29843212890625,0.4308170676231384,-0.2550401985645294,0.9336105585098267
1684201213401456000,5.3084560546875,0.5446346998214722,-0.18175852298736572,0.7363649010658264
1684201213411481000,5.318481201171875,0.6444481611251831,-0.20944732427597046,0.4591747522354126
1684201213421506000,5.328506103515625,0.7715402841567993,-0.11211039870977402,0.13845905661582947
1684201213431531300,5.33853125,0.9289059638977051,0.0404147207736969,-0.14750581979751587
1684201213441556200,5.34855615234375,1.0644912719726562,0.04353434592485428,-0.3639289140701294
1684201213451581200,5.358581298828125,1.076697826385498,-0.1958416998386383,-0.5473651885986328
1684201213461605000,5.368605224609375,0.9763051867485046,-0.5764961242675781,-0.7652280330657959
1684201213471630000,5.378630126953125,0.8550745844841003,-0.9544945359230042,-0.9717381000518799
1684201213481655000,5.388655029296875,0.7429336905479431,-1.3549574613571167,-1.1157718896865845
1684201213491680300,5.39868017578125,0.6077399253845215,-1.746740460395813,-1.1636992692947388
1684201213501705200,5.408705322265625,0.5027011036872864,-2.0954525470733643,-1.1593135595321655
1684201213511730200,5.418730224609375,0.4011814296245575,-2.361049175262451,-1.145858645439148
1684201213521754400,5.42875439453125,0.3213406503200531,-2.479726791381836,-1.1216100454330444
1684201213531779300,5.438779296875,0.30700165033340454,-2.3982644081115723,-1.1049994230270386
1684201213541804000,5.448803955078125,0.29126983880996704,-2.2628092765808105,-1.0874022245407104
1684201213551829000,5.4588291015625,0.2699565589427948,-2.1946299076080322,-1.048619270324707
1684201213561854200,5.468854248046875,0.24218592047691345,-2.1852333545684814,-1.0068645477294922
1684201213571879200,5.478879150390625,0.21566058695316315,-2.205078601837158,-0.9255132675170898
1684201213581904100,5.488904052734375,0.21137022972106934,-2.263173818588257,-0.8576998710632324
1684201213591928300,5.49892822265625,0.26460012793540955,-2.291957139968872,-0.8145365715026855
1684201213601953300,5.508953369140625,0.310964971780777,-2.3746349811553955,-0.7400226593017578
1684201213611978200,5.518978271484375,0.35652339458465576,-2.3653321266174316,-0.6577255725860596
1684201213622003200,5.529003173828125,0.44017302989959717,-2.149787425994873,-0.6626095175743103
1684201213632028200,5.539028076171875,0.5271561145782471,-1.8199810981750488,-0.7278751730918884
1684201213642053000,5.54905322265625,0.5158534049987793,-1.685997724533081,-0.8228051066398621
1684201213652077300,5.559077392578125,0.39637094736099243,-1.8575674295425415,-0.8931192755699158
1684201213662102300,5.569102294921875,0.24465759098529816,-2.1876986026763916,-0.9392774105072021
1684201213672127200,5.579127197265625,0.10968221724033356,-2.52005934715271,-0.970221757888794
1684201213682152200,5.589152099609375,-0.0457952618598938,-2.883920907974243,-1.0469516515731812
1684201213692177400,5.599177490234375,-0.13844025135040283,-3.0241286754608154,-1.059112310409546
1684201213702202000,5.6092021484375,-0.20917406678199768,-3.124180555343628,-1.042428731918335
1684201213712226000,5.61922607421875,-0.32604554295539856,-3.2326409816741943,-1.0527540445327759
1684201213722251300,5.629251220703125,-0.45155152678489685,-3.290050506591797,-1.0721458196640015
1684201213732276200,5.639276123046875,-0.5465065836906433,-3.278259515762329,-1.0812416076660156
1684201213742301200,5.64930126953125,-0.5977039933204651,-3.2256970405578613,-1.0994136333465576
1684201213752326100,5.659326171875,-0.5954400300979614,-3.1409125328063965,-1.1432554721832275
1684201213762351400,5.669351318359375,-0.5160738229751587,-3.0312349796295166,-1.2282960414886475
1684201213772375000,5.679375,-0.3752932548522949,-2.9595844745635986,-1.3368264436721802
1684201213782400300,5.689400146484375,-0.196370929479599,-2.9815292358398438,-1.4493337869644165
1684201213792425200,5.69942529296875,-0.0404156856238842,-3.072504758834839,-1.577467679977417
1684201213802450200,5.7094501953125,0.057770002633333206,-3.1768674850463867,-1.7276183366775513
1684201213812475100,5.71947509765625,0.08528870344161987,-3.296517848968506,-1.8526976108551025
1684201213822500400,5.729500244140625,0.07684515416622162,-3.443777561187744,-1.9077686071395874
1684201213832524300,5.739524169921875,0.058816369622945786,-3.6590704917907715,-1.8804223537445068
1684201213842549000,5.749549072265625,0.020827975124120712,-3.936100959777832,-1.7829439640045166
1684201213852574200,5.75957421875,-0.02541062980890274,-4.20380163192749,-1.6318541765213013
1684201213862599200,5.76959912109375,-0.058959268033504486,-4.454471588134766,-1.4378564357757568
1684201213872624000,5.7796240234375,-0.06317558884620667,-4.647741794586182,-1.2474712133407593
1684201213882649000,5.789649169921875,-0.022684622555971146,-4.672374725341797,-1.11793851852417
1684201213892674300,5.79967431640625,0.05172863230109215,-4.547163009643555,-1.0571668148040771
1684201213902698200,5.8096982421875,0.13129936158657074,-4.339180946350098,-1.049548864364624
1684201213912723200,5.81972314453125,0.2011181116104126,-4.114524841308594,-1.055298089981079
1684201213922748200,5.829748046875,0.2605055570602417,-3.9012155532836914,-1.0286033153533936
1684201213932773000,5.839773193359375,0.27451321482658386,-3.6833040714263916,-0.9675105810165405
1684201213942798000,5.849798095703125,0.23733843863010406,-3.4766037464141846,-0.9232621788978577
1684201213952823000,5.859822998046875,0.15921621024608612,-3.222026824951172,-0.8808838129043579
1684201213962847200,5.86984716796875,0.09141052514314651,-2.980581760406494,-0.8677933216094971
1684201213972872200,5.8798720703125,0.07145758718252182,-2.8119935989379883,-0.8469160199165344
1684201213982897400,5.8898974609375,0.12940450012683868,-2.7298483848571777,-0.7683658003807068
1684201213992922400,5.89992236328125,0.21027086675167084,-2.703686237335205,-0.6996271014213562
1684201214002947000,5.909947021484375,0.2620759904384613,-2.542100667953491,-0.6513264179229736
1684201214012972000,5.919971923828125,0.3228594660758972,-2.3267462253570557,-0.640598475933075
1684201214022996200,5.929996337890625,0.38363468647003174,-2.12138295173645,-0.6787948608398438
1684201214033021200,5.940021240234375,0.4162099361419678,-1.9188461303710938,-0.7444596886634827
1684201214043046100,5.950046142578125,0.4214281439781189,-1.7329481840133667,-0.8135945200920105
1684201214053071400,5.9600712890625,0.37803640961647034,-1.663892149925232,-0.8814243078231812
1684201214063096300,5.970096435546875,0.2792794704437256,-1.7969005107879639,-0.924993097782135
1684201214073121300,5.980121337890625,0.15173538029193878,-2.0926785469055176,-0.918042778968811
1684201214083145200,5.990145263671875,0.03330381214618683,-2.4120304584503174,-0.8886105418205261
1684201214093170200,6.000170166015625,-0.06972377002239227,-2.729947090148926,-0.8814764618873596
1684201214103195100,6.010195068359375,-0.1493762582540512,-3.093173027038574,-0.9168030023574829
1684201214113220400,6.020220458984375,-0.1783384084701538,-3.421887159347534,-0.9919043779373169
1684201214123245600,6.03024560546875,-0.16941308975219727,-3.721334218978882,-1.1124873161315918
1684201214133270500,6.0402705078125,-0.1582573652267456,-4.03179931640625,-1.2698317766189575
1684201214143295500,6.05029541015625,-0.15313877165317535,-4.265821933746338,-1.3960334062576294
1684201214153319700,6.060319580078125,-0.15479975938796997,-4.44047212600708,-1.464377999305725
1684201214163344600,6.0703447265625,-0.16530567407608032,-4.556694984436035,-1.4846259355545044
1684201214173369300,6.080369384765625,-0.1610821932554245,-4.612747669219971,-1.4936813116073608
1684201214183394600,6.09039453125,-0.14921967685222626,-4.655109882354736,-1.480130910873413
1684201214193419500,6.10041943359375,-0.13933613896369934,-4.662234306335449,-1.46523916721344
1684201214203444500,6.110444580078125,-0.14010445773601532,-4.606029033660889,-1.4565352201461792
1684201214213468700,6.12046875,-0.14572478830814362,-4.509988307952881,-1.4610936641693115
1684201214223493600,6.13049365234375,-0.1706370711326599,-4.347582817077637,-1.4697757959365845
1684201214233518600,6.1405185546875,-0.19082249701023102,-4.232194900512695,-1.478967547416687
1684201214243543600,6.15054345703125,-0.23012275993824005,-4.0938029289245605,-1.4827960729599
1684201214253568500,6.160568603515625,-0.28452450037002563,-3.937196969985962,-1.4470492601394653
1684201214263593500,6.170593505859375,-0.31502461433410645,-3.796205520629883,-1.3826756477355957
1684201214273617400,6.180617431640625,-0.3405046761035919,-3.664876937866211,-1.310553789138794
1684201214283642600,6.190642578125,-0.389625608921051,-3.5104787349700928,-1.2460166215896606
1684201214293667600,6.20066748046875,-0.43248119950294495,-3.3561277389526367,-1.1779942512512207
1684201214303692500,6.210692626953125,-0.44821807742118835,-3.2352166175842285,-1.1036858558654785
1684201214313717500,6.220717529296875,-0.44454479217529297,-3.1573591232299805,-1.0215145349502563
1684201214323742700,6.23074267578125,-0.43531161546707153,-3.114607572555542,-0.9423450827598572
1684201214333766400,6.240766357421875,-0.40257734060287476,-3.0996389389038086,-0.8613766431808472
1684201214343791400,6.250791259765625,-0.36786970496177673,-3.0376088619232178,-0.7849851846694946
1684201214353816600,6.260816650390625,-0.3224731981754303,-2.9612371921539307,-0.6984308362007141
1684201214363841500,6.270841552734375,-0.27212029695510864,-2.8967525959014893,-0.6107896566390991
1684201214373866500,6.280866455078125,-0.20632316172122955,-2.784512996673584,-0.5235832929611206
1684201214383891500,6.290891357421875,-0.12191426753997803,-2.6429903507232666,-0.46401214599609375
1684201214393915400,6.300915283203125,-0.014602734707295895,-2.4968698024749756,-0.4280030131340027
1684201214403940400,6.3109404296875,0.1330740749835968,-2.39266300201416,-0.3925688564777374
1684201214413965600,6.320965576171875,0.30721017718315125,-2.3246617317199707,-0.3430521786212921
1684201214423990500,6.330990478515625,0.5022822022438049,-2.2213809490203857,-0.2606382668018341
1684201214434015500,6.341015380859375,0.720233678817749,-2.050743818283081,-0.16360120475292206
1684201214444040400,6.35104052734375,0.9370824098587036,-1.875213623046875,-0.05879223346710205
1684201214454064600,6.361064697265625,1.0917431116104126,-1.7381198406219482,0.06005099415779114
1684201214464089600,6.371089599609375,1.2040823698043823,-1.676151990890503,0.20946365594863892
1684201214474114300,6.3811142578125,1.300180435180664,-1.699758768081665,0.3969438076019287
1684201214484139500,6.391139404296875,1.3776192665100098,-1.7546614408493042,0.59649258852005
1684201214494164500,6.40116455078125,1.3613101243972778,-1.7670527696609497,0.8008970618247986
1684201214504189400,6.411189453125,1.2783299684524536,-1.5379993915557861,0.9478393793106079
1684201214514213600,6.421213623046875,1.2094491720199585,-1.1103540658950806,1.011403203010559
1684201214524238600,6.431238525390625,1.2104790210723877,-0.6454753279685974,0.9840362668037415
1684201214534263600,6.441263671875,1.2443944215774536,-0.3018187880516052,0.820844829082489
1684201214544288500,6.45128857421875,1.2973358631134033,-0.08523455262184143,0.5259178876876831
1684201214554313500,6.4613134765625,1.3221884965896606,0.056364599615335464,0.23349891602993011
1684201214564338400,6.47133837890625,1.323058843612671,0.19770336151123047,-0.007120082154870033
1684201214574363400,6.48136328125,1.241908311843872,0.3620792627334595,-0.19073869287967682
1684201214584387600,6.4913876953125,1.11427903175354,0.5374771952629089,-0.31667929887771606
1684201214594412500,6.50141259765625,0.9598995447158813,0.565948486328125,-0.3563500940799713
1684201214604437500,6.5114375,0.7969130277633667,0.4567844569683075,-0.32806068658828735
1684201214614462700,6.521462646484375,0.6534925103187561,0.19214995205402374,-0.2760218679904938
1684201214624487700,6.53148779296875,0.5327050685882568,-0.13982079923152924,-0.20452985167503357
1684201214634511400,6.541511474609375,0.447095662355423,-0.4583878219127655,-0.17099465429782867
1684201214644536600,6.55153662109375,0.3784412145614624,-0.6372784376144409,-0.18778029084205627
1684201214654561500,6.5615615234375,0.3366839289665222,-0.6889833211898804,-0.20208387076854706
1684201214664586500,6.57158642578125,0.2832728922367096,-0.6969869136810303,-0.19425924122333527
1684201214674611500,6.581611572265625,0.2049165666103363,-0.7510887384414673,-0.14697277545928955
1684201214684636700,6.59163671875,0.15581533312797546,-0.7616462707519531,-0.07583175599575043
1684201214694661600,6.60166162109375,0.14509320259094238,-0.6358932256698608,-0.026011746376752853
1684201214704685600,6.611685546875,0.1272936910390854,-0.4931083917617798,0.0052228705026209354
1684201214714710500,6.62171044921875,0.11525966972112656,-0.3673655688762665,0.036911431699991226
1684201214724735500,6.631735595703125,0.10093346238136292,-0.2508693337440491,0.0824245885014534
1684201214734760400,6.641760498046875,0.0704336017370224,-0.0974518433213234,0.15898331999778748
1684201214744785700,6.65178564453125,0.04144322872161865,0.07412976026535034,0.24048671126365662
1684201214754810600,6.661810546875,-0.024734731763601303,0.18187710642814636,0.31970763206481934
1684201214764834600,6.67183447265625,-0.07206523418426514,0.3013651669025421,0.3872416913509369
1684201214774859500,6.681859619140625,-0.11713816970586777,0.39523839950561523,0.41361868381500244
1684201214784884500,6.691884521484375,-0.13390277326107025,0.4755406975746155,0.4112122654914856
1684201214794909400,6.701909423828125,-0.14270716905593872,0.5520385503768921,0.40425974130630493
1684201214804934400,6.711934326171875,-0.14070312678813934,0.6171762943267822,0.40085116028785706
1684201214814959600,6.721959716796875,-0.1418278068304062,0.7030003070831299,0.3952443599700928
1684201214824983600,6.731983642578125,-0.09153240919113159,0.8645220994949341,0.374003529548645
1684201214835008500,6.742008544921875,-0.03707953914999962,0.9992735981941223,0.3108963668346405
1684201214845033500,6.752033447265625,0.013613997027277946,1.1567878723144531,0.24073860049247742
1684201214855058400,6.762058349609375,0.06029413640499115,1.3016796112060547,0.1685236245393753
1684201214865083400,6.77208349609375,0.11785809695720673,1.3188258409500122,0.10969652980566025
1684201214875108600,6.782108642578125,0.21382059156894684,1.1648521423339844,0.04788004979491234
1684201214885132500,6.792132568359375,0.33857956528663635,0.9736193418502808,-0.02190009318292141
1684201214895157500,6.802157470703125,0.4903198182582855,0.8025171160697937,-0.15709452331066132
1684201214905182700,6.8121826171875,0.601645827293396,0.7892876267433167,-0.2615745961666107
1684201214915207700,6.822207763671875,0.617050051689148,0.7095702886581421,-0.35201287269592285
1684201214925232400,6.832232421875,0.6072916984558105,0.5822741389274597,-0.4534241855144501
1684201214935257300,6.84225732421875,0.5943719148635864,0.4207778573036194,-0.6081793308258057
1684201214945281500,6.852281494140625,0.540985107421875,0.26483914256095886,-0.7835143804550171
1684201214955306500,6.862306396484375,0.4109576344490051,-0.04510192945599556,-0.9155367016792297
1684201214965331500,6.87233154296875,0.19147028028964996,-0.34585776925086975,-0.8719508647918701
1684201214975356700,6.882356689453125,-0.030825654044747353,-0.5444287061691284,-0.7079645991325378
1684201214985381600,6.892381591796875,-0.271757572889328,-0.6399858593940735,-0.55469810962677
1684201214995406600,6.902406494140625,-0.47342997789382935,-0.6318909525871277,-0.44516226649284363
1684201215005430500,6.912430419921875,-0.6150267720222473,-0.606989860534668,-0.4068486988544464
1684201215015455500,6.92245556640625,-0.7244861721992493,-0.6476069688796997,-0.4340604841709137
1684201215025480400,6.93248046875,-0.7918923497200012,-0.6593278050422668,-0.501757800579071
1684201215035505400,6.94250537109375,-0.8516206741333008,-0.5933799147605896,-0.5486619472503662
1684201215045530600,6.952530517578125,-0.9382234811782837,-0.594094455242157,-0.5487764477729797
1684201215055555600,6.9625556640625,-0.9651229977607727,-0.632515013217926,-0.4720419645309448
1684201215065579500,6.97257958984375,-0.8442554473876953,-0.6119857430458069,-0.29562830924987793
1684201215075604500,6.9826044921875,-0.726447343826294,-0.536077618598938,-0.1230480894446373
1684201215085629400,6.99262939453125,-0.6602762937545776,-0.4451887309551239,-0.040530841797590256
1684201215095654400,7.002654296875,-0.5641883611679077,-0.32463598251342773,0.020154643803834915
1684201215105679600,7.0126796875,-0.4302350878715515,-0.13921470940113068,0.08123663812875748
1684201215115704000,7.0227041015625,-0.28567180037498474,0.09397520124912262,0.11568694561719894
1684201215125729000,7.03272900390625,-0.17835278809070587,0.30808988213539124,0.09795535355806351
1684201215135753200,7.042753173828125,-0.12160056084394455,0.41641151905059814,0.029702572152018547
1684201215145778200,7.052778076171875,-0.08430006355047226,0.3745575547218323,-0.03688710555434227
1684201215155803100,7.06280322265625,-0.05167287588119507,0.19276432693004608,-0.08394543081521988
1684201215165828400,7.072828369140625,-0.038415126502513885,-0.06331992149353027,-0.1298828274011612
1684201215175853300,7.082853271484375,-0.03338147699832916,-0.34378254413604736,-0.1943921446800232
1684201215185878000,7.0928779296875,-0.045851726084947586,-0.5799543857574463,-0.2849199175834656
1684201215195902200,7.102902099609375,-0.06816023588180542,-0.7637883424758911,-0.37768781185150146
1684201215205927200,7.11292724609375,-0.09752238541841507,-0.8607982397079468,-0.4500666558742523
1684201215215952100,7.1229521484375,-0.13261272013187408,-0.8632115721702576,-0.48583653569221497
1684201215225977000,7.13297705078125,-0.18140235543251038,-0.7829180359840393,-0.4874296486377716
1684201215236002300,7.143002197265625,-0.2208368480205536,-0.6928637623786926,-0.4382486939430237
1684201215246027300,7.15302734375,-0.258201003074646,-0.6387971043586731,-0.3544776439666748
1684201215256051000,7.163051025390625,-0.2817646563053131,-0.5710645914077759,-0.24851742386817932
1684201215266076200,7.173076171875,-0.28855547308921814,-0.453365683555603,-0.13444571197032928
1684201215276101000,7.18310107421875,-0.2975071370601654,-0.2758418023586273,-0.009412037208676338
1684201215286126000,7.1931259765625,-0.2988320589065552,-0.10196641832590103,0.1259862631559372
1684201215296151000,7.203151123046875,-0.34910696744918823,0.02799076773226261,0.27847057580947876
1684201215306176300,7.21317626953125,-0.45444002747535706,0.1402730941772461,0.41960957646369934
1684201215316200200,7.2232001953125,-0.44433918595314026,0.3081415891647339,0.5507066249847412
1684201215326225200,7.23322509765625,-0.4344295859336853,0.48063933849334717,0.6139439344406128
1684201215336250000,7.24325,-0.44468382000923157,0.6165412664413452,0.5851156115531921
1684201215346275000,7.253275146484375,-0.49589240550994873,0.6735725998878479,0.47952553629875183
1684201215356300000,7.263300048828125,-0.45451754331588745,0.6132664680480957,0.33205631375312805
1684201215366325200,7.2733251953125,-0.38808712363243103,0.4572097659111023,0.17964811623096466
1684201215376349200,7.28334912109375,-0.3441462814807892,0.2711637616157532,0.011540031060576439
1684201215386374100,7.2933740234375,-0.31047701835632324,0.11694145202636719,-0.1316823810338974
1684201215396399400,7.3033994140625,-0.2697916328907013,0.09019336104393005,-0.21690548956394196
1684201215406424000,7.313424072265625,-0.2361851930618286,0.20874984562397003,-0.22819648683071136
1684201215416449000,7.323448974609375,-0.15856097638607025,0.3121059238910675,-0.18277235329151154
1684201215426474000,7.333473876953125,-0.07017837464809418,0.41563552618026733,-0.11167208105325699
1684201215436498200,7.343498291015625,0.008671434596180916,0.5259747505187988,-0.037014540284872055
1684201215446523100,7.353523193359375,0.07052761316299438,0.699749767780304,0.02770746313035488
1684201215456548000,7.363548095703125,0.09132423996925354,0.8625706434249878,0.04106797277927399
1684201215466573300,7.3735732421875,0.07304350286722183,0.985458493232727,-0.006281966343522072
1684201215476598300,7.383598388671875,0.06725458800792694,0.98087078332901,-0.06876210868358612
1684201215486623000,7.393623046875,0.05707225576043129,0.8201500773429871,-0.1574496328830719
1684201215496647200,7.403647216796875,0.04469282180070877,0.47898533940315247,-0.28558358550071716
1684201215506672000,7.413672119140625,0.06482312083244324,0.10947253555059433,-0.4078357219696045
1684201215516697000,7.423697021484375,0.08905521780252457,-0.25429901480674744,-0.5165060758590698
1684201215526722300,7.433722412109375,0.1002439633011818,-0.5715805292129517,-0.6483190059661865
1684201215536747300,7.443747314453125,0.09889986366033554,-0.8841859102249146,-0.7764001488685608
1684201215546772200,7.453772216796875,0.11234456300735474,-1.0612845420837402,-0.8455150127410889
1684201215556796200,7.463796142578125,0.13001276552677155,-1.1823557615280151,-0.842245876789093
1684201215566821000,7.473821044921875,0.15640975534915924,-1.3347668647766113,-0.7846584916114807
1684201215576846000,7.48384619140625,0.15665635466575623,-1.451454520225525,-0.698803186416626
1684201215586871000,7.49387109375,0.12457965314388275,-1.4276162385940552,-0.6280957460403442
1684201215596896300,7.503896240234375,0.10569757223129272,-1.1984648704528809,-0.5411959886550903
1684201215606921200,7.513921142578125,0.0817490965127945,-0.8785274028778076,-0.4253751039505005
1684201215616945200,7.523945068359375,0.10939245671033859,-0.6346153616905212,-0.33242160081863403
1684201215626970000,7.53397021484375,0.1386057436466217,-0.4985102713108063,-0.27988436818122864
1684201215636995000,7.5439951171875,0.12894457578659058,-0.3936859667301178,-0.26287421584129333
1684201215647020000,7.55402001953125,0.10065488517284393,-0.27529433369636536,-0.29473575949668884
1684201215657045200,7.564045166015625,0.061273396015167236,-0.18050986528396606,-0.3458271026611328
1684201215667070200,7.5740703125,0.0404253751039505,-0.1283302903175354,-0.32193082571029663
1684201215677094100,7.58409423828125,0.039820827543735504,-0.10218062996864319,-0.2712149918079376
1684201215687119400,7.594119384765625,0.07266239821910858,-0.10915092378854752,-0.24719193577766418
1684201215697144000,7.60414404296875,0.12489363551139832,-0.0998539999127388,-0.24939733743667603
1684201215707169000,7.6141689453125,0.1400187909603119,-0.025483623147010803,-0.22354230284690857
1684201215717194000,7.624194091796875,0.13182373344898224,0.017699135467410088,-0.19736763834953308
1684201215727219200,7.63421923828125,0.1261056512594223,-0.027025192975997925,-0.19251082837581635
1684201215737243100,7.6442431640625,0.08390386402606964,-0.1309385448694229,-0.19338619709014893
1684201215747268000,7.65426806640625,0.03203880041837692,-0.27536922693252563,-0.18970517814159393
1684201215757293300,7.664293212890625,-0.015628831461071968,-0.39824050664901733,-0.18364793062210083
1684201215767318300,7.674318359375,-0.039379168301820755,-0.4560771584510803,-0.18137705326080322
1684201215777343000,7.684343017578125,-0.04477022588253021,-0.5382488369941711,-0.18834777176380157
1684201215787368000,7.694367919921875,-0.04092062637209892,-0.5700339674949646,-0.19007988274097443
1684201215797392100,7.70439208984375,-0.04876815900206566,-0.5624973177909851,-0.19413124024868011
1684201215807417000,7.7144169921875,-0.05321244150400162,-0.5310288667678833,-0.19168274104595184
1684201215817442300,7.7244423828125,-0.060704439878463745,-0.45400089025497437,-0.1888238787651062
1684201215827467300,7.73446728515625,-0.04827280342578888,-0.3908770680427551,-0.20417486131191254
1684201215837492200,7.7444921875,-0.04622431471943855,-0.2524309754371643,-0.18510177731513977
1684201215847517200,7.75451708984375,-0.042437031865119934,-0.14043602347373962,-0.16021108627319336
1684201215857541000,7.764541015625,-0.03617086261510849,-0.09450098127126694,-0.12561653554439545
1684201215867566000,7.774566162109375,-0.03834373503923416,-0.04025531932711601,-0.07120654731988907
1684201215877591000,7.784591064453125,-0.04374143108725548,0.03944066911935806,-0.028613047674298286
1684201215887616300,7.7946162109375,-0.059913210570812225,0.09703205525875092,-0.004914109595119953
1684201215897641200,7.80464111328125,-0.08465158194303513,0.1048361286520958,0.01049080304801464
1684201215907666200,7.814666259765625,-0.11431919783353806,0.08776872605085373,0.01142210979014635
1684201215917691100,7.824691162109375,-0.1405113935470581,0.07512085884809494,0.002710558706894517
1684201215927715000,7.834715087890625,-0.15996578335762024,0.10065951198339462,-0.010489932261407375
1684201215937740000,7.844739990234375,-0.16111759841442108,0.14070095121860504,-0.00955311767756939
1684201215947765000,7.854764892578125,-0.14889448881149292,0.16928865015506744,0.008397653698921204
1684201215957790200,7.864790283203125,-0.1382564902305603,0.20991194248199463,0.045111365616321564
1684201215967815200,7.874815185546875,-0.12940280139446259,0.258707731962204,0.08818799257278442
1684201215977839000,7.884839111328125,-0.12138884514570236,0.3238292932510376,0.12428098917007446
1684201215987864300,7.8948642578125,-0.10917239636182785,0.40829622745513916,0.13607266545295715
1684201215997889000,7.904888916015625,-0.10604102909564972,0.49916142225265503,0.11705077439546585
1684201216007914000,7.9149140625,-0.10753532499074936,0.5800224542617798,0.09393852949142456
1684201216017939200,7.924939208984375,-0.12080958485603333,0.6298120021820068,0.08070991933345795
1684201216027964200,7.934964111328125,-0.1475495845079422,0.6416995525360107,0.059403833001852036
1684201216037988000,7.944988037109375,-0.18304289877414703,0.6106070876121521,0.016758231446146965
1684201216048013300,7.955013427734375,-0.22851184010505676,0.5559278726577759,-0.043665431439876556
1684201216058038300,7.965038330078125,-0.27640238404273987,0.4678979218006134,-0.09654249250888824
1684201216068063200,7.975063232421875,-0.34005221724510193,0.3592105805873871,-0.14222341775894165
1684201216078088000,7.985087890625,-0.40895751118659973,0.20517849922180176,-0.1772385984659195
1684201216088113200,7.995113037109375,-0.47921887040138245,0.03249567747116089,-0.21073530614376068
1684201216098137000,8.00513720703125,-0.5543205738067627,-0.11703949421644211,-0.23443278670310974
1684201216108162000,8.015162109375,-0.5952770709991455,-0.1787710189819336,-0.28511592745780945
1684201216118186800,8.025186767578125,-0.6256448030471802,-0.29693499207496643,-0.32711049914360046
1684201216128211700,8.035211669921875,-0.6248487830162048,-0.5185656547546387,-0.3714161813259125
1684201216138236700,8.045236572265624,-0.6501836776733398,-0.7369380593299866,-0.4097820520401001
1684201216148262000,8.055261962890626,-0.6665786504745483,-0.8364689350128174,-0.3902035355567932
1684201216158285800,8.065285888671875,-0.7188042998313904,-1.0238951444625854,-0.35298991203308105
1684201216168310800,8.075310791015625,-0.7915357947349548,-1.0931113958358765,-0.2815532982349396
1684201216178335700,8.085335693359376,-0.7962445020675659,-1.0867499113082886,-0.29620665311813354
1684201216188360700,8.095360595703125,-0.7184362411499023,-0.9769110679626465,-0.37380450963974
1684201216198385700,8.1053857421875,-0.6176193952560425,-0.6488151550292969,-0.36621415615081787
1684201216208410600,8.11541064453125,-0.5304564833641052,-0.3776443600654602,-0.31079962849617004
1684201216218434800,8.125434814453126,-0.4901452958583832,-0.33244192600250244,-0.253388375043869
1684201216228459800,8.135459716796875,-0.46278637647628784,-0.33055800199508667,-0.22870248556137085
1684201216238484700,8.145484619140625,-0.3841983675956726,-0.17224688827991486,-0.22494731843471527
1684201216248510000,8.155510009765624,-0.26179468631744385,0.2278003841638565,-0.22363731265068054
1684201216258534700,8.16553466796875,-0.14478683471679688,0.6878333687782288,-0.24267752468585968
1684201216268559600,8.1755595703125,-0.06226160377264023,0.9834423661231995,-0.2593294680118561
1684201216278583800,8.185583740234375,-0.012076989747583866,1.0477166175842285,-0.29183414578437805
1684201216288608800,8.19560888671875,0.02529728040099144,1.02383553981781,-0.3445975184440613
1684201216298633700,8.2056337890625,0.036614373326301575,1.0471419095993042,-0.4039064049720764
1684201216308659000,8.215658935546875,0.014179373160004616,1.1390457153320312,-0.43437910079956055
1684201216318684000,8.225683837890625,-0.045954279601573944,1.233015775680542,-0.4301402270793915
1684201216328708900,8.235708984375,-0.1332353949546814,1.3003641366958618,-0.33932697772979736
1684201216338732800,8.24573291015625,-0.23333054780960083,1.2979620695114136,-0.19229885935783386
1684201216348757800,8.2557578125,-0.3184153437614441,1.2475321292877197,-0.07328351587057114
1684201216358782700,8.26578271484375,-0.34676843881607056,1.1744049787521362,0.020019374787807465
1684201216368807700,8.2758076171875,-0.31973761320114136,0.9825115203857422,0.13861019909381866
1684201216378833000,8.2858330078125,-0.2387721836566925,0.667576789855957,0.25054895877838135
1684201216388857900,8.29585791015625,-0.07776092737913132,0.3255011737346649,0.347781240940094
1684201216398881800,8.3058818359375,0.13866671919822693,0.0020362664945423603,0.44992613792419434
1684201216408906800,8.31590673828125,0.36931562423706055,-0.2925085723400116,0.5396608114242554
1684201216418931700,8.325931640625,0.5490267872810364,-0.5612524151802063,0.6305639743804932
1684201216428956700,8.335956787109374,0.6659148335456848,-0.7574885487556458,0.7239562273025513
1684201216438982000,8.34598193359375,0.7001561522483826,-0.8438946008682251,0.7969621419906616
1684201216449006800,8.3560068359375,0.7394888997077942,-0.8711085915565491,0.8871335983276367
1684201216459030800,8.36603076171875,0.7222659587860107,-0.8532734513282776,1.0000308752059937
1684201216469056000,8.376055908203124,0.6640180945396423,-0.7631192803382874,1.1273936033248901
1684201216479080700,8.386080810546876,0.6160535216331482,-0.5754774212837219,1.249700665473938
1684201216489105700,8.396105712890625,0.5800454616546631,-0.3730201721191406,1.3807913064956665
1684201216499130600,8.406130615234375,0.58282870054245,-0.18594375252723694,1.48619544506073
1684201216509155800,8.41615576171875,0.6313105225563049,0.09468896687030792,1.6151068210601807
1684201216519180800,8.426180908203126,0.7102604508399963,0.37728771567344666,1.7114129066467285
1684201216529204700,8.436204833984375,0.7686401009559631,0.5220814347267151,1.709579586982727
1684201216539230000,8.44622998046875,0.7238503098487854,0.38579559326171875,1.642507791519165
1684201216549254700,8.456254638671876,0.528870165348053,0.03217655420303345,1.6769189834594727
1684201216559279600,8.466279541015625,0.2917361557483673,-0.41106417775154114,1.8472537994384766
1684201216569304800,8.476304931640625,0.156014546751976,-0.8796098232269287,2.0072638988494873
1684201216579328800,8.486328857421874,0.10097925364971161,-1.1018712520599365,2.0359489917755127
1684201216589353700,8.496353759765626,0.04875732585787773,-0.9320076704025269,1.9140081405639648
1684201216599379000,8.50637890625,0.10638522356748581,-0.6157599687576294,1.7380155324935913
1684201216609404000,8.51640380859375,0.20885060727596283,-0.3245824873447418,1.5957521200180054
1684201216619428900,8.526428955078124,0.3329419493675232,-0.12235896289348602,1.5457100868225098
1684201216629453600,8.53645361328125,0.4246494770050049,-0.1130506843328476,1.4759438037872314
1684201216639477800,8.546477783203125,0.47214001417160034,-0.24326084554195404,1.3282686471939087
1684201216649502700,8.556502685546874,0.47338876128196716,-0.39141222834587097,1.1391738653182983
1684201216659527700,8.566527587890626,0.4926817715167999,-0.41607996821403503,0.956099271774292
1684201216669553000,8.576552978515625,0.5312038660049438,-0.2771329879760742,0.7705754637718201
1684201216679577900,8.586577880859375,0.5688772201538086,-0.12984968721866608,0.5899019241333008
1684201216689602800,8.596602783203124,0.6272414326667786,-0.027601880952715874,0.4251209497451782
1684201216699626800,8.606626708984376,0.6523523926734924,0.09710909426212311,0.27156054973602295
1684201216709651700,8.616651611328125,0.5863757729530334,0.19540424644947052,0.14118710160255432
1684201216719676700,8.6266767578125,0.5305687189102173,0.2698129713535309,0.05274636298418045
1684201216729701600,8.63670166015625,0.5019245147705078,0.3180074095726013,-0.0008444283157587051
1684201216739726800,8.646726806640626,0.458456426858902,0.32707923650741577,-0.033301256597042084
1684201216749751800,8.656751708984375,0.4063383638858795,0.311601459980011,-0.016829337924718857
1684201216759776800,8.66677685546875,0.342647522687912,0.29427701234817505,0.02034137025475502
1684201216769800700,8.67680078125,0.2640850841999054,0.24123431742191315,0.06294502317905426
1684201216779825700,8.68682568359375,0.19892898201942444,0.24397720396518707,0.13003242015838623
1684201216789850600,8.6968505859375,0.14983227849006653,0.24121549725532532,0.18549807369709015
1684201216799875800,8.706875732421874,0.10229777544736862,0.26742538809776306,0.20877918601036072
1684201216809900800,8.71690087890625,0.0827254056930542,0.25490453839302063,0.2271840125322342
1684201216819924700,8.7269248046875,0.08905228227376938,0.20263583958148956,0.2811965048313141
1684201216829950000,8.736949951171875,0.11453048139810562,0.13255314528942108,0.3449791967868805
1684201216839975000,8.746974853515624,0.17713847756385803,0.06354998052120209,0.41266030073165894
1684201216849999600,8.75699951171875,0.22678139805793762,0.02161611244082451,0.4325607717037201
1684201216860024600,8.767024658203125,0.30014854669570923,0.1308746486902237,0.4365825951099396
1684201216870049800,8.7770498046875,0.39579838514328003,0.2851822078227997,0.3881348967552185
1684201216880074800,8.78707470703125,0.4686582088470459,0.5056043267250061,0.3185074031352997
1684201216890098700,8.7970986328125,0.5288283228874207,0.7218276858329773,0.24751845002174377
1684201216900124000,8.8071240234375,0.5559009313583374,0.8396800756454468,0.1748054027557373
1684201216910148900,8.81714892578125,0.550311803817749,0.8302037715911865,0.10077112913131714
1684201216920173800,8.827173828125,0.544868528842926,0.7249308228492737,0.004009431228041649
1684201216930198800,8.83719873046875,0.5243614315986633,0.5419647693634033,-0.10861112177371979
1684201216940223700,8.8472236328125,0.508855402469635,0.35800912976264954,-0.23932082951068878
1684201216950247700,8.85724755859375,0.48824894428253174,0.17971156537532806,-0.35102471709251404
1684201216960273000,8.86727294921875,0.4778599441051483,0.05585961043834686,-0.4308668375015259
1684201216970297900,8.8772978515625,0.4476549029350281,0.008493957109749317,-0.5074021220207214
1684201216980322800,8.88732275390625,0.4169643819332123,0.027645815163850784,-0.5701823830604553
1684201216990347800,8.89734765625,0.37377670407295227,0.09625363349914551,-0.6391435861587524
1684201217000373000,8.907373046875,0.3212282657623291,0.16932421922683716,-0.7067158818244934
1684201217010396700,8.917396728515625,0.26579031348228455,0.23477725684642792,-0.7704314589500427
1684201217020421600,8.927421630859374,0.19851407408714294,0.2621340751647949,-0.8331643342971802
1684201217030446800,8.93744677734375,0.1104140430688858,0.23696772754192352,-0.8843361735343933
1684201217040471800,8.947471923828125,0.008698076009750366,0.1576772779226303,-0.9215428829193115
1684201217050496800,8.957496826171875,-0.08901010453701019,0.031590718775987625,-0.9320837259292603
1684201217060521700,8.967521728515624,-0.1813826709985733,-0.10670065879821777,-0.9362474679946899
1684201217070545700,8.977545654296875,-0.2510472238063812,-0.23410442471504211,-0.9586827158927917
1684201217080570600,8.987570556640625,-0.3023732602596283,-0.366812527179718,-0.9861980676651001
1684201217090595800,8.997595947265625,-0.3119542598724365,-0.45214954018592834,-0.9749060273170471
1684201217100620800,9.007620849609374,-0.320024698972702,-0.5187185406684875,-0.9562366008758545
1684201217110645800,9.017645751953125,-0.33032235503196716,-0.5696602463722229,-0.931840717792511
1684201217120671500,9.02767138671875,-0.3511599898338318,-0.5668197870254517,-0.9247475862503052
1684201217130695400,9.0376953125,-0.3987258970737457,-0.4698801636695862,-0.9567907452583313
1684201217140720400,9.047720458984376,-0.4796164929866791,-0.349743127822876,-0.9977570176124573
1684201217150745300,9.057745361328125,-0.5898486971855164,-0.3020848035812378,-0.9836776852607727
1684201217160770300,9.067770263671875,-0.6921319365501404,-0.40174493193626404,-0.8740777969360352
1684201217170795500,9.07779541015625,-0.7000647187232971,-0.6856383681297302,-0.6728554964065552
1684201217180820500,9.087820556640626,-0.5926767587661743,-0.9463662505149841,-0.36816057562828064
1684201217190844400,9.097844482421875,-0.5327603816986084,-1.13680100440979,-0.013735393062233925
1684201217200869400,9.107869384765625,-0.4228224456310272,-1.4348771572113037,0.3463382422924042
1684201217210894300,9.117894287109374,-0.24011576175689697,-1.5363446474075317,0.5511819124221802
1684201217220919300,9.127919189453126,0.06753954291343689,-1.3389123678207397,0.5735378265380859
1684201217230944500,9.137944580078125,0.32760441303253174,-0.9013081789016724,0.5036453008651733
1684201217240969500,9.147969482421875,0.41330280900001526,-0.36414939165115356,0.4128446578979492
1684201217250993400,9.157993408203126,0.3952034115791321,-0.011060323566198349,0.2820778489112854
1684201217261018600,9.1680185546875,0.34524625539779663,0.005150830838829279,0.14746521413326263
1684201217271043300,9.178043212890625,0.27289721369743347,-0.14136509597301483,0.019546931609511375
1684201217281068300,9.188068359375,0.19394782185554504,-0.24034465849399567,-0.05673713982105255
1684201217291093200,9.19809326171875,0.08415766805410385,-0.3729088306427002,-0.10624103993177414
1684201217301118500,9.208118408203125,0.00011869659647345543,-0.6549621224403381,-0.1470588743686676
1684201217311142400,9.218142333984375,-0.06769337505102158,-1.0242812633514404,-0.17834968864917755
1684201217321167400,9.22816748046875,-0.09480088949203491,-1.3016505241394043,-0.22431474924087524
1684201217331192600,9.238192626953126,-0.10197704285383224,-1.4169230461120605,-0.2941279113292694
1684201217341217500,9.248217529296875,-0.08893796801567078,-1.3338749408721924,-0.3891843259334564
1684201217351242200,9.2582421875,-0.07975352555513382,-1.1163620948791504,-0.48728957772254944
1684201217361267500,9.268267333984374,-0.07669247686862946,-0.8462018370628357,-0.597652018070221
1684201217371291400,9.27829150390625,-0.07842566072940826,-0.5600246787071228,-0.7191406488418579
1684201217381316400,9.28831640625,-0.059598714113235474,-0.2911287248134613,-0.8081393837928772
1684201217391341600,9.298341552734374,-0.0335623174905777,-0.08996288478374481,-0.8405969142913818
1684201217401366500,9.308366455078126,-0.001220880774781108,0.07033422589302063,-0.7985690236091614
1684201217411391500,9.3183916015625,0.045005738735198975,0.16834494471549988,-0.6854984164237976
1684201217421416200,9.328416259765625,0.08025827258825302,0.24090582132339478,-0.5506979823112488
1684201217431440400,9.3384404296875,0.10996104031801224,0.2982732355594635,-0.3977789878845215
1684201217441465300,9.34846533203125,0.10508931428194046,0.345575213432312,-0.26796430349349976
1684201217451490300,9.358490234375,0.08185189962387085,0.38305148482322693,-0.17291288077831268
1684201217461515500,9.368515625,0.04583238437771797,0.3841111361980438,-0.12469787150621414
1684201217471540500,9.37854052734375,-0.004912020638585091,0.35824891924858093,-0.11389049887657166
1684201217481565400,9.3885654296875,-0.057401854544878006,0.3117246925830841,-0.08795856684446335
1684201217491589400,9.39858935546875,-0.1077803373336792,0.2647002041339874,-0.04105044901371002
1684201217501614300,9.4086142578125,-0.15476995706558228,0.2249191701412201,0.004388663452118635
1684201217511639300,9.418639404296876,-0.1873111128807068,0.1845131516456604,0.026556549593806267
1684201217521664300,9.428664306640625,-0.20014701783657074,0.14615412056446075,0.0023435461334884167
1684201217531689500,9.438689453125,-0.19091729819774628,0.1448821872472763,-0.0729229748249054
1684201217541713400,9.44871337890625,-0.15261521935462952,0.18654270470142365,-0.18242645263671875
1684201217551738600,9.458738525390626,-0.1116829589009285,0.251495361328125,-0.31265607476234436
1684201217561763300,9.468763427734375,-0.06700921058654785,0.30499768257141113,-0.4418555796146393
1684201217571788300,9.478788330078125,-0.028956370428204536,0.3151693642139435,-0.5636760592460632
1684201217581813200,9.488813232421874,0.04236815124750137,0.25550517439842224,-0.6760458946228027
1684201217591838500,9.49883837890625,0.11393261700868607,0.18192467093467712,-0.7317866683006287
1684201217601863400,9.508863525390625,0.21116940677165985,-0.02253166399896145,-0.737721860408783
1684201217611887400,9.518887451171874,0.3079524040222168,-0.18215806782245636,-0.6661731004714966
1684201217621912600,9.52891259765625,0.41214218735694885,-0.2076621651649475,-0.5351383686065674
1684201217631937500,9.5389375,0.4897240698337555,-0.18254615366458893,-0.4712592661380768
1684201217641962200,9.548962158203125,0.5163474082946777,-0.09511410444974899,-0.5061356425285339
1684201217651987200,9.5589873046875,0.46290069818496704,-0.047877613455057144,-0.5759802460670471
1684201217662011400,9.569011474609376,0.34737783670425415,-0.10908932983875275,-0.6252467632293701
1684201217672036400,9.579036376953125,0.2116202712059021,-0.2888878583908081,-0.6840754747390747
1684201217682061300,9.589061279296875,0.04381849989295006,-0.5505187511444092,-0.748466432094574
1684201217692086500,9.59908642578125,-0.08885219693183899,-0.8230994343757629,-0.8002302646636963
1684201217702111500,9.609111572265626,-0.1889265924692154,-1.10499107837677,-0.8246446847915649
1684201217712136400,9.619136474609375,-0.23028148710727692,-1.3482176065444946,-0.7150726318359375
1684201217722161400,9.629161376953125,-0.2564513087272644,-1.5529593229293823,-0.5327038168907166
1684201217732185300,9.639185302734376,-0.27440768480300903,-1.560460090637207,-0.3057798147201538
1684201217742210300,9.649210205078125,-0.28303682804107666,-1.4030771255493164,-0.044982489198446274
1684201217752235500,9.659235595703125,-0.3168536424636841,-1.2753119468688965,0.194144606590271
1684201217762260500,9.669260498046874,-0.32936814427375793,-1.1679623126983643,0.2844967842102051
1684201217772285400,9.679285400390626,-0.3289758563041687,-0.9227501749992371,0.24142467975616455
1684201217782309400,9.689309326171875,-0.32113710045814514,-0.5271538496017456,0.06786416471004486
1684201217792334300,9.699334228515625,-0.2925153076648712,-0.20152275264263153,-0.20700813829898834
1684201217802359300,9.709359375,-0.28301501274108887,-0.08047123998403549,-0.44449347257614136
1684201217812384300,9.71938427734375,-0.33709076046943665,-0.06083708256483078,-0.5557552576065063
1684201217822409500,9.729409423828125,-0.4317008852958679,0.0012022198643535376,-0.5672764778137207
1684201217832434400,9.739434326171875,-0.4537374973297119,0.019266175106167793,-0.5513544678688049
1684201217842459400,9.74945947265625,-0.42146292328834534,0.14919710159301758,-0.46944940090179443
1684201217852483600,9.759483642578125,-0.32362422347068787,0.21066312491893768,-0.3290254473686218
1684201217862508300,9.76950830078125,-0.20034673810005188,0.10306788980960846,-0.15795843303203583
1684201217872533200,9.779533203125,-0.07713798433542252,-0.05350015312433243,-0.0598134845495224
1684201217882558500,9.789558349609376,0.03252937272191048,-0.1123717874288559,-0.12112558633089066
1684201217892583400,9.79958349609375,0.09187046438455582,0.01284073106944561,-0.23672276735305786
1684201217902607400,9.809607421875,0.13476970791816711,0.3366493582725525,-0.2805982530117035
1684201217912632600,9.819632568359374,0.16864937543869019,0.4697466790676117,-0.3496913015842438
1684201217922657500,9.829657470703125,0.13226129114627838,0.44285282492637634,-0.3906232416629791
1684201217932682500,9.8396826171875,0.09211891889572144,0.34700486063957214,-0.3674444258213043
1684201217942707200,9.849707275390625,0.056488219648599625,0.29704082012176514,-0.31497445702552795
1684201217952732400,9.859732421875,0.03858831524848938,0.1896648108959198,-0.2794281840324402
1684201217962756400,9.86975634765625,-0.07288069278001785,0.09252524375915527,-0.2782067358493805
1684201217972781300,9.87978125,-0.21179410815238953,-0.04835277795791626,-0.2980009615421295
1684201217982806500,9.889806640625,-0.32876625657081604,-0.2825581133365631,-0.3155185282230377
1684201217992831500,9.89983154296875,-0.38596269488334656,-0.4963732063770294,-0.3517327308654785
1684201218002856400,9.9098564453125,-0.4266875088214874,-0.605506420135498,-0.3519079089164734
1684201218012881400,9.91988134765625,-0.46746528148651123,-0.6599741578102112,-0.3708224594593048
1684201218022905300,9.9299052734375,-0.48571911454200745,-0.7111490368843079,-0.4369584023952484
1684201218032930300,9.939930419921875,-0.5136088132858276,-0.6361299157142639,-0.5026156902313232
1684201218042955500,9.94995556640625,-0.5882852077484131,-0.3398556113243103,-0.531610369682312
1684201218052980500,9.95998046875,-0.6858402490615845,-0.005976713728159666,-0.5363337397575378
1684201218063005400,9.97000537109375,-0.8394327163696289,0.27301472425460815,-0.47727563977241516
1684201218073030400,9.980030517578125,-1.0243351459503174,0.5601413249969482,-0.34949982166290283
1684201218083054300,9.990054443359375,-1.1846729516983032,0.5642607808113098,-0.195526123046875
1684201218093079300,10.000079345703124,-1.2244282960891724,0.5528033375740051,-0.013784291222691536
1684201218103104300,10.010104248046876,-1.2179867029190063,0.7505767345428467,0.17095467448234558
1684201218113129500,10.02012939453125,-1.203019142150879,0.93010014295578,0.3296937346458435
1684201218123154000,10.03015380859375,-1.1350369453430176,1.1404792070388794,0.46461406350135803
1684201218133179000,10.040178955078124,-1.0490477085113525,1.3111615180969238,0.5646189451217651
1684201218143203000,10.050203125,-0.9613772630691528,1.327103853225708,0.6010974049568176
1684201218153228000,10.06022802734375,-0.8662019968032837,1.263155460357666,0.5493263602256775
1684201218163253000,10.0702529296875,-0.774128258228302,1.1671637296676636,0.43329864740371704
1684201218173278200,10.0802783203125,-0.6874951124191284,1.0807862281799316,0.31980589032173157
1684201218183303200,10.09030322265625,-0.5915771126747131,1.0331002473831177,0.25956740975379944
1684201218193328000,10.100328125,-0.4769597351551056,1.0109211206436157,0.22375108301639557
1684201218203352000,10.11035205078125,-0.341808021068573,1.0158661603927612,0.23981896042823792
1684201218213377000,10.120376953125,-0.2088308036327362,0.9942240715026855,0.30133214592933655
1684201218223402000,10.130402099609375,-0.08709237724542618,0.9546521902084351,0.3480895161628723
1684201218233427000,10.140427001953125,0.018221264705061913,0.9614315032958984,0.34356507658958435
1684201218243452200,10.1504521484375,0.09536238759756088,1.0182080268859863,0.2964724898338318
1684201218253477000,10.16047705078125,0.13769438862800598,1.0768369436264038,0.25316497683525085
1684201218263501000,10.1705009765625,0.14743010699748993,1.1307862997055054,0.23987607657909393
1684201218273526000,10.180526123046874,0.14306651055812836,1.092054843902588,0.21107958257198334
1684201218283551000,10.190551025390626,0.13718333840370178,1.082244634628296,0.1856754720211029
1684201218293576000,10.200575927734375,0.11704611033201218,1.1090983152389526,0.17789344489574432
1684201218303601200,10.21060107421875,0.09604388475418091,1.1632113456726074,0.19037595391273499
1684201218313626000,10.220626220703124,0.07385735958814621,1.2266228199005127,0.19785037636756897
1684201218323650000,10.230650146484376,0.04837224259972572,1.3191463947296143,0.2002505511045456
1684201218333675000,10.240675048828125,0.012665113434195518,1.4058091640472412,0.2079140692949295
1684201218343700000,10.250699951171875,-0.032799310982227325,1.446519374847412,0.1909371018409729
1684201218353725000,10.260724853515624,-0.09249486774206161,1.4486496448516846,0.16213475167751312
1684201218363750000,10.27075,-0.15147830545902252,1.4252114295959473,0.14589744806289673
1684201218373775000,10.280775146484375,-0.2092084437608719,1.4119549989700317,0.13270947337150574
1684201218383799000,10.290799072265624,-0.2591666877269745,1.3861092329025269,0.1308152824640274
1684201218393824000,10.300823974609376,-0.28771016001701355,1.352735996246338,0.105496346950531
1684201218403849200,10.31084912109375,-0.29903578758239746,1.3440817594528198,0.06726023554801941
1684201218413874000,10.3208740234375,-0.306766152381897,1.3287081718444824,0.02736954763531685
1684201218423899000,10.33089892578125,-0.31829339265823364,1.216785192489624,-0.016563907265663147
1684201218433923800,10.340923828125,-0.2652972638607025,0.9829766750335693,-0.1595197319984436
1684201218443948000,10.350947998046875,-0.14902471005916595,0.8297812342643738,-0.3546397089958191
1684201218453973000,10.360972900390625,-0.09777271747589111,0.7525271773338318,-0.37447890639305115
1684201218463998000,10.370998046875,-0.0739416778087616,0.5514416098594666,-0.34327393770217896
1684201218474023200,10.381023193359376,0.011881612241268158,0.19389410316944122,-0.47456538677215576
1684201218484048100,10.391048095703125,0.14952495694160461,-0.18268895149230957,-0.6519060134887695
1684201218494072800,10.40107275390625,0.23726066946983337,-0.2632184326648712,-0.6481041312217712
1684201218504097000,10.411096923828126,0.34374716877937317,0.1498563289642334,-0.3206121623516083
1684201218514122000,10.4211220703125,0.49669116735458374,0.6566377878189087,-0.04731404036283493
1684201218524147000,10.43114697265625,0.552705705165863,0.7361547946929932,-0.03731399402022362
1684201218534172200,10.441172119140624,0.5739617347717285,0.26667913794517517,-0.1562928408384323
1684201218544197000,10.451197021484376,0.5945293307304382,-0.36244675517082214,-0.2685798406600952
1684201218554222000,10.46122216796875,0.5749526619911194,-0.8311676383018494,-0.42459607124328613
1684201218564246000,10.47124609375,0.5784387588500977,-1.0353761911392212,-0.3722233772277832
1684201218574271000,10.48127099609375,0.6474117040634155,-1.0789402723312378,-0.026475289836525917
1684201218584296000,10.4912958984375,0.8261526823043823,-1.1426242589950562,0.35151615738868713
1684201218594321000,10.50132080078125,1.03984797000885,-1.27997887134552,0.6506946086883545
1684201218604346000,10.51134619140625,1.259253740310669,-1.3798272609710693,0.8169839978218079
1684201218614371000,10.52137109375,1.3817306756973267,-1.3899116516113281,0.8851809501647949
1684201218624395000,10.53139501953125,1.3383803367614746,-1.2446866035461426,0.8829623460769653
1684201218634420000,10.541419921875,1.087672472000122,-1.000910997390747,0.8460216522216797
1684201218644445000,10.55144482421875,0.619952917098999,-0.6633390188217163,0.9371768832206726
1684201218654470000,10.561469970703126,0.18727366626262665,-0.3153696060180664,1.1912593841552734
1684201218664495000,10.5714951171875,0.02465972490608692,-0.028452685102820396,1.3502084016799927
1684201218674519000,10.58151904296875,-0.007729106582701206,0.049416813999414444,1.2507052421569824
1684201218684544000,10.5915439453125,-0.08639835566282272,-0.28375759720802307,1.0160478353500366
1684201218694569200,10.6015693359375,-0.10454992949962616,-0.6168855428695679,0.7867769002914429
1684201218704594200,10.61159423828125,-0.014151062816381454,-0.7271760702133179,0.7019099593162537
1684201218714619000,10.621618896484375,0.16560271382331848,-0.7349911332130432,0.7773135900497437
1684201218724643800,10.631643798828126,0.2700883746147156,-0.6549392938613892,0.9193675518035889
1684201218734669000,10.6416689453125,0.17871426045894623,-0.5169121623039246,0.896199643611908
1684201218744693000,10.65169287109375,0.15590135753154755,-0.5572895407676697,0.8137045502662659
1684201218754718000,10.661718017578124,0.24568237364292145,-0.5738639831542969,0.8046905398368835
1684201218764743200,10.6717431640625,0.32493990659713745,-0.4516521394252777,0.8084601163864136
1684201218774768000,10.68176806640625,0.4111879765987396,-0.18756350874900818,0.8075951337814331
1684201218784793000,10.69179296875,0.49952447414398193,0.0503912977874279,0.8043577671051025
1684201218794817000,10.701817138671874,0.5230410099029541,0.20278482139110565,0.7810268998146057
1684201218804842000,10.711842041015625,0.476388543844223,0.2838234305381775,0.7806136608123779
1684201218814867000,10.721866943359375,0.4313078820705414,0.16841132938861847,0.7453499436378479
1684201218824892200,10.73189208984375,0.35349565744400024,-0.3246338963508606,0.6229372024536133
1684201218834917000,10.741917236328124,0.2638736367225647,-0.9309208393096924,0.4888923466205597
1684201218844942000,10.751942138671875,0.19257521629333496,-1.3125402927398682,0.37827685475349426
1684201218854966000,10.761966064453125,0.17746444046497345,-1.3659569025039673,0.28277990221977234
1684201218864991000,10.771990966796874,0.22066250443458557,-1.1179444789886475,0.21959181129932404
1684201218875016000,10.782015869140626,0.30578646063804626,-0.6352628469467163,0.2134026288986206
1684201218885041000,10.792041015625,0.42753687500953674,-0.02922852523624897,0.24920295178890228
1684201218895066000,10.802066162109375,0.4623582363128662,0.358031302690506,0.24028056859970093
1684201218905091000,10.812091064453124,0.4285837411880493,0.42623263597488403,0.16743777692317963
1684201218915115000,10.822114990234375,0.4432772099971771,0.27641916275024414,0.04842856898903847
1684201218925140200,10.83214013671875,0.48908090591430664,0.14011213183403015,-0.06278810650110245
1684201218935165000,10.8421650390625,0.5369168519973755,0.08676847815513611,-0.1209171935915947
1684201218945190000,10.85218994140625,0.5450981259346008,0.14497694373130798,-0.1396707147359848
1684201218955215000,10.862215087890625,0.5028060674667358,0.2347707599401474,-0.15005172789096832
1684201218965240000,10.872239990234375,0.4151230752468109,0.2803915739059448,-0.14547809958457947
1684201218975264000,10.882263916015624,0.31884366273880005,0.20373541116714478,-0.14756335318088531
1684201218985289200,10.892289306640626,0.2704146206378937,0.19885334372520447,-0.16277895867824554
1684201218995314200,10.902314208984375,0.21670213341712952,0.18082773685455322,-0.20944206416606903
1684201219005339000,10.9123388671875,0.18818631768226624,0.09905105084180832,-0.2476123720407486
1684201219015363800,10.92236376953125,0.14909112453460693,-0.015063265338540077,-0.3072383999824524
1684201219025389000,10.93238916015625,0.08918704092502594,-0.061000071465969086,-0.31883206963539124
1684201219035413000,10.9424130859375,0.048906199634075165,-0.022921396419405937,-0.33693623542785645
1684201219045438000,10.95243798828125,0.007389911450445652,0.07061541825532913,-0.3805173933506012
1684201219055463200,10.962463134765626,-0.02682984434068203,0.18837587535381317,-0.422071248292923
1684201219065488100,10.972488037109375,-0.08035219460725784,0.3065944314002991,-0.41155385971069336
1684201219075513000,10.98251318359375,-0.14172260463237762,0.3726876974105835,-0.3862738013267517
1684201219085537800,10.992537841796874,-0.20071668922901154,0.41664037108421326,-0.35035014152526855
1684201219095562000,11.00256201171875,-0.24387986958026886,0.47944703698158264,-0.30824771523475647
1684201219105587000,11.0125869140625,-0.30352136492729187,0.4644520580768585,-0.28152942657470703
1684201219115613000,11.022613037109375,-0.36951956152915955,0.39855825901031494,-0.25087350606918335
1684201219125638000,11.032637939453124,-0.4262630045413971,0.2923637926578522,-0.20050957798957825
1684201219135662800,11.042662841796876,-0.5237091183662415,0.13306361436843872,-0.1525431126356125
1684201219145687800,11.052687744140625,-0.5433416962623596,0.10000640898942947,-0.07730861753225327
1684201219155712000,11.0627119140625,-0.5440780520439148,0.13674232363700867,-0.014356814324855804
1684201219165737000,11.072737060546874,-0.5410963892936707,0.23811325430870056,0.00407649390399456
1684201219175762000,11.082761962890626,-0.5120365023612976,0.3965369760990143,0.027927231043577194
1684201219185787000,11.092786865234375,-0.4730115830898285,0.5395756959915161,0.08307451009750366
1684201219195812000,11.10281201171875,-0.43121621012687683,0.6766331791877747,0.13437499105930328
1684201219205837000,11.112837158203124,-0.39080965518951416,0.867623507976532,0.15970654785633087
1684201219215860700,11.12286083984375,-0.327908456325531,1.0682451725006104,0.11934981495141983
1684201219225886000,11.132885986328125,-0.23290257155895233,1.2886805534362793,0.013420166447758675
1684201219235911000,11.142910888671874,-0.12459847331047058,1.5423040390014648,-0.12031233310699463
1684201219245935900,11.152935791015626,-0.04309642314910889,1.7637436389923096,-0.24841347336769104
1684201219255960800,11.1629609375,-0.030934035778045654,1.8663322925567627,-0.3613767921924591
1684201219265985000,11.172985107421875,-0.055202897638082504,1.8279774188995361,-0.4443255364894867
1684201219276009700,11.183009765625,-0.1085934191942215,1.5651875734329224,-0.521301805973053
1684201219286035000,11.193034912109376,-0.15573164820671082,1.107208251953125,-0.5494466423988342
1684201219296060000,11.203059814453125,-0.13367322087287903,0.599256694316864,-0.5487697124481201
1684201219306084900,11.2130849609375,-0.07517287135124207,0.16271847486495972,-0.5815920233726501
1684201219316109800,11.22310986328125,-0.05055142194032669,-0.024050084874033928,-0.6261759996414185
1684201219326134000,11.233134033203125,-0.06084665283560753,0.052188269793987274,-0.6033456921577454
1684201219336159000,11.243158935546875,-0.09878045320510864,0.2274506390094757,-0.5263749957084656
1684201219346184000,11.253183837890624,-0.1439886838197708,0.34169018268585205,-0.4567732810974121
1684201219356209000,11.263208984375,-0.1676279753446579,0.38773757219314575,-0.41987013816833496
1684201219366233900,11.27323388671875,-0.23914341628551483,0.3821525573730469,-0.41719087958335876
1684201219376258800,11.2832587890625,-0.33134686946868896,0.3298472762107849,-0.41036438941955566
1684201219386283000,11.293282958984374,-0.3773135542869568,0.21223999559879303,-0.3958861827850342
1684201219396308000,11.303307861328125,-0.42116329073905945,0.0018510790541768074,-0.4453301727771759
1684201219406333000,11.3133330078125,-0.44011807441711426,-0.3541422188282013,-0.5285274386405945
1684201219416358000,11.32335791015625,-0.4354383945465088,-0.6317184567451477,-0.6021478176116943
1684201219426382800,11.3333828125,-0.4127008318901062,-0.7665310502052307,-0.47857120633125305
1684201219436407800,11.34340771484375,-0.33992862701416016,-0.7451320290565491,-0.06461772322654724
1684201219446432000,11.353431884765625,-0.2171017825603485,-0.570544421672821,0.5569908618927002
1684201219456457000,11.36345703125,-0.008397841826081276,-0.21131888031959534,1.0015668869018555
1684201219466482000,11.37348193359375,0.27981317043304443,0.33339548110961914,1.0588866472244263
1684201219476507000,11.3835068359375,0.6407524943351746,0.835949182510376,0.8211073875427246
1684201219486532000,11.393531982421875,0.9969723224639893,1.3145525455474854,0.606304943561554
1684201219496557000,11.40355712890625,1.1347576379776,1.7516083717346191,0.6481112241744995
1684201219506580700,11.413580810546875,0.8927785754203796,1.5951508283615112,0.6590206623077393
1684201219516606000,11.42360595703125,0.5188763737678528,0.6688598990440369,0.17961835861206055
1684201219526631000,11.433630859375,0.4897099435329437,-0.11686541140079498,-0.43433162569999695
1684201219536656000,11.44365576171875,0.5005428791046143,-0.29958781599998474,-0.8938485980033875
1684201219546680800,11.453680908203125,0.47666844725608826,-0.05971696600317955,-1.1362301111221313
1684201219556706000,11.4637060546875,0.34509924054145813,-0.04670396447181702,-0.943493664264679
1684201219566729700,11.473729736328124,0.09103472530841827,-0.40572041273117065,-0.27464476227760315
1684201219576754700,11.483754638671876,-0.13805651664733887,-0.7680831551551819,0.1397590935230255
1684201219586780000,11.49377978515625,-0.3034806251525879,-0.9065890908241272,0.03172387182712555
1684201219596804900,11.503804931640625,-0.4130598306655884,-0.8960128426551819,-0.2798672914505005
1684201219606829800,11.513829833984374,-0.4284244179725647,-0.7150893211364746,-0.4078757166862488
1684201219616854800,11.523854736328126,-0.41982293128967285,-0.5062887072563171,-0.3284032642841339
1684201219626879000,11.53387890625,-0.43504050374031067,-0.2251548022031784,-0.13971099257469177
1684201219636904000,11.543904052734375,-0.3804489076137543,0.13143235445022583,0.0438910648226738
1684201219646929000,11.553928955078124,-0.3845230042934418,0.2154785543680191,0.03736282140016556
1684201219656953900,11.563953857421875,-0.4424062669277191,0.04995058476924896,-0.0688597559928894
1684201219666978800,11.573978759765625,-0.47271624207496643,-0.18684329092502594,-0.21621014177799225
1684201219677003800,11.584003662109374,-0.43167611956596375,-0.2722386419773102,-0.31482911109924316
1684201219687028000,11.594028076171876,-0.3709850609302521,-0.17463043332099915,-0.3302333354949951
1684201219697053000,11.604052978515625,-0.342896968126297,-0.15273579955101013,-0.2960894703865051
1684201219707078000,11.614077880859375,-0.33412614464759827,-0.18084295094013214,-0.31224629282951355
1684201219717103000,11.62410302734375,-0.33848947286605835,-0.19119705259799957,-0.353752464056015
1684201219727127800,11.6341279296875,-0.33213409781455994,-0.2856753170490265,-0.40138280391693115
1684201219737152800,11.64415283203125,-0.3367490768432617,-0.41951969265937805,-0.4483329951763153
1684201219747177000,11.654177001953125,-0.329213947057724,-0.5619344115257263,-0.4675481617450714
1684201219757202000,11.664201904296876,-0.271829217672348,-0.6533447504043579,-0.4860406219959259
1684201219767227000,11.674226806640625,-0.19955526292324066,-0.5813112258911133,-0.461055725812912
1684201219777251800,11.684251953125,-0.1275886744260788,-0.3531193435192108,-0.40544652938842773
1684201219787277000,11.694277099609375,-0.07257602363824844,0.0017753688152879477,-0.3060583472251892
1684201219797302000,11.704302001953126,-0.007081706076860428,0.27878567576408386,-0.20831316709518433
1684201219807326000,11.714325927734375,0.05263328179717064,0.279305636882782,-0.1724187433719635
1684201219817351000,11.724350830078125,-0.03323075920343399,0.13092496991157532,-0.18764030933380127
1684201219827375900,11.7343759765625,-0.23622462153434753,0.015906115993857384,-0.24266016483306885
1684201219837400800,11.74440087890625,-0.42828884720802307,-0.19942910969257355,-0.2839370369911194
1684201219847426000,11.754426025390625,-0.6262067556381226,-0.18165981769561768,-0.2739224135875702
1684201219857451000,11.764450927734375,-0.7384430170059204,0.1767105758190155,-0.28588053584098816
1684201219867474700,11.774474609375,-0.7497183084487915,0.36089032888412476,-0.33680909872055054
1684201219877500000,11.7845,-0.5738774538040161,-0.10104774683713913,-0.39694300293922424
1684201219887524900,11.79452490234375,-0.45219287276268005,-1.0875120162963867,-0.524294912815094
1684201219897549800,11.8045498046875,-0.3209267258644104,-2.294365167617798,-0.8332943320274353
1684201219907574800,11.81457470703125,-0.3343583643436432,-2.338440179824829,-0.8885215520858765
1684201219917599000,11.824598876953125,-0.45658066868782043,-0.6174426078796387,-0.29399216175079346
1684201219927624000,11.8346240234375,-0.1840120106935501,-0.43824467062950134,0.013989361003041267
1684201219937649000,11.84464892578125,-0.15579554438591003,-1.0350148677825928,-0.38683846592903137
1684201219947673900,11.854673828125,0.010080764070153236,-1.5105090141296387,-0.8490203619003296
1684201219957698800,11.86469873046875,0.16732817888259888,-1.8565462827682495,-1.0694390535354614
1684201219967723800,11.874723876953125,0.157884880900383,-1.9221491813659668,-1.1163806915283203
1684201219977748000,11.884748046875,0.15716928243637085,-1.547800898551941,-1.164294958114624
1684201219987773000,11.89477294921875,0.11643572151660919,-0.896141767501831,-1.1022483110427856
1684201219997798000,11.9047978515625,0.04164643585681915,-0.48419439792633057,-0.886650025844574
1684201220007823000,11.914822998046875,0.02711089514195919,-0.27430111169815063,-0.6396726965904236
1684201220017848000,11.92484814453125,0.03299009054899216,-0.09212120622396469,-0.4768126904964447
1684201220027872800,11.934872802734375,0.01898612640798092,-0.01216399297118187,-0.33593106269836426
1684201220037897000,11.94489697265625,0.027016889303922653,0.04048137366771698,-0.2857635021209717
1684201220047922000,11.954921875,0.08195683360099792,0.28077080845832825,-0.3431491255760193
1684201220057947000,11.96494677734375,0.034538187086582184,0.5332437753677368,-0.30238571763038635
1684201220067971800,11.974971923828125,-0.031515661627054214,0.7993153929710388,-0.09136821329593658
1684201220077997000,11.9849970703125,-0.07222074270248413,1.3450708389282227,0.3475031554698944
1684201220088022000,11.99502197265625,-0.02789376862347126,1.7152661085128784,0.8298363089561462
1684201220098046000,12.0050458984375,-0.01038694754242897,2.055168867111206,0.5938429832458496
1684201220108071000,12.01507080078125,-0.5545895099639893,2.1066787242889404,-0.5858039855957031
1684201220118095000,12.02509521484375,-0.30452218651771545,0.7629601359367371,-0.7310109734535217
1684201220128120000,12.0351201171875,-0.10663385689258575,-0.15137334167957306,-0.2823558449745178
1684201220138145300,12.045145263671875,-0.14457111060619354,0.06873771548271179,-0.018237391486763954
1684201220148170200,12.055170166015625,-0.060654107481241226,0.2313726842403412,0.14712288975715637
1684201220158194200,12.065194091796876,-0.047526855021715164,0.21967874467372894,0.09950929880142212
1684201220168219100,12.07521923828125,0.021991489455103874,-0.024169394746422768,0.1144525557756424
1684201220178244000,12.085244140625,0.05868212506175041,-0.19620560109615326,0.17050117254257202
1684201220188269000,12.09526904296875,0.10517692565917969,-0.26041296124458313,0.3118305504322052
1684201220198294300,12.105294189453126,0.11713531613349915,-0.26637762784957886,0.3347843289375305
1684201220208319200,12.1153193359375,0.1284199357032776,-0.266299307346344,0.32964327931404114
1684201220218343200,12.12534326171875,0.17878083884716034,-0.13678526878356934,0.40510475635528564
1684201220228368100,12.1353681640625,0.22772203385829926,0.024387188255786896,0.5042797327041626
1684201220238393000,12.14539306640625,0.2734873592853546,0.0646485909819603,0.5658027529716492
1684201220248418000,12.15541796875,0.3176676034927368,0.04744753614068031,0.6088768243789673
1684201220258443000,12.165443115234375,0.32544592022895813,0.11270803213119507,0.6373052597045898
1684201220268468200,12.17546826171875,0.35616761445999146,0.17687775194644928,0.6904830932617188
1684201220278492200,12.1854921875,0.42507022619247437,0.21477507054805756,0.7433966398239136
1684201220288517000,12.19551708984375,0.47444018721580505,0.2847467362880707,0.7726288437843323
1684201220298542300,12.205542236328125,0.5218348503112793,0.34379300475120544,0.7747154235839844
1684201220308567000,12.215567138671876,0.619438648223877,0.3793850839138031,0.7537124156951904
1684201220318592000,12.225592041015625,0.7280064225196838,0.4092140793800354,0.7372229099273682
1684201220328616200,12.2356162109375,0.7954903841018677,0.38897183537483215,0.7427831888198853
1684201220338641200,12.24564111328125,0.781427800655365,0.34514179825782776,0.7219375967979431
1684201220348666000,12.255666015625,0.7918469309806824,0.4462185502052307,0.6661235094070435
1684201220358691300,12.26569140625,0.8077382445335388,0.5301818251609802,0.6047144532203674
1684201220368716300,12.27571630859375,0.8579071760177612,0.5989223122596741,0.5544220805168152
1684201220378741200,12.2857412109375,0.9262646436691284,0.5359366536140442,0.5023833513259888
1684201220388766000,12.295765869140626,0.9960620999336243,0.34528693556785583,0.37822890281677246
1684201220398790100,12.3057900390625,1.0996737480163574,0.2998526096343994,0.34057551622390747
1684201220408815000,12.315815185546874,1.0326640605926514,0.26440390944480896,0.3512627184391022
1684201220418840000,12.325840087890626,0.9149200916290283,0.034085240215063095,0.39998364448547363
1684201220428865300,12.335865234375,0.7822390198707581,-0.179458349943161,0.4812594950199127
1684201220438890200,12.34589013671875,0.5892471671104431,-0.1547788381576538,0.39684155583381653
1684201220448914200,12.3559140625,0.4628530442714691,-0.16084162890911102,0.33870965242385864
1684201220458939100,12.365939208984376,0.44183990359306335,-0.08938716351985931,0.33421051502227783
1684201220468964000,12.375964111328125,0.4453752338886261,-0.08063431084156036,0.41764402389526367
1684201220478989000,12.385989013671875,0.4249695837497711,0.0804872065782547,0.5157240033149719
1684201220489014300,12.39601416015625,0.4115549623966217,0.08843599259853363,0.649379551410675
