time,seconds_elapsed,z,y,x
1684206656346733300,0.0367333984375,-0.011863140389323235,-0.019107503816485405,-0.015152184292674065
1684206656356758300,0.04675830078125,-0.0220034159719944,-0.008399915881454945,-0.03632214292883873
1684206656366783500,0.056783447265625,-0.015406766906380653,-0.03108152560889721,-0.05366571247577667
1684206656376809500,0.0668095703125,-0.0013493031729012728,-0.02334270440042019,-0.03489239513874054
1684206656386834400,0.07683447265625,0.015200645662844181,0.0006379970000125468,-0.008679968304932117
1684206656396859400,0.086859375,0.029311783611774445,0.025600021705031395,0.03605806827545166
1684206656406885400,0.096885498046875,0.03393742814660072,0.04397103935480118,0.05682220309972763
1684206656416910300,0.106910400390625,0.03780895099043846,0.05728035420179367,0.03646102547645569
1684206656426935600,0.116935546875,0.04873749986290932,0.04940192773938179,0.0076924944296479225
1684206656436961500,0.12696142578125,0.01610064134001732,0.033012133091688156,-0.011906260624527931
1684206656446986500,0.136986572265625,-0.014750215224921703,0.015989739447832108,-0.038829486817121506
1684206656457011500,0.147011474609375,-0.05254681408405304,-0.011357925832271576,-0.07611346989870071
1684206656467036400,0.157036376953125,-0.11878655105829239,-0.04377099499106407,-0.11226481199264526
1684206656477062400,0.1670625,-0.49936825037002563,-0.1576956957578659,-0.22856612503528595
1684206656487087600,0.177087646484375,-0.709288477897644,-0.1874983310699463,-0.3169138431549072
1684206656497112600,0.187112548828125,-0.8671689629554749,-0.2654305696487427,-0.29266899824142456
1684206656507138600,0.197138671875,-0.8957297205924988,-0.2680732011795044,-0.3023650348186493
1684206656517163500,0.20716357421875,-0.9791358113288879,-0.22244176268577576,-0.31006619334220886
1684206656527188500,0.2171884765625,-1.053435206413269,-0.2075059562921524,-0.3045198917388916
1684206656537214500,0.22721435546875,-1.0976113080978394,-0.1958068311214447,-0.2845417261123657
1684206656547239400,0.237239501953125,-1.1140456199645996,-0.20312359929084778,-0.2948657274246216
1684206656557264400,0.247264404296875,-1.0816303491592407,-0.19598795473575592,-0.33058249950408936
1684206656567290400,0.257290283203125,-1.0504188537597656,-0.21134108304977417,-0.36388692259788513
1684206656577315300,0.2673154296875,-1.0534708499908447,-0.19308367371559143,-0.3515719473361969
1684206656587340300,0.27734033203125,-1.0912270545959473,-0.21136201918125153,-0.3117915093898773
1684206656597366300,0.2873662109375,-1.0968049764633179,-0.25303715467453003,-0.30668625235557556
1684206656607391200,0.29739111328125,-1.1241785287857056,-0.2532994747161865,-0.35664716362953186
1684206656617416400,0.30741650390625,-1.1915761232376099,-0.2585490942001343,-0.42805686593055725
1684206656627441400,0.31744140625,-1.298416018486023,-0.2508413791656494,-0.4507690966129303
1684206656637467400,0.32746728515625,-1.3957310914993286,-0.19208413362503052,-0.441604346036911
1684206656647492400,0.337492431640625,-1.452776551246643,-0.2134770303964615,-0.47685128450393677
1684206656657517300,0.347517333984375,-1.4979008436203003,-0.23429690301418304,-0.43121054768562317
1684206656667543300,0.357543212890625,-1.502651333808899,-0.18229494988918304,-0.32062891125679016
1684206656677568500,0.367568603515625,-1.4668450355529785,-0.17221325635910034,-0.22229716181755066
1684206656687593500,0.377593505859375,-1.4637898206710815,-0.16541634500026703,-0.24606028199195862
1684206656697619500,0.387619384765625,-1.443476915359497,-0.1091686338186264,-0.4173109531402588
1684206656707644400,0.39764453125,-1.5242834091186523,-0.12309430539608002,-0.4869680404663086
1684206656717669400,0.40766943359375,-1.6130751371383667,-0.20836396515369415,-0.4392983317375183
1684206656727695400,0.4176953125,-1.6328232288360596,-0.2592306137084961,-0.30367153882980347
1684206656737720600,0.427720458984375,-1.6157138347625732,-0.3616580069065094,-0.28796839714050293
1684206656747745500,0.43774560546875,-1.5751535892486572,-0.44999825954437256,-0.34349849820137024
1684206656757771500,0.447771484375,-1.4808781147003174,-0.36981403827667236,-0.3754303753376007
1684206656767796500,0.45779638671875,-1.3359593152999878,-0.3579768240451813,-0.41830435395240784
1684206656777821200,0.4678212890625,-1.1718077659606934,-0.44649025797843933,-0.5003904104232788
1684206656787846400,0.477846435546875,-1.0101895332336426,-0.472931444644928,-0.5495861768722534
1684206656797872400,0.487872314453125,-0.7584954500198364,-0.40856844186782837,-0.43163013458251953
1684206656807897300,0.4978974609375,-0.3247741162776947,0.17845085263252258,-0.16291344165802002
1684206656817922300,0.50792236328125,-0.2914809584617615,0.7118239998817444,-0.12464465200901031
1684206656827948300,0.5179482421875,-0.1310957968235016,0.2618233263492584,-0.2033674269914627
1684206656837973200,0.52797314453125,0.26918652653694153,-0.08964712917804718,-0.13687315583229065
1684206656847998500,0.53799853515625,0.33701324462890625,-0.4137362539768219,-0.13136520981788635
1684206656858024400,0.5480244140625,0.3179280757904053,-0.6619049310684204,-0.069998599588871
1684206656868049400,0.55804931640625,0.2909633219242096,-0.6439584493637085,0.030156230553984642
1684206656878074400,0.568074462890625,0.25190770626068115,-0.5350927114486694,0.1255161315202713
1684206656888100400,0.578100341796875,0.09680681675672531,-0.25647464394569397,0.2646756172180176
1684206656898125300,0.588125244140625,0.07657591998577118,0.05116656422615051,0.17804555594921112
1684206656908150500,0.598150634765625,0.0651584193110466,0.22380785644054413,0.07697593420743942
1684206656918175500,0.608175537109375,0.028477424755692482,0.2530573010444641,0.08438411355018616
1684206656928201500,0.618201416015625,0.014092894271016121,0.21559250354766846,0.0847388505935669
1684206656938226400,0.628226318359375,0.0353986956179142,0.1306481808423996,0.04718342423439026
1684206656948251400,0.63825146484375,0.04869665950536728,-0.0019492767751216888,-0.03177370876073837
1684206656958277400,0.64827734375,0.08129946142435074,-0.1404784470796585,-0.09564310312271118
1684206656968302600,0.658302490234375,0.07449721544981003,-0.2378992736339569,-0.14509640634059906
1684206656978327600,0.66832763671875,0.04765195772051811,-0.29208576679229736,-0.21669022738933563
1684206656988353800,0.678353759765625,0.008531720377504826,-0.2849157452583313,-0.27501529455184937
1684206656998378800,0.688378662109375,-0.01259145513176918,-0.24499264359474182,-0.25248420238494873
1684206657008403700,0.69840380859375,-0.03251482918858528,-0.17023904621601105,-0.20968852937221527
1684206657018429700,0.7084296875,-0.04988681897521019,-0.07576601952314377,-0.16451793909072876
1684206657028454700,0.71845458984375,-0.07106374204158783,-0.060216616839170456,-0.1502644270658493
1684206657038480000,0.72847998046875,-0.08342382311820984,-0.056722547858953476,-0.15713642537593842
1684206657048504800,0.7385048828125,-0.10045899450778961,-0.055990710854530334,-0.16738399863243103
1684206657058530800,0.74853076171875,-0.10092239826917648,-0.09216087311506271,-0.17169171571731567
1684206657068555800,0.7585556640625,-0.08569204062223434,-0.12159040570259094,-0.16856250166893005
1684206657078580700,0.768580810546875,-0.06452831625938416,-0.11777500063180923,-0.1521894782781601
1684206657088606700,0.778606689453125,-0.07414978742599487,-0.13002847135066986,-0.1283581703901291
1684206657098632000,0.7886318359375,-0.08828433603048325,-0.1561385840177536,-0.10629332065582275
1684206657108657000,0.798656982421875,-0.1171649843454361,-0.2385074943304062,-0.09856376051902771
1684206657118683000,0.808682861328125,-0.15285296738147736,-0.3510169982910156,-0.10398851335048676
1684206657128707800,0.818707763671875,-0.1788765788078308,-0.4303312599658966,-0.10463486611843109
1684206657138732800,0.82873291015625,-0.196659117937088,-0.4612792134284973,-0.10052109509706497
1684206657148758800,0.8387587890625,-0.20646381378173828,-0.4457804262638092,-0.09459902346134186
1684206657158784000,0.848783935546875,-0.21604570746421814,-0.4132079780101776,-0.09271565824747086
1684206657168809000,0.85880908203125,-0.2194042205810547,-0.3649807870388031,-0.08349233120679855
1684206657178835000,0.8688349609375,-0.2197922170162201,-0.30530697107315063,-0.06889810413122177
1684206657188860000,0.87885986328125,-0.2029767483472824,-0.2157542109489441,-0.04328674450516701
1684206657198884600,0.888884521484375,-0.1688631922006607,-0.0811469703912735,0.0030451861675828695
1684206657208909800,0.898909912109375,-0.12833520770072937,0.07496833056211472,0.06092659384012222
1684206657218935800,0.908935791015625,-0.07972104847431183,0.24110686779022217,0.12911023199558258
1684206657228960800,0.918960693359375,-0.028438424691557884,0.4050619900226593,0.1883234977722168
1684206657238985700,0.92898583984375,0.02105667069554329,0.5553443431854248,0.23769891262054443
1684206657249011700,0.93901171875,0.07397900521755219,0.7046741843223572,0.26469886302948
1684206657259036700,0.94903662109375,0.12553751468658447,0.8265316486358643,0.2882317006587982
1684206657269062000,0.959061767578125,0.1546458601951599,0.9144894480705261,0.31563109159469604
1684206657279087900,0.969087890625,0.1761595904827118,0.9914119839668274,0.32726091146469116
1684206657289112800,0.97911279296875,0.18237140774726868,1.0686063766479492,0.3316356837749481
1684206657299137800,0.9891376953125,0.16888368129730225,1.1495176553726196,0.3366561532020569
1684206657309163800,0.999163818359375,0.1455879509449005,1.2029465436935425,0.3267718553543091
1684206657319188700,1.009188720703125,0.10783310234546661,1.2132956981658936,0.3079826235771179
1684206657329214000,1.0192138671875,0.06270130723714828,1.2019671201705933,0.28030678629875183
1684206657339239000,1.029239013671875,0.010205039754509926,1.1708372831344604,0.2618234157562256
1684206657349265000,1.039264892578125,-0.05007534101605415,1.1472059488296509,0.25280168652534485
1684206657359289900,1.049289794921875,-0.10981377959251404,1.1199774742126465,0.23341701924800873
1684206657369314800,1.059314697265625,-0.15718954801559448,1.0624902248382568,0.20687994360923767
1684206657379340800,1.0693408203125,-0.19077087938785553,0.9807862043380737,0.1700606495141983
1684206657389366000,1.079365966796875,-0.20934775471687317,0.8891814351081848,0.1028515174984932
1684206657399391000,1.089390869140625,-0.2304433435201645,0.7568888068199158,0.03391987085342407
1684206657409417000,1.0994169921875,-0.22764277458190918,0.631350040435791,-0.03984196484088898
1684206657419442000,1.10944189453125,-0.21229563653469086,0.5593125820159912,-0.11715669929981232
1684206657429466600,1.119466552734375,-0.19154402613639832,0.4688947796821594,-0.17630498111248016
1684206657439492900,1.129492919921875,-0.168927863240242,0.3767114579677582,-0.22012478113174438
1684206657449517800,1.139517822265625,-0.16966822743415833,0.2523415684700012,-0.2694462537765503
1684206657459542800,1.149542724609375,-0.18563245236873627,0.10474057495594025,-0.3159213066101074
1684206657469567700,1.159567626953125,-0.2154902219772339,-0.03826318308711052,-0.34163734316825867
1684206657479593700,1.16959375,-0.2265147715806961,-0.13584208488464355,-0.35343626141548157
1684206657489618700,1.17961865234375,-0.20217667520046234,-0.14799408614635468,-0.34565451741218567
1684206657499644000,1.189643798828125,-0.21225228905677795,-0.17424793541431427,-0.31801638007164
1684206657509670000,1.199669921875,-0.2397925704717636,-0.1443488895893097,-0.30096468329429626
1684206657519694800,1.20969482421875,-0.26301297545433044,-0.08318911492824554,-0.2944951057434082
1684206657529719800,1.2197197265625,-0.28299814462661743,-0.07460255175828934,-0.28327709436416626
1684206657539745800,1.229745849609375,-0.29654037952423096,-0.13003426790237427,-0.276212215423584
1684206657549770800,1.239770751953125,-0.3116479516029358,-0.22758986055850983,-0.29084041714668274
1684206657559796000,1.2497958984375,-0.34068936109542847,-0.35155755281448364,-0.31624388694763184
1684206657569822000,1.259822021484375,-0.373823344707489,-0.4774838089942932,-0.3463522493839264
1684206657579847000,1.269846923828125,-0.40666061639785767,-0.5730275511741638,-0.3737378716468811
1684206657589871900,1.279871826171875,-0.42147842049598694,-0.6371226906776428,-0.39436566829681396
1684206657599897900,1.28989794921875,-0.4248310923576355,-0.7426401972770691,-0.420461505651474
1684206657609922800,1.2999228515625,-0.40677377581596375,-0.9137549996376038,-0.49302729964256287
1684206657619948000,1.309947998046875,-0.3961782157421112,-1.1280179023742676,-0.595108687877655
1684206657629973000,1.319972900390625,-0.39330601692199707,-1.29896879196167,-0.6935492157936096
1684206657639999000,1.3299990234375,-0.4011538028717041,-1.416917085647583,-0.7336673736572266
1684206657650024000,1.34002392578125,-0.3947907090187073,-1.495902419090271,-0.6973338723182678
1684206657660048600,1.350048583984375,-0.34800273180007935,-1.5237842798233032,-0.6163422465324402
1684206657670075000,1.360074951171875,-0.2617693245410919,-1.4419491291046143,-0.5123732686042786
1684206657680099800,1.370099853515625,-0.1743156462907791,-1.2793408632278442,-0.41697415709495544
1684206657690124800,1.380124755859375,-0.09584587812423706,-1.1104024648666382,-0.34471622109413147
1684206657700150800,1.39015087890625,-0.04900540038943291,-0.9934698939323425,-0.2878883481025696
1684206657710175700,1.40017578125,-0.02134554274380207,-0.9779239892959595,-0.2347484529018402
1684206657720200700,1.41020068359375,0.02232459932565689,-0.957411527633667,-0.14516671001911163
1684206657730226700,1.420226806640625,0.06340599060058594,-0.9008774161338806,-0.036258865147829056
1684206657740252000,1.430251953125,0.11644420772790909,-0.8158680200576782,0.08539476245641708
1684206657750276900,1.44027685546875,0.16816465556621552,-0.7130382657051086,0.23990444839000702
1684206657760301800,1.4503017578125,0.2417200207710266,-0.622637927532196,0.40370863676071167
1684206657770327800,1.460327880859375,0.2990693151950836,-0.6062692999839783,0.5560089945793152
1684206657780352800,1.470352783203125,0.3506065607070923,-0.6678084135055542,0.6881048679351807
1684206657790377700,1.480377685546875,0.3955974578857422,-0.7240860462188721,0.7945908308029175
1684206657800403700,1.49040380859375,0.45704567432403564,-0.7174259424209595,0.8888379335403442
1684206657810429000,1.500428955078125,0.5175750851631165,-0.6414473056793213,0.9837788343429565
1684206657820454000,1.510453857421875,0.5507222414016724,-0.5526002049446106,1.0944405794143677
1684206657830480000,1.52047998046875,0.5768520832061768,-0.46215686202049255,1.200118899345398
1684206657840504800,1.5305048828125,0.5834372043609619,-0.27924224734306335,1.3517967462539673
1684206657850529800,1.54052978515625,0.5965500473976135,-0.04595734551548958,1.5366557836532593
1684206657860555000,1.550554931640625,0.6195414066314697,0.26241016387939453,1.6986110210418701
1684206657870581000,1.5605810546875,0.6338627934455872,0.7139504551887512,1.8405535221099854
1684206657880606000,1.57060595703125,0.6914314031600952,1.1712068319320679,1.882748007774353
1684206657890630700,1.580630615234375,0.7612238526344299,1.6082932949066162,1.8621010780334473
1684206657900657000,1.590656982421875,0.905210018157959,1.794929027557373,1.757690191268921
1684206657910681600,1.600681640625,1.04962956905365,1.7379120588302612,1.6287609338760376
1684206657920706800,1.610706787109375,1.1761335134506226,1.69977605342865,1.5722709894180298
1684206657930732800,1.62073291015625,1.2899590730667114,1.7438417673110962,1.523985743522644
1684206657940757800,1.6307578125,1.3300155401229858,1.6096701622009277,1.435106635093689
1684206657950782700,1.64078271484375,1.336659550666809,1.1734739542007446,1.3176043033599854
1684206657960808700,1.65080859375,1.27769935131073,0.42022475600242615,1.2509442567825317
1684206657970833700,1.660833740234375,1.197221040725708,-0.3090986907482147,1.173302412033081
1684206657980859000,1.67085888671875,1.071596384048462,-0.8179916739463806,1.055452585220337
1684206657990883800,1.6808837890625,0.9271471500396729,-1.2035069465637207,0.8692489266395569
1684206658000909800,1.690909912109375,0.8006859421730042,-1.4598640203475952,0.6965625286102295
1684206658010934800,1.700934814453125,0.7166823744773865,-1.5214791297912598,0.5726946592330933
1684206658020959500,1.71095947265625,0.6711991429328918,-1.4633172750473022,0.47981396317481995
1684206658030985700,1.72098583984375,0.6439208984375,-1.3094419240951538,0.41139042377471924
1684206658041010700,1.7310107421875,0.5997433066368103,-1.1141598224639893,0.33867546916007996
1684206658051035600,1.74103564453125,0.540661096572876,-0.8642683625221252,0.2707992196083069
1684206658061061600,1.7510615234375,0.4671909511089325,-0.6599090695381165,0.16672593355178833
1684206658071086600,1.761086669921875,0.41320469975471497,-0.49179062247276306,0.045429591089487076
1684206658081111600,1.771111572265625,0.3880503177642822,-0.382962167263031,-0.1001606285572052
1684206658091137500,1.781137451171875,0.37982383370399475,-0.36154529452323914,-0.24595192074775696
1684206658101162800,1.791162841796875,0.397349089384079,-0.39566606283187866,-0.38145050406455994
1684206658111187700,1.801187744140625,0.40149936079978943,-0.4147617518901825,-0.4913434386253357
1684206658121212700,1.811212646484375,0.3828328847885132,-0.40665239095687866,-0.5932022333145142
1684206658131238700,1.82123876953125,0.3416132628917694,-0.3496013581752777,-0.6976476907730103
1684206658141263600,1.831263671875,0.2936093211174011,-0.1601124107837677,-0.7649163603782654
1684206658151288800,1.841288818359375,0.23570844531059265,-0.018448226153850555,-0.8244867324829102
1684206658161314800,1.851314697265625,0.17189697921276093,0.029814377427101135,-0.8469702005386353
1684206658171339800,1.86133984375,0.09152224659919739,0.05356897413730621,-0.8361015915870667
1684206658181364700,1.87136474609375,0.013024348765611649,0.032203808426856995,-0.7918043732643127
1684206658191390700,1.881390625,-0.07062607258558273,0.0463009849190712,-0.7357062101364136
1684206658201415700,1.891415771484375,-0.13014395534992218,0.07208981364965439,-0.6616679430007935
1684206658211441000,1.90144091796875,-0.18170514702796936,0.08577392995357513,-0.5852517485618591
1684206658221467000,1.911466796875,-0.21992327272891998,0.07504409551620483,-0.47331738471984863
1684206658231491800,1.921491943359375,-0.25423648953437805,0.02284320630133152,-0.35809600353240967
1684206658241516800,1.931516845703125,-0.2738669514656067,0.0047811297699809074,-0.24720372259616852
1684206658251541500,1.94154150390625,-0.2874898314476013,0.019489768892526627,-0.13210429251194
1684206658261567700,1.951567626953125,-0.29199743270874023,-0.027709104120731354,-0.04586873576045036
1684206658271592700,1.9615927734375,-0.25928422808647156,0.02990465797483921,0.057443536818027496
1684206658281617700,1.97161767578125,-0.206729456782341,0.1432478278875351,0.17135576903820038
1684206658291643600,1.9816435546875,-0.15644951164722443,0.2174256592988968,0.18562152981758118
1684206658301668600,1.991668701171875,-0.12358424067497253,0.32749730348587036,0.11028176546096802
1684206658311693600,2.001693603515625,-0.0759381577372551,0.4885288178920746,-0.005763348191976547
1684206658321719600,2.011719482421875,-0.013794461265206337,0.664438784122467,-0.1576448231935501
1684206658331744800,2.021744873046875,0.02409086935222149,0.8154144883155823,-0.25929078459739685
1684206658341769700,2.031769775390625,0.025930067524313927,0.9183651804924011,-0.31894466280937195
1684206658351794700,2.041794677734375,-0.0447627454996109,0.9085801839828491,-0.35851338505744934
1684206658361820700,2.051820556640625,-0.12869691848754883,0.7822760343551636,-0.4279683828353882
1684206658371845600,2.061845703125,-0.1485246866941452,0.6060842275619507,-0.5222000479698181
1684206658381870800,2.071870849609375,-0.13950107991695404,0.5230302810668945,-0.5912697315216064
1684206658391896800,2.081896728515625,-0.1410992294549942,0.5131134390830994,-0.6420834064483643
1684206658401921800,2.091921875,-0.16992779076099396,0.47467735409736633,-0.639833390712738
1684206658411946800,2.10194677734375,-0.21782128512859344,0.3418758809566498,-0.5895581841468811
1684206658421972700,2.11197265625,-0.3128424286842346,0.1683640033006668,-0.4948466718196869
1684206658431997700,2.121997802734375,-0.414235919713974,0.011852944269776344,-0.40628349781036377
1684206658442023000,2.13202294921875,-0.5071790218353271,-0.07488982379436493,-0.3613603115081787
1684206658452049000,2.142048828125,-0.5987411737442017,-0.10106044262647629,-0.37633848190307617
1684206658462073900,2.152073974609375,-0.705725908279419,-0.08136370033025742,-0.4194481074810028
1684206658472098800,2.162098876953125,-0.7826292514801025,-0.051755744963884354,-0.4586884677410126
1684206658482123500,2.17212353515625,-0.8274624943733215,0.005270072724670172,-0.43837404251098633
1684206658492149800,2.182149658203125,-0.8588377237319946,0.0634383037686348,-0.33478426933288574
1684206658502174700,2.1921748046875,-0.8810270428657532,0.10731196403503418,-0.1800832450389862
1684206658512199700,2.20219970703125,-0.8310840129852295,0.18629173934459686,0.0012932023964822292
1684206658522225700,2.2122255859375,-0.7139330506324768,0.2488214373588562,0.15510936081409454
1684206658532250600,2.222250732421875,-0.5813798308372498,0.3561233878135681,0.29079315066337585
1684206658542275600,2.232275634765625,-0.47066232562065125,0.4432283341884613,0.37485021352767944
1684206658552301600,2.242301513671875,-0.3893458843231201,0.4690716564655304,0.39561033248901367
1684206658562326800,2.252326904296875,-0.34490227699279785,0.38933441042900085,0.37334513664245605
1684206658572351700,2.262351806640625,-0.3296748697757721,0.2039152830839157,0.33973896503448486
1684206658582377700,2.272377685546875,-0.3335067927837372,-0.008053642697632313,0.28517577052116394
1684206658592402700,2.282402587890625,-0.3311706781387329,-0.2516407370567322,0.18296603858470917
1684206658602427600,2.292427734375,-0.30250120162963867,-0.489046186208725,0.06054751202464104
1684206658612452900,2.302452880859375,-0.22278214991092682,-0.7352259159088135,-0.07426144182682037
1684206658622478800,2.312478759765625,-0.1183319017291069,-0.9016071557998657,-0.20220954716205597
1684206658632503800,2.32250390625,-0.06253601610660553,-0.955014705657959,-0.27735570073127747
1684206658642528800,2.33252880859375,-0.06868615746498108,-0.9353275895118713,-0.30424463748931885
1684206658652554800,2.3425546875,-0.15278665721416473,-0.846885621547699,-0.31047165393829346
1684206658662579700,2.352579833984375,-0.2712280750274658,-0.701701283454895,-0.3055674433708191
1684206658672604700,2.362604736328125,-0.3893333971500397,-0.6342886686325073,-0.2797965705394745
1684206658682630700,2.372630615234375,-0.5245372653007507,-0.6427872776985168,-0.23327645659446716
1684206658692655900,2.38265576171875,-0.6599875092506409,-0.6714410185813904,-0.17723901569843292
1684206658702680800,2.392680908203125,-0.7780711650848389,-0.6657792329788208,-0.09723124653100967
1684206658712705500,2.40270556640625,-0.8560804724693298,-0.6936593651771545,-0.01839608885347843
1684206658722731800,2.412731689453125,-0.8753679394721985,-0.7417414784431458,0.04008425399661064
1684206658732756700,2.4227568359375,-0.8199939131736755,-0.7688176035881042,0.056468021124601364
1684206658742781700,2.43278173828125,-0.6975629329681396,-0.7366303205490112,0.02218351513147354
1684206658752807700,2.4428076171875,-0.5411072969436646,-0.5853680968284607,-0.05223958566784859
1684206658762832600,2.45283251953125,-0.375710666179657,-0.3970107436180115,-0.1611352413892746
1684206658772857600,2.462857666015625,-0.22384952008724213,-0.15341590344905853,-0.28830865025520325
1684206658782883600,2.472883544921875,-0.07909750938415527,0.1658196598291397,-0.3733147382736206
1684206658792908500,2.482908447265625,0.0488537959754467,0.5640761852264404,-0.382477343082428
1684206658802933800,2.492933837890625,0.15263187885284424,0.9476107954978943,-0.3324907124042511
1684206658812959700,2.502959716796875,0.23269502818584442,1.2465547323226929,-0.24394141137599945
1684206658822984700,2.512984619140625,0.28932562470436096,1.4559730291366577,-0.11899034678936005
1684206658833009700,2.523009765625,0.3363107144832611,1.3626428842544556,-0.029218651354312897
1684206658843034600,2.53303466796875,0.38755664229393005,1.1393145322799683,-0.009798229672014713
1684206658853060600,2.543060546875,0.46141037344932556,1.0094350576400757,-0.02521873079240322
1684206658863085800,2.5530859375,0.5261978507041931,0.9667991399765015,-0.0445522703230381
1684206658873110800,2.56311083984375,0.5396204590797424,0.9486851096153259,-0.053960420191287994
1684206658883136800,2.57313671875,0.5295255184173584,0.9062531590461731,-0.07573889940977097
1684206658893161700,2.58316162109375,0.47575441002845764,0.8902329206466675,-0.11475767195224762
1684206658903186700,2.593186767578125,0.3781355917453766,0.9615412950515747,-0.14094312489032745
1684206658913212700,2.603212646484375,0.2751636803150177,0.9692381024360657,-0.13986507058143616
1684206658923238000,2.61323779296875,0.1921144276857376,0.838403582572937,-0.12204274535179138
1684206658933262800,2.623262939453125,0.11564415693283081,0.6634042859077454,-0.1327182948589325
1684206658943287600,2.63328759765625,0.08001711219549179,0.4964648187160492,-0.16034455597400665
1684206658953313800,2.643313720703125,0.1023264080286026,0.34023579955101013,-0.214753195643425
1684206658963338500,2.65333837890625,0.174671471118927,0.1999673694372177,-0.30278250575065613
1684206658973363700,2.66336376953125,0.25415724515914917,0.0540463887155056,-0.4011452794075012
1684206658983389700,2.6733896484375,0.3667239844799042,-0.1516256332397461,-0.49885624647140503
1684206658993415000,2.683414794921875,0.5011081695556641,-0.3762512803077698,-0.571038544178009
1684206659003439900,2.69343994140625,0.6063076853752136,-0.5373525619506836,-0.5233414173126221
1684206659013465900,2.7034658203125,0.6289011240005493,-0.5913111567497253,-0.3798913061618805
1684206659023490800,2.71349072265625,0.5911796689033508,-0.6876375675201416,-0.22636795043945312
1684206659033516000,2.72351611328125,0.5022891759872437,-0.7901250123977661,-0.057698771357536316
1684206659043541000,2.733541015625,0.3189995586872101,-0.8085365295410156,0.1249365508556366
1684206659053567000,2.74356689453125,0.11362803727388382,-0.6970939040184021,0.26717546582221985
1684206659063592000,2.753592041015625,-0.03704023361206055,-0.6136614680290222,0.3586159944534302
1684206659073617000,2.763616943359375,-0.1249687597155571,-0.6277104616165161,0.400130957365036
1684206659083643000,2.773642822265625,-0.20460371673107147,-0.6070791482925415,0.3633776903152466
1684206659093668000,2.783668212890625,-0.27702441811561584,-0.5051514506340027,0.32988470792770386
1684206659103693000,2.793693115234375,-0.3295198678970337,-0.23189619183540344,0.2934756577014923
1684206659113719000,2.803718994140625,-0.3477073907852173,0.0997949168086052,0.27525803446769714
1684206659123744000,2.813743896484375,-0.34162580966949463,0.31387096643447876,0.2705298662185669
1684206659133769000,2.82376904296875,-0.33138275146484375,0.45942017436027527,0.26270976662635803
1684206659143795000,2.833794921875,-0.30992233753204346,0.5434556603431702,0.23231282830238342
1684206659153820200,2.843820068359375,-0.2894144058227539,0.5927243828773499,0.1473531872034073
1684206659163845000,2.85384521484375,-0.25191453099250793,0.7299071550369263,0.052610691636800766
1684206659173869800,2.863869873046875,-0.22607174515724182,0.8338532447814941,0.01014738716185093
1684206659183896000,2.87389599609375,-0.20655569434165955,0.8477091193199158,0.029780499637126923
1684206659193920800,2.883920654296875,-0.21878041326999664,0.8258440494537354,0.08107591420412064
1684206659203946000,2.893946044921875,-0.2623198926448822,0.8080011010169983,0.16373440623283386
1684206659213972000,2.903971923828125,-0.32205885648727417,0.8005656003952026,0.2520887851715088
1684206659223997000,2.913996826171875,-0.36441367864608765,0.8185305595397949,0.3104385435581207
1684206659234022000,2.92402197265625,-0.3842584788799286,0.9639660716056824,0.35202115774154663
1684206659244048000,2.9340478515625,-0.37896230816841125,1.0924662351608276,0.3877042829990387
1684206659254072800,2.94407275390625,-0.36378201842308044,1.233873724937439,0.4070654809474945
1684206659264098000,2.95409814453125,-0.3527572453022003,1.36734139919281,0.4167737364768982
1684206659274123000,2.964123046875,-0.338585764169693,1.4554589986801147,0.4254090487957001
1684206659284149000,2.97414892578125,-0.326415091753006,1.504310131072998,0.424409955739975
1684206659294174000,2.984174072265625,-0.3136763870716095,1.516198754310608,0.39863377809524536
1684206659304199000,2.994198974609375,-0.2952422797679901,1.4820102453231812,0.3548288941383362
1684206659314225000,3.004224853515625,-0.2659856081008911,1.4005582332611084,0.30507197976112366
1684206659324249900,3.014249755859375,-0.23375791311264038,1.2625274658203125,0.2648564875125885
1684206659334275000,3.024275146484375,-0.2012103646993637,1.1415592432022095,0.23520536720752716
1684206659344301000,3.034301025390625,-0.17526346445083618,1.057867407798767,0.1971910297870636
1684206659354326000,3.044325927734375,-0.16874803602695465,0.9794498085975647,0.152199849486351
1684206659364351000,3.05435107421875,-0.16399367153644562,0.8559897541999817,0.0998634323477745
1684206659374377000,3.064376953125,-0.16886885464191437,0.7171101570129395,0.02727205492556095
1684206659384402000,3.07440185546875,-0.17262530326843262,0.5760647654533386,-0.03874862939119339
1684206659394427100,3.08442724609375,-0.17977270483970642,0.4465896189212799,-0.10137126594781876
1684206659404451800,3.094451904296875,-0.17595069110393524,0.35526055097579956,-0.1596619188785553
1684206659414478000,3.10447802734375,-0.17236235737800598,0.29362353682518005,-0.2065436691045761
1684206659424502800,3.114502685546875,-0.17300646007061005,0.2647719085216522,-0.2570061981678009
1684206659434528000,3.124528076171875,-0.18366870284080505,0.26247304677963257,-0.308512806892395
1684206659444553700,3.1345537109375,-0.19547314941883087,0.2778737545013428,-0.37515249848365784
1684206659454579000,3.144578857421875,-0.2214709222316742,0.31025221943855286,-0.4440165162086487
1684206659464604000,3.15460400390625,-0.25495490431785583,0.32710036635398865,-0.4877448081970215
1684206659474630000,3.1646298828125,-0.2968656122684479,0.3078579604625702,-0.5042647123336792
1684206659484654800,3.17465478515625,-0.3459087312221527,0.2301655411720276,-0.48816633224487305
1684206659494679800,3.1846796875,-0.40842190384864807,0.0850999653339386,-0.43959134817123413
1684206659504705000,3.194705078125,-0.47866395115852356,-0.1583251953125,-0.3806975185871124
1684206659514731000,3.20473095703125,-0.5252155065536499,-0.4702918827533722,-0.3480740487575531
1684206659524756000,3.214755859375,-0.5167741775512695,-0.7986546158790588,-0.36836758255958557
1684206659534781000,3.224781005859375,-0.4733444154262543,-1.1028996706008911,-0.42654648423194885
1684206659544807000,3.234806884765625,-0.4470493197441101,-1.3205933570861816,-0.4944112002849579
1684206659554832000,3.244831787109375,-0.41667357087135315,-1.3906149864196777,-0.5269262790679932
1684206659564857000,3.254857177734375,-0.3975302577018738,-1.3885635137557983,-0.5286922454833984
1684206659574883000,3.264883056640625,-0.3704613447189331,-1.365028738975525,-0.5480489134788513
1684206659584908000,3.274907958984375,-0.3547147214412689,-1.3506748676300049,-0.6010159254074097
1684206659594933000,3.28493310546875,-0.3249909281730652,-1.3134644031524658,-0.6540061831474304
1684206659604958000,3.2949580078125,-0.26976439356803894,-1.214894413948059,-0.6674835085868835
1684206659614984000,3.30498388671875,-0.2157674878835678,-1.0500627756118774,-0.6556859612464905
1684206659625009200,3.315009033203125,-0.14750716090202332,-0.8181124925613403,-0.6251171827316284
1684206659635033900,3.325033935546875,-0.08321525156497955,-0.5329155921936035,-0.596307098865509
1684206659645060000,3.33506005859375,-0.018603835254907608,-0.2716599404811859,-0.5710061192512512
1684206659655084800,3.345084716796875,0.04485316574573517,-0.056763604283332825,-0.5620169043540955
1684206659665109800,3.35510986328125,0.10755655914545059,0.03625356778502464,-0.5683209896087646
1684206659675135700,3.3651357421875,0.15452486276626587,0.02998208999633789,-0.558278501033783
1684206659685161000,3.375160888671875,0.17152735590934753,-0.08132121711969376,-0.4961758255958557
1684206659695186000,3.38518603515625,0.1417311131954193,-0.24890168011188507,-0.3731766641139984
1684206659705212000,3.3952119140625,0.0754585862159729,-0.35941746830940247,-0.24198445677757263
1684206659715236900,3.40523681640625,-0.013166350312530994,-0.36740776896476746,-0.13415226340293884
1684206659725261800,3.41526171875,-0.07884149998426437,-0.3571711480617523,-0.0760767012834549
1684206659735287000,3.425287109375,-0.10486564040184021,-0.3898193836212158,-0.07801388949155807
1684206659745313000,3.43531298828125,-0.14492949843406677,-0.3890136480331421,-0.09661246091127396
1684206659755338000,3.445337890625,-0.19264189898967743,-0.3571518659591675,-0.13407620787620544
1684206659765363000,3.455363037109375,-0.21950283646583557,-0.3266165554523468,-0.15189532935619354
1684206659775389000,3.465388916015625,-0.22087222337722778,-0.3348366916179657,-0.10807433724403381
1684206659785414000,3.475413818359375,-0.1763918399810791,-0.3595722019672394,-0.007837160490453243
1684206659795439000,3.485439208984375,-0.07283002883195877,-0.333406925201416,0.11164529621601105
1684206659805465000,3.495465087890625,0.08842059969902039,-0.25709784030914307,0.24539349973201752
1684206659815490000,3.505489990234375,0.27289801836013794,-0.1726607233285904,0.3437887728214264
1684206659825515000,3.515514892578125,0.4455115795135498,-0.14163585007190704,0.44477829337120056
1684206659835541000,3.525541015625,0.5959069132804871,-0.15279796719551086,0.5363966226577759
1684206659845566000,3.53556591796875,0.7295545935630798,-0.17359739542007446,0.6352437734603882
1684206659855591200,3.545591064453125,0.8707671165466309,-0.1736581176519394,0.7002763152122498
1684206659865616000,3.555615966796875,0.9453755617141724,-0.12752602994441986,0.7179315090179443
1684206659875642000,3.56564208984375,0.9328573346138,-0.02613735757768154,0.7332074046134949
1684206659885666800,3.575666748046875,0.8248490691184998,0.10631260275840759,0.8489412665367126
1684206659895691800,3.58569189453125,0.6958098411560059,0.1873352974653244,0.9995959401130676
1684206659905717800,3.5957177734375,0.613345205783844,0.08679945766925812,1.1193238496780396
1684206659915743000,3.605742919921875,0.5081034898757935,-0.14295783638954163,1.2156074047088623
1684206659925768000,3.615767822265625,0.37871530652046204,-0.2388949692249298,1.2903155088424683
1684206659935794000,3.6257939453125,0.27022984623908997,-0.09915066510438919,1.3418354988098145
1684206659945819000,3.63581884765625,0.20208413898944855,0.1979772299528122,1.3569707870483398
1684206659955843800,3.64584375,0.20806080102920532,0.3758239150047302,1.2612875699996948
1684206659965869000,3.655869140625,0.13562780618667603,0.3869689106941223,1.1683580875396729
1684206659975895000,3.66589501953125,0.08742112666368484,0.2666664719581604,1.150031328201294
1684206659985920000,3.675919921875,0.11086656898260117,0.12806321680545807,1.133261799812317
1684206659995944700,3.68594482421875,0.11940039694309235,0.11467338353395462,1.11068856716156
1684206660005970700,3.695970703125,0.1454857438802719,0.15679892897605896,1.0519509315490723
1684206660015995600,3.70599560546875,0.16200612485408783,0.18744711577892303,0.9334744215011597
1684206660026020900,3.716020751953125,0.2071264237165451,0.15124617516994476,0.7648688554763794
1684206660036046800,3.726046875,0.237675279378891,-0.026084929704666138,0.5963035225868225
1684206660046071800,3.73607177734375,0.22415508329868317,-0.22746488451957703,0.4821554124355316
1684206660056096500,3.746096435546875,0.20131021738052368,-0.30529043078422546,0.4459342956542969
1684206660066121500,3.75612158203125,0.17997924983501434,-0.48097991943359375,0.3654923141002655
1684206660076147500,3.7661474609375,0.14924930036067963,-0.6807425618171692,0.2736843526363373
1684206660086172700,3.776172607421875,0.09937958419322968,-0.8395628333091736,0.1816391795873642
1684206660096197600,3.78619775390625,0.05204508826136589,-0.9029319286346436,0.060114629566669464
1684206660106223600,3.7962236328125,0.02210012823343277,-0.8757985234260559,-0.04217512160539627
1684206660116248600,3.80624853515625,0.010208049789071083,-0.8467589020729065,-0.1297537088394165
1684206660126273500,3.8162734375,0.014648184180259705,-0.7939780354499817,-0.18839798867702484
1684206660136299500,3.826299560546875,0.027641480788588524,-0.7376143336296082,-0.21974419057369232
1684206660146324700,3.83632470703125,0.05957541614770889,-0.5912752151489258,-0.22637055814266205
1684206660156349700,3.846349609375,0.08940920978784561,-0.43373432755470276,-0.23248997330665588
1684206660166374700,3.856374755859375,0.11972720921039581,-0.30885589122772217,-0.2193603813648224
1684206660176400600,3.866400634765625,0.14717906713485718,-0.2647581994533539,-0.19187362492084503
1684206660186425600,3.876425537109375,0.16969671845436096,-0.28453561663627625,-0.1365629881620407
1684206660196450800,3.886450927734375,0.20913760364055634,-0.36320194602012634,-0.08217032998800278
1684206660206476800,3.896476806640625,0.27124887704849243,-0.4497550427913666,-0.00528684351593256
1684206660216501800,3.906501708984375,0.32056182622909546,-0.4721072316169739,0.1408594399690628
1684206660226526700,3.916526611328125,0.35543474555015564,-0.44546180963516235,0.30326542258262634
1684206660236551700,3.9265517578125,0.3986589014530182,-0.3701457679271698,0.4267527461051941
1684206660246577700,3.93657763671875,0.46379542350769043,-0.18127994239330292,0.5248153805732727
1684206660256603000,3.946602783203125,0.5243637561798096,0.009288409724831581,0.5797351002693176
1684206660266627800,3.9566279296875,0.573533296585083,0.16352969408035278,0.6028108596801758
1684206660276653800,3.96665380859375,0.5689166784286499,0.36572593450546265,0.6014044880867004
1684206660286678500,3.976678466796875,0.5081639885902405,0.5822196006774902,0.5280042886734009
1684206660296703500,3.986703369140625,0.3909284770488739,0.7352224588394165,0.3895156681537628
1684206660306729500,3.9967294921875,0.24309097230434418,0.7893519997596741,0.23742613196372986
1684206660316754700,4.006754638671875,0.08654502779245377,0.7092089653015137,0.10711020976305008
1684206660326779600,4.016779541015625,-0.08526832610368729,0.4175547957420349,0.004900417290627956
1684206660336805600,4.0268056640625,-0.27469950914382935,-0.015432595275342464,-0.07235229015350342
1684206660346830600,4.03683056640625,-0.42281046509742737,-0.4195321202278137,-0.17389744520187378
1684206660356855600,4.04685546875,-0.4818015992641449,-0.6697241067886353,-0.32522332668304443
1684206660366880800,4.056880859375,-0.5001704096794128,-0.6940280795097351,-0.5585193634033203
1684206660376906800,4.06690673828125,-0.46238890290260315,-0.5235740542411804,-0.7899238467216492
1684206660386931700,4.076931640625,-0.39342623949050903,-0.28383204340934753,-1.0103505849838257
1684206660396956700,4.086956787109375,-0.3002645969390869,-0.08557727932929993,-1.173362135887146
1684206660406982700,4.096982666015625,-0.2323579490184784,0.12348181009292603,-1.2404675483703613
1684206660417007600,4.107007568359375,-0.17506857216358185,0.3030012547969818,-1.196265697479248
1684206660427032800,4.11703271484375,-0.16799704730510712,0.34974148869514465,-1.0929672718048096
1684206660437058600,4.12705859375,-0.2153720110654831,0.3433767855167389,-0.9872206449508667
1684206660447083800,4.137083740234375,-0.3116309940814972,0.2294970601797104,-0.894912600517273
1684206660457108700,4.147108642578125,-0.40436679124832153,0.11929145455360413,-0.8113554120063782
1684206660467133700,4.1571337890625,-0.44570285081863403,0.10810345411300659,-0.7400804162025452
1684206660477159700,4.16715966796875,-0.5038247108459473,-0.0592581108212471,-0.725673258304596
1684206660487184600,4.1771845703125,-0.5847559571266174,-0.3482652008533478,-0.7252954840660095
1684206660497209900,4.1872099609375,-0.6840870380401611,-0.6323336958885193,-0.7265735268592834
1684206660507235800,4.19723583984375,-0.7892748713493347,-0.8690952062606812,-0.7102875113487244
1684206660517260800,4.2072607421875,-0.8934441208839417,-1.0680568218231201,-0.7063095569610596
1684206660527285500,4.217285400390625,-1.0094047784805298,-1.2260541915893555,-0.7572745680809021
1684206660537311500,4.2273115234375,-1.0836372375488281,-1.4201840162277222,-0.8682093620300293
1684206660547336700,4.237336669921875,-1.0255603790283203,-1.6154248714447021,-0.8966510891914368
1684206660557361700,4.247361572265625,-0.8056608438491821,-1.9157404899597168,-0.6118166446685791
1684206660567386600,4.25738671875,-0.38504230976104736,-2.3634157180786133,-0.1296032816171646
1684206660577412600,4.26741259765625,0.11045452952384949,-2.3268942832946777,0.3721812665462494
1684206660587437600,4.2774375,0.33425360918045044,-1.5463091135025024,0.9070435762405396
1684206660597462500,4.287462646484375,0.1945710927248001,-0.6801167726516724,0.8737514019012451
1684206660607488500,4.297488525390625,0.018030570819973946,-0.14927798509597778,0.46401840448379517
1684206660617513700,4.307513671875,-0.12554123997688293,0.11929355561733246,0.2327636033296585
1684206660627538700,4.31753857421875,-0.22002731263637543,-0.11924584954977036,0.10891063511371613
1684206660637564700,4.327564697265625,-0.27610763907432556,-0.9332000017166138,-0.2668006718158722
1684206660647589600,4.337589599609375,-0.4270034730434418,-1.8159544467926025,-0.6710647940635681
1684206660657614600,4.347614501953125,-0.6609368920326233,-2.343250274658203,-0.8061257004737854
1684206660667640600,4.357640625,-0.7049638032913208,-2.5313491821289062,-0.8442888259887695
1684206660677665800,4.367665771484375,-0.5702155828475952,-2.5545544624328613,-0.8988308906555176
1684206660687690800,4.377690673828125,-0.36002442240715027,-2.514080047607422,-0.9191104769706726
1684206660697715700,4.3877158203125,-0.089096799492836,-2.436671018600464,-0.8870415091514587
1684206660707741700,4.39774169921875,0.22988493740558624,-2.3024017810821533,-0.8236112594604492
1684206660717766700,4.4077666015625,0.5725799798965454,-2.026247024536133,-0.7146405577659607
1684206660727791900,4.4177919921875,0.919296145439148,-1.6061931848526,-0.5471512675285339
1684206660737817900,4.42781787109375,1.0008105039596558,-1.4101676940917969,-0.40485110878944397
1684206660747842800,4.4378427734375,0.862694501876831,-1.5567295551300049,-0.11298546940088272
1684206660757867500,4.447867431640625,0.5713505744934082,-1.7677557468414307,0.12956538796424866
1684206660767893500,4.4578935546875,-0.012489254586398602,-1.7629687786102295,0.15049856901168823
1684206660777918500,4.46791845703125,-0.4499320983886719,-1.2556437253952026,0.10756067931652069
1684206660787943700,4.477943603515625,-0.46621859073638916,-0.6719446778297424,0.047634996473789215
1684206660797968600,4.48796875,-0.22421154379844666,-0.2517077326774597,-0.10428955405950546
1684206660807994600,4.49799462890625,-0.02151653543114662,-0.24300432205200195,-0.31830093264579773
1684206660818019600,4.50801953125,-0.0015486859483644366,-0.4122532606124878,-0.4961897134780884
1684206660828044500,4.51804443359375,0.05988183617591858,-0.23878556489944458,-0.5057752132415771
1684206660838070500,4.528070556640625,0.13080979883670807,-0.026218166574835777,-0.368878573179245
1684206660848095700,4.538095703125,0.1732638031244278,0.13411283493041992,-0.2420092523097992
1684206660858120700,4.54812060546875,0.22928206622600555,0.26126810908317566,-0.1284070611000061
1684206660868146700,4.558146728515625,0.2517806887626648,0.3657432198524475,-0.0031115112360566854
1684206660878171600,4.568171630859375,0.19402046501636505,0.5221315026283264,0.12927289307117462
1684206660888196600,4.578196533203125,0.1532195508480072,0.792769193649292,0.21999427676200867
1684206660898222600,4.58822265625,0.11057834327220917,0.9671817421913147,0.19773265719413757
1684206660908247800,4.598247802734375,0.035986609756946564,0.94272780418396,0.0898687094449997
1684206660918272800,4.608272705078125,-0.03603005409240723,0.8073726892471313,-0.05331268534064293
1684206660928297700,4.618297607421875,-0.07602645456790924,0.6601832509040833,-0.16719172894954681
1684206660938323700,4.62832373046875,-0.048869140446186066,0.5251601934432983,-0.25784945487976074
1684206660948348700,4.6383486328125,0.006696872878819704,0.403449147939682,-0.370042085647583
1684206660958374000,4.648373779296875,0.06064692139625549,0.3808594346046448,-0.46993592381477356
1684206660968400000,4.65839990234375,0.09314480423927307,0.5629003643989563,-0.466683954000473
1684206660978424800,4.6684248046875,0.10526618361473083,0.8442870378494263,-0.3315359950065613
1684206660988449500,4.678449462890625,0.07809919118881226,1.0854145288467407,-0.10005190223455429
1684206660998475500,4.6884755859375,-0.007045267149806023,1.221588373184204,0.12960578501224518
1684206661008500500,4.69850048828125,-0.0818910077214241,1.3157459497451782,0.2672872841358185
1684206661018525700,4.708525634765625,-0.1456388235092163,1.316585659980774,0.30625438690185547
1684206661028551700,4.7185517578125,-0.21714557707309723,1.188753366470337,0.256032258272171
1684206661038576600,4.72857666015625,-0.26385581493377686,1.128814935684204,0.1951713114976883
1684206661048601600,4.7386015625,-0.2212168127298355,1.2107572555541992,0.1516450196504593
1684206661058626600,4.74862646484375,-0.1900825947523117,1.2056161165237427,0.11253223568201065
1684206661068652500,4.758652587890625,-0.1702246367931366,1.1817430257797241,0.11226146668195724
1684206661078677800,4.768677734375,-0.15806277096271515,1.169407606124878,0.13550660014152527
1684206661088702500,4.778702392578125,-0.1442277729511261,1.1694360971450806,0.1689656376838684
1684206661098728700,4.788728759765625,-0.14059175550937653,1.2049837112426758,0.21015594899654388
1684206661108753400,4.79875341796875,-0.13085240125656128,1.2434982061386108,0.2611389458179474
1684206661118778400,4.8087783203125,-0.1268177181482315,1.1917084455490112,0.2998197674751282
1684206661128804400,4.818804443359375,-0.11919771879911423,1.0870625972747803,0.34780022501945496
1684206661138829600,4.82882958984375,-0.07311704754829407,1.0000184774398804,0.361510694026947
1684206661148854500,4.8388544921875,0.001043111551553011,0.9208329319953918,0.3391081690788269
1684206661158879500,4.84887939453125,0.09276983141899109,0.8361710906028748,0.2848268151283264
1684206661168905500,4.858905517578125,0.16346590220928192,0.7304850816726685,0.2123127281665802
1684206661178930400,4.868930419921875,0.2169317901134491,0.5935357213020325,0.11838996410369873
1684206661188955600,4.87895556640625,0.2543342113494873,0.5114456415176392,0.04329211264848709
1684206661198981600,4.888981689453125,0.28962215781211853,0.45423424243927,0.0004580991808325052
1684206661209006600,4.899006591796875,0.3203291893005371,0.3992442488670349,-0.025619206950068474
1684206661219031600,4.909031494140625,0.3320697247982025,0.36587244272232056,-0.03554480895400047
1684206661229057500,4.9190576171875,0.3218100965023041,0.33495011925697327,-0.0369735024869442
1684206661239082500,4.92908251953125,0.27777552604675293,0.3758504092693329,0.0012716217897832394
1684206661249107700,4.939107666015625,0.2282770574092865,0.4000600278377533,0.051536839455366135
1684206661259132700,4.949132568359375,0.1654174029827118,0.4062170088291168,0.11105768382549286
1684206661269158700,4.95915869140625,0.10892972350120544,0.4644583463668823,0.1584249585866928
1684206661279183600,4.96918359375,0.04937504976987839,0.6369864344596863,0.17904768884181976
1684206661289208600,4.97920849609375,-0.00518334936350584,0.8408546447753906,0.177938774228096
1684206661299234600,4.989234619140625,-0.06370951235294342,0.9853577613830566,0.14584581553936005
1684206661309259800,4.999259765625,-0.11897401511669159,1.0726052522659302,0.13274410367012024
1684206661319284500,5.009284423828125,-0.16273295879364014,1.109657883644104,0.15660016238689423
1684206661329310700,5.019310791015625,-0.18411315977573395,1.076006293296814,0.18257129192352295
1684206661339335400,5.02933544921875,-0.1764102429151535,1.0136281251907349,0.1861601620912552
1684206661349360400,5.0393603515625,-0.15223409235477448,0.9677474498748779,0.20287799835205078
1684206661359385600,5.049385498046875,-0.12203969806432724,0.9468328356742859,0.20192591845989227
1684206661369411600,5.05941162109375,-0.09825172275304794,0.9378032684326172,0.16502144932746887
1684206661379436500,5.0694365234375,-0.082128144800663,0.8997097015380859,0.08800069242715836
1684206661389461500,5.07946142578125,-0.0731758177280426,0.850840151309967,0.0037474599666893482
1684206661399487500,5.089487548828125,-0.07439155131578445,0.8270370960235596,-0.061939407140016556
1684206661409512400,5.099512451171875,-0.08814478665590286,0.8182779550552368,-0.10745552182197571
1684206661419537700,5.10953759765625,-0.1146208718419075,0.790250301361084,-0.14786098897457123
1684206661429563600,5.119563720703125,-0.1522200107574463,0.7238562107086182,-0.17768310010433197
1684206661439588600,5.129588623046875,-0.19959284365177155,0.635547935962677,-0.2071073055267334
1684206661449613600,5.139613525390625,-0.24952438473701477,0.5713903903961182,-0.24498026072978973
1684206661459639600,5.1496396484375,-0.3069714307785034,0.45551520586013794,-0.30906495451927185
1684206661469664500,5.15966455078125,-0.36290982365608215,0.30949071049690247,-0.4170450270175934
1684206661479689500,5.169689453125,-0.4175615906715393,0.10737970471382141,-0.5535176396369934
1684206661489714700,5.179714599609375,-0.4792773723602295,-0.2691568434238434,-0.6797328591346741
1684206661499740700,5.18974072265625,-0.5275205373764038,-0.6820195317268372,-0.7281975746154785
1684206661509765600,5.199765625,-0.44115719199180603,-1.0435346364974976,-0.7481184005737305
1684206661519790600,5.20979052734375,-0.330837607383728,-1.4752013683319092,-0.7732264399528503
1684206661529816600,5.219816650390625,-0.2951164245605469,-1.830504298210144,-0.8009089231491089
1684206661539841500,5.229841552734375,-0.3202204406261444,-1.9496182203292847,-0.8344022035598755
1684206661549866500,5.239866455078125,-0.36735162138938904,-1.8185063600540161,-0.8140477538108826
1684206661559892700,5.249892822265625,-0.4139670431613922,-1.4573668241500854,-0.7262491583824158
1684206661569917400,5.25991748046875,-0.4268520772457123,-0.9110319018363953,-0.5808789134025574
1684206661579942400,5.2699423828125,-0.4295322895050049,-0.33283138275146484,-0.38909509778022766
1684206661589967600,5.279967529296875,-0.39586541056632996,0.16268089413642883,-0.17020660638809204
1684206661599993300,5.289993408203125,-0.3419864773750305,0.4700634777545929,0.04098953679203987
1684206661610018600,5.3000185546875,-0.23123207688331604,0.4679746627807617,0.32236990332603455
1684206661620043500,5.31004345703125,-0.11626367270946503,0.4764949083328247,0.5473175048828125
1684206661630069500,5.320069580078125,0.052243467420339584,0.4440246522426605,0.7008899450302124
1684206661640094500,5.330094482421875,0.2211291491985321,0.4784769117832184,0.8110004663467407
1684206661650119400,5.340119384765625,0.3821781575679779,0.4462287127971649,0.8430585861206055
1684206661660145400,5.3501455078125,0.5385831594467163,0.39542385935783386,0.8341643810272217
1684206661670170600,5.360170654296875,0.6832160949707031,0.33918461203575134,0.8038570284843445
1684206661680195600,5.370195556640625,0.7658752799034119,0.19389159977436066,0.7845975756645203
1684206661690220500,5.380220458984375,0.7759321331977844,-0.025498157367110252,0.7925242781639099
1684206661700246500,5.39024658203125,0.8235470652580261,-0.16751042008399963,0.818515419960022
1684206661710271500,5.400271484375,0.819618284702301,-0.29002219438552856,0.8854392170906067
1684206661720296700,5.410296630859375,0.7708960175514221,-0.3674251139163971,0.9729445576667786
1684206661730322700,5.42032275390625,0.6580246686935425,-0.4559325575828552,1.0532143115997314
1684206661740347600,5.43034765625,0.5093175172805786,-0.5064950585365295,1.128417730331421
1684206661750372600,5.44037255859375,0.33701208233833313,-0.5680481195449829,1.1495908498764038
1684206661760398600,5.450398681640625,0.1977282464504242,-0.7174397706985474,1.0982728004455566
1684206661770423600,5.460423583984375,0.10841778665781021,-0.8817365169525146,0.9966842532157898
1684206661780448500,5.470448486328125,0.0788859874010086,-0.9658948183059692,0.8634923696517944
1684206661790473500,5.480473388671875,0.06292296200990677,-1.036432147026062,0.7468831539154053
1684206661800499500,5.49049951171875,0.04909715801477432,-1.0934802293777466,0.6822642087936401
1684206661810524400,5.5005244140625,0.029677797108888626,-1.0584264993667603,0.6547338962554932
1684206661820549400,5.51054931640625,0.027027685195207596,-1.069429874420166,0.5984306335449219
1684206661830575400,5.520575439453125,0.058912746608257294,-1.196394681930542,0.5176698565483093
1684206661840600600,5.5306005859375,0.07407306134700775,-1.2988380193710327,0.4050586223602295
1684206661850625500,5.54062548828125,0.09276815503835678,-1.3346775770187378,0.28719282150268555
1684206661860651500,5.550651611328125,0.16330623626708984,-1.227247714996338,0.19985364377498627
1684206661870676500,5.560676513671875,0.2474144548177719,-1.138692855834961,0.11102283746004105
1684206661880701400,5.570701416015625,0.2852049767971039,-1.1131411790847778,0.008471430279314518
1684206661890726700,5.5807265625,0.33624061942100525,-1.1344448328018188,-0.1016455590724945
1684206661900752600,5.590752685546875,0.35665082931518555,-1.2071486711502075,-0.19816942512989044
1684206661910777600,5.600777587890625,0.3737674057483673,-1.2603548765182495,-0.28409942984580994
1684206661920802600,5.610802490234375,0.36651721596717834,-1.3103424310684204,-0.3683621287345886
1684206661930828500,5.62082861328125,0.3539930582046509,-1.3894312381744385,-0.4427361488342285
1684206661940853500,5.630853515625,0.33538901805877686,-1.5065996646881104,-0.5047100186347961
1684206661950878700,5.640878662109375,0.3271138072013855,-1.6601171493530273,-0.5547991394996643
1684206661960904700,5.65090478515625,0.3341967463493347,-1.8153107166290283,-0.5929630398750305
1684206661970929700,5.6609296875,0.34060758352279663,-1.9270063638687134,-0.6251327395439148
1684206661980954600,5.67095458984375,0.3513531982898712,-2.00913405418396,-0.6454270482063293
1684206661990979800,5.680979736328125,0.36310911178588867,-2.0657882690429688,-0.6683861017227173
1684206662001005800,5.691005859375,0.37522730231285095,-2.0989835262298584,-0.6874135732650757
1684206662011031000,5.701031005859375,0.38163188099861145,-2.1545095443725586,-0.698021650314331
1684206662021055700,5.7110556640625,0.37454548478126526,-2.2536494731903076,-0.6919928193092346
1684206662031082000,5.72108203125,0.36273160576820374,-2.3574066162109375,-0.6726415157318115
1684206662041106700,5.731106689453125,0.35094523429870605,-2.4418282508850098,-0.634861409664154
1684206662051131600,5.741131591796875,0.33730223774909973,-2.521498441696167,-0.5871202945709229
1684206662061157600,5.75115771484375,0.3238956034183502,-2.5906360149383545,-0.5369601845741272
1684206662071182800,5.761182861328125,0.32176318764686584,-2.6463119983673096,-0.4933689534664154
1684206662081207800,5.771207763671875,0.3508584797382355,-2.716309070587158,-0.46429577469825745
1684206662091232800,5.781232666015625,0.39552250504493713,-2.6955344676971436,-0.4281458258628845
1684206662101258800,5.7912587890625,0.4360443651676178,-2.692636013031006,-0.4024606943130493
1684206662111283700,5.80128369140625,0.4668434262275696,-2.663658857345581,-0.4090982973575592
1684206662121309000,5.811308837890625,0.48639553785324097,-2.6930198669433594,-0.45595499873161316
1684206662131334700,5.821334716796875,0.5079519748687744,-2.7800750732421875,-0.5552879571914673
1684206662141359900,5.83135986328125,0.5015103220939636,-2.9341466426849365,-0.6712526082992554
1684206662151384800,5.841384765625,0.47533920407295227,-3.1349844932556152,-0.7854906320571899
1684206662161410800,5.851410888671875,0.4304518699645996,-3.41752552986145,-0.901666522026062
1684206662171435800,5.861435791015625,0.3767286539077759,-3.6086337566375732,-0.9704708456993103
1684206662181460700,5.871460693359375,0.329317182302475,-3.7693898677825928,-1.0312203168869019
1684206662191486000,5.88148583984375,0.2850062847137451,-3.9285173416137695,-1.1317615509033203
1684206662201512000,5.891511962890625,0.2426135540008545,-4.0346269607543945,-1.229519248008728
1684206662211537000,5.901536865234375,0.20091146230697632,-4.099885940551758,-1.300197720527649
1684206662221561900,5.911561767578125,0.1801460087299347,-4.155511379241943,-1.3491029739379883
1684206662231587800,5.921587890625,0.15448084473609924,-4.276010513305664,-1.3952823877334595
1684206662241612800,5.93161279296875,0.14546124637126923,-4.368971824645996,-1.40638267993927
1684206662251637800,5.9416376953125,0.13492783904075623,-4.408454895019531,-1.3995505571365356
1684206662261664000,5.9516640625,0.10720112919807434,-4.360396385192871,-1.417811632156372
1684206662271688700,5.961688720703125,0.04962984099984169,-4.1863908767700195,-1.4751782417297363
1684206662281713700,5.971713623046875,-0.0177657101303339,-3.9736175537109375,-1.5385873317718506
1684206662291738600,5.981738525390625,-0.09903687238693237,-3.825610637664795,-1.55385422706604
1684206662301764600,5.9917646484375,-0.1804816573858261,-3.7479031085968018,-1.5354541540145874
1684206662311789800,6.001789794921875,-0.2559378147125244,-3.7010514736175537,-1.495726466178894
1684206662321814800,6.011814697265625,-0.3201309144496918,-3.6344597339630127,-1.461734414100647
1684206662331840800,6.0218408203125,-0.3572288751602173,-3.5258629322052,-1.415345549583435
1684206662341865700,6.03186572265625,-0.3901713788509369,-3.5064446926116943,-1.3633397817611694
1684206662351890700,6.041890625,-0.4281327724456787,-3.6189687252044678,-1.271639108657837
1684206662361916700,6.051916748046875,-0.40605783462524414,-3.785881280899048,-1.160093069076538
1684206662371942000,6.06194189453125,-0.35088062286376953,-3.9530222415924072,-1.0861175060272217
1684206662381966800,6.071966796875,-0.2712763547897339,-4.106899738311768,-1.0319571495056152
1684206662391991800,6.08199169921875,-0.17709341645240784,-4.169349193572998,-1.0011368989944458
1684206662402017800,6.092017822265625,-0.12087062746286392,-4.110501289367676,-1.0283480882644653
1684206662412042800,6.102042724609375,-0.10806110501289368,-3.866999864578247,-1.065882921218872
1684206662422068000,6.11206787109375,-0.20825296640396118,-3.6486406326293945,-1.0707781314849854
1684206662432094000,6.122093994140625,-0.3078072667121887,-3.6815249919891357,-1.049461841583252
1684206662442119000,6.132118896484375,-0.36772412061691284,-3.9448671340942383,-1.0387026071548462
1684206662452143900,6.142143798828125,-0.43868857622146606,-4.277683258056641,-1.0455337762832642
1684206662462169900,6.152169921875,-0.5100352168083191,-4.588295936584473,-1.0639066696166992
1684206662472194800,6.16219482421875,-0.557950496673584,-4.837011337280273,-1.0852807760238647
1684206662482219800,6.1722197265625,-0.5841096639633179,-5.020008087158203,-1.1236697435379028
1684206662492244700,6.18224462890625,-0.5910525918006897,-5.156477928161621,-1.1625887155532837
1684206662502270700,6.192270751953125,-0.601869523525238,-5.2191481590271,-1.2043004035949707
1684206662512295700,6.202295654296875,-0.6257992386817932,-5.143342018127441,-1.230057716369629
1684206662522320600,6.212320556640625,-0.6442264914512634,-4.947564601898193,-1.2290071249008179
1684206662532346600,6.2223466796875,-0.6628854274749756,-4.686062335968018,-1.2172609567642212
1684206662542371800,6.232371826171875,-0.6634691953659058,-4.4639692306518555,-1.2104637622833252
1684206662552396800,6.242396728515625,-0.6570588946342468,-4.289824962615967,-1.1862927675247192
1684206662562422800,6.2524228515625,-0.6555683612823486,-4.150397300720215,-1.1427974700927734
1684206662572447700,6.26244775390625,-0.6456822752952576,-4.054203987121582,-1.0846353769302368
1684206662582472700,6.27247265625,-0.6432905197143555,-3.994302988052368,-1.03480064868927
1684206662592498000,6.282497802734375,-0.6535919904708862,-4.032905578613281,-1.0165127515792847
1684206662602524000,6.29252392578125,-0.6114951372146606,-4.155629634857178,-1.016031265258789
1684206662612548900,6.302548828125,-0.5013455748558044,-4.2341694831848145,-1.0387545824050903
1684206662622573800,6.31257373046875,-0.38535642623901367,-4.123531818389893,-1.0773800611495972
1684206662632599800,6.322599853515625,-0.26247209310531616,-3.8213515281677246,-1.052882432937622
1684206662642624800,6.332624755859375,-0.13187389075756073,-3.4982457160949707,-0.9823028445243835
1684206662652650000,6.34264990234375,0.027979020029306412,-3.2304255962371826,-0.8983078598976135
1684206662662676000,6.352676025390625,0.2566966414451599,-3.083326578140259,-0.8492918610572815
1684206662672701000,6.362700927734375,0.45113706588745117,-2.9789867401123047,-0.7843756675720215
1684206662682726000,6.372725830078125,0.47174355387687683,-2.6816632747650146,-0.650292694568634
1684206662692750600,6.38275048828125,0.3534170091152191,-2.220823287963867,-0.5064981579780579
1684206662702776800,6.39277685546875,0.19798721373081207,-1.702724814414978,-0.38551557064056396
1684206662712801800,6.4028017578125,0.09743129462003708,-1.215447187423706,-0.2967071831226349
1684206662722826800,6.41282666015625,-0.0032447162084281445,-0.9530507326126099,-0.22867514193058014
1684206662732852700,6.422852783203125,-0.18097732961177826,-0.8983427286148071,-0.12221306562423706
1684206662742877700,6.432877685546875,-0.3441838324069977,-0.9446327090263367,-0.03093082644045353
1684206662752902700,6.442902587890625,-0.44465798139572144,-1.0336835384368896,-0.03048965148627758
1684206662762928600,6.4529287109375,-0.4621608257293701,-1.075736403465271,-0.12458765506744385
1684206662772953900,6.462953857421875,-0.44477203488349915,-1.0855480432510376,-0.2291404902935028
1684206662782978800,6.472978759765625,-0.4053269028663635,-1.1834216117858887,-0.3284987807273865
1684206662793003800,6.483003662109375,-0.3821008801460266,-1.374372124671936,-0.4320879876613617
1684206662803029800,6.49302978515625,-0.27171337604522705,-1.499086856842041,-0.54372239112854
1684206662813054700,6.5030546875,-0.09670062363147736,-1.5243948698043823,-0.6467679142951965
1684206662823080000,6.513079833984375,0.02278929390013218,-1.5430257320404053,-0.6835227608680725
1684206662833106000,6.52310595703125,0.07110534608364105,-1.499117136001587,-0.6322187781333923
1684206662843131000,6.533130859375,0.09447857737541199,-1.3479795455932617,-0.5467020273208618
1684206662853155800,6.54315576171875,0.11929596960544586,-1.1376162767410278,-0.4452781081199646
1684206662863181800,6.553181884765625,0.13062931597232819,-0.8232681155204773,-0.2942872643470764
1684206662873206800,6.563206787109375,0.13503998517990112,-0.41375479102134705,-0.12052943557500839
1684206662883232000,6.57323193359375,0.12810911238193512,-0.003863952588289976,0.03585192188620567
1684206662893257000,6.583257080078125,0.012381610460579395,0.32644060254096985,0.21162372827529907
1684206662903283000,6.593282958984375,-0.08652925491333008,0.5647442936897278,0.3588757812976837
1684206662913308000,6.603307861328125,-0.13818973302841187,0.785379946231842,0.48376530408859253
1684206662923332600,6.61333251953125,-0.16065137088298798,1.0103360414505005,0.5770028233528137
1684206662933358800,6.62335888671875,-0.1704842448234558,1.2323322296142578,0.6342818140983582
1684206662943383800,6.6333837890625,-0.17907319962978363,1.3613674640655518,0.6196690797805786
1684206662953408800,6.64340869140625,-0.20286841690540314,1.3054559230804443,0.5221699476242065
1684206662963434800,6.653434814453125,-0.24778102338314056,1.150450348854065,0.3909751772880554
1684206662973459700,6.663459716796875,-0.29226604104042053,1.0465116500854492,0.2713913321495056
1684206662983484700,6.673484619140625,-0.32722482085227966,0.9935949444770813,0.1670342981815338
1684206662993510000,6.683510009765625,-0.3371378481388092,0.9789083003997803,0.0683383047580719
1684206663003536000,6.693535888671875,-0.338839054107666,0.9261888861656189,-0.01633770391345024
1684206663013560800,6.703560791015625,-0.34789666533470154,0.8709110021591187,-0.06496157497167587
1684206663023585800,6.713585693359375,-0.37646517157554626,0.8277446031570435,-0.08745995908975601
1684206663033611800,6.72361181640625,-0.4162916839122772,0.8003241419792175,-0.08578483015298843
1684206663043636700,6.73363671875,-0.4567784070968628,0.7652695178985596,-0.07696497440338135
1684206663053661700,6.74366162109375,-0.4384874999523163,0.7136192917823792,-0.063698910176754
1684206663063687700,6.753687744140625,-0.39457809925079346,0.6693676710128784,-0.027939584106206894
1684206663073713000,6.763712890625,-0.32156121730804443,0.7000201940536499,0.04409853741526604
1684206663083737900,6.77373779296875,-0.24495993554592133,0.6754613518714905,0.12857668101787567
1684206663093762800,6.7837626953125,-0.14741991460323334,0.5688364505767822,0.21992690861225128
1684206663103788800,6.793788818359375,0.007055417634546757,0.5384529829025269,0.3332079350948334
1684206663113813800,6.803813720703125,0.2054908275604248,0.5883457064628601,0.5121979117393494
1684206663123839000,6.8138388671875,0.4325609803199768,0.6852391958236694,0.7228935956954956
1684206663133865000,6.823864990234375,0.643902063369751,0.6593374013900757,0.8788561820983887
1684206663143890000,6.833889892578125,0.8496736288070679,0.617029070854187,0.9864705204963684
1684206663153914600,6.84391455078125,1.051616907119751,0.635037899017334,1.0502628087997437
1684206663163940900,6.85394091796875,1.2116369009017944,0.7212116718292236,1.0865241289138794
1684206663173965600,6.863965576171875,1.3266956806182861,0.8072414994239807,1.0981279611587524
1684206663183990800,6.87399072265625,1.4135099649429321,0.8629868030548096,1.0784863233566284
1684206663194015700,6.884015625,1.520872712135315,0.9115834832191467,0.995171308517456
1684206663204041700,6.894041748046875,1.625601053237915,1.0129785537719727,0.8590645790100098
1684206663214066700,6.904066650390625,1.6893106698989868,1.1225939989089966,0.7611808776855469
1684206663224091600,6.914091552734375,1.6974143981933594,1.1392648220062256,0.7115336656570435
1684206663234117600,6.92411767578125,1.6831371784210205,0.9148210287094116,0.6660556197166443
1684206663244142800,6.934142822265625,1.6123847961425781,0.5710604190826416,0.672133207321167
1684206663254167800,6.944167724609375,1.4826123714447021,0.17093348503112793,0.709404706954956
1684206663264193800,6.95419384765625,1.3218401670455933,-0.2642427682876587,0.696187436580658
1684206663274218800,6.96421875,1.189923882484436,-0.6178671717643738,0.6181543469429016
1684206663284243700,6.97424365234375,1.134859561920166,-0.7227003574371338,0.46152639389038086
1684206663294269000,6.98426904296875,1.1226739883422852,-0.5611023306846619,0.3343232274055481
1684206663304295000,6.994294921875,1.1542962789535522,-0.3971312344074249,0.27427878975868225
1684206663314320000,7.00431982421875,1.239127516746521,-0.30485033988952637,0.31889641284942627
1684206663324344800,7.0143447265625,1.2162737846374512,-0.24266421794891357,0.3647270202636719
1684206663334370800,7.024370849609375,1.1021668910980225,-0.2448001652956009,0.34925583004951477
1684206663344395800,7.034395751953125,0.9890125393867493,-0.28035789728164673,0.3144190311431885
1684206663354421000,7.0444208984375,0.9176921248435974,-0.3494716286659241,0.28107619285583496
1684206663364447000,7.054447021484375,0.8677181601524353,-0.3751218616962433,0.21996088325977325
1684206663374472000,7.064471923828125,0.8727219104766846,-0.2956620752811432,0.12244522571563721
1684206663384496600,7.07449658203125,0.9106271862983704,-0.19237086176872253,0.029970945790410042
1684206663394521600,7.084521484375,0.9518245458602905,-0.11808274686336517,-0.044083766639232635
1684206663404547600,7.094547607421875,0.9823587536811829,-0.12174566090106964,-0.08755934238433838
1684206663414572800,7.10457275390625,0.9700292348861694,-0.2414627969264984,-0.09090493619441986
1684206663424597800,7.11459765625,0.9006813168525696,-0.4606451988220215,-0.08432373404502869
1684206663434623700,7.124623779296875,0.8039544820785522,-0.636873185634613,-0.08104074001312256
1684206663444648700,7.134648681640625,0.6962094306945801,-0.7043347954750061,-0.07813124358654022
1684206663454673700,7.144673583984375,0.6012197136878967,-0.6170176863670349,-0.10026873648166656
1684206663464699600,7.15469970703125,0.5470542311668396,-0.4339866042137146,-0.13775885105133057
1684206663474724900,7.164724853515625,0.5167838931083679,-0.26137492060661316,-0.16476526856422424
1684206663484749800,7.174749755859375,0.48935601115226746,-0.22284141182899475,-0.17965100705623627
1684206663494774800,7.18477490234375,0.46588826179504395,-0.2512066960334778,-0.19235599040985107
1684206663504800800,7.19480078125,0.4594804346561432,-0.24249814450740814,-0.17012658715248108
1684206663514825700,7.20482568359375,0.4424808919429779,-0.21689802408218384,-0.14178352057933807
1684206663524851000,7.214850830078125,0.4149065315723419,-0.13982294499874115,-0.11733917146921158
1684206663534877000,7.224876953125,0.3740711808204651,-0.09389565885066986,-0.09304944425821304
1684206663544902000,7.23490185546875,0.3295511305332184,-0.05143927037715912,-0.07204722613096237
1684206663554926800,7.2449267578125,0.2733072340488434,-0.018268996849656105,-0.07148274779319763
1684206663564952800,7.254952880859375,0.2126430720090866,0.046485234051942825,-0.07388731837272644
1684206663574977800,7.264977783203125,0.1514946073293686,0.123468779027462,-0.05205465108156204
1684206663585003000,7.2750029296875,0.08181885629892349,0.21557873487472534,-0.024278417229652405
1684206663595027700,7.28502783203125,0.035534702241420746,0.3439152240753174,0.02748299390077591
1684206663605054000,7.295053955078125,-0.008331555873155594,0.43110767006874084,0.0778534859418869
1684206663615078700,7.30507861328125,-0.02184235118329525,0.5255768299102783,0.11395076662302017
1684206663625103600,7.315103515625,-0.001834553899243474,0.6132097840309143,0.1065029725432396
1684206663635129600,7.325129638671875,0.024997280910611153,0.7772782444953918,0.045882221311330795
1684206663645154800,7.33515478515625,0.05746813863515854,0.9462323784828186,-0.045169390738010406
1684206663655179800,7.3451796875,0.019294479861855507,1.0640534162521362,-0.07462659478187561
1684206663665205800,7.355205810546875,-0.05426575616002083,1.0728256702423096,-0.08168557286262512
1684206663675230700,7.365230712890625,-0.14130128920078278,0.9709392786026001,-0.051044028252363205
1684206663685255700,7.375255615234375,-0.2467414289712906,0.7523984313011169,-0.05600975826382637
1684206663695281000,7.385281005859375,-0.3397718071937561,0.5276672840118408,-0.17419782280921936
1684206663705307000,7.395306884765625,-0.44047310948371887,0.21916832029819489,-0.33735209703445435
1684206663715331800,7.405331787109375,-0.5564352869987488,-0.07512673735618591,-0.4696289598941803
1684206663725356800,7.415356689453125,-0.7137570381164551,-0.35258471965789795,-0.553889274597168
1684206663735382800,7.4253828125,-0.8798673748970032,-0.5489620566368103,-0.5990146994590759
1684206663745407700,7.43540771484375,-0.986136257648468,-0.5734492540359497,-0.6098910570144653
1684206663755433000,7.445432861328125,-1.0248692035675049,-0.47116297483444214,-0.6169049739837646
1684206663765459000,7.455458984375,-1.0401828289031982,-0.2633168399333954,-0.6096712946891785
1684206663775484000,7.46548388671875,-1.0614436864852905,-0.023755570873618126,-0.5469872951507568
1684206663785508900,7.4755087890625,-1.0973936319351196,0.10261514782905579,-0.46997079253196716
1684206663795534800,7.485534912109375,-1.1208157539367676,0.11732547730207443,-0.42135655879974365
1684206663805559800,7.495559814453125,-1.1077343225479126,0.04105360805988312,-0.4279433488845825
1684206663815585000,7.5055849609375,-1.063315510749817,-0.06564091891050339,-0.449120432138443
1684206663825609700,7.515609619140625,-0.9754698276519775,-0.17765799164772034,-0.45598500967025757
1684206663835636000,7.525635986328125,-0.8925794959068298,-0.22711573541164398,-0.4553395211696625
1684206663845660700,7.53566064453125,-0.8669758439064026,-0.19924895465373993,-0.44376248121261597
1684206663855685600,7.545685546875,-0.8733014464378357,-0.1179720014333725,-0.4336821734905243
1684206663865711600,7.555711669921875,-0.8702710270881653,-0.032705843448638916,-0.40800902247428894
1684206663875736800,7.56573681640625,-0.8935320973396301,0.0436507910490036,-0.3781801760196686
1684206663885761800,7.57576171875,-0.9440253973007202,0.1268380880355835,-0.3532758951187134
1684206663895786800,7.585786865234375,-0.9544586539268494,0.1484348177909851,-0.3238149881362915
1684206663905812700,7.595812744140625,-0.9396194815635681,0.1098988801240921,-0.2867856025695801
1684206663915837700,7.605837646484375,-0.910395085811615,0.017277473583817482,-0.26556396484375
1684206663925863000,7.61586279296875,-0.8620496392250061,-0.1040303111076355,-0.24159684777259827
1684206663935888600,7.625888671875,-0.7790694832801819,-0.27694275975227356,-0.21516473591327667
1684206663945913900,7.635913818359375,-0.694240391254425,-0.4738837778568268,-0.17655448615550995
1684206663955938800,7.645938720703125,-0.616840124130249,-0.627945601940155,-0.16123530268669128
1684206663965964800,7.65596484375,-0.521498441696167,-0.6972295641899109,-0.15875962376594543
1684206663975989800,7.66598974609375,-0.4514162242412567,-0.7021989226341248,-0.13479691743850708
1684206663986014700,7.6760146484375,-0.4179413318634033,-0.6690228581428528,-0.09116262197494507
1684206663996040700,7.686040771484375,-0.3949218690395355,-0.6379938721656799,-0.020080529153347015
1684206664006066700,7.696066650390625,-0.36400896310806274,-0.6264485120773315,0.056454721838235855
1684206664016091600,7.706091552734375,-0.3405073583126068,-0.6131693720817566,0.11906974017620087
1684206664026116600,7.71611669921875,-0.3109697103500366,-0.6298484802246094,0.16026325523853302
1684206664036142600,7.726142578125,-0.310644268989563,-0.6445981860160828,0.1874607801437378
1684206664046167600,7.73616748046875,-0.3371043801307678,-0.6086593270301819,0.18780140578746796
1684206664056192500,7.746192626953125,-0.3731047213077545,-0.5634000897407532,0.17273873090744019
1684206664066218500,7.756218505859375,-0.4506772756576538,-0.5388877987861633,0.14154192805290222
1684206664076243700,7.76624365234375,-0.5082451701164246,-0.5617179870605469,0.1200445145368576
1684206664086268700,7.7762685546875,-0.5600583553314209,-0.627683699131012,0.15235717594623566
1684206664096294700,7.786294677734375,-0.6114972829818726,-0.671565055847168,0.1334335058927536
1684206664106319600,7.796319580078125,-0.5889331102371216,-0.7148438096046448,-0.01917920634150505
1684206664116344600,7.806344482421875,-0.49332118034362793,-0.6942137479782104,-0.2426692396402359
1684206664126369800,7.816369873046875,-0.3835853636264801,-0.6282030344009399,-0.4305669665336609
1684206664136395800,7.826395751953125,-0.33138006925582886,-0.5861827731132507,-0.49326616525650024
1684206664146420700,7.836420654296875,-0.34261807799339294,-0.5545710325241089,-0.44457027316093445
1684206664156445700,7.84644580078125,-0.34006521105766296,-0.5449092388153076,-0.3671692907810211
1684206664166471700,7.8564716796875,-0.29893508553504944,-0.573417067527771,-0.33418896794319153
1684206664176496600,7.86649658203125,-0.2320982962846756,-0.5932368636131287,-0.33605825901031494
1684206664186521900,7.87652197265625,-0.1650705337524414,-0.5508132576942444,-0.35888049006462097
1684206664196546600,7.886546630859375,-0.11721566319465637,-0.4771241247653961,-0.39308586716651917
1684206664206572800,7.89657275390625,-0.08902263641357422,-0.3957570791244507,-0.41514429450035095
1684206664216597500,7.906597412109375,-0.05653786659240723,-0.2891700565814972,-0.3952391445636749
1684206664226622500,7.91662255859375,-0.012147762812674046,-0.1597318947315216,-0.3398970663547516
1684206664236648400,7.9266484375,0.01768907904624939,-0.025340372696518898,-0.305620402097702
1684206664246673700,7.936673583984375,0.07155763357877731,0.015306655317544937,-0.31184104084968567
1684206664256698600,7.94669873046875,0.15748853981494904,-0.04930226132273674,-0.35862472653388977
1684206664266724600,7.956724609375,0.2333579957485199,-0.09776433557271957,-0.3954660892486572
1684206664276749600,7.96674951171875,0.2976069748401642,-0.12986686825752258,-0.4443320631980896
1684206664286774500,7.9767744140625,0.3408106565475464,-0.20720426738262177,-0.4778735339641571
1684206664296799700,7.9867998046875,0.3596598207950592,-0.38578301668167114,-0.4702858328819275
1684206664306825700,7.99682568359375,0.35627999901771545,-0.5773849487304688,-0.42860764265060425
1684206664316850700,8.0068505859375,0.3089103400707245,-0.699680507183075,-0.36791327595710754
1684206664326875600,8.016875732421875,0.21565814316272736,-0.7932152152061462,-0.2941429018974304
1684206664336901600,8.026901611328125,0.09409256279468536,-0.8616582155227661,-0.2309945821762085
1684206664346926600,8.036926513671874,-0.02706794999539852,-0.8652505278587341,-0.18050451576709747
1684206664356951800,8.046951904296876,-0.11705873161554337,-0.8825375437736511,-0.1325577348470688
1684206664366977800,8.056977783203125,-0.19943563640117645,-0.9306493997573853,-0.13393032550811768
1684206664377002800,8.067002685546875,-0.26632925868034363,-0.9955481886863708,-0.2296738624572754
1684206664387027700,8.07702783203125,-0.29123035073280334,-1.010650396347046,-0.33839207887649536
1684206664397052700,8.087052734375,-0.25872907042503357,-0.9577152132987976,-0.4323127269744873
1684206664407078700,8.09707861328125,-0.16868120431900024,-0.7937009930610657,-0.49406981468200684
1684206664417104000,8.107103759765625,-0.05745910853147507,-0.6188744306564331,-0.5220914483070374
1684206664427128600,8.117128662109375,0.06396133452653885,-0.4084186553955078,-0.5208152532577515
1684206664437154800,8.12715478515625,0.16084438562393188,-0.33234885334968567,-0.5448358654975891
1684206664447179500,8.137179443359376,0.2807345688343048,-0.2346649318933487,-0.5661270022392273
1684206664457204500,8.14720458984375,0.383232980966568,-0.2293570637702942,-0.5680919885635376
1684206664467230500,8.15723046875,0.48596733808517456,-0.29699787497520447,-0.5432508587837219
1684206664477255700,8.167255615234374,0.5805955529212952,-0.39412397146224976,-0.44955286383628845
1684206664487280600,8.17728076171875,0.6417310833930969,-0.46658140420913696,-0.30817684531211853
1684206664497305600,8.1873056640625,0.6283093094825745,-0.4468517303466797,-0.13681109249591827
1684206664507331600,8.19733154296875,0.5067551732063293,-0.4102838635444641,0.026648137718439102
1684206664517356500,8.2073564453125,0.36680570244789124,-0.42653053998947144,0.13052119314670563
1684206664527381800,8.2173818359375,0.27384939789772034,-0.4229283332824707,0.16972452402114868
1684206664537407700,8.22740771484375,0.24343718588352203,-0.34794554114341736,0.165380597114563
1684206664547432700,8.2374326171875,0.22182990610599518,-0.2231125384569168,0.12225044518709183
1684206664557457700,8.247457763671875,0.2083093523979187,-0.10138444602489471,0.06425932049751282
1684206664567483600,8.257483642578125,0.20784570276737213,0.017640743404626846,-0.00231118593364954
1684206664577508600,8.267508544921874,0.2130897343158722,0.154348686337471,-0.04293658584356308
1684206664587533800,8.277533935546876,0.20630958676338196,0.29950934648513794,-0.04107104241847992
1684206664597558800,8.287558837890625,0.183747798204422,0.4174218773841858,-0.029189782217144966
1684206664607584800,8.297584716796875,0.14058540761470795,0.5193045735359192,-0.04113272950053215
1684206664617609700,8.307609619140624,0.07763458043336868,0.5638253092765808,-0.06979236006736755
1684206664627634700,8.317634765625,0.011106159538030624,0.5266446471214294,-0.09634513407945633
1684206664637660700,8.32766064453125,-0.04549465700984001,0.47954460978507996,-0.09317935258150101
1684206664647686000,8.337685791015625,-0.09819675236940384,0.436617374420166,-0.07227646559476852
1684206664657710600,8.347710693359375,-0.13623692095279694,0.3601458966732025,-0.06862466037273407
1684206664667736800,8.35773681640625,-0.1905321180820465,0.2544378340244293,-0.05306726694107056
1684206664677761500,8.367761474609376,-0.22870835661888123,0.13939596712589264,-0.036002494394779205
1684206664687786500,8.377786376953125,-0.2610577642917633,0.062304381281137466,-0.04240313544869423
1684206664697812500,8.3878125,-0.273909330368042,0.001069286372512579,-0.07546941936016083
1684206664707837700,8.397837646484374,-0.28204581141471863,0.023506417870521545,-0.10095347464084625
1684206664717862700,8.407862548828126,-0.25429436564445496,0.05545077100396156,-0.15278658270835876
1684206664727888600,8.417888671875,-0.2211337387561798,0.0970165878534317,-0.19120746850967407
1684206664737913600,8.42791357421875,-0.1775732785463333,0.19266949594020844,-0.2222166806459427
1684206664747938600,8.4379384765625,-0.11215752363204956,0.3053840696811676,-0.25791022181510925
1684206664757964500,8.447964599609374,-0.04060358554124832,0.42727887630462646,-0.29514071345329285
1684206664767989800,8.45798974609375,0.018903417512774467,0.48748788237571716,-0.32468342781066895
1684206664778014700,8.4680146484375,0.05549409240484238,0.48337051272392273,-0.34611842036247253
1684206664788040700,8.478040771484375,0.05261654779314995,0.47149309515953064,-0.3338519036769867
1684206664798065700,8.488065673828125,0.03590991348028183,0.4638195335865021,-0.32420170307159424
1684206664808090600,8.498090576171874,-0.02654733881354332,0.5105918645858765,-0.2972308099269867
1684206664818115600,8.508115478515625,-0.0908627063035965,0.5318905115127563,-0.28754186630249023
1684206664828141600,8.5181416015625,-0.13800650835037231,0.5229657292366028,-0.3002672493457794
1684206664838166800,8.528166748046875,-0.18912987411022186,0.4583818316459656,-0.3288080394268036
1684206664848191700,8.538191650390624,-0.2638523280620575,0.3170846104621887,-0.34679022431373596
1684206664858217700,8.5482177734375,-0.33591148257255554,0.1943351775407791,-0.34041497111320496
1684206664868242700,8.55824267578125,-0.4041731059551239,0.10826420038938522,-0.3359544575214386
1684206664878267600,8.568267578125,-0.4685942828655243,0.06821425259113312,-0.3213122487068176
1684206664888293600,8.578293701171875,-0.5357930064201355,-0.0014420588267967105,-0.2954838275909424
1684206664898318800,8.58831884765625,-0.6199967861175537,-0.13361088931560516,-0.3165515661239624
1684206664908343600,8.598343505859376,-0.6288661360740662,-0.15111717581748962,-0.4035343825817108
1684206664918368500,8.608368408203125,-0.5937749147415161,-0.2263765037059784,-0.507259726524353
1684206664928394500,8.61839453125,-0.5895415544509888,-0.5542957782745361,-0.6015074253082275
1684206664938419500,8.62841943359375,-0.5544262528419495,-0.9050902724266052,-0.619121789932251
1684206664948444700,8.638444580078126,-0.4819965362548828,-0.9768744707107544,-0.5367337465286255
1684206664958470700,8.648470703125,-0.3661617338657379,-0.8927310109138489,-0.4393619894981384
1684206664968495600,8.65849560546875,-0.2937200367450714,-0.9832918047904968,-0.47274842858314514
1684206664978520600,8.6685205078125,-0.27836883068084717,-1.1404138803482056,-0.5386034846305847
1684206664988546600,8.678546630859374,-0.31632527709007263,-1.1408969163894653,-0.5503107905387878
1684206664998570800,8.68857080078125,-0.3369070589542389,-1.0018988847732544,-0.49254271388053894
1684206665008595700,8.698595703125,-0.3344750702381134,-0.7335627675056458,-0.3819379210472107
1684206665018620700,8.70862060546875,-0.2913774251937866,-0.39766475558280945,-0.25176137685775757
1684206665028646700,8.718646728515624,-0.24493108689785004,-0.13455137610435486,-0.13242514431476593
1684206665038671600,8.728671630859376,-0.23956260085105896,-0.11688312143087387,-0.07278186827898026
1684206665048696800,8.73869677734375,-0.23728133738040924,-0.25841307640075684,-0.05295863002538681
1684206665058722800,8.748722900390625,-0.24790450930595398,-0.4222792088985443,-0.025143742561340332
1684206665068747800,8.758747802734375,-0.29014357924461365,-0.6211065649986267,-0.029605869203805923
1684206665078772700,8.768772705078124,-0.36778920888900757,-0.8673481345176697,-0.07415785640478134
1684206665088798700,8.778798828125,-0.46059611439704895,-1.116662859916687,-0.11335985362529755
1684206665098823700,8.78882373046875,-0.5390409231185913,-1.2397453784942627,-0.07718972116708755
1684206665108848600,8.7988486328125,-0.573441207408905,-1.1651127338409424,0.008214659988880157
1684206665118873600,8.80887353515625,-0.5696665048599243,-1.032168984413147,0.06650476157665253
1684206665128899600,8.818899658203126,-0.5444144010543823,-0.9517011642456055,0.12835508584976196
1684206665138924500,8.828924560546875,-0.5067844390869141,-0.9125309586524963,0.203964501619339
1684206665148949500,8.838949462890625,-0.46157488226890564,-0.8859300017356873,0.2831738293170929
1684206665158975500,8.8489755859375,-0.40699538588523865,-0.8461279273033142,0.35652726888656616
1684206665169000700,8.859000732421874,-0.33164578676223755,-0.7466386556625366,0.43771934509277344
1684206665179025700,8.869025634765626,-0.22741280496120453,-0.6058834791183472,0.5166735053062439
1684206665189051600,8.8790517578125,-0.10691861808300018,-0.4070318937301636,0.5747722387313843
1684206665199076600,8.88907666015625,0.03149513900279999,-0.19697998464107513,0.6257742047309875
1684206665209101600,8.8991015625,0.21822507679462433,-0.011638350784778595,0.6614797115325928
1684206665219126800,8.909126708984376,0.44569671154022217,0.21045567095279694,0.6653945446014404
1684206665229152800,8.91915283203125,0.6909711956977844,0.36648520827293396,0.6440759301185608
1684206665239177700,8.929177734375,0.8728801012039185,0.37822437286376953,0.6391295194625854
1684206665249202700,8.93920263671875,0.9518460035324097,0.21222367882728577,0.65171879529953
1684206665259228700,8.949228759765624,0.9652038812637329,-0.0326475091278553,0.7170515656471252
1684206665269253600,8.959253662109376,0.9364529252052307,-0.31228259205818176,0.8008245229721069
1684206665279278800,8.96927880859375,0.8573690056800842,-0.3963293433189392,0.878235936164856
1684206665289304800,8.979304931640625,0.7464062571525574,-0.14853179454803467,0.9283904433250427
1684206665299329800,8.989329833984375,0.643515944480896,0.2787429392337799,0.9911563396453857
1684206665309354800,8.999354736328126,0.5520424842834473,0.6150079965591431,1.0596965551376343
1684206665319380700,9.009380615234376,0.4730084240436554,0.8888124227523804,1.141044020652771
1684206665329405700,9.01940576171875,0.3944244086742401,1.1511625051498413,1.2258400917053223
1684206665339430700,9.0294306640625,0.37053152918815613,1.361038088798523,1.2200404405593872
1684206665349455600,9.03945556640625,0.35324469208717346,1.5797808170318604,1.2060519456863403
1684206665359481600,9.049481689453126,0.29770153760910034,1.6969197988510132,1.2196979522705078
1684206665369506600,9.059506591796875,0.2380131632089615,1.7996567487716675,1.2643111944198608
1684206665379531500,9.069531494140625,0.22531230747699738,1.694675326347351,1.2172373533248901
1684206665389557500,9.0795576171875,0.20580625534057617,1.5381720066070557,1.1123064756393433
1684206665399582700,9.089582763671874,0.1667664796113968,1.4241588115692139,1.0165824890136719
1684206665409607700,9.099607666015626,0.13634730875492096,1.3196475505828857,0.9336084723472595
1684206665419632600,9.109632568359375,0.12365147471427917,1.1513010263442993,0.8382201194763184
1684206665429658600,9.11965869140625,0.14477141201496124,0.8608266115188599,0.7106419205665588
1684206665439683600,9.12968359375,0.15414707362651825,0.7139232158660889,0.6385352611541748
1684206665449708800,9.139708740234376,0.12474417686462402,0.6143434047698975,0.5815041661262512
1684206665459734800,9.14973486328125,0.06452539563179016,0.5481557250022888,0.5432955622673035
1684206665469759700,9.159759765625,0.004964599385857582,0.48088911175727844,0.5047822594642639
1684206665479784700,9.16978466796875,-0.048547010868787766,0.45192745327949524,0.447407603263855
1684206665489810700,9.179810791015624,-0.08454469591379166,0.4465252161026001,0.3936634063720703
1684206665499835600,9.189835693359376,-0.09821027517318726,0.4850330948829651,0.33443889021873474
1684206665509860900,9.19986083984375,-0.10949276387691498,0.5112655162811279,0.2824108302593231
1684206665519885800,9.2098857421875,-0.1268291026353836,0.4874367415904999,0.23842203617095947
1684206665529911800,9.219911865234375,-0.13760638236999512,0.46047279238700867,0.1975262612104416
1684206665539936800,9.229936767578126,-0.14530925452709198,0.4308626651763916,0.1688467562198639
1684206665549961500,9.23996142578125,-0.14001008868217468,0.40507635474205017,0.16910187900066376
1684206665559987700,9.24998779296875,-0.13020262122154236,0.38845038414001465,0.19377759099006653
1684206665570012700,9.2600126953125,-0.12299077957868576,0.3655535876750946,0.2179604172706604
1684206665580037600,9.27003759765625,-0.09837406873703003,0.35498329997062683,0.2620328366756439
1684206665590063600,9.280063720703126,-0.09119605273008347,0.3259527087211609,0.3024425804615021
1684206665600088600,9.290088623046875,-0.0678296834230423,0.3599271774291992,0.3523353338241577
1684206665610113500,9.300113525390625,-0.05851661413908005,0.4293653666973114,0.3874565660953522
1684206665620138800,9.310138671875,-0.08302335441112518,0.4858394265174866,0.40400776267051697
1684206665630164700,9.320164794921874,-0.08556827157735825,0.5416579246520996,0.4039137363433838
1684206665640189700,9.330189697265626,-0.0854005366563797,0.5840634107589722,0.3850763738155365
1684206665650214700,9.340214599609375,-0.07192360609769821,0.5992159843444824,0.3455239236354828
1684206665660240600,9.35024072265625,-0.006645563989877701,0.5809259414672852,0.2594306766986847
1684206665670265600,9.360265625,0.04138001799583435,0.49351194500923157,0.14364735782146454
1684206665680290800,9.370290771484376,0.05911772698163986,0.3777598738670349,0.017599882557988167
1684206665690316800,9.38031689453125,0.030897540971636772,0.2343960404396057,-0.1031305342912674
1684206665700341800,9.390341796875,-0.02160186693072319,0.12207917124032974,-0.2061803787946701
1684206665710366700,9.40036669921875,-0.06712381541728973,0.06996191293001175,-0.30018675327301025
1684206665720391700,9.4103916015625,-0.11958786100149155,0.05214227735996246,-0.3936591148376465
1684206665730417700,9.420417724609376,-0.15274180471897125,0.0687825009226799,-0.4633476734161377
1684206665740443000,9.43044287109375,-0.2022356241941452,0.12789314985275269,-0.48490819334983826
1684206665750467800,9.4404677734375,-0.2341884970664978,0.14156262576580048,-0.49710655212402344
1684206665760493800,9.450493896484375,-0.2552854120731354,0.1338285654783249,-0.5035558342933655
1684206665770518800,9.460518798828126,-0.2605094611644745,0.19614094495773315,-0.5163952112197876
1684206665780543500,9.47054345703125,-0.24497029185295105,0.2780311703681946,-0.5254039168357849
1684206665790569700,9.48056982421875,-0.23431017994880676,0.3606964945793152,-0.5308670997619629
1684206665800594700,9.4905947265625,-0.20225515961647034,0.4269227087497711,-0.5387398600578308
1684206665810619600,9.50061962890625,-0.18372541666030884,0.4072137176990509,-0.5217606425285339
1684206665820644600,9.51064453125,-0.18320225179195404,0.3272596001625061,-0.4926488399505615
1684206665830670600,9.520670654296875,-0.19478780031204224,0.2529345154762268,-0.46429839730262756
1684206665840695600,9.530695556640625,-0.21769912540912628,0.23789317905902863,-0.4495725929737091
1684206665850720800,9.540720703125,-0.25769180059432983,0.25402340292930603,-0.44658052921295166
1684206665860746500,9.55074658203125,-0.3299722671508789,0.2498936802148819,-0.4332328140735626
1684206665870771700,9.560771728515626,-0.40260812640190125,0.26543691754341125,-0.38287776708602905
1684206665880796700,9.570796630859375,-0.4773638844490051,0.2648414671421051,-0.24802957475185394
1684206665890822700,9.58082275390625,-0.46040087938308716,0.10107197612524033,-0.05633709579706192
1684206665900847600,9.59084765625,-0.30864807963371277,-0.19055339694023132,0.1589798480272293
1684206665910872600,9.60087255859375,-0.14364182949066162,-0.4325830936431885,0.39649200439453125
1684206665920897800,9.610897705078125,-0.141513392329216,-0.5668163299560547,0.6295672655105591
1684206665930923800,9.620923828125,-0.25685515999794006,-0.46796587109565735,0.740904688835144
1684206665940948700,9.63094873046875,-0.2999917268753052,-0.01967332325875759,0.716395378112793
1684206665950973700,9.6409736328125,-0.34570515155792236,0.5886019468307495,0.6307529211044312
1684206665960999700,9.650999755859376,-0.4363199472427368,1.097633957862854,0.5020879507064819
1684206665971024600,9.661024658203125,-0.5470315217971802,1.2989811897277832,0.2625778913497925
1684206665981049900,9.6710498046875,-0.5733619332313538,1.153045415878296,-0.04833672568202019
1684206665991075800,9.681075927734375,-0.5033812522888184,0.7546296119689941,-0.36193111538887024
1684206666001100800,9.691100830078126,-0.3870997726917267,0.3120228946208954,-0.5475622415542603
1684206666011125800,9.701125732421875,-0.2545877993106842,0.04856967553496361,-0.5751011967658997
1684206666021150700,9.711150634765625,-0.20384225249290466,-0.1302935928106308,-0.5584061145782471
1684206666031176700,9.7211767578125,-0.19048170745372772,-0.2822655439376831,-0.4783938527107239
1684206666041202000,9.731201904296874,-0.115928515791893,-0.3731251358985901,-0.340376079082489
1684206666051227000,9.741226806640626,-0.007404434960335493,-0.3588194251060486,-0.18541525304317474
1684206666061252900,9.7512529296875,0.09009301662445068,-0.19921676814556122,-0.10952119529247284
1684206666071277800,9.76127783203125,0.1747375875711441,0.16971279680728912,-0.09806960821151733
1684206666081302800,9.771302734375,0.1983529031276703,0.6641023755073547,-0.09022612124681473
1684206666091328800,9.781328857421874,0.24645359814167023,1.2307904958724976,-0.046151600778102875
1684206666101354000,9.79135400390625,0.3282819986343384,1.5977736711502075,0.0008255192078649998
1684206666111379000,9.80137890625,0.3691066801548004,1.6217215061187744,0.026788676157593727
1684206666121403600,9.811403564453125,0.34987688064575195,1.2881401777267456,-0.017324646934866905
1684206666131430000,9.821429931640624,0.3180401027202606,0.7538242936134338,-0.14886057376861572
1684206666141454600,9.83145458984375,0.3020155131816864,0.18968111276626587,-0.3138870596885681
1684206666151479800,9.841479736328125,0.3099815845489502,-0.26876100897789,-0.46208053827285767
1684206666161505800,9.851505859375,0.34088483452796936,-0.5953828692436218,-0.5391125679016113
1684206666171530800,9.86153076171875,0.38652822375297546,-0.7807064056396484,-0.5356518030166626
1684206666181555700,9.8715556640625,0.44155630469322205,-0.7837833762168884,-0.5038447976112366
1684206666191581700,9.881581787109376,0.4879206120967865,-0.6654654741287231,-0.48761820793151855
1684206666201606700,9.891606689453125,0.5400639176368713,-0.5624778270721436,-0.49153071641921997
1684206666211631900,9.9016318359375,0.5847455859184265,-0.4395338296890259,-0.5051349997520447
1684206666221656800,9.91165673828125,0.6359899640083313,-0.3421759009361267,-0.517595648765564
1684206666231682800,9.921682861328126,0.6601123213768005,-0.2847379148006439,-0.5187833905220032
1684206666241707800,9.931707763671875,0.6688858866691589,-0.1783999502658844,-0.461340069770813
1684206666251732700,9.941732666015625,0.6425206065177917,-0.05427348241209984,-0.3869478702545166
1684206666261758700,9.9517587890625,0.5543133616447449,0.05442725494503975,-0.2911461889743805
1684206666271784000,9.961783935546874,0.4511089622974396,0.09935398399829865,-0.1895953118801117
1684206666281809000,9.971808837890626,0.39786866307258606,0.09070215374231339,-0.0841507613658905
1684206666291833900,9.981833740234375,0.4054107367992401,0.13356706500053406,0.022964775562286377
1684206666301859800,9.99185986328125,0.4387577176094055,0.20690566301345825,0.08492347598075867
1684206666311884800,10.001884765625,0.4396810233592987,0.22771640121936798,0.07269424200057983
1684206666321910000,10.011909912109376,0.4368598163127899,0.17842209339141846,0.03258104622364044
1684206666331936000,10.02193603515625,0.43173032999038696,0.1239633783698082,0.01455118041485548
1684206666341961000,10.0319609375,0.3637588620185852,-0.015035271644592285,-0.005765250883996487
1684206666351985700,10.041985595703125,0.2438710778951645,-0.25717172026634216,-0.05322437733411789
1684206666362012000,10.052011962890624,0.1327987164258957,-0.4624572992324829,-0.12096591293811798
1684206666372036600,10.06203662109375,0.041828855872154236,-0.5737510323524475,-0.16135407984256744
1684206666382061800,10.072061767578125,-0.01933700405061245,-0.6230049133300781,-0.16686107218265533
1684206666392086800,10.082086669921875,-0.054036129266023636,-0.65537029504776,-0.1531553864479065
1684206666402112800,10.09211279296875,-0.06586920469999313,-0.7296494245529175,-0.17255108058452606
1684206666412137700,10.1021376953125,-0.08013789355754852,-0.8897325992584229,-0.22938880324363708
1684206666422162700,10.11216259765625,-0.0990351065993309,-1.0787615776062012,-0.2920050323009491
1684206666432188700,10.122188720703125,-0.11233599483966827,-1.2091012001037598,-0.36053162813186646
1684206666442214000,10.1322138671875,-0.11793237924575806,-1.313437819480896,-0.42615923285484314
1684206666452238800,10.14223876953125,-0.13444052636623383,-1.3227506875991821,-0.44876015186309814
1684206666462264800,10.152264892578126,-0.15062537789344788,-1.2356091737747192,-0.4151403605937958
1684206666472289800,10.162289794921875,-0.16064605116844177,-1.0740612745285034,-0.37689125537872314
1684206666482314800,10.172314697265625,-0.1646336019039154,-0.9153843522071838,-0.3766707479953766
1684206666492340700,10.1823408203125,-0.17983493208885193,-0.807491660118103,-0.3806561529636383
1684206666502366000,10.192365966796874,-0.21982763707637787,-0.7319315075874329,-0.33122503757476807
1684206666512391000,10.202390869140626,-0.25090619921684265,-0.7238051295280457,-0.27298465371131897
1684206666522415900,10.212415771484375,-0.28327736258506775,-0.7646023035049438,-0.2789710760116577
1684206666532441900,10.22244189453125,-0.31157317757606506,-0.7798997759819031,-0.29364269971847534
1684206666542466800,10.232466796875,-0.33567506074905396,-0.755387544631958,-0.29872241616249084
1684206666552491800,10.24249169921875,-0.3444640040397644,-0.6867807507514954,-0.30481332540512085
1684206666562517800,10.252517822265625,-0.3360467255115509,-0.5981832146644592,-0.32652416825294495
1684206666572543000,10.26254296875,-0.3352288603782654,-0.49265384674072266,-0.34796953201293945
1684206666582567700,10.272567626953125,-0.3227139711380005,-0.39952054619789124,-0.3503979742527008
1684206666592592600,10.282592529296876,-0.31345894932746887,-0.30958932638168335,-0.34153178334236145
1684206666602618600,10.29261865234375,-0.30524006485939026,-0.21826618909835815,-0.3258245587348938
1684206666612643800,10.302643798828125,-0.3069354295730591,-0.12835201621055603,-0.3024241626262665
1684206666622668800,10.312668701171875,-0.3047962784767151,-0.04443620890378952,-0.27233895659446716
1684206666632694800,10.32269482421875,-0.29357028007507324,0.01185449305921793,-0.2505268454551697
1684206666642719700,10.3327197265625,-0.2527221739292145,0.06099824234843254,-0.23194140195846558
1684206666652744700,10.34274462890625,-0.18525151908397675,0.1716962605714798,-0.20277366042137146
1684206666662770700,10.352770751953125,-0.11850863695144653,0.29106611013412476,-0.17474211752414703
1684206666672795600,10.362795654296875,-0.06344670802354813,0.367147296667099,-0.1459171175956726
1684206666682820900,10.37282080078125,-0.0209733247756958,0.4034106135368347,-0.1348082274198532
1684206666692845800,10.382845703125,-0.003243063110858202,0.44688430428504944,-0.1271873265504837
1684206666702871800,10.392871826171875,0.0007485565729439259,0.5383836627006531,-0.15106986463069916
1684206666712896800,10.402896728515625,-0.005808145739138126,0.6633477210998535,-0.2235294133424759
1684206666722921700,10.412921630859374,-0.038252029567956924,0.8030572533607483,-0.26922348141670227
1684206666732947700,10.42294775390625,-0.10639886558055878,0.9869557023048401,-0.205190971493721
1684206666742973000,10.432972900390626,-0.16929952800273895,1.1703451871871948,-0.07027757912874222
1684206666752998000,10.442997802734375,-0.20067289471626282,1.153012990951538,-0.012860620394349098
1684206666763024000,10.45302392578125,-0.21350395679473877,0.9527125358581543,0.0026767486706376076
1684206666773048800,10.463048828125,-0.2177405208349228,0.747929036617279,-0.0020969677716493607
1684206666783073800,10.47307373046875,-0.22270546853542328,0.6189146637916565,-0.021829716861248016
1684206666793098800,10.4830986328125,-0.2536258101463318,0.5183148384094238,-0.07414964586496353
1684206666803125000,10.493125,-0.2790118157863617,0.45184311270713806,-0.1258522868156433
1684206666813149700,10.503149658203125,-0.2713621258735657,0.4346492290496826,-0.19250161945819855
1684206666823174700,10.513174560546876,-0.2371651977300644,0.4837134778499603,-0.25481995940208435
1684206666833200600,10.52320068359375,-0.23473745584487915,0.6106171011924744,-0.3110824227333069
1684206666843225600,10.5332255859375,-0.3058597445487976,0.7715961933135986,-0.3671630322933197
1684206666853250800,10.543250732421875,-0.42194828391075134,0.9171472191810608,-0.3933466970920563
1684206666863275800,10.55327587890625,-0.534114420413971,0.974920928478241,-0.3625561594963074
1684206666873301800,10.5633017578125,-0.6398820877075195,1.0272949934005737,-0.22315353155136108
1684206666883326700,10.57332666015625,-0.712482213973999,0.9803078174591064,0.03356427699327469
1684206666893351700,10.5833515625,-0.7208437323570251,0.5714071393013,0.2131659984588623
1684206666903377700,10.593377685546875,-0.6496437191963196,-0.039982870221138,0.0971435010433197
1684206666913403000,10.60340283203125,-0.547390341758728,-0.5807262659072876,-0.2390369027853012
1684206666923427800,10.613427734375,-0.40110042691230774,-0.7207712531089783,-0.4495736360549927
1684206666933453800,10.623453857421875,-0.3095356225967407,-0.4653269052505493,-0.3669991195201874
1684206666943478800,10.633478759765625,-0.14802689850330353,0.06010483205318451,-0.23031222820281982
1684206666953503700,10.643503662109374,0.07202237844467163,0.655134916305542,-0.11838623136281967
1684206666963529700,10.65352978515625,0.1885249763727188,1.0231727361679077,0.05652352049946785
1684206666973555000,10.663554931640626,0.20812024176120758,1.0877437591552734,0.3028794825077057
1684206666983580000,10.673579833984375,0.15900348126888275,0.9033873677253723,0.5742944478988647
1684206666993604900,10.68360498046875,0.16890724003314972,0.5347172021865845,0.7609817981719971
1684206667003630800,10.693630859375,0.1154806837439537,0.1907998025417328,0.765916645526886
1684206667013655800,10.70365576171875,0.11714063584804535,-0.09817235916852951,0.772116482257843
1684206667023681000,10.713680908203125,0.21262037754058838,-0.31261634826660156,0.7442247271537781
1684206667033707000,10.72370703125,0.33851358294487,-0.23361580073833466,0.8575566411018372
1684206667043732000,10.73373193359375,0.3866111636161804,0.04432207718491554,1.0453612804412842
1684206667053757000,10.7437568359375,0.28313031792640686,0.13952022790908813,1.165731430053711
1684206667063782000,10.753781982421875,0.1419735699892044,0.008451007306575775,1.3399169445037842
1684206667073808000,10.763807861328125,-0.005777804180979729,-0.10715281963348389,1.58722984790802
1684206667083833000,10.7738330078125,-0.01144641637802124,-0.03376573696732521,1.7409727573394775
1684206667093858000,10.783858154296874,0.15904009342193604,0.07968784868717194,1.704807996749878
1684206667103884000,10.793884033203126,0.286319762468338,-0.16805386543273926,1.459946870803833
1684206667113909000,10.803908935546875,0.28465449810028076,-0.4535050392150879,1.3182244300842285
1684206667123934000,10.813933837890625,0.26747190952301025,-0.5331436991691589,1.243377685546875
1684206667133960000,10.8239599609375,0.21471893787384033,-0.47968658804893494,1.1418482065200806
1684206667143985200,10.833985107421874,0.19820274412631989,-0.2333342730998993,1.0558217763900757
1684206667154009900,10.844009765625,0.1779688447713852,0.11940167844295502,0.98032546043396
1684206667164034800,10.854034912109375,0.18248148262500763,0.4241410493850708,0.9522517919540405
1684206667174060800,10.864060791015625,0.24163801968097687,0.6084674596786499,0.9618868827819824
1684206667184085800,10.874085693359374,0.37229469418525696,0.7239640951156616,0.967803418636322
1684206667194111000,10.884111083984376,0.5481991171836853,0.7808912396430969,0.8935494422912598
1684206667204137000,10.894136962890625,0.6959459185600281,0.8746216297149658,0.7803186774253845
1684206667214162000,10.904161865234375,0.8374074101448059,0.9820975065231323,0.6477693915367126
1684206667224187000,10.914186767578125,0.975792646408081,1.0174041986465454,0.4912913143634796
1684206667234212900,10.924212890625,1.1008049249649048,0.9790831804275513,0.3863084614276886
1684206667244237800,10.93423779296875,1.1682956218719482,0.8072857856750488,0.329917311668396
1684206667254263000,10.944262939453125,1.1659870147705078,0.5417047142982483,0.339033305644989
1684206667264288000,10.9542880859375,1.0713030099868774,0.21208520233631134,0.3685232102870941
1684206667274314000,10.96431396484375,0.9677843451499939,-0.061556994915008545,0.38841673731803894
1684206667284339000,10.9743388671875,0.8784322738647461,-0.18018817901611328,0.42394372820854187
1684206667294364000,10.984364013671875,0.7820271849632263,-0.2580704689025879,0.4464642107486725
1684206667304390000,10.994389892578125,0.690209686756134,-0.32711538672447205,0.4732908010482788
1684206667314415000,11.0044150390625,0.6048908233642578,-0.22844183444976807,0.5204396843910217
1684206667324440000,11.014440185546874,0.5311335325241089,0.022725313901901245,0.5573878288269043
1684206667334466000,11.024466064453126,0.488881915807724,0.29784637689590454,0.577435314655304
1684206667344491000,11.034490966796875,0.45311298966407776,0.5083066821098328,0.5386789441108704
1684206667354516000,11.044515869140625,0.42897969484329224,0.5999841690063477,0.4485602378845215
1684206667364541000,11.054541015625,0.41916707158088684,0.5616773366928101,0.326556533575058
1684206667374567000,11.06456689453125,0.4056195616722107,0.4684430658817291,0.16362246870994568
1684206667384592000,11.074591796875,0.43602755665779114,0.369332879781723,0.002712088171392679
1684206667394616800,11.084616943359375,0.5052378177642822,0.11187655478715897,-0.1373339593410492
1684206667404642800,11.094642822265625,0.5955085158348083,-0.3884277045726776,-0.24585497379302979
1684206667414667800,11.104667724609374,0.6772952675819397,-0.9927513599395752,-0.31811079382896423
1684206667424693000,11.11469287109375,0.696604311466217,-1.3748914003372192,-0.30969125032424927
1684206667434718700,11.12471875,0.6828972697257996,-1.3365708589553833,-0.20345480740070343
1684206667444744000,11.134743896484375,0.6389803290367126,-0.9039605259895325,-0.0646929070353508
1684206667454769000,11.144768798828125,0.48021334409713745,-0.5220317840576172,0.025052428245544434
1684206667464793900,11.1547939453125,0.2591096758842468,-0.3456508219242096,0.06723444163799286
1684206667474819800,11.16481982421875,0.07322399318218231,-0.34908708930015564,0.06870663911104202
1684206667484844800,11.1748447265625,-0.09606387466192245,-0.430526465177536,0.021077916026115417
1684206667494870000,11.1848701171875,-0.2428930103778839,-0.5742844343185425,-0.08758917450904846
1684206667504896000,11.19489599609375,-0.33861956000328064,-0.5831708908081055,-0.2233387529850006
1684206667514921000,11.2049208984375,-0.39390918612480164,-0.4235019087791443,-0.33008623123168945
1684206667524946000,11.21494580078125,-0.5252622961997986,-0.28325676918029785,-0.424876868724823
1684206667534972000,11.224971923828125,-0.6510178446769714,-0.1911851465702057,-0.46633055806159973
1684206667544996900,11.234996826171875,-0.7708919644355774,-0.16059395670890808,-0.45121869444847107
1684206667555022000,11.24502197265625,-0.8200400471687317,-0.18799148499965668,-0.39405742287635803
1684206667565047000,11.255047119140626,-0.7214784026145935,-0.25563690066337585,-0.1229148656129837
1684206667575073000,11.265072998046875,-0.29762697219848633,0.9996323585510254,-0.2004067301750183
1684206667585098000,11.275097900390625,0.387023389339447,1.7279856204986572,0.1323225051164627
1684206667595122700,11.285122802734374,1.0833289623260498,1.282177448272705,0.4557836651802063
1684206667605149000,11.29514892578125,1.627101182937622,0.6284811496734619,0.39036795496940613
1684206667615174000,11.305173828125,1.696453332901001,0.6323810815811157,0.4859964847564697
1684206667625198800,11.31519873046875,1.1428077220916748,1.103628158569336,0.6431721448898315
1684206667635224800,11.325224853515625,0.45307379961013794,1.32296884059906,0.5373287796974182
1684206667645249800,11.335249755859374,0.08016093820333481,1.4043916463851929,0.3286532759666443
1684206667655274800,11.345274658203126,-0.11025454103946686,1.384898066520691,0.08346560597419739
1684206667665300000,11.355300048828125,-0.2681024372577667,0.9805624485015869,-0.156243234872818
1684206667675326000,11.365325927734375,-0.36305344104766846,0.7030251026153564,-0.2415168434381485
1684206667685351000,11.375350830078125,-0.34406766295433044,0.7310510277748108,-0.21155215799808502
1684206667695376000,11.3853759765625,-0.19007009267807007,0.8772844076156616,-0.10717408359050751
1684206667705401900,11.39540185546875,0.004073604941368103,0.9074550867080688,-0.09227975457906723
1684206667715426800,11.4054267578125,0.09232517331838608,0.9992236495018005,-0.08184442669153214
1684206667725452000,11.4154521484375,0.0874263271689415,1.0921611785888672,0.0299875196069479
1684206667735478000,11.42547802734375,-0.1611800342798233,1.0778498649597168,0.12095045298337936
1684206667745503000,11.4355029296875,-0.2786344885826111,1.0115784406661987,0.1725151687860489
1684206667755528000,11.44552783203125,-0.3813353180885315,0.8643039464950562,0.11682260036468506
1684206667765553000,11.455552978515625,-0.4142799377441406,0.8432868123054504,0.03852017968893051
1684206667775579000,11.465578857421875,-0.4013465642929077,0.8147028088569641,0.007938033901154995
1684206667785604000,11.47560400390625,-0.33600911498069763,0.7916063070297241,0.044317081570625305
1684206667795629000,11.485629150390626,-0.30247271060943604,0.6197386980056763,0.0004729274660348892
1684206667805655000,11.495655029296875,-0.26061081886291504,0.5154163837432861,-0.027488887310028076
1684206667815680000,11.505679931640625,-0.22156192362308502,0.5450690984725952,-0.09295577555894852
1684206667825704700,11.51570458984375,-0.15411505103111267,0.6670077443122864,-0.12132501602172852
1684206667835731000,11.52573095703125,-0.21922028064727783,0.5683962106704712,-0.1523985117673874
1684206667845756000,11.535755859375,-0.25093019008636475,0.44908660650253296,-0.10145295411348343
1684206667855780900,11.54578076171875,-0.19687201082706451,0.35522910952568054,-0.04389752447605133
1684206667865805800,11.555805908203125,-0.17118297517299652,0.18012098968029022,-0.09603419154882431
1684206667875831800,11.565831787109374,-0.17684298753738403,0.02924012579023838,-0.15407511591911316
1684206667885856800,11.575856689453126,-0.17652562260627747,0.01171740423887968,-0.20462246239185333
1684206667895882000,11.585882080078125,-0.18915221095085144,0.08010285347700119,-0.2203361839056015
1684206667905908000,11.595907958984375,-0.160472109913826,0.11131545901298523,-0.2746995985507965
1684206667915933000,11.605932861328125,-0.12368825823068619,0.14935071766376495,-0.24762564897537231
1684206667925958000,11.6159580078125,-0.09262987226247787,0.10483051091432571,-0.17952632904052734
1684206667935983900,11.62598388671875,-0.059587229043245316,0.06506764888763428,-0.13016968965530396
1684206667946008800,11.6360087890625,-0.07292917370796204,0.028805295005440712,-0.11262179911136627
1684206667956034000,11.646033935546875,-0.11467448621988297,-0.000738747650757432,-0.09732487797737122
1684206667966059000,11.65605908203125,-0.15086279809474945,-0.03353314846754074,-0.11371151357889175
1684206667976085000,11.6660849609375,-0.16470324993133545,-0.04347632825374603,-0.12396947294473648
1684206667986110000,11.67610986328125,-0.16964219510555267,-0.08644091337919235,-0.14672109484672546
1684206667996135200,11.68613525390625,-0.25416135787963867,-0.1951543539762497,-0.19093088805675507
1684206668006161200,11.6961611328125,-0.3356373608112335,-0.34061893820762634,-0.19767031073570251
1684206668016186000,11.70618603515625,-0.17004279792308807,-0.6882298588752747,-0.22877123951911926
1684206668026211300,11.71621142578125,-0.07869367301464081,-0.5671378374099731,-0.1682153046131134
1684206668036236300,11.726236328125,-0.075550876557827,-0.4822455942630768,-0.1788192242383957
1684206668046262300,11.73626220703125,-0.13754737377166748,-0.5517548322677612,-0.26659372448921204
1684206668056287200,11.746287353515624,-0.15687181055545807,-0.6663604974746704,-0.3595196604728699
1684206668066312200,11.756312255859376,-0.18458358943462372,-0.7063746452331543,-0.37835660576820374
1684206668076338200,11.766338134765626,-0.21596840023994446,-0.6843463182449341,-0.363090842962265
1684206668086363100,11.776363037109375,-0.21795456111431122,-0.6626549959182739,-0.35852301120758057
1684206668096388000,11.78638818359375,-0.24511107802391052,-0.5862246751785278,-0.3874465525150299
1684206668106414000,11.7964140625,-0.2285831719636917,-0.5883713364601135,-0.41754186153411865
1684206668116439000,11.80643896484375,-0.12161412835121155,-0.6985135078430176,-0.4267931580543518
1684206668126464300,11.81646435546875,-0.07069646567106247,-0.7392507791519165,-0.46548640727996826
1684206668136489200,11.8264892578125,-0.051129959523677826,-0.6778014898300171,-0.5159048438072205
1684206668146515200,11.83651513671875,-0.02464013732969761,-0.648322343826294,-0.565962016582489
1684206668156540200,11.8465400390625,-0.14064717292785645,-0.7234610319137573,-0.6344656944274902
1684206668166565000,11.856565185546875,-0.5377035737037659,-0.5683699250221252,-0.6697697639465332
1684206668176591000,11.866591064453125,-0.7027289867401123,-0.0500791035592556,-0.6109551787376404
1684206668186616000,11.876615966796875,-0.6838588714599609,0.4961817264556885,-0.4661083519458771
1684206668196641300,11.886641357421874,-0.5114428997039795,0.7434927225112915,-0.2292875349521637
1684206668206667300,11.896667236328126,-0.25526168942451477,0.4990540146827698,0.0034296996891498566
1684206668216692200,11.906692138671875,-0.19912120699882507,-0.14074990153312683,0.06163308396935463
1684206668226717200,11.91671728515625,-0.2908901572227478,-0.762593150138855,-0.016004914417862892
1684206668236742100,11.9267421875,-0.41067540645599365,-0.9857364892959595,-0.0689791887998581
1684206668246767400,11.936767333984376,-0.47818464040756226,-0.8266075253486633,-0.0798412561416626
1684206668256793300,11.94679345703125,-0.4986012279987335,-0.5724040269851685,-0.10563503205776215
1684206668266818300,11.956818359375,-0.46305620670318604,-0.36359885334968567,-0.13330359756946564
1684206668276843000,11.966843017578125,-0.11278421431779861,-0.15399663150310516,-0.19472461938858032
1684206668286869200,11.976869140625,0.2024148553609848,0.0011831918964162469,-0.29650577902793884
1684206668296894000,11.98689404296875,0.16558758914470673,-0.1888091117143631,-0.3191221356391907
1684206668306919200,11.996919189453125,0.04422987997531891,-0.42157554626464844,-0.30596157908439636
1684206668316944100,12.006944091796875,-0.09580445289611816,-0.5462980270385742,-0.31303468346595764
1684206668326970000,12.01697021484375,-0.1307549923658371,-0.6167157292366028,-0.2849135994911194
1684206668336995000,12.0269951171875,-0.0338529497385025,-0.6267520785331726,-0.2312692552804947
1684206668347020000,12.03702001953125,-0.05228379741311073,-0.6122449040412903,-0.2006325125694275
1684206668357046000,12.0470458984375,-0.058910805732011795,-0.617423415184021,-0.20579691231250763
1684206668367071200,12.0570712890625,-0.10971449315547943,-0.6225931644439697,-0.15577995777130127
1684206668377096200,12.06709619140625,-0.1396968960762024,-0.5639601945877075,-0.08471138030290604
1684206668387122200,12.0771220703125,-0.1753549724817276,-0.4918195307254791,-0.06470415741205215
1684206668397147100,12.087147216796875,-0.21840150654315948,-0.4367440342903137,-0.06603040546178818
1684206668407172000,12.097172119140625,-0.22276300191879272,-0.26731809973716736,-0.1244586780667305
1684206668417198000,12.107197998046875,-0.19938230514526367,-0.09197556227445602,-0.21943579614162445
1684206668427223300,12.117223388671874,-0.07409900426864624,-0.18936093151569366,-0.19568845629692078
1684206668437248300,12.127248291015626,-0.05942312628030777,-0.3460214138031006,-0.1728087067604065
1684206668447273200,12.137273193359375,-0.05678272619843483,-0.4414070248603821,-0.16543066501617432
1684206668457299200,12.14729931640625,-0.01617218367755413,-0.4348524510860443,-0.13790449500083923
1684206668467324200,12.15732421875,0.00820007361471653,-0.29415175318717957,-0.08429434895515442
1684206668477349400,12.167349365234376,-0.025597305968403816,-0.050886914134025574,-0.036428552120923996
1684206668487375400,12.177375244140626,-0.09792515635490417,0.08886344730854034,0.023287540301680565
1684206668497400300,12.187400390625,-0.17209473252296448,0.09707637131214142,0.06625871360301971
1684206668507425000,12.197425048828125,-0.19199006259441376,0.09072991460561752,0.07812337577342987
1684206668517450000,12.207449951171874,-0.15001676976680756,0.11184505373239517,0.05967113748192787
1684206668527476000,12.21747607421875,-0.02914235182106495,0.14360693097114563,0.05830315873026848
1684206668537501200,12.227501220703125,0.027849562466144562,0.20391342043876648,0.02883341535925865
1684206668547526100,12.237526123046875,-0.075747050344944,0.1243821233510971,-0.07210416346788406
1684206668557552000,12.24755224609375,-0.1636585295200348,-0.20437206327915192,-0.1438598334789276
1684206668567577000,12.2575771484375,-0.15430912375450134,-0.49275290966033936,-0.21023547649383545
1684206668577602000,12.26760205078125,-0.053212329745292664,-0.5643327832221985,-0.22264313697814941
1684206668587628000,12.2776279296875,0.08951635658740997,-0.551989734172821,-0.15158206224441528
1684206668597653200,12.2876533203125,0.22583426535129547,-0.544759213924408,-0.04730119928717613
1684206668607678200,12.29767822265625,0.2775917649269104,-0.5149107575416565,0.027830470353364944
1684206668617703200,12.307703125,0.3262239992618561,-0.42154940962791443,0.06968790292739868
1684206668627729200,12.317729248046875,0.39328643679618835,-0.2685115933418274,0.0855206698179245
1684206668637754000,12.327754150390625,0.4092470109462738,-0.16816553473472595,0.11863521486520767
1684206668647779300,12.337779296875,0.44451650977134705,-0.15101534128189087,0.14657144248485565
1684206668657805300,12.347805419921874,0.47917062044143677,-0.2074514627456665,0.14009490609169006
1684206668667830300,12.357830322265626,0.5393823981285095,-0.2533344626426697,0.16354899108409882
1684206668677855200,12.367855224609375,0.6135485172271729,-0.233335480093956,0.21284782886505127
1684206668687881200,12.377881103515625,0.7117769122123718,-0.2010382115840912,0.2507140338420868
1684206668697906200,12.38790625,0.8074909448623657,-0.18900763988494873,0.2687644064426422
1684206668707931400,12.397931396484376,0.8582085967063904,-0.18638671934604645,0.26778295636177063
1684206668717957400,12.407957275390626,0.8252540826797485,-0.09762062877416611,0.2521427273750305
