time,seconds_elapsed,z,y,x
1684252557338372400,0.020372314453125,0.2816464304924011,0.061945099383592606,1.9198592901229858
1684252557348398300,0.0303984375,0.7288624048233032,1.43455171585083,2.34839129447937
1684252557358424000,0.040424072265625,1.2348060607910156,3.0046327114105225,2.562638998031616
1684252557368450000,0.050449951171875,1.6623152494430542,4.444075584411621,2.561713933944702
1684252557378476300,0.060476318359375,1.953643560409546,5.541089057922363,2.318150520324707
1684252557388502300,0.070502197265625,2.0834991931915283,6.084036827087402,1.8326667547225952
1684252557398528300,0.0805283203125,2.0242421627044678,5.545961856842041,1.3195741176605225
1684252557408554200,0.09055419921875,1.7406959533691406,3.9677109718322754,0.8721124529838562
1684252557418580200,0.100580322265625,1.4240719079971313,2.260594129562378,0.3156217336654663
1684252557428606200,0.110606201171875,1.1680201292037964,0.26402556896209717,-0.11527396738529205
1684252557438631400,0.12063134765625,0.8101707100868225,-0.7622469663619995,-0.28821805119514465
1684252557448657200,0.1306572265625,0.3765285611152649,-1.680495262145996,-0.2353634238243103
1684252557458683100,0.14068310546875,-0.24605298042297363,-2.456972122192383,-0.05323009565472603
1684252557468709000,0.150709228515625,-1.1893879175186157,-2.274617910385132,0.15864960849285126
1684252557478735000,0.160735107421875,-2.51418399810791,-0.8713986277580261,0.40251582860946655
1684252557488761000,0.170760986328125,-3.921069383621216,-0.35373637080192566,0.5514082908630371
1684252557498787000,0.180787109375,-5.3083672523498535,-0.11731717735528946,0.7463303208351135
1684252557508813300,0.190813232421875,-5.577424049377441,-0.469226598739624,1.096531629562378
1684252557518839300,0.20083935546875,-4.297972202301025,-0.0977795347571373,1.176004409790039
1684252557528865300,0.210865234375,-2.8203041553497314,1.3354460000991821,1.01276695728302
1684252557538891300,0.220891357421875,-2.718717336654663,2.923906087875366,1.0345473289489746
1684252557548917200,0.230917236328125,-3.1777231693267822,4.216249942779541,1.1884753704071045
1684252557558943200,0.240943115234375,-3.674755096435547,5.375564098358154,1.3552768230438232
1684252557568969200,0.25096923828125,-3.921948194503784,6.322968482971191,1.4920005798339844
1684252557578994200,0.260994140625,-4.037773609161377,7.116852760314941,1.6193338632583618
1684252557589020200,0.271020263671875,-4.376372814178467,7.774297714233398,1.6899158954620361
1684252557599046100,0.281046142578125,-4.8415751457214355,8.008808135986328,1.7958779335021973
1684252557609072000,0.291072021484375,-5.394982814788818,7.582181930541992,1.803558349609375
1684252557619098000,0.30109814453125,-6.352077007293701,6.7663373947143555,1.1991840600967407
1684252557629124000,0.3111240234375,-7.121191024780273,5.895615577697754,0.1177387461066246
1684252557639150300,0.321150390625,-7.713338851928711,5.5829668045043945,-0.8406245112419128
1684252557649176300,0.33117626953125,-8.204257011413574,5.839206695556641,-1.261736273765564
1684252557659202300,0.341202392578125,-8.551547050476074,6.426604747772217,-1.1050686836242676
1684252557669228300,0.351228271484375,-8.88225269317627,6.851849555969238,-0.6501104235649109
1684252557679254300,0.361254150390625,-9.169212341308594,6.951770305633545,-0.2961089611053467
1684252557689280300,0.3712802734375,-9.484917640686035,6.361325263977051,-0.11880817264318466
1684252557699306200,0.38130615234375,-9.753976821899414,4.917900562286377,-0.09917747974395752
1684252557709331200,0.391331298828125,-9.520039558410645,3.0279786586761475,-0.28363314270973206
1684252557719357200,0.401357177734375,-8.811763763427734,1.6917381286621094,-0.5061969757080078
1684252557729383200,0.411383056640625,-7.8442254066467285,1.088882327079773,-0.46263962984085083
1684252557739409200,0.4214091796875,-6.6911702156066895,1.2188301086425781,0.029049865901470184
1684252557749435100,0.43143505859375,-5.443882942199707,1.6291621923446655,1.1615761518478394
1684252557759461000,0.441461181640625,-4.242489814758301,1.6996033191680908,2.4869651794433594
1684252557769487400,0.4514873046875,-2.9902830123901367,1.651737093925476,3.303396701812744
1684252557779513300,0.461513427734375,-1.7099779844284058,1.3580695390701294,3.3951244354248047
1684252557789539300,0.471539306640625,-0.5491383671760559,0.731239914894104,2.954930067062378
1684252557799565300,0.4815654296875,0.40102633833885193,0.029879089444875717,2.2125179767608643
1684252557809591300,0.49159130859375,1.1852517127990723,-0.5837662220001221,1.3402347564697266
1684252557819617300,0.5016171875,1.8081437349319458,-0.9384254813194275,0.5201862454414368
1684252557829643300,0.511643310546875,2.3198747634887695,-0.994688868522644,-0.08218792080879211
1684252557839669200,0.521669189453125,2.824037790298462,-0.7577580809593201,-0.40446794033050537
1684252557849694200,0.531694091796875,3.3328349590301514,-0.27149033546447754,-0.5023609399795532
1684252557859720200,0.54172021484375,3.587270498275757,0.1617865115404129,-0.4957062304019928
1684252557869746200,0.55174609375,3.46106219291687,0.4439663887023926,-0.4989016056060791
1684252557879772200,0.561772216796875,2.895984172821045,0.5678121447563171,-0.555171012878418
1684252557889798100,0.571798095703125,2.097271680831909,0.37205934524536133,-0.9396851062774658
1684252557899824400,0.581824462890625,0.890381932258606,-0.2740882337093353,-2.4942986965179443
1684252557909850400,0.591850341796875,0.019199678674340248,-0.1863858997821808,-3.2543399333953857
1684252557919876400,0.60187646484375,-0.21878333389759064,0.25637689232826233,-2.79870343208313
1684252557929902300,0.61190234375,0.023424027487635612,1.1225310564041138,-1.9201723337173462
1684252557939928300,0.62192822265625,0.4193047881126404,2.114469528198242,-1.032414197921753
1684252557949954300,0.631954345703125,0.7811030149459839,2.2452921867370605,-0.39986708760261536
1684252557959980300,0.641980224609375,0.8667779564857483,1.6504571437835693,0.01168316975235939
1684252557970006300,0.65200634765625,0.6174233555793762,0.9713528156280518,0.36115843057632446
1684252557980031200,0.66203125,0.32191210985183716,0.6449733972549438,0.5476731657981873
1684252557990057200,0.67205712890625,0.1289181262254715,0.6114319562911987,0.5314063429832458
1684252558000083200,0.682083251953125,0.06957810372114182,0.5140694379806519,0.5902667045593262
1684252558010109200,0.692109130859375,-0.004900053143501282,0.34472349286079407,0.7068953514099121
1684252558020135200,0.70213525390625,0.08252406120300293,0.4059666097164154,0.6407485604286194
1684252558030161400,0.712161376953125,0.2571379542350769,0.3745783269405365,0.5916808843612671
1684252558040187400,0.7221875,0.8616161346435547,1.0670827627182007,0.9296637177467346
1684252558050213400,0.73221337890625,0.6913303732872009,1.290396809577942,0.9100915789604187
1684252558060239400,0.7422392578125,0.6310840845108032,1.3235188722610474,0.5340830683708191
1684252558070265300,0.752265380859375,0.423244446516037,0.940290093421936,-0.11216747760772705
1684252558080291300,0.762291259765625,0.6615555882453918,0.7234858870506287,-0.07947291433811188
1684252558090317300,0.7723173828125,0.3192405104637146,0.8822774887084961,0.21794335544109344
1684252558100343300,0.78234326171875,-0.44338521361351013,0.2495681792497635,0.566924512386322
1684252558110368300,0.7923681640625,-0.8866605758666992,-0.6716569066047668,0.3148847222328186
1684252558120394200,0.802394287109375,-0.5770699381828308,-0.9892588257789612,-0.06576485931873322
1684252558130420200,0.812420166015625,-0.5070252418518066,-0.8829758763313293,-0.2610587775707245
1684252558140446200,0.8224462890625,-0.6737266182899475,-0.3434234857559204,0.00963529385626316
1684252558150472200,0.83247216796875,-0.8397808074951172,0.40362727642059326,0.16032661497592926
1684252558160498400,0.84249853515625,-1.0926153659820557,1.1269845962524414,-0.014460108242928982
1684252558170524400,0.8525244140625,-1.659806489944458,1.5129133462905884,-0.4084845781326294
1684252558180550400,0.86255029296875,-2.4528982639312744,1.4474304914474487,-0.9342551827430725
1684252558190576400,0.872576416015625,-3.403207778930664,0.7384762763977051,-1.4243590831756592
1684252558200602400,0.882602294921875,-4.034434795379639,-0.11858724802732468,-2.02638840675354
1684252558210628400,0.89262841796875,-4.272212982177734,-0.39849337935447693,-2.1780483722686768
1684252558220654300,0.902654296875,-3.804933786392212,-0.5163678526878357,-1.396216630935669
1684252558230680300,0.912680419921875,-2.8759727478027344,-1.211552619934082,-0.452559232711792
1684252558240706300,0.922706298828125,-1.7293555736541748,-2.1426281929016113,-0.013293467462062836
1684252558250732300,0.932732177734375,-0.8599453568458557,-3.1673333644866943,0.17467476427555084
1684252558260757200,0.94275732421875,-0.4537650942802429,-4.217854022979736,0.3913058638572693
1684252558270783200,0.952783203125,-0.460159569978714,-5.16010856628418,0.7865830063819885
1684252558280809200,0.962809326171875,-0.26264381408691406,-5.622326374053955,1.1703979969024658
1684252558290835500,0.97283544921875,0.18206921219825745,-5.129095554351807,1.6944632530212402
1684252558300861400,0.982861328125,0.8302538990974426,-4.068541526794434,2.3249402046203613
1684252558310887400,0.992887451171875,1.462520956993103,-3.0549824237823486,2.842440128326416
1684252558320913400,1.002913330078125,1.9136149883270264,-2.978018045425415,3.1936678886413574
1684252558330939000,1.01293896484375,2.1125805377960205,-3.4271490573883057,3.3495657444000244
1684252558340964900,1.02296484375,2.5239057540893555,-2.7749223709106445,3.0517168045043945
1684252558350990800,1.032990966796875,3.1761932373046875,-2.0001351833343506,2.6848366260528564
1684252558361016800,1.043016845703125,3.645379066467285,-0.9416553974151611,2.3515982627868652
1684252558371042800,1.053042724609375,4.009209632873535,-0.1845577359199524,2.097658157348633
1684252558381068800,1.06306884765625,3.862548589706421,0.27922752499580383,1.9207648038864136
1684252558391093800,1.07309375,3.351466178894043,0.9052472710609436,1.299302577972412
1684252558401119700,1.08311962890625,2.7218687534332275,1.013566493988037,0.19664651155471802
1684252558411145700,1.093145751953125,2.153268814086914,0.35769355297088623,-0.9868366718292236
1684252558421171700,1.103171630859375,1.6447153091430664,-0.6843505501747131,-1.9494478702545166
1684252558431198000,1.113197998046875,1.1945475339889526,-1.492072582244873,-2.517394542694092
1684252558441224000,1.123223876953125,0.7548827528953552,-1.292646050453186,-2.754512071609497
1684252558451250000,1.13325,0.2228250652551651,0.0842159241437912,-2.7367076873779297
1684252558461276000,1.14327587890625,-0.30616632103919983,1.7684277296066284,-2.5309019088745117
1684252558471302000,1.153302001953125,-0.6328603625297546,3.3249006271362305,-2.218684673309326
1684252558481327900,1.163327880859375,-0.8822078704833984,4.420778274536133,-1.9415881633758545
1684252558491353900,1.173353759765625,-1.280264973640442,5.301887512207031,-1.6441134214401245
1684252558501379800,1.1833798828125,-1.5216403007507324,6.819182395935059,-1.2695112228393555
1684252558511404800,1.19340478515625,-1.7943227291107178,7.386934757232666,-1.0387883186340332
1684252558521430800,1.2034306640625,-2.0979037284851074,7.3729939460754395,-0.8480426073074341
1684252558531456800,1.213456787109375,-2.3518080711364746,7.654603481292725,-0.4159778654575348
1684252558541482800,1.223482666015625,-2.2096850872039795,8.243741035461426,0.32582196593284607
1684252558551508700,1.2335087890625,-1.923652172088623,8.500675201416016,1.4863070249557495
1684252558561535000,1.243534912109375,-6.05003547668457,6.294522762298584,2.3533167839050293
1684252558571561000,1.25356103515625,-13.60629940032959,4.306865692138672,3.761369228363037
1684252558581587000,1.2635869140625,-16.6345272064209,2.522678852081299,4.830180644989014
1684252558591613000,1.273613037109375,-15.989078521728516,2.007246971130371,5.280423164367676
1684252558601639000,1.283638916015625,-13.414721488952637,4.135776996612549,5.05255651473999
1684252558611665000,1.293664794921875,-10.660833358764648,8.61267375946045,4.1113739013671875
1684252558621690600,1.303690673828125,-7.694832801818848,12.866849899291992,3.1085453033447266
1684252558631716600,1.313716552734375,-3.176579236984253,8.930947303771973,5.288791656494141
1684252558641742600,1.32374267578125,1.1791962385177612,4.302298545837402,6.9309773445129395
1684252558651767800,1.333767822265625,2.8630642890930176,2.705963134765625,7.0462822914123535
1684252558661793800,1.343793701171875,3.157965660095215,1.9937869310379028,6.784135341644287
1684252558671819800,1.35381982421875,2.843832492828369,1.8879433870315552,6.162115097045898
1684252558681845800,1.363845703125,2.1099464893341064,1.6001629829406738,5.4824652671813965
1684252558691872000,1.3738720703125,1.0720195770263672,-0.5630585551261902,4.266384124755859
1684252558701898000,1.38389794921875,0.09278246760368347,-2.9505820274353027,2.8669378757476807
1684252558711923700,1.393923828125,-0.572149395942688,-4.616213798522949,1.231980323791504
1684252558721949700,1.40394970703125,-0.7130242586135864,-5.75230598449707,-0.8255933523178101
1684252558731975700,1.4139755859375,-0.3862228989601135,-5.646912574768066,-2.5421462059020996
1684252558742001700,1.424001708984375,0.0033679967746138573,-4.185587406158447,-3.5136377811431885
1684252558752027600,1.434027587890625,0.4417354166507721,-2.3565917015075684,-3.940270185470581
1684252558762053600,1.4440537109375,0.791538417339325,-0.8048685193061829,-3.891411066055298
1684252558772079600,1.45407958984375,0.9793761968612671,0.34144341945648193,-3.632715940475464
1684252558782104800,1.464104736328125,1.0278713703155518,1.094637393951416,-3.293450117111206
1684252558792130800,1.474130859375,1.0298398733139038,1.5560449361801147,-2.87201189994812
1684252558802156800,1.48415673828125,1.0029147863388062,1.7367148399353027,-2.40053129196167
1684252558812182800,1.494182861328125,0.9328098297119141,1.7064766883850098,-1.8892487287521362
1684252558822208800,1.504208740234375,0.8449196219444275,1.4343119859695435,-1.423275113105774
1684252558832234800,1.51423486328125,0.7681211233139038,0.9914082288742065,-1.0044350624084473
1684252558842260700,1.5242607421875,0.7041301727294922,0.487403929233551,-0.5989977121353149
1684252558852286700,1.53428662109375,0.7043140530586243,0.017604326829314232,-0.18547387421131134
1684252558862312700,1.544312744140625,0.774505615234375,-0.3712722957134247,0.1868288516998291
1684252558872338700,1.554338623046875,0.8891327977180481,-0.6293628811836243,0.5148041248321533
1684252558882364700,1.56436474609375,1.079501986503601,-0.730704128742218,0.7859519720077515
1684252558892390700,1.574390625,1.271764874458313,-0.6209964156150818,1.0024328231811523
1684252558902416600,1.584416748046875,1.4263105392456055,-0.4273395836353302,1.13028085231781
1684252558912441900,1.59444189453125,1.622548222541809,-0.29023751616477966,1.0811532735824585
1684252558922467600,1.604467529296875,1.8266240358352661,-0.18118798732757568,0.8187344074249268
1684252558932493600,1.61449365234375,1.8956109285354614,-0.0039012208580970764,0.4791491627693176
1684252558942519600,1.62451953125,1.8671313524246216,0.31981852650642395,0.1838967502117157
1684252558952545800,1.6345458984375,1.745184302330017,0.43481549620628357,-0.04245878756046295
1684252558962571800,1.64457177734375,1.5597047805786133,0.21890637278556824,-0.20049609243869781
1684252558972597800,1.65459765625,1.3569377660751343,-0.16510286927223206,-0.25295794010162354
1684252558982623700,1.664623779296875,1.1901648044586182,-0.6014721989631653,-0.19187195599079132
1684252558992649700,1.674649658203125,1.0814067125320435,-1.089978814125061,-0.06798752397298813
1684252559002675700,1.68467578125,1.016357660293579,-1.6135860681533813,0.09009291976690292
1684252559012701700,1.69470166015625,0.9741635918617249,-2.1183557510375977,0.26941177248954773
1684252559022727700,1.704727783203125,0.9555286765098572,-2.597038984298706,0.4792177379131317
1684252559032753700,1.714753662109375,0.9515997171401978,-3.0171353816986084,0.7098645567893982
1684252559042778600,1.724778564453125,0.9573734402656555,-3.3000965118408203,0.9634851217269897
1684252559052804600,1.7348046875,0.9324727058410645,-3.327752113342285,1.3084293603897095
1684252559062830600,1.74483056640625,0.8310957551002502,-2.5277292728424072,1.9437896013259888
1684252559072856600,1.754856689453125,0.5324459075927734,0.9110143780708313,1.853493094444275
1684252559082882800,1.7648828125,0.20258758962154388,2.9238264560699463,1.182824730873108
1684252559092908800,1.77490869140625,-0.13369464874267578,2.886585235595703,0.6929934024810791
1684252559102934800,1.784934814453125,-0.4546436369419098,2.0306644439697266,0.3123922646045685
1684252559112960800,1.794960693359375,-0.6682946085929871,1.0993117094039917,-0.05859607458114624
1684252559122986800,1.80498681640625,-0.7434021234512329,0.3363504111766815,-0.4276963472366333
1684252559133012700,1.8150126953125,-0.6684754490852356,-0.29765617847442627,-0.7713521718978882
1684252559143038700,1.825038818359375,-0.5032284259796143,-0.8022077679634094,-1.0674138069152832
1684252559153064700,1.835064697265625,-0.30247998237609863,-1.1562658548355103,-1.3087812662124634
1684252559163090700,1.845090576171875,-0.08728965371847153,-1.4164010286331177,-1.5156805515289307
1684252559173115600,1.85511572265625,0.09364078938961029,-1.6087558269500732,-1.6919748783111572
1684252559183141600,1.8651416015625,0.22016865015029907,-1.7601631879806519,-1.8347793817520142
1684252559193167600,1.875167724609375,0.29293879866600037,-1.8780821561813354,-1.9269863367080688
1684252559203193600,1.885193603515625,0.33517786860466003,-1.930629849433899,-1.9691433906555176
1684252559213219800,1.8952197265625,0.3645910322666168,-1.9310781955718994,-1.9640926122665405
1684252559223245800,1.905245849609375,0.3755664527416229,-1.9343527555465698,-1.9129282236099243
1684252559233271800,1.915271728515625,0.34217357635498047,-1.9719990491867065,-1.8149688243865967
1684252559243297800,1.9252978515625,0.2604358494281769,-2.0452218055725098,-1.6818299293518066
1684252559253323800,1.93532373046875,0.15225568413734436,-2.143752336502075,-1.495619773864746
1684252559263349800,1.945349853515625,0.013457588851451874,-2.2504611015319824,-1.269814133644104
1684252559273375700,1.955375732421875,-0.13460412621498108,-2.336489677429199,-1.001481056213379
1684252559283401700,1.965401611328125,-0.2711659371852875,-2.358787775039673,-0.7078996300697327
1684252559293427700,1.975427734375,-0.3636852204799652,-2.299856662750244,-0.38542383909225464
1684252559303452700,1.98545263671875,-0.3867524564266205,-2.124040365219116,-0.02093777246773243
1684252559313478700,1.995478759765625,-0.3420915901660919,-1.8413461446762085,0.34749263525009155
1684252559323504600,2.005504638671875,-0.3481665253639221,-1.5510128736495972,0.8619964122772217
1684252559333530600,2.015530517578125,-0.43698135018348694,-1.1982835531234741,1.6622498035430908
1684252559343556600,2.025556640625,-0.5368267297744751,-0.7438393831253052,2.4230997562408447
1684252559353582600,2.03558251953125,-0.5756924748420715,-0.14826007187366486,2.7610692977905273
1684252559363608600,2.045608642578125,-0.5655274987220764,0.82607501745224,2.614342451095581
1684252559373634600,2.055634521484375,-0.4724617898464203,2.7112910747528076,1.9035835266113281
1684252559383660500,2.06566064453125,-0.3299430012702942,4.211179256439209,0.8521600365638733
1684252559393686500,2.0756865234375,-0.2870457172393799,4.170792579650879,0.025734862312674522
1684252559403712800,2.085712646484375,-0.36415594816207886,3.107302665710449,-0.4351358115673065
1684252559413738800,2.09573876953125,-0.45448505878448486,1.931522250175476,-0.7184942960739136
1684252559423764700,2.1057646484375,-0.5195221304893494,1.0325520038604736,-1.0636268854141235
1684252559433789700,2.115789794921875,-0.547011137008667,0.5620352029800415,-1.5261304378509521
1684252559443815700,2.125815673828125,-0.6002320051193237,0.4056794047355652,-2.1388466358184814
1684252559453841700,2.135841552734375,-0.762113630771637,0.585750162601471,-2.8590195178985596
1684252559463867600,2.14586767578125,-1.0274094343185425,1.5213083028793335,-3.79106068611145
1684252559473893600,2.1558935546875,-1.3196386098861694,3.3452885150909424,-4.952857971191406
1684252559483919600,2.165919677734375,-1.6447768211364746,4.92689847946167,-5.627270221710205
1684252559493945600,2.175945556640625,-1.9314948320388794,5.048793315887451,-5.17629861831665
1684252559503971600,2.1859716796875,-2.0714657306671143,3.718402862548828,-4.4384918212890625
1684252559513997600,2.19599755859375,-2.037424087524414,1.810502529144287,-4.213395118713379
1684252559524023600,2.2060234375,-1.9425151348114014,-0.10815635323524475,-4.315743923187256
1684252559534049800,2.2160498046875,-1.7379405498504639,-1.53053617477417,-4.38564395904541
1684252559544075800,2.22607568359375,-1.4394207000732422,-1.9858014583587646,-4.185643672943115
1684252559554101800,2.236101806640625,-0.9793912768363953,-1.5059746503829956,-3.70574688911438
1684252559564126700,2.246126708984375,-0.35241207480430603,-0.12827348709106445,-2.827754020690918
1684252559574152700,2.256152587890625,0.11329451203346252,1.6943485736846924,-1.9671233892440796
1684252559584178700,2.2661787109375,0.4152490198612213,3.2727112770080566,-1.3296067714691162
1684252559594204700,2.27620458984375,0.7233237028121948,2.8314971923828125,-0.9611680507659912
1684252559604230700,2.286230712890625,1.2520991563796997,-0.19793303310871124,-0.8650016188621521
1684252559614256600,2.296256591796875,2.150057315826416,-2.292323350906372,-0.7795574069023132
1684252559624282600,2.30628271484375,3.213759660720825,-3.1170854568481445,-0.6449944972991943
1684252559634308600,2.31630859375,4.097599506378174,-3.0436313152313232,-0.6031357049942017
1684252559644334600,2.32633447265625,4.746537208557129,-2.2050647735595703,-0.757854163646698
1684252559654360600,2.336360595703125,4.922784328460693,-0.6233935952186584,-1.0755091905593872
1684252559664386800,2.34638671875,4.461366653442383,1.3039144277572632,-1.313258409500122
1684252559674412800,2.356412841796875,3.548046112060547,2.6605052947998047,-0.766093909740448
1684252559684437800,2.366437744140625,2.5897738933563232,3.3879613876342773,0.41378363966941833
1684252559694463700,2.376463623046875,1.745552897453308,3.836198329925537,1.358284831047058
1684252559704489700,2.38648974609375,0.9552524089813232,3.8083019256591797,1.5925711393356323
1684252559714515700,2.396515625,0.3092976212501526,3.473491668701172,1.347990870475769
1684252559724541700,2.406541748046875,-0.05521164461970329,3.0762012004852295,0.9840040802955627
1684252559734567700,2.416567626953125,-0.17455710470676422,2.6593563556671143,0.7484325170516968
1684252559744593700,2.42659375,-0.11442559957504272,2.2916412353515625,0.6726165413856506
1684252559754619600,2.43661962890625,0.11678160727024078,2.0101065635681152,0.7049366235733032
1684252559764645600,2.446645751953125,0.4755096733570099,1.8192291259765625,0.8078123927116394
1684252559774671600,2.456671630859375,0.9148135781288147,1.725462555885315,0.9800190329551697
1684252559784697600,2.466697509765625,1.3679826259613037,1.6345659494400024,1.137477159500122
1684252559794723800,2.476723876953125,1.7530701160430908,1.5447111129760742,1.2111117839813232
1684252559804749800,2.486749755859375,1.9840543270111084,1.3973970413208008,1.184815764427185
1684252559814774800,2.49677490234375,1.9992475509643555,1.1893113851547241,1.1474789381027222
1684252559824800800,2.50680078125,1.8538063764572144,0.9676282405853271,1.2300270795822144
1684252559834826800,2.51682666015625,1.6060715913772583,0.7844093441963196,1.4447580575942993
1684252559844852700,2.526852783203125,1.322258472442627,0.5799358487129211,1.7595891952514648
1684252559854878700,2.536878662109375,0.9902304410934448,0.37140241265296936,2.202963352203369
1684252559864904700,2.54690478515625,0.6103004217147827,0.15937590599060059,2.6980347633361816
1684252559874930700,2.5569306640625,0.21838639676570892,-0.2455231100320816,3.0537209510803223
1684252559884956700,2.566956787109375,-0.11843050271272659,-0.9988836646080017,3.119070529937744
1684252559894982700,2.576982666015625,-0.39968135952949524,-2.1191318035125732,2.8773765563964844
1684252559905008600,2.587008544921875,-0.497016966342926,-3.787770986557007,2.644169569015503
1684252559915034600,2.59703466796875,-0.17926724255084991,-5.996068000793457,3.0154292583465576
1684252559925060900,2.607060791015625,0.3990594744682312,-8.136957168579102,3.1741530895233154
1684252559935086800,2.6170869140625,2.0169310569763184,-11.405921936035156,0.01899407058954239
1684252559945111800,2.62711181640625,4.546429634094238,-8.596230506896973,-3.574810266494751
1684252559955137800,2.6371376953125,4.385925769805908,-0.763329267501831,-1.2945225238800049
1684252559965163800,2.647163818359375,0.6928883194923401,3.993570566177368,0.7363479733467102
1684252559975189800,2.657189697265625,-3.3083653450012207,2.962775468826294,1.3315330743789673
1684252559985215700,2.6672158203125,-5.935132026672363,3.1245241165161133,-0.3811531960964203
1684252559995241700,2.67724169921875,-7.196558475494385,2.3024492263793945,-1.4816210269927979
1684252560005267700,2.687267822265625,-7.501803398132324,0.3926973342895508,-1.4461370706558228
1684252560015293700,2.697293701171875,-7.261485576629639,-1.3119012117385864,-1.498900294303894
1684252560025319700,2.707319580078125,-6.623130798339844,-2.5792253017425537,-1.7272692918777466
1684252560035345700,2.717345703125,-5.520364761352539,-2.208592414855957,-1.8406329154968262
1684252560045371600,2.72737158203125,-4.068033695220947,1.4048610925674438,-0.9747909903526306
1684252560055397600,2.737397705078125,-2.687589406967163,3.566711664199829,0.007437397725880146
1684252560065423600,2.747423583984375,-1.4232980012893677,3.622971296310425,0.7287116646766663
1684252560075448800,2.75744873046875,-0.3903123140335083,2.889641046524048,1.3038816452026367
1684252560085474800,2.767474853515625,0.3561325967311859,1.831689715385437,1.759961485862732
1684252560095500800,2.777500732421875,0.8778778314590454,0.2573077380657196,1.9703017473220825
1684252560105526800,2.78752685546875,1.1807599067687988,-1.5411467552185059,2.063758134841919
1684252560115552800,2.797552734375,1.3052705526351929,-2.786343574523926,2.2390310764312744
1684252560125578800,2.807578857421875,1.4153296947479248,-3.0619397163391113,2.4428811073303223
1684252560135604700,2.817604736328125,1.549019455909729,-2.4331493377685547,2.597317934036255
1684252560145630700,2.827630615234375,1.7658580541610718,-1.4066665172576904,2.6522367000579834
1684252560155656700,2.83765673828125,1.9907876253128052,-0.5821361541748047,2.460859775543213
1684252560165682400,2.847682373046875,2.1244359016418457,-0.5089205503463745,1.9303879737854004
1684252560175708400,2.85770849609375,2.0464508533477783,-1.0183007717132568,1.2599399089813232
1684252560185734700,2.867734619140625,1.7725491523742676,-1.500264286994934,0.7116230130195618
1684252560195759600,2.877759521484375,1.3952950239181519,-1.7216564416885376,0.34258222579956055
1684252560205785900,2.887785888671875,0.9585131406784058,-1.6765908002853394,0.15397688746452332
1684252560215811800,2.897811767578125,0.5440484881401062,-1.5958478450775146,0.1754872351884842
1684252560225837800,2.907837890625,0.259161114692688,-1.5724519491195679,0.37276116013526917
1684252560235863800,2.91786376953125,0.1328371912240982,-1.5722639560699463,0.6835554242134094
1684252560245889500,2.9278896484375,0.14053452014923096,-1.5200034379959106,1.022424340248108
1684252560255915500,2.93791552734375,0.20112209022045135,-1.3861418962478638,1.3258336782455444
1684252560265941500,2.94794140625,0.2508147954940796,-1.1171865463256836,1.5461231470108032
1684252560275967500,2.957967529296875,0.2744278609752655,-0.7193154096603394,1.675179123878479
1684252560285993500,2.967993408203125,0.25898900628089905,-0.23410508036613464,1.708372712135315
1684252560296019500,2.97801953125,0.22233231365680695,0.297131210565567,1.6417070627212524
1684252560306045400,2.98804541015625,0.1622663140296936,0.841934859752655,1.50262451171875
1684252560316071700,2.99807177734375,0.11214111745357513,1.345223307609558,1.3410414457321167
1684252560326096600,3.0080966796875,0.09972519427537918,1.7398955821990967,1.183287262916565
1684252560336123100,3.018123046875,0.1298549324274063,1.955254077911377,1.0625391006469727
1684252560346149000,3.028149169921875,0.1780427098274231,1.9873448610305786,1.00477933883667
1684252560356175400,3.03817529296875,0.22626911103725433,1.845293402671814,0.9939463138580322
1684252560366201300,3.048201416015625,0.2629472613334656,1.5552847385406494,1.0065277814865112
1684252560376227300,3.058227294921875,0.2896856963634491,1.141767978668213,1.019343376159668
1684252560386253300,3.06825341796875,0.3118849992752075,0.6824278831481934,1.0126605033874512
1684252560396279300,3.078279296875,0.36183929443359375,0.22749333083629608,0.9812188744544983
1684252560406305300,3.08830517578125,0.42765000462532043,-0.18545988202095032,0.8740753531455994
1684252560416331300,3.098331298828125,0.4658948481082916,-0.5301619172096252,0.6917540431022644
1684252560426357200,3.108357177734375,0.4095474183559418,-0.7946886420249939,0.4154830276966095
1684252560436383200,3.11838330078125,0.2543969750404358,-0.8827649354934692,0.04924185946583748
1684252560446409200,3.1284091796875,0.05249819904565811,-0.7585265636444092,-0.3337859511375427
1684252560456434200,3.13843408203125,-0.1318202167749405,-0.49607765674591064,-0.6388113498687744
1684252560466460200,3.148460205078125,-0.2609369158744812,-0.1351921558380127,-0.8517630100250244
1684252560476486100,3.158486083984375,-0.3193294405937195,0.2567729651927948,-0.9778915643692017
1684252560486512400,3.168512451171875,-0.29842841625213623,0.5374554991722107,-1.0211634635925293
1684252560496538400,3.178538330078125,-0.27262404561042786,0.5826669931411743,-1.0538928508758545
1684252560506564400,3.188564453125,-0.253145694732666,0.4914475977420807,-1.1123274564743042
1684252560516590300,3.19859033203125,-0.17423512041568756,0.36089807748794556,-1.1516581773757935
1684252560526616300,3.2086162109375,-0.031249746680259705,0.2138790786266327,-1.1529769897460938
1684252560536642300,3.218642333984375,0.14640597999095917,0.046055980026721954,-1.148641586303711
1684252560546668300,3.228668212890625,0.3372417390346527,-0.11423888802528381,-1.1689053773880005
1684252560556694300,3.2386943359375,0.4732291102409363,-0.11988317966461182,-1.2900266647338867
1684252560566720300,3.24872021484375,0.44005119800567627,0.16914916038513184,-1.5854524374008179
1684252560576745200,3.2587451171875,0.2839146554470062,0.6627997756004333,-1.9723671674728394
1684252560586771200,3.268771240234375,0.14930731058120728,1.1883407831192017,-2.301034688949585
1684252560596797200,3.278797119140625,0.1681155264377594,1.7411117553710938,-2.5565133094787598
1684252560606823200,3.2888232421875,0.40777286887168884,2.32559871673584,-2.7648730278015137
1684252560616849400,3.298849365234375,0.8231959939002991,2.902038812637329,-3.0019419193267822
1684252560626875400,3.30887548828125,1.3852918148040771,3.4748713970184326,-3.218228340148926
1684252560636901400,3.3189013671875,2.0549423694610596,4.102566242218018,-3.3458800315856934
1684252560646927400,3.32892724609375,2.537099838256836,4.279027938842773,-3.3820924758911133
1684252560656953300,3.338953369140625,2.421459674835205,3.338129997253418,-3.0573108196258545
1684252560666979300,3.348979248046875,1.8148870468139648,0.08578719198703766,-1.8669071197509766
1684252560677005300,3.35900537109375,1.0763450860977173,-3.493478298187256,-0.5935068130493164
1684252560687031300,3.36903125,0.48537981510162354,-5.057730674743652,-0.3074040114879608
1684252560697057300,3.379057373046875,0.36242911219596863,-3.9787745475769043,-1.3280932903289795
1684252560707082200,3.389082275390625,0.6347419023513794,-2.2138772010803223,-2.3024837970733643
1684252560717108200,3.399108154296875,0.9506769776344299,-1.0765810012817383,-2.542793035507202
1684252560727134200,3.40913427734375,1.2079252004623413,-0.3974149525165558,-2.237928628921509
1684252560737160200,3.41916015625,1.4329888820648193,0.17274658381938934,-1.597983956336975
1684252560747186400,3.4291865234375,1.5695114135742188,0.8098684549331665,-0.8061503171920776
1684252560757212400,3.43921240234375,1.5625388622283936,2.0177559852600098,0.02812567725777626
1684252560767238400,3.44923828125,1.44789719581604,3.037316083908081,0.5707346200942993
1684252560777264400,3.459264404296875,1.0945103168487549,3.457077980041504,0.8554124236106873
1684252560787290400,3.469290283203125,0.5518646836280823,3.29231333732605,0.9592781066894531
1684252560797316400,3.47931640625,-0.07925895601511002,2.703064441680908,0.8916961550712585
1684252560807342300,3.48934228515625,-0.7445815801620483,2.8308024406433105,0.24409954249858856
1684252560817368300,3.499368408203125,-1.363327145576477,3.926219940185547,-1.1456074714660645
1684252560827394300,3.509394287109375,-1.8090956211090088,4.117541313171387,-1.9918626546859741
1684252560837419300,3.519419189453125,-2.066000461578369,3.037367582321167,-2.0532379150390625
1684252560847445200,3.5294453125,-2.19623064994812,1.4192510843276978,-1.684827446937561
1684252560857471200,3.53947119140625,-2.2010045051574707,0.05615733563899994,-1.225078821182251
1684252560867497200,3.549497314453125,-2.0524370670318604,-0.7449912428855896,-0.8905673623085022
1684252560877523500,3.5595234375,-1.7768067121505737,-0.9969750642776489,-0.7025300860404968
1684252560887549400,3.569549560546875,-1.4755661487579346,-0.9476271867752075,-0.6305323243141174
1684252560897575400,3.579575439453125,-1.2026227712631226,-0.6920194029808044,-0.6654660701751709
1684252560907601400,3.589601318359375,-1.003314733505249,-0.4371684491634369,-0.8244951367378235
1684252560917627400,3.59962744140625,-0.9015408158302307,-0.36421212553977966,-1.0433173179626465
1684252560927653400,3.6096533203125,-0.8629644513130188,-0.47873708605766296,-1.245552659034729
1684252560937679400,3.619679443359375,-0.8375388979911804,-0.7312955856323242,-1.3508872985839844
1684252560947705300,3.629705322265625,-0.8070177435874939,-1.0045369863510132,-1.3091204166412354
1684252560957730300,3.639730224609375,-0.7783743143081665,-1.2175118923187256,-1.1325901746749878
1684252560967756300,3.64975634765625,-0.7640677690505981,-1.3708854913711548,-0.8711370229721069
1684252560977782300,3.6597822265625,-0.770541250705719,-1.5005382299423218,-0.5703595280647278
1684252560987808300,3.669808349609375,-0.7535215020179749,-1.5963366031646729,-0.2734905481338501
1684252560997834200,3.679834228515625,-0.6898692846298218,-1.6214141845703125,-0.007639517541974783
1684252561007860500,3.689860595703125,-0.5810130834579468,-1.578413963317871,0.2230416238307953
1684252561017886500,3.699886474609375,-0.4466199278831482,-1.4860308170318604,0.42287585139274597
1684252561027912400,3.709912353515625,-0.29738330841064453,-1.4737486839294434,0.561517596244812
1684252561037938400,3.7199384765625,-0.06834525614976883,-1.5968042612075806,0.6203852891921997
1684252561047964400,3.72996435546875,0.28980782628059387,-1.8896087408065796,0.6319311261177063
1684252561057990400,3.739990478515625,0.7722218632698059,-2.3965063095092773,0.6034749150276184
1684252561068016400,3.750016357421875,1.2756109237670898,-3.14719557762146,0.5909036993980408
1684252561078041300,3.760041259765625,1.7497689723968506,-4.242944240570068,0.8279950022697449
1684252561088067300,3.7700673828125,2.0596024990081787,-5.547815322875977,1.4362093210220337
1684252561098093300,3.78009326171875,1.8881109952926636,-6.695209503173828,2.3052899837493896
1684252561108119300,3.790119384765625,1.2386025190353394,-7.352300643920898,3.000270366668701
1684252561118145300,3.800145263671875,0.357753723859787,-7.617268085479736,3.1395976543426514
1684252561128171300,3.810171142578125,-0.31895712018013,-8.670764923095703,2.3612570762634277
1684252561138197500,3.820197509765625,1.3821077346801758,-9.127735137939453,-3.925952672958374
1684252561148223500,3.830223388671875,3.0072414875030518,-6.939600944519043,-6.817481994628906
1684252561158249500,3.84024951171875,3.676344394683838,-5.037867069244385,-5.4004645347595215
1684252561168275500,3.850275390625,3.5588576793670654,-3.4558987617492676,-1.9853532314300537
1684252561178301400,3.860301513671875,2.663699150085449,-3.7409582138061523,2.5928306579589844
1684252561188327400,3.870327392578125,1.3313217163085938,-1.601130723953247,4.1385579109191895
1684252561198352400,3.880352294921875,-0.10959648340940475,0.4010388255119324,4.06062650680542
1684252561208378400,3.89037841796875,-1.4098066091537476,2.1155552864074707,3.4555275440216064
1684252561218404400,3.900404296875,-2.484379529953003,3.404844045639038,2.7876949310302734
1684252561228430300,3.910430419921875,-3.2599024772644043,3.997623920440674,2.394514799118042
1684252561238456300,3.920456298828125,-3.903654098510742,3.919416904449463,2.128404140472412
1684252561248482300,3.930482421875,-4.465674877166748,3.2934257984161377,1.750324010848999
1684252561258508300,3.94050830078125,-4.80509614944458,2.223978281021118,1.2284566164016724
1684252561268534500,3.950534423828125,-4.721052646636963,1.267320990562439,0.7610183358192444
1684252561278560500,3.960560546875,-4.127196788787842,0.7533283829689026,0.5234653949737549
1684252561288586500,3.97058642578125,-3.151334762573242,0.5723468661308289,0.5044499039649963
1684252561298612500,3.980612548828125,-2.137054443359375,0.37590134143829346,0.6560840606689453
1684252561308638200,3.99063818359375,-1.3388237953186035,0.054763272404670715,0.9326227307319641
1684252561318664200,4.000664306640625,-0.8106187582015991,-0.628763735294342,1.3455491065979004
1684252561328689400,4.010689453125,-0.5268725752830505,-1.718364953994751,1.9235727787017822
1684252561338715400,4.02071533203125,-0.4214871823787689,-2.849802017211914,2.449993848800659
1684252561348741400,4.030741455078125,-0.39191198348999023,-3.666870355606079,2.730865955352783
1684252561358767400,4.040767333984375,-0.369589626789093,-4.091623783111572,2.7591545581817627
1684252561368793300,4.05079345703125,-0.3921644389629364,-4.212244987487793,2.5812413692474365
1684252561378819300,4.0608193359375,-0.5297503471374512,-4.243246078491211,2.277991771697998
1684252561388845300,4.07084521484375,-0.8296939134597778,-4.5117902755737305,1.9094340801239014
1684252561398871300,4.080871337890625,-1.1817030906677246,-4.909514904022217,1.4702497720718384
1684252561408897300,4.090897216796875,-1.4741530418395996,-5.108521461486816,0.9797885417938232
1684252561418923300,4.10092333984375,-1.6750701665878296,-5.030481338500977,0.47602584958076477
1684252561428949200,4.11094921875,-1.7263215780258179,-4.80365514755249,-0.05034846067428589
1684252561438975200,4.120975341796875,-1.5508447885513306,-4.397253513336182,-0.5749464631080627
1684252561449000400,4.13100048828125,-1.341203212738037,-3.957481861114502,-1.0402549505233765
1684252561459026400,4.1410263671875,-1.201251745223999,-3.5507454872131348,-1.4101150035858154
1684252561469052400,4.151052490234375,-1.1341243982315063,-3.770998239517212,-1.7028416395187378
1684252561479078400,4.161078369140625,-1.0755966901779175,-4.8712687492370605,-1.864164113998413
1684252561489104400,4.1711044921875,-0.7864691615104675,-6.966893672943115,-1.8170593976974487
1684252561499130400,4.18113037109375,-0.21502675116062164,-9.281051635742188,-1.5665502548217773
1684252561509156400,4.19115625,0.5724737644195557,-11.124725341796875,-1.1670688390731812
1684252561519182000,4.20118212890625,1.4827872514724731,-11.27914810180664,-0.7761693596839905
1684252561529208000,4.2112080078125,2.3365349769592285,-9.579317092895508,-0.5140115022659302
1684252561539234000,4.221234130859375,2.999096155166626,-8.163680076599121,-0.3324432671070099
1684252561549260300,4.23126025390625,3.49238920211792,-7.776272296905518,-0.08897042274475098
1684252561559286300,4.241286376953125,3.750420093536377,-6.253896236419678,-0.11121207475662231
1684252561569312300,4.251312255859375,3.560011148452759,-2.4294331073760986,-2.2156176567077637
1684252561579337500,4.26133740234375,3.256247043609619,2.2399613857269287,-5.989019393920898
1684252561589363500,4.271363525390625,3.427745819091797,5.4627461433410645,-7.421582221984863
1684252561599389400,4.281389404296875,4.121554374694824,8.248482704162598,-7.448692798614502
1684252561609415200,4.291415283203125,5.235637664794922,10.366165161132812,-7.266367435455322
1684252561619441200,4.301441162109375,6.825777053833008,6.830911636352539,-4.77495813369751
1684252561629467100,4.311467041015625,7.874021053314209,2.573681592941284,-2.138888359069824
1684252561639493000,4.3214931640625,6.913496494293213,2.4529387950897217,-1.1875771284103394
1684252561649519000,4.33151904296875,4.788122177124023,4.350971221923828,-1.362824559211731
1684252561659545000,4.341545166015625,2.646040678024292,6.065736293792725,-1.9565305709838867
1684252561669571000,4.351571044921875,0.9118358492851257,6.902654647827148,-2.354003667831421
1684252561679597300,4.361597412109375,0.011407798156142235,6.320169448852539,-2.283860683441162
1684252561689623300,4.371623291015625,0.0002978892298415303,4.952160358428955,-1.8430413007736206
1684252561699648300,4.381648193359375,0.581652820110321,3.3693079948425293,-1.1996850967407227
1684252561709674200,4.39167431640625,1.469850778579712,2.0447003841400146,-0.433231383562088
1684252561719700200,4.4017001953125,2.6697795391082764,1.9677103757858276,0.7911481261253357
1684252561729726200,4.411726318359375,3.668189287185669,2.0340681076049805,1.9921005964279175
1684252561739752200,4.421752197265625,3.6640021800994873,0.6534836888313293,2.421419143676758
1684252561749778200,4.431778076171875,3.036569356918335,-3.5341625213623047,1.9350441694259644
1684252561759804200,4.44180419921875,2.5449531078338623,-6.436426162719727,0.5430887937545776
1684252561769830100,4.451830078125,2.3246257305145264,-6.343774318695068,-0.598633348941803
1684252561779856100,4.461856201171875,2.14639949798584,-3.5555264949798584,-1.1182012557983398
1684252561789882000,4.471882080078125,1.7792768478393555,0.3910142481327057,-1.2093479633331299
1684252561799908000,4.481908203125,1.3315460681915283,3.4171526432037354,-0.9721174240112305
1684252561809934300,4.491934326171875,0.9127466678619385,4.658079624176025,-0.46199774742126465
1684252561819960300,4.501960205078125,0.5829079747200012,4.305635929107666,0.2546185553073883
1684252561829985300,4.5119853515625,0.345466673374176,3.1349549293518066,1.1134847402572632
1684252561840011300,4.52201123046875,0.16169020533561707,2.110508441925049,1.8242969512939453
1684252561850037200,4.532037353515625,0.0485394112765789,1.6159166097640991,2.2427003383636475
1684252561860063200,4.542063232421875,0.0020450439769774675,1.4758806228637695,2.4109299182891846
1684252561870089200,4.552089111328125,0.02631043642759323,1.441765546798706,2.463332414627075
1684252561880115200,4.562115234375,0.15144690871238708,1.397191047668457,2.353546380996704
1684252561890141200,4.57214111328125,0.3703313171863556,1.2723779678344727,2.0178165435791016
1684252561900167200,4.582167236328125,0.7038269639015198,1.0154802799224854,1.3481528759002686
1684252561910193200,4.592193115234375,1.1338518857955933,0.7202870845794678,0.575920581817627
1684252561920219100,4.60221923828125,1.5499396324157715,0.39402130246162415,0.007770245894789696
1684252561930245000,4.6122451171875,1.876846432685852,0.06390197575092316,-0.2811041474342346
1684252561940270000,4.62227001953125,2.0874335765838623,-0.3397064208984375,-0.32877710461616516
1684252561950296000,4.632296142578125,2.189966917037964,-0.9624943733215332,-0.18700425326824188
1684252561960322300,4.642322265625,2.140048027038574,-1.7902612686157227,0.16041414439678192
1684252561970348300,4.652348388671875,1.916120171546936,-2.299908399581909,0.558075487613678
1684252561980374300,4.662374267578125,1.591482400894165,-2.1032044887542725,0.768686056137085
1684252561990400300,4.672400146484375,1.2319748401641846,-1.3307346105575562,0.7230993509292603
1684252562000426200,4.68242626953125,0.8798539638519287,-0.40900489687919617,0.6423065066337585
1684252562010452200,4.6924521484375,0.6539676189422607,0.2826191186904907,0.7649834156036377
1684252562020478200,4.702478271484375,0.5489404797554016,0.7287905216217041,1.0660414695739746
1684252562030504200,4.712504150390625,0.45539507269859314,1.0145405530929565,1.375646710395813
1684252562040530200,4.7225302734375,0.2740935981273651,1.1668660640716553,1.5750893354415894
1684252562050556200,4.73255615234375,0.005635760724544525,1.204558253288269,1.655268669128418
1684252562060582100,4.74258203125,-0.31798315048217773,1.1294498443603516,1.6466283798217773
1684252562070607000,4.752607177734375,-0.6301423907279968,1.0101876258850098,1.608847737312317
1684252562080633000,4.762633056640625,-0.9038748741149902,0.8329403400421143,1.579021692276001
1684252562090659300,4.772659423828125,-1.140454649925232,0.5936022996902466,1.5750677585601807
1684252562100685300,4.782685302734375,-1.339984655380249,0.32443466782569885,1.6111259460449219
1684252562110711300,4.792711181640625,-1.5174601078033447,0.07241228222846985,1.7147620916366577
1684252562120737300,4.8027373046875,-1.6929683685302734,-0.1262626200914383,1.8450709581375122
1684252562130763300,4.81276318359375,-1.8593802452087402,-0.28811514377593994,1.9826200008392334
1684252562140789200,4.822789306640625,-2.03008770942688,-0.35021770000457764,2.08721661567688
1684252562150815200,4.832815185546875,-2.1812093257904053,-0.29635554552078247,2.1421825885772705
1684252562160841200,4.84284130859375,-2.3319568634033203,-0.15421591699123383,2.1879360675811768
1684252562170867200,4.8528671875,-2.4572641849517822,0.12417683005332947,2.243252992630005
1684252562180893200,4.86289306640625,-2.5461530685424805,0.6095519065856934,2.316863536834717
1684252562190918100,4.872918212890625,-2.617952346801758,1.2193242311477661,2.428537130355835
1684252562200944000,4.882944091796875,-2.65812611579895,1.82264244556427,2.5790181159973145
1684252562210970000,4.89297021484375,-2.6719810962677,2.2738049030303955,2.716766119003296
1684252562220996400,4.902996337890625,-2.625988006591797,2.5164856910705566,2.8026225566864014
1684252562231022300,4.913022216796875,-2.4622435569763184,2.848539352416992,2.796142578125
1684252562241048300,4.92304833984375,-1.9968616962432861,3.3060214519500732,2.6958227157592773
1684252562251074300,4.93307421875,-1.3039498329162598,1.147459626197815,1.7835941314697266
1684252562261100300,4.943100341796875,-0.8385798335075378,-1.7412383556365967,0.30182719230651855
1684252562271126300,4.953126220703125,-0.7305740118026733,-3.4180397987365723,-1.052138090133667
1684252562281152300,4.96315234375,-0.743994414806366,-3.1555068492889404,-1.8361480236053467
1684252562291178200,4.97317822265625,-0.48302406072616577,-1.7178411483764648,-1.9920260906219482
1684252562301204200,4.983204345703125,-0.1431521475315094,-1.2466734647750854,-1.6736044883728027
1684252562311229200,4.993229248046875,0.2907857298851013,-2.5843544006347656,-0.6458078026771545
1684252562321255200,5.003255126953125,0.5037267208099365,-3.125992774963379,0.1099386215209961
1684252562331280600,5.01328076171875,0.4619678258895874,-2.1637091636657715,0.1278340071439743
1684252562341306600,5.023306640625,0.3042886555194855,-0.5690019726753235,-0.3185400664806366
1684252562351332600,5.03333251953125,0.16182418167591095,1.0116592645645142,-0.878547728061676
1684252562361358800,5.04335888671875,0.05793648958206177,2.390639305114746,-1.4416961669921875
1684252562371384800,5.053384765625,-0.0491606667637825,3.570000648498535,-1.9443981647491455
1684252562381410800,5.063410888671875,-0.1939951628446579,4.567722797393799,-2.3009774684906006
1684252562391436800,5.073436767578125,-0.3734932541847229,5.435478687286377,-2.426680564880371
1684252562401462800,5.083462890625,-0.5465338826179504,6.099823951721191,-2.3257765769958496
1684252562411488800,5.09348876953125,-0.6550249457359314,6.373664855957031,-2.0488293170928955
1684252562421514800,5.1035146484375,-0.649895191192627,6.023502349853516,-1.523348093032837
1684252562431539700,5.113539794921875,-0.4465964138507843,4.611905574798584,-0.44773831963539124
1684252562441565700,5.123565673828125,-0.02176213450729847,2.3141582012176514,0.9546241164207458
1684252562451591700,5.133591796875,0.3950260579586029,0.5727010369300842,1.8036692142486572
1684252562461617700,5.14361767578125,0.6333582997322083,-0.5871078372001648,2.101292848587036
1684252562471643600,5.1536435546875,0.6670017242431641,-1.4031710624694824,2.139873504638672
1684252562481669600,5.163669677734375,0.5702213048934937,-1.9291516542434692,2.0600991249084473
1684252562491695900,5.17369580078125,0.47585245966911316,-2.1907544136047363,1.9578857421875
1684252562501721900,5.183721923828125,0.4376738965511322,-2.274005889892578,1.90840744972229
1684252562511747800,5.193747802734375,0.47908422350883484,-2.2394464015960693,1.921972632408142
1684252562521773800,5.20377392578125,0.5302555561065674,-2.1591129302978516,1.974926471710205
1684252562531799800,5.2137998046875,0.5242389440536499,-2.0211892127990723,2.04128098487854
1684252562541825800,5.22382568359375,0.4889990985393524,-1.8865106105804443,2.1741838455200195
1684252562551850800,5.233850830078125,0.4625736176967621,-1.858277678489685,2.5258874893188477
1684252562561876700,5.243876708984375,0.3593466877937317,-1.7468465566635132,3.091545581817627
1684252562571902700,5.25390283203125,0.13353806734085083,-1.2983334064483643,3.700695753097534
1684252562581928700,5.2639287109375,-0.241103857755661,0.7718418836593628,3.9691624641418457
1684252562591954700,5.27395458984375,-0.7898452877998352,4.5516228675842285,3.4188942909240723
1684252562601980700,5.283980712890625,-1.3077605962753296,5.950151443481445,2.7315967082977295
1684252562612006700,5.294006591796875,-1.641348123550415,5.419547080993652,2.2658989429473877
1684252562622033000,5.304032958984375,-1.7970085144042969,4.16961145401001,2.0361483097076416
1684252562632059000,5.314058837890625,-1.7548967599868774,2.4904067516326904,1.9018296003341675
1684252562642084900,5.3240849609375,-1.575666069984436,0.7723087668418884,1.7424687147140503
1684252562652110800,5.33411083984375,-1.3283779621124268,-0.19875675439834595,1.4556111097335815
1684252562662136800,5.34413671875,-1.0198842287063599,-0.12151579558849335,0.9196112751960754
1684252562672161800,5.354161865234375,-0.7478586435317993,0.40556639432907104,0.2896500825881958
1684252562682187800,5.364187744140625,-0.6762225031852722,0.7899166345596313,-0.18205519020557404
1684252562692213800,5.3742138671875,-0.7496111989021301,0.7980347871780396,-0.34613174200057983
1684252562702239700,5.38423974609375,-0.7987669706344604,0.5235358476638794,-0.2816777229309082
1684252562712265700,5.394265625,-0.735211193561554,0.31730538606643677,-0.12744979560375214
1684252562722291700,5.404291748046875,-0.5822835564613342,0.2895977795124054,0.01700635813176632
1684252562732317700,5.414317626953125,-0.3907484710216522,0.4137048125267029,0.11276829987764359
1684252562742343700,5.42434375,-0.2135642170906067,0.5856489539146423,0.16724316775798798
1684252562752370000,5.434369873046875,-0.07128216326236725,0.7234329581260681,0.18534520268440247
1684252562762396000,5.44439599609375,0.03153473511338234,0.8261446952819824,0.18097378313541412
1684252562772422000,5.454421875,0.0956849604845047,0.8554551601409912,0.15878431499004364
1684252562782447900,5.46444775390625,0.13853180408477783,0.7722353339195251,0.11479179561138153
1684252562792472800,5.474472900390625,0.20360827445983887,0.5827199816703796,0.029663050547242165
1684252562802498800,5.484498779296875,0.3071771264076233,0.4626379609107971,-0.15347711741924286
1684252562812524800,5.49452490234375,0.482485830783844,0.7066950798034668,-0.5822934508323669
1684252562822550800,5.50455078125,0.7495453953742981,1.4052202701568604,-1.3556358814239502
1684252562832576800,5.51457666015625,1.0414665937423706,1.8269329071044922,-2.2369544506073
1684252562842602800,5.524602783203125,1.2173489332199097,1.7723764181137085,-3.0372743606567383
1684252562852628700,5.534628662109375,1.3534051179885864,1.7892206907272339,-3.6924946308135986
1684252562862654700,5.54465478515625,1.6426575183868408,1.6819491386413574,-4.123477935791016
1684252562872680700,5.5546806640625,1.938624620437622,1.2252287864685059,-4.286026477813721
1684252562882707000,5.56470703125,2.188215970993042,0.2996063530445099,-4.035444736480713
1684252562892733000,5.57473291015625,2.288316011428833,-1.1690082550048828,-3.1332194805145264
1684252562902759000,5.584759033203125,1.980086088180542,-2.5326387882232666,-1.7770278453826904
1684252562912784000,5.594783935546875,1.2279130220413208,-2.4677324295043945,-1.0347214937210083
1684252562922809900,5.604809814453125,0.49078962206840515,-1.6779448986053467,-1.0114485025405884
1684252562932835800,5.6148359375,0.18754053115844727,-0.8216275572776794,-1.4060120582580566
1684252562942861800,5.62486181640625,0.4381464421749115,-0.3014768660068512,-1.8081942796707153
1684252562952887800,5.6348876953125,0.7948587536811829,-0.3602648079395294,-1.9151239395141602
1684252562962913800,5.644913818359375,1.0135564804077148,-0.6374272704124451,-1.8205347061157227
1684252562972939800,5.654939697265625,1.1775074005126953,-0.3415987491607666,-1.3842074871063232
1684252562982965800,5.6649658203125,1.3432914018630981,1.2291041612625122,-0.2168196439743042
1684252562992991700,5.67499169921875,1.413470983505249,2.9778382778167725,1.195098876953125
1684252563003017700,5.685017822265625,1.241686463356018,3.763613700866699,2.2648870944976807
1684252563013044000,5.6950439453125,0.8286064267158508,3.3388307094573975,2.8072311878204346
1684252563023070000,5.705070068359375,0.7987228631973267,3.2847673892974854,0.9812623858451843
1684252563033095000,5.715094970703125,1.070062518119812,3.0145132541656494,-1.2215968370437622
1684252563043121000,5.725120849609375,1.3611888885498047,2.567049741744995,-1.3863348960876465
1684252563053147000,5.73514697265625,1.6534018516540527,2.615032434463501,-0.20657232403755188
1684252563063172900,5.7451728515625,1.7789720296859741,2.85032320022583,0.7830482125282288
1684252563073198800,5.75519873046875,1.5205823183059692,3.015657663345337,0.9496731758117676
1684252563083224800,5.765224853515625,0.9692628979682922,3.1853060722351074,0.7371894717216492
1684252563093250800,5.775250732421875,0.26346027851104736,3.1329762935638428,0.40996286273002625
1684252563103276800,5.78527685546875,-0.4535980820655823,2.7205262184143066,0.0935174748301506
1684252563113302800,5.795302734375,-1.0659592151641846,2.1181304454803467,-0.11307031661272049
1684252563123328800,5.805328857421875,-1.5066121816635132,1.5111654996871948,-0.23460891842842102
1684252563133354800,5.815354736328125,-1.7851319313049316,1.0271329879760742,-0.3501270115375519
1684252563143381000,5.825381103515625,-1.8796749114990234,0.6350464820861816,-0.45559757947921753
1684252563153405700,5.83540576171875,-1.7668088674545288,0.28857430815696716,-0.405656099319458
1684252563163432000,5.845431884765625,-1.536456823348999,-0.3386002779006958,-0.1929091513156891
1684252563173458000,5.8554580078125,-1.2549196481704712,-1.2480216026306152,0.10046414285898209
1684252563183484000,5.86548388671875,-0.939570963382721,-2.0432231426239014,0.4152044355869293
1684252563193510000,5.875510009765625,-0.6561501622200012,-2.4844143390655518,0.7572914361953735
1684252563203536000,5.885535888671875,-0.4608350992202759,-2.5686213970184326,1.085944414138794
1684252563213561900,5.895561767578125,-0.37585949897766113,-2.426457643508911,1.3539239168167114
1684252563223587800,5.905587890625,-0.36353886127471924,-2.1191036701202393,1.5660067796707153
1684252563233613800,5.91561376953125,-0.3880133330821991,-1.7031842470169067,1.7994178533554077
1684252563243639800,5.925639892578125,-0.48036789894104004,-1.262082576751709,2.0269012451171875
1684252563253665800,5.935665771484375,-0.6266710162162781,-0.9026921987533569,2.18182373046875
1684252563263691800,5.94569189453125,-0.8300169706344604,-0.7067070603370667,2.2147276401519775
1684252563273716700,5.955716796875,-1.0676339864730835,-0.728794515132904,2.071523666381836
1684252563283742700,5.96574267578125,-1.2954221963882446,-0.570688784122467,1.6878199577331543
1684252563293769000,5.97576904296875,-1.3225291967391968,-0.4306299388408661,1.274936318397522
1684252563303795000,5.985794921875,-1.0959843397140503,-0.7744033336639404,0.9629659056663513
1684252563313821000,5.995821044921875,-0.6842783093452454,-1.422999620437622,0.8823501467704773
1684252563323847000,6.005846923828125,-0.25721555948257446,-1.732052206993103,0.9112493395805359
1684252563333873400,6.015873291015625,0.22328713536262512,-1.907723069190979,0.7381696701049805
1684252563343899400,6.0258994140625,0.7293033003807068,-0.9914239645004272,-0.01786881498992443
1684252563353925400,6.03592529296875,1.012237548828125,0.854687511920929,-1.607724666595459
1684252563363951400,6.045951416015625,1.0083506107330322,1.887455940246582,-2.2111003398895264
1684252563373977300,6.055977294921875,0.7731694579124451,2.308356523513794,-2.714616060256958
1684252563384003300,6.06600341796875,0.5821366310119629,2.171297311782837,-2.734063148498535
1684252563394028500,6.076028564453125,0.4716021418571472,1.9247875213623047,-2.5202414989471436
1684252563404054500,6.086054443359375,0.3760185241699219,1.5516324043273926,-2.329835891723633
1684252563414080300,6.096080322265625,0.31530430912971497,1.0648071765899658,-2.1610829830169678
1684252563424106200,6.106106201171875,0.27277642488479614,0.40843263268470764,-1.905706763267517
1684252563434132200,6.11613232421875,0.1819695234298706,-0.3246389329433441,-1.589356541633606
1684252563444158200,6.126158203125,0.005808405578136444,-1.1087888479232788,-1.2828795909881592
1684252563454184200,6.13618408203125,-0.21741215884685516,-1.9009714126586914,-0.9375905394554138
1684252563464210400,6.14621044921875,-0.48255860805511475,-2.7445127964019775,-0.4872652292251587
1684252563474236400,6.156236328125,-0.6541894674301147,-3.1002838611602783,0.14365361630916595
1684252563484262400,6.166262451171875,-0.6528421640396118,-2.602977752685547,1.1722159385681152
1684252563494288400,6.176288330078125,-0.4733258783817291,-1.899021863937378,2.181960105895996
1684252563504313300,6.186313232421875,-0.311997652053833,-1.5948116779327393,2.78774094581604
1684252563514339300,6.19633935546875,-0.22208505868911743,-1.646081566810608,2.964268207550049
1684252563524365300,6.206365234375,-0.06806179881095886,-1.5335087776184082,2.845940589904785
1684252563534391300,6.216391357421875,0.10637658834457397,-1.3654491901397705,2.599667549133301
1684252563544417300,6.226417236328125,0.2757556438446045,-1.3103355169296265,2.3062398433685303
1684252563554443300,6.236443359375,0.42746207118034363,-1.3435848951339722,1.9868276119232178
1684252563564469200,6.24646923828125,0.5335468649864197,-1.4168598651885986,1.641431450843811
1684252563574495200,6.2564951171875,0.5578963756561279,-1.504331111907959,1.3271536827087402
1684252563584521200,6.266521240234375,0.49775803089141846,-1.5647704601287842,1.0639501810073853
1684252563594547500,6.27654736328125,0.3600134551525116,-1.5808215141296387,0.8456451892852783
1684252563604573400,6.286573486328125,0.19286617636680603,-1.5892008543014526,0.656742513179779
1684252563614599400,6.296599365234375,0.05151517689228058,-1.5683655738830566,0.5024182200431824
1684252563624624400,6.306624267578125,-0.06657517701387405,-1.5182950496673584,0.38619568943977356
1684252563634650400,6.316650390625,-0.1297331005334854,-1.4289675951004028,0.3507777750492096
1684252563644676400,6.32667626953125,-0.1909623146057129,-1.0211551189422607,0.6933248043060303
1684252563654702300,6.336702392578125,-0.3153849244117737,-0.3147878348827362,1.8079805374145508
1684252563664728300,6.346728271484375,-0.2935127317905426,0.32985302805900574,2.59625506401062
1684252563674754300,6.35675439453125,-0.11078473180532455,0.6132652759552002,2.478689432144165
1684252563684780300,6.3667802734375,0.06130931153893471,0.44742488861083984,1.6549938917160034
1684252563694806300,6.37680615234375,0.1079697534441948,-0.2541390657424927,0.4869373142719269
1684252563704832300,6.386832275390625,0.05149885639548302,-1.342052698135376,-0.6989628076553345
1684252563714858200,6.396858154296875,0.004078876227140427,-2.545985698699951,-1.6820982694625854
1684252563724884500,6.406884521484375,0.06464114785194397,-3.5989742279052734,-2.404102325439453
1684252563734910500,6.416910400390625,0.20481103658676147,-4.42700719833374,-2.9239447116851807
1684252563744935400,6.426935302734375,0.34464138746261597,-5.0623555183410645,-3.289525270462036
1684252563754961400,6.43696142578125,0.39328616857528687,-5.541337013244629,-3.5549662113189697
1684252563764987400,6.4469873046875,0.31726545095443726,-5.881461143493652,-3.739452838897705
1684252563775013400,6.457013427734375,0.13971328735351562,-6.063978672027588,-3.8628506660461426
1684252563785039400,6.467039306640625,-0.08544180542230606,-6.060416221618652,-3.939356565475464
1684252563795065300,6.4770654296875,-0.3065435588359833,-5.883767604827881,-3.9540984630584717
1684252563805091300,6.48709130859375,-0.49726569652557373,-5.60459041595459,-3.9608187675476074
1684252563815117300,6.497117431640625,-0.6349958777427673,-5.229730129241943,-3.9550845623016357
1684252563825143300,6.507143310546875,-0.719377875328064,-4.787464618682861,-3.932469367980957
1684252563835169300,6.517169189453125,-0.7662817239761353,-4.273177146911621,-3.8940017223358154
1684252563845195300,6.5271953125,-0.7535020112991333,-3.7126998901367188,-3.8281972408294678
1684252563855221500,6.537221435546875,-0.7135772109031677,-3.1348109245300293,-3.758030652999878
1684252563865246200,6.54724609375,-0.6495013236999512,-2.5198254585266113,-3.65555477142334
1684252563875272400,6.5572724609375,-0.5618917942047119,-1.8965929746627808,-3.5257937908172607
1684252563885298400,6.56729833984375,-0.44106703996658325,-1.202294111251831,-3.304802656173706
1684252563895324400,6.577324462890625,-0.29729869961738586,-0.3734736740589142,-2.9307315349578857
1684252563905350400,6.587350341796875,-0.1743674874305725,0.6252288222312927,-2.3808648586273193
1684252563915376400,6.59737646484375,-0.12477942556142807,1.4590368270874023,-1.8191578388214111
1684252563925402400,6.60740234375,-0.19035379588603973,1.9627230167388916,-1.354354977607727
1684252563935428400,6.617428466796875,-0.43471693992614746,1.990403413772583,-1.0202305316925049
1684252563945454300,6.627454345703125,-0.8103005886077881,1.4723215103149414,-0.813925564289093
1684252563955480300,6.637480224609375,-1.2380280494689941,0.4962301254272461,-0.7510738968849182
1684252563965506300,6.64750634765625,-1.671502947807312,-0.7424915432929993,-0.795170783996582
1684252563975532300,6.6575322265625,-2.0680198669433594,-2.0729618072509766,-0.9222970008850098
1684252563985557200,6.66755712890625,-2.350959300994873,-3.3142805099487305,-1.066404938697815
1684252563995583200,6.677583251953125,-2.4668381214141846,-4.2985711097717285,-1.1778610944747925
1684252564005609500,6.687609375,-2.358151435852051,-5.13742208480835,-1.061152458190918
1684252564015635500,6.697635498046875,-1.9632651805877686,-6.4540205001831055,-0.5602453351020813
1684252564025661400,6.707661376953125,-1.3392367362976074,-7.153137683868408,-0.8608546257019043
1684252564035687400,6.7176875,-0.7095896005630493,-6.8516082763671875,-1.5984867811203003
1684252564045713400,6.72771337890625,-0.24064964056015015,-5.918525695800781,-2.14858341217041
1684252564055739400,6.737739501953125,0.035352643579244614,-4.493728160858154,-2.390869617462158
1684252564065765400,6.747765380859375,0.13746607303619385,-2.9588935375213623,-2.3715453147888184
1684252564075791400,6.757791259765625,0.06513939797878265,-1.5537035465240479,-2.119314432144165
1684252564085817300,6.7678173828125,-0.18846149742603302,-0.7275720238685608,-1.6919739246368408
1684252564095843300,6.77784326171875,-0.6358616352081299,-0.5643935203552246,-1.2474784851074219
1684252564105868300,6.787868408203125,-1.2183696031570435,-0.9707365036010742,-0.9148929715156555
1684252564115894300,6.797894287109375,-1.6716337203979492,-1.7093024253845215,-0.7149127125740051
1684252564125920300,6.807920166015625,-1.9091135263442993,-2.3727688789367676,-0.6301789879798889
1684252564135946500,6.817946533203125,-1.9578477144241333,-2.8399240970611572,-0.5975989699363708
1684252564145972500,6.827972412109375,-1.8568897247314453,-3.1226513385772705,-0.6110309362411499
1684252564155998500,6.83799853515625,-1.6811951398849487,-3.2324423789978027,-0.6919639110565186
1684252564166024400,6.8480244140625,-1.5023014545440674,-3.1781702041625977,-0.8104020357131958
1684252564176050400,6.858050537109375,-1.3489606380462646,-3.0086255073547363,-0.8981372117996216
1684252564186076400,6.868076416015625,-1.2092951536178589,-2.818509101867676,-0.9154074192047119
1684252564196102400,6.878102294921875,-1.0816264152526855,-2.6943252086639404,-0.8325596451759338
1684252564206128400,6.88812841796875,-0.9553630948066711,-2.7026658058166504,-0.6480978727340698
1684252564216154400,6.898154296875,-0.8616195321083069,-2.776792526245117,-0.3934951424598694
1684252564226179300,6.908179443359375,-0.8186022043228149,-2.8436496257781982,-0.1448194682598114
1684252564236205300,6.918205322265625,-0.8443624377250671,-2.7991020679473877,0.0031180623918771744
1684252564246231300,6.928231201171875,-0.9253511428833008,-2.6234939098358154,0.02052275836467743
1684252564256257300,6.93825732421875,-1.0216853618621826,-2.3327674865722656,-0.05679599940776825
1684252564266283500,6.948283447265625,-1.08529794216156,-1.9680299758911133,-0.19111423194408417
1684252564276309500,6.9583095703125,-1.0791596174240112,-1.5374341011047363,-0.35040083527565
1684252564286335500,6.96833544921875,-0.9264369606971741,-1.1445469856262207,-0.399951696395874
1684252564296361500,6.978361572265625,-0.6896231174468994,-1.087508201599121,-0.2740512788295746
1684252564306387500,6.988387451171875,-0.4943968951702118,-1.5988537073135376,0.09523844718933105
1684252564316413400,6.998413330078125,-0.39927998185157776,-2.5139412879943848,0.6476593017578125
1684252564326439400,7.008439453125,-0.3622833788394928,-3.2480459213256836,1.1400901079177856
1684252564336464400,7.01846435546875,-0.2737140953540802,-3.50972056388855,1.4464504718780518
1684252564346490400,7.028490478515625,-0.14222970604896545,-3.3709893226623535,1.6006768941879272
1684252564356516400,7.038516357421875,0.024965684860944748,-3.219918727874756,1.7118608951568604
1684252564366542300,7.048542236328125,0.30399832129478455,-4.671639442443848,1.183349609375
1684252564376568300,7.058568359375,0.815062403678894,-4.956608295440674,-0.3988998532295227
1684252564386594300,7.06859423828125,1.1731590032577515,-3.659259557723999,-1.1208878755569458
1684252564396620300,7.078620361328125,1.3386632204055786,-2.3236470222473145,-0.9483648538589478
1684252564406646300,7.088646240234375,1.4349299669265747,-1.1935546398162842,-0.5578534007072449
1684252564416672300,7.09867236328125,1.3973256349563599,-0.44964903593063354,-0.194687157869339
1684252564426698200,7.1086982421875,1.2488930225372314,-0.1647304892539978,0.0833820104598999
1684252564436724500,7.118724365234375,1.063481330871582,-0.31501907110214233,0.33073267340660095
1684252564446750500,7.12875048828125,0.8817716240882874,-0.6145560145378113,0.5031118392944336
1684252564456775400,7.138775390625,0.6781976819038391,-0.8441034555435181,0.5519113540649414
1684252564466801400,7.148801513671875,0.5071740746498108,-0.9906604886054993,0.5245130658149719
1684252564476827400,7.158827392578125,0.413261741399765,-1.1366944313049316,0.47308769822120667
1684252564486853400,7.168853271484375,0.3675464987754822,-1.2888792753219604,0.4466436505317688
1684252564496879400,7.17887939453125,0.327399879693985,-1.4089769124984741,0.4472295343875885
1684252564506905300,7.1889052734375,0.26196742057800293,-1.5206648111343384,0.4714999198913574
1684252564516931300,7.198931396484375,0.15534935891628265,-1.669073224067688,0.5156106352806091
1684252564526957300,7.208957275390625,0.009917614981532097,-1.8542193174362183,0.5962017178535461
1684252564536983300,7.2189833984375,-0.14573456346988678,-2.0886642932891846,0.6867838501930237
1684252564547009300,7.22900927734375,-0.29353031516075134,-2.3066020011901855,0.7650789618492126
1684252564557035300,7.23903515625,-0.39565321803092957,-2.421703338623047,0.7719674706459045
1684252564567061500,7.2490615234375,-0.4213952124118805,-2.3792741298675537,0.6748369932174683
1684252564577086200,7.259086181640625,-0.36581796407699585,-2.196969985961914,0.4913178086280823
1684252564587112400,7.269112548828125,-0.26070407032966614,-1.8982566595077515,0.26767855882644653
1684252564597138400,7.279138427734375,-0.17533990740776062,-1.5225058794021606,0.043797269463539124
1684252564607164400,7.289164306640625,-0.12853679060935974,-1.1321613788604736,-0.14420387148857117
1684252564617190400,7.2991904296875,-0.11685829609632492,-0.8092084527015686,-0.27991965413093567
1684252564627216400,7.30921630859375,-0.16156509518623352,-0.6063612699508667,-0.3963441550731659
1684252564637242400,7.319242431640625,-0.24119147658348083,-0.4897680878639221,-0.529509425163269
1684252564647268400,7.329268310546875,-0.3203156888484955,-0.41735947132110596,-0.7227574586868286
1684252564657294300,7.33929443359375,-0.36379924416542053,-0.3645156919956207,-0.9662742018699646
1684252564667320300,7.3493203125,-0.34285786747932434,-0.36260828375816345,-1.2183328866958618
1684252564677346300,7.35934619140625,-0.2617148160934448,-0.4184260070323944,-1.4226990938186646
1684252564687372300,7.369372314453125,-0.14438249170780182,-0.6306304931640625,-1.5266629457473755
1684252564697397200,7.379397216796875,-0.016497505828738213,-1.0224568843841553,-1.5133907794952393
1684252564707423200,7.38942333984375,0.11723531037569046,-1.494062900543213,-1.4363893270492554
1684252564717449500,7.399449462890625,0.26720085740089417,-1.8521454334259033,-1.3759273290634155
1684252564727475500,7.409475341796875,0.4262720048427582,-2.0365161895751953,-1.3606362342834473
1684252564737501400,7.41950146484375,0.5637922883033752,-2.084212064743042,-1.3778526782989502
1684252564747527400,7.42952734375,0.645247220993042,-2.078673839569092,-1.4025839567184448
1684252564757553400,7.439553466796875,0.6598522663116455,-2.078117847442627,-1.4231600761413574
1684252564767579400,7.449579345703125,0.6206687688827515,-2.0957162380218506,-1.4248677492141724
1684252564777605400,7.45960546875,0.5405830144882202,-2.117662191390991,-1.4069814682006836
1684252564787631400,7.46963134765625,0.4269106686115265,-2.1300175189971924,-1.3690712451934814
1684252564797657300,7.4796572265625,0.29727837443351746,-2.1446382999420166,-1.3048280477523804
1684252564807683300,7.489683349609375,0.16112856566905975,-2.1632513999938965,-1.2104883193969727
1684252564817708300,7.499708251953125,0.04812611639499664,-2.1738333702087402,-1.0718108415603638
1684252564827734300,7.509734375,-0.029226593673229218,-2.1737470626831055,-0.8909881114959717
1684252564837760300,7.51976025390625,-0.08748963475227356,-2.1444034576416016,-0.6772792935371399
1684252564847786500,7.529786376953125,-0.1381765604019165,-2.0581371784210205,-0.4578059911727905
1684252564857812500,7.5398125,-0.17417851090431213,-1.8929013013839722,-0.2728968560695648
1684252564867838500,7.54983837890625,-0.16847805678844452,-1.6595659255981445,-0.13484890758991241
1684252564877864400,7.559864501953125,-0.1460300087928772,-1.4027031660079956,-0.021826747804880142
1684252564887890400,7.569890380859375,-0.11962095648050308,-1.157554268836975,0.08168800175189972
1684252564897916400,7.57991650390625,-0.09927626699209213,-0.9672021865844727,0.21090297400951385
1684252564907942400,7.5899423828125,-0.0958634465932846,-0.8632831573486328,0.3688306510448456
1684252564917968400,7.599968505859375,-0.1159743219614029,-0.8588785529136658,0.5461830496788025
1684252564927993300,7.609993408203125,-0.15621773898601532,-0.9139028787612915,0.7284754514694214
1684252564938019300,7.620019287109375,-0.18887367844581604,-0.9810645580291748,0.8970141410827637
1684252564948045300,7.63004541015625,-0.1972246915102005,-1.011743426322937,1.016183853149414
1684252564958071300,7.6400712890625,-0.1719992309808731,-0.9877126812934875,1.0791609287261963
1684252564968097300,7.65009716796875,-0.12869882583618164,-0.936453104019165,1.1036932468414307
1684252564978123500,7.66012353515625,-0.07641218602657318,-0.8606107831001282,1.1033358573913574
1684252564988149500,7.6701494140625,-0.040637630969285965,-0.7454065084457397,1.0829477310180664
1684252564998175500,7.680175537109375,-0.01816747710108757,-0.6094022989273071,1.0423145294189453
1684252565008201500,7.690201416015625,-0.01580958627164364,-0.46290385723114014,0.9812791347503662
1684252565018227500,7.7002275390625,-0.020353471860289574,-0.327900230884552,0.9052653312683105
1684252565028253400,7.71025341796875,-0.009823936969041824,-0.2052522748708725,0.8093083500862122
1684252565038279200,7.720279052734375,0.04442331939935684,-0.11029166728258133,0.6931093335151672
1684252565048304400,7.730304443359375,0.11637777090072632,-0.06721116602420807,0.5596310496330261
1684252565058330400,7.740330322265625,0.16945935785770416,-0.07876129448413849,0.4198712706565857
1684252565068356400,7.7503564453125,0.16405700147151947,-0.13361269235610962,0.2735832929611206
1684252565078382300,7.76038232421875,0.11664421111345291,-0.20076803863048553,0.13053877651691437
1684252565088408300,7.770408203125,0.051002442836761475,-0.2736350893974304,0.016578977927565575
1684252565098434300,7.780434326171875,0.005412321537733078,-0.36211517453193665,-0.04939258098602295
1684252565108460500,7.79046044921875,-0.01677018590271473,-0.4650823473930359,-0.04751677066087723
1684252565118486500,7.800486572265625,-0.02213725447654724,-0.5767009854316711,0.01552611030638218
1684252565128512300,7.81051220703125,-0.02743324264883995,-0.7060413956642151,0.13050797581672668
1684252565138538200,7.820538330078125,-0.036367084830999374,-0.838442325592041,0.28098005056381226
1684252565148564200,7.830564208984375,-0.05198308080434799,-0.9549633264541626,0.42189499735832214
1684252565158590200,7.840590087890625,-0.0742575004696846,-0.9190016388893127,0.49698787927627563
1684252565168615400,7.850615478515625,-0.10654217004776001,-0.5731677412986755,0.3764159381389618
1684252565178641400,7.860641357421875,-0.10320975631475449,-0.013389116153120995,0.01027710922062397
1684252565188667400,7.87066748046875,-0.05292438343167305,0.4381600618362427,-0.4585210382938385
1684252565198693400,7.880693359375,0.015656806528568268,0.504328727722168,-0.898228645324707
1684252565208719400,7.89071923828125,0.09852348268032074,0.21028771996498108,-1.2351526021957397
1684252565218745300,7.900745361328125,0.16560956835746765,-0.1717110425233841,-1.4775524139404297
1684252565228771300,7.910771240234375,0.18371525406837463,-0.37728726863861084,-1.6765336990356445
1684252565238797300,7.92079736328125,0.2036847025156021,-0.2993016541004181,-1.9508821964263916
1684252565248823300,7.9308232421875,0.2842431366443634,0.14887835085391998,-2.3661322593688965
1684252565258849300,7.940849365234375,0.4167204797267914,0.8904590010643005,-2.8729119300842285
1684252565268875300,7.950875244140625,0.5890025496482849,1.7920444011688232,-3.346595287322998
1684252565278900500,7.960900390625,0.7551677823066711,2.800264596939087,-3.704315423965454
1684252565288926500,7.970926513671875,0.831878125667572,3.676701784133911,-3.954571008682251
1684252565298952400,7.980952392578125,0.713156521320343,3.884885787963867,-3.9522852897644043
1684252565308978400,7.990978515625,0.3725506067276001,2.5391132831573486,-3.252704620361328
1684252565319004400,8.00100439453125,0.05567893385887146,0.3701476454734802,-2.0727174282073975
1684252565329030400,8.011030517578124,-0.11559942364692688,-1.0011059045791626,-1.1613969802856445
1684252565339056400,8.021056396484376,-0.2722521424293518,-1.104316234588623,-0.8923822641372681
1684252565349082400,8.031082275390625,-0.36271536350250244,0.11785032600164413,-1.4873955249786377
1684252565359108400,8.0411083984375,-0.3458671271800995,0.852803111076355,-2.2964320182800293
1684252565369134300,8.05113427734375,-0.29299309849739075,0.8842397332191467,-2.936704635620117
1684252565379160300,8.061160400390625,-0.179408460855484,0.7876583337783813,-3.199585199356079
1684252565389186300,8.071186279296874,-0.0031078094616532326,0.8230017423629761,-3.1062660217285156
1684252565399211500,8.08121142578125,0.20746967196464539,1.069708228111267,-2.832235097885132
1684252565409237500,8.091237548828126,0.4066607654094696,1.5090253353118896,-2.492060899734497
1684252565419263500,8.101263427734375,0.5547109842300415,1.907103180885315,-2.105125665664673
1684252565429289200,8.111289306640625,0.6617783904075623,2.22522234916687,-1.520007848739624
1684252565439315500,8.1213154296875,0.7061498761177063,2.1605753898620605,-0.6918563842773438
1684252565449341400,8.131341552734375,0.6176264882087708,1.529435396194458,0.34660130739212036
1684252565459367400,8.141367431640624,0.3703887462615967,0.24430596828460693,1.3643794059753418
1684252565469393400,8.151393310546876,0.07302550226449966,-1.6643208265304565,2.0672993659973145
1684252565479419400,8.16141943359375,0.029492147266864777,-3.5648155212402344,1.8217425346374512
1684252565489445400,8.1714453125,0.531796395778656,-3.7945868968963623,0.4571436047554016
1684252565499471400,8.181471435546875,1.2216310501098633,-2.5531857013702393,-0.702498197555542
1684252565509497300,8.191497314453125,1.7753965854644775,-0.795482337474823,-1.077894926071167
1684252565519522300,8.201522216796874,1.988659381866455,0.7468623518943787,-0.7462732195854187
1684252565529548300,8.21154833984375,1.8594772815704346,1.790022850036621,-0.11187270283699036
1684252565539574300,8.22157421875,1.508561372756958,2.218247175216675,0.4939226806163788
1684252565549600300,8.231600341796875,1.1184184551239014,2.2973475456237793,0.8909928798675537
1684252565559626200,8.241626220703125,0.836529016494751,2.0883655548095703,1.0424513816833496
1684252565569652500,8.251652587890625,0.7404187321662903,1.5955326557159424,0.9190717935562134
1684252565579678500,8.261678466796875,0.8459632992744446,0.9761719703674316,0.5021877288818359
1684252565589704400,8.271704345703125,1.1689343452453613,0.6644505858421326,-0.08415881544351578
1684252565599730400,8.28173046875,1.5284504890441895,0.7924594283103943,-0.5878003835678101
1684252565609756400,8.29175634765625,1.7094379663467407,0.9706550240516663,-0.7657996416091919
1684252565619782400,8.301782470703126,1.660632610321045,1.0574588775634766,-0.6512589454650879
1684252565629807400,8.311807373046875,1.4548184871673584,1.189237117767334,-0.4856387674808502
1684252565639833300,8.321833251953125,1.1968498229980469,1.3305939435958862,-0.37469255924224854
1684252565649859300,8.331859375,0.9839085936546326,1.3635092973709106,-0.3005693852901459
1684252565659885300,8.34188525390625,0.857313871383667,1.3203920125961304,-0.26586198806762695
1684252565669911300,8.351911376953124,0.7743801474571228,1.4298292398452759,-0.29977676272392273
1684252565679937300,8.361937255859376,0.6961188912391663,1.6401335000991821,-0.3819507360458374
1684252565689963300,8.37196337890625,0.6391010284423828,1.696776270866394,-0.467272013425827
1684252565699989500,8.381989501953125,0.6224579215049744,1.5335633754730225,-0.5322547554969788
1684252565710015500,8.392015380859375,0.6478382349014282,1.1258336305618286,-0.605244517326355
1684252565720041500,8.40204150390625,0.6811432242393494,0.432699054479599,-0.6503920555114746
1684252565730067500,8.4120673828125,0.7298982739448547,-0.3681102991104126,-0.5576778054237366
1684252565740093400,8.422093505859374,0.7393588423728943,-0.9897275567054749,-0.2944488227367401
1684252565750118400,8.432118408203126,0.587865948677063,-1.1778976917266846,0.08057204633951187
1684252565760144400,8.442144287109375,0.28850167989730835,-1.0401360988616943,0.4610285758972168
1684252565770170400,8.45217041015625,-0.1321023851633072,-0.9061103463172913,0.8814140558242798
1684252565780196400,8.4621962890625,-0.6042706966400146,-0.9051901698112488,1.337233543395996
1684252565790222300,8.472222412109375,-1.0521584749221802,-1.0705593824386597,1.7876696586608887
1684252565800248300,8.482248291015624,-1.4292572736740112,-1.3631247282028198,2.2246012687683105
1684252565810274300,8.4922744140625,-1.7247891426086426,-1.6280490159988403,2.602259874343872
1684252565820300300,8.50230029296875,-1.9596847295761108,-1.866047978401184,2.863656759262085
1684252565830326500,8.512326416015625,-2.15116810798645,-2.0333330631256104,3.0252721309661865
1684252565840352500,8.5223525390625,-2.2786412239074707,-2.2357723712921143,3.0780162811279297
1684252565850378500,8.53237841796875,-0.7388425469398499,-10.540154457092285,-1.8190076351165771
1684252565860404500,8.542404541015625,2.723330497741699,-17.11726951599121,-3.6806905269622803
1684252565870429400,8.552429443359374,3.8953089714050293,-12.349018096923828,-0.8655401468276978
1684252565880455400,8.562455322265626,2.2121901512145996,-4.4821906089782715,-1.1036620140075684
1684252565890481400,8.5724814453125,-0.8104757070541382,2.199439525604248,-5.410787582397461
1684252565900507400,8.58250732421875,-2.3029913902282715,-0.8188700675964355,-4.682886600494385
1684252565910533400,8.592533447265625,-1.9955722093582153,-1.529289722442627,-0.7430700063705444
1684252565920559400,8.602559326171875,-1.9187402725219727,2.047456979751587,0.9832946062088013
1684252565930585300,8.61258544921875,-2.307091474533081,3.607996702194214,1.4494489431381226
1684252565940611300,8.622611328125,-2.943743944168091,3.008270263671875,1.2995332479476929
1684252565950637300,8.63263720703125,-3.3445651531219482,1.5333662033081055,1.014090657234192
1684252565960663600,8.64266357421875,-3.0378077030181885,-2.7726569175720215,-0.2504951059818268
1684252565970689500,8.652689453125,-2.164950370788574,-3.885648012161255,-1.03059720993042
1684252565980714200,8.66271435546875,-1.20326566696167,-1.8346129655838013,-0.8806713223457336
1684252565990740500,8.672740478515625,-0.26438358426094055,-1.3094099760055542,-0.4569552540779114
1684252566000766500,8.682766357421874,0.3623695373535156,-2.4151971340179443,0.0880042165517807
1684252566010792400,8.69279248046875,0.5122514963150024,-1.8878982067108154,0.5247600078582764
1684252566020818400,8.702818359375,0.33752521872520447,-0.6159924268722534,0.7942215800285339
1684252566030844400,8.712844482421875,-0.014277342706918716,-0.43832430243492126,0.9534244537353516
1684252566040870400,8.722870361328125,-0.37705981731414795,-0.9357466101646423,1.0487253665924072
1684252566050896400,8.732896484375,-0.6259632706642151,-1.0186445713043213,1.1045787334442139
1684252566060922400,8.74292236328125,-0.6895150542259216,-0.7982091307640076,1.189801812171936
1684252566070948400,8.7529482421875,-0.6181420087814331,-0.6955400705337524,1.3268952369689941
1684252566080974300,8.762974365234374,-0.4722660481929779,-0.6994778513908386,1.4353764057159424
1684252566091000600,8.77300048828125,-0.2960259020328522,-0.5887418389320374,1.4462167024612427
1684252566101025300,8.783025390625,-0.14431841671466827,-0.3170759677886963,1.3287705183029175
1684252566111051300,8.79305126953125,-0.03882922604680061,0.009523659013211727,1.1234192848205566
1684252566121077500,8.803077392578125,0.0073244222439825535,0.33425354957580566,0.901211678981781
1684252566131103500,8.813103515625,0.016836101189255714,0.6413800716400146,0.7214943170547485
1684252566141129500,8.82312939453125,-0.008473783731460571,0.9188745021820068,0.6020022630691528
1684252566151155500,8.833155517578126,-0.06136644259095192,1.160992980003357,0.5409285426139832
1684252566161181400,8.843181396484376,-0.14311110973358154,1.3360081911087036,0.5621475577354431
1684252566171207400,8.85320751953125,-0.24638822674751282,1.4066650867462158,0.6582266688346863
1684252566181233400,8.8632333984375,-0.35131198167800903,1.300408959388733,0.8129363656044006
1684252566191259400,8.87325927734375,-0.46597006916999817,1.060665249824524,0.9689489006996155
1684252566201285400,8.883285400390625,-0.5697094798088074,0.8704563975334167,1.0579053163528442
1684252566211311400,8.893311279296874,-0.6623426079750061,0.8150598406791687,1.0900168418884277
1684252566221336300,8.90333642578125,-0.7012261152267456,0.814964234828949,1.0936921834945679
1684252566231362300,8.9133623046875,-0.6998807191848755,0.7743963003158569,1.095822811126709
1684252566241388300,8.92338818359375,-0.6637570858001709,0.6607179641723633,1.0910710096359253
1684252566251414500,8.93341455078125,-0.6237722635269165,0.4935121238231659,1.048948884010315
1684252566261440500,8.9434404296875,-0.5694347023963928,0.34177452325820923,0.9714130759239197
1684252566271466500,8.953466552734374,-0.48807868361473083,0.22535528242588043,0.8558010458946228
1684252566281492500,8.963492431640624,-0.3780067563056946,0.13276250660419464,0.7308295369148254
1684252566291518500,8.9735185546875,-0.2644534409046173,0.02189529687166214,0.6187646389007568
1684252566301544400,8.98354443359375,-0.16171351075172424,-0.12108529359102249,0.5548235177993774
1684252566311570400,8.9935703125,-0.06050626561045647,-0.23768958449363708,0.5399762988090515
1684252566321596400,9.003596435546875,0.029995141550898552,-0.30956804752349854,0.5655460953712463
1684252566331621400,9.013621337890624,0.09486149996519089,-0.4555700421333313,0.6112542748451233
1684252566341646800,9.023646728515626,0.107051320374012,-0.7628077864646912,0.6767510175704956
1684252566351672800,9.0336728515625,0.06706573069095612,-1.153719425201416,0.7267741560935974
1684252566361698800,9.04369873046875,-0.03080569952726364,-1.5038708448410034,0.7089847922325134
1684252566371724800,9.053724853515625,-0.16785933077335358,-1.7048447132110596,0.5898836851119995
1684252566381750800,9.063750732421875,-0.2892898917198181,-1.6792980432510376,0.3860969543457031
1684252566391776800,9.07377685546875,-0.37173211574554443,-1.432011365890503,0.1535026878118515
1684252566401803000,9.083802978515624,-0.37582698464393616,-1.0579484701156616,-0.044220782816410065
1684252566411829000,9.0938291015625,-0.33024007081985474,-0.7151831388473511,-0.1538039892911911
1684252566421855000,9.10385498046875,-0.28395193815231323,-0.49747878313064575,-0.18321754038333893
1684252566431881000,9.113880859375,-0.30107107758522034,-0.4035433828830719,-0.1837872713804245
1684252566441907000,9.123906982421875,-0.38815486431121826,-0.378655344247818,-0.20497511327266693
1684252566451932000,9.133931884765625,-0.5131679773330688,-0.370229572057724,-0.28763142228126526
1684252566461958000,9.1439580078125,-0.6151217818260193,-0.38129740953445435,-0.4053063690662384
1684252566471983900,9.15398388671875,-0.6474624276161194,-0.4514559507369995,-0.5277829170227051
1684252566482009900,9.164009765625,-0.6021208167076111,-0.5665002465248108,-0.673030436038971
1684252566492035800,9.174035888671876,-0.5199204683303833,-0.6440981030464172,-0.8885241746902466
1684252566502061800,9.184061767578125,-0.43800032138824463,-0.6081318855285645,-1.1339024305343628
1684252566512087800,9.194087890625,-0.3824250102043152,-0.422168493270874,-1.369888186454773
1684252566522113800,9.20411376953125,-0.33675259351730347,-0.10880660265684128,-1.585729718208313
1684252566532140000,9.21414013671875,-0.32476550340652466,0.4112999737262726,-1.8764327764511108
1684252566542166000,9.224166015625,-0.43397772312164307,1.276023268699646,-2.384373903274536
1684252566552192000,9.23419189453125,-0.5134449601173401,2.1470675468444824,-2.9031291007995605
1684252566562218000,9.244218017578126,-0.38646677136421204,2.978276252746582,-3.2599430084228516
1684252566572243000,9.254242919921875,-0.056766483932733536,3.9125823974609375,-3.5778729915618896
1684252566582269000,9.26426904296875,0.38233470916748047,4.580770969390869,-3.809290885925293
1684252566592295000,9.274294921875,0.7198757529258728,4.087062358856201,-3.875148057937622
1684252566602321000,9.28432080078125,0.7488901019096375,2.3974051475524902,-3.7873880863189697
1684252566612347000,9.294346923828124,0.6400977969169617,0.5651949644088745,-3.5983242988586426
1684252566622372900,9.304372802734376,0.6362820267677307,-1.354335069656372,-3.3798887729644775
1684252566632398800,9.31439892578125,0.7586759924888611,-3.3688271045684814,-3.132638454437256
1684252566642424800,9.3244248046875,0.9080334901809692,-4.487584114074707,-2.832190990447998
1684252566652450800,9.334450927734375,1.0492950677871704,-4.6477274894714355,-2.445133924484253
1684252566662477000,9.34447705078125,1.160050630569458,-4.387411594390869,-2.0251495838165283
1684252566672503000,9.3545029296875,1.248738408088684,-4.167933940887451,-1.4682013988494873
1684252566682527700,9.36452783203125,1.2841054201126099,-3.9212119579315186,-0.7902951240539551
1684252566692554000,9.374553955078126,1.3313276767730713,-3.2362723350524902,-0.242709219455719
1684252566702580000,9.384580078125,1.4803941249847412,-1.841612458229065,-0.0736544132232666
1684252566712606000,9.39460595703125,1.669793725013733,0.056583505123853683,-0.037746649235486984
1684252566722632000,9.4046318359375,1.7739124298095703,2.024505853652954,0.09612487256526947
1684252566732658000,9.414657958984375,1.8530139923095703,3.772136688232422,0.37339621782302856
1684252566742684000,9.424683837890624,1.778489112854004,4.518688201904297,0.6672595143318176
1684252566752710000,9.4347099609375,1.5851166248321533,3.7598767280578613,0.9873573184013367
1684252566762735900,9.44473583984375,1.3478859663009644,2.4104087352752686,1.292468547821045
1684252566772761900,9.454761962890625,0.9708850979804993,1.2460650205612183,1.3862485885620117
1684252566782787800,9.464787841796875,0.5001237392425537,0.3188575506210327,1.0919581651687622
1684252566792814000,9.47481396484375,0.12449400126934052,-0.3316906988620758,0.4385228455066681
1684252566802838800,9.4848388671875,0.05466218665242195,-0.3471657931804657,-0.3548690676689148
1684252566812864800,9.49486474609375,0.3119073808193207,0.3625071048736572,-0.8941640853881836
1684252566822891000,9.50489111328125,0.6591556072235107,1.151473879814148,-1.1184501647949219
1684252566832917000,9.5149169921875,0.8525514602661133,1.4698777198791504,-1.2322893142700195
1684252566842943000,9.52494287109375,0.8214420080184937,1.1271190643310547,-1.2306934595108032
1684252566852969000,9.534968994140625,0.6597417593002319,0.3276468813419342,-0.9864984154701233
1684252566862995000,9.544994873046875,0.5296780467033386,-0.20637890696525574,-0.6363423466682434
1684252566873021000,9.55502099609375,0.4776418209075928,-0.24743081629276276,-0.43156617879867554
1684252566883047000,9.565046875,0.47162654995918274,0.014666298404335976,-0.43381601572036743
1684252566893073000,9.575072998046876,0.44974878430366516,0.2861085832118988,-0.5184406042098999
1684252566903099000,9.585098876953126,0.38511839509010315,0.31805506348609924,-0.5968102812767029
1684252566913124900,9.595124755859375,0.297269344329834,0.12074054032564163,-0.6416055560112
1684252566923149800,9.60514990234375,0.2058507353067398,-0.1576402187347412,-0.6486629247665405
1684252566933175800,9.61517578125,0.14943787455558777,-0.40291476249694824,-0.642978847026825
1684252566943201800,9.625201904296874,0.13159817457199097,-0.6015517115592957,-0.6371710300445557
1684252566953228000,9.63522802734375,0.1608761101961136,-0.7385798096656799,-0.6031341552734375
1684252566963254000,9.64525390625,0.19780802726745605,-0.8005515933036804,-0.5260287523269653
1684252566973280000,9.655280029296875,0.22619488835334778,-0.8023584485054016,-0.41307708621025085
1684252566983306000,9.665305908203125,0.2231128066778183,-0.713344156742096,-0.28616252541542053
1684252566993332000,9.67533203125,0.17920690774917603,-0.5467911958694458,-0.1624995768070221
1684252567003358000,9.68535791015625,0.0865856260061264,-0.37876200675964355,-0.05466977879405022
1684252567013384000,9.695384033203124,-0.031247833743691444,-0.2228599190711975,0.06478160619735718
1684252567023410000,9.705409912109374,-0.2025950849056244,-0.10559002310037613,0.20596802234649658
1684252567033435000,9.715434814453126,-0.38504090905189514,-0.0409458726644516,0.36785057187080383
1684252567043460900,9.7254609375,-0.56649249792099,-0.029557127505540848,0.5434258580207825
1684252567053486800,9.73548681640625,-0.7346795797348022,-0.052719514816999435,0.727343738079071
1684252567063512800,9.745512939453125,-0.8798463344573975,-0.10315632075071335,0.9045528769493103
1684252567073538800,9.755538818359375,-1.0044770240783691,-0.18112488090991974,1.0623924732208252
1684252567083565000,9.76556494140625,-1.112686038017273,-0.3059738576412201,1.1950279474258423
1684252567093591000,9.775591064453126,-1.2026264667510986,-0.5021182298660278,1.3362431526184082
1684252567103617000,9.785616943359376,-1.274170160293579,-0.7461252808570862,1.4872674942016602
1684252567113643000,9.79564306640625,-1.3410451412200928,-0.9688491225242615,1.6629098653793335
1684252567123669000,9.8056689453125,-1.3861478567123413,-1.1437668800354004,1.8699216842651367
1684252567133695000,9.815695068359375,-1.4263129234313965,-1.2727255821228027,2.0904479026794434
1684252567143720000,9.825719970703124,-1.468129277229309,-1.4100666046142578,2.2952113151550293
1684252567153746000,9.835745849609374,-1.5221623182296753,-1.5056262016296387,2.4417967796325684
1684252567163772000,9.84577197265625,-1.5662858486175537,-1.5627760887145996,2.499105215072632
1684252567173798000,9.8557978515625,-1.5853018760681152,-1.540557861328125,2.4680986404418945
1684252567183824000,9.865823974609375,-1.5695732831954956,-1.4328068494796753,2.3518548011779785
1684252567193849900,9.875849853515625,-1.517553687095642,-1.213701844215393,2.191999673843384
1684252567203875800,9.885875732421875,-1.4041922092437744,-0.896300196647644,2.036850690841675
1684252567213902000,9.895902099609375,-1.212213397026062,-0.5301231145858765,1.8938997983932495
1684252567223928000,9.905927978515624,-0.8602740168571472,-0.27530840039253235,1.7715891599655151
1684252567233954000,9.9159541015625,-0.37737029790878296,-0.4529419243335724,1.5791044235229492
1684252567243980000,9.92597998046875,0.09286616742610931,-1.4261165857315063,1.0116221904754639
1684252567254006000,9.936006103515625,0.45215749740600586,-2.693291664123535,-0.07836402207612991
1684252567264032000,9.946031982421875,0.7191833257675171,-2.9960620403289795,-1.1435389518737793
1684252567274057000,9.956056884765625,0.9393590688705444,-2.3724257946014404,-1.8239704370498657
1684252567284083000,9.9660830078125,1.0620129108428955,-1.6378238201141357,-2.1032402515411377
1684252567294109000,9.97610888671875,1.0168746709823608,-1.41966712474823,-2.029015302658081
1684252567304135000,9.986135009765626,0.8749785423278809,-1.6953045129776,-1.6672990322113037
1684252567314161000,9.996160888671875,0.714031457901001,-1.9403213262557983,-1.2073729038238525
1684252567324187000,10.006186767578125,0.5292549133300781,-1.7889339923858643,-0.783168375492096
1684252567334212900,10.016212890625,0.3050067722797394,-1.0826773643493652,-0.4520752727985382
1684252567344238800,10.02623876953125,0.04419034346938133,0.2295217514038086,-0.22311612963676453
1684252567354264800,10.036264892578124,-0.23495778441429138,1.646990180015564,0.04111180827021599
1684252567364290800,10.046290771484376,-0.5320286154747009,2.754084348678589,0.44146665930747986
1684252567374316800,10.05631689453125,-0.8592063784599304,3.555335760116577,0.9728056192398071
1684252567384341800,10.066341796875,-1.1588072776794434,4.276098728179932,1.602824330329895
1684252567394367700,10.07636767578125,-1.3879776000976562,4.883330821990967,2.263378858566284
1684252567404393700,10.086393798828125,-1.4830527305603027,5.027252674102783,2.9283995628356934
1684252567414420000,10.096419921875,-1.3308682441711426,4.195959568023682,3.5130276679992676
1684252567424446000,10.106446044921874,-0.9376565217971802,2.049795389175415,3.968811511993408
1684252567434472000,10.116471923828126,-0.38082268834114075,-0.7951291799545288,3.498561143875122
1684252567444498000,10.126497802734375,0.006257632281631231,-1.7842751741409302,1.280104160308838
1684252567454524000,10.13652392578125,0.34592878818511963,-1.010054349899292,-0.7908748984336853
1684252567464550000,10.1465498046875,0.7689079642295837,0.08972402662038803,-1.8983429670333862
1684252567474576000,10.156575927734375,1.1675608158111572,0.7024783492088318,-2.0790412425994873
1684252567484601900,10.166601806640625,1.4076669216156006,0.7877399325370789,-1.6459523439407349
1684252567494626800,10.176626708984376,1.3716119527816772,0.8268395066261292,-1.066826581954956
1684252567504652800,10.18665283203125,1.1454862356185913,1.020372748374939,-0.639286458492279
1684252567514678800,10.1966787109375,0.9145552515983582,1.4278513193130493,-0.42434927821159363
1684252567524704800,10.206704833984375,0.747792661190033,1.9406651258468628,-0.3754997253417969
1684252567534730800,10.216730712890625,0.6572566032409668,2.2936806678771973,-0.3644927442073822
1684252567544757000,10.226757080078125,0.6099354028701782,2.3993444442749023,-0.31413501501083374
1684252567554783000,10.236782958984374,0.5904115438461304,2.2931365966796875,-0.22972717881202698
1684252567564809000,10.24680908203125,0.5772605538368225,1.9930537939071655,-0.11537503451108932
1684252567574835000,10.2568349609375,0.5553733706474304,1.5024925470352173,0.02816060185432434
1684252567584861000,10.26686083984375,0.529548704624176,0.8562688231468201,0.19096790254116058
1684252567594886700,10.27688671875,0.5100604295730591,0.07208245247602463,0.367497980594635
1684252567604912600,10.28691259765625,0.4908521771430969,-0.8052749037742615,0.562064528465271
1684252567614937900,10.296937744140624,0.4739407002925873,-1.7047321796417236,0.7448046207427979
1684252567624963800,10.3069638671875,0.4663302004337311,-2.50296688079834,0.9252537488937378
1684252567634989800,10.31698974609375,0.4148153066635132,-3.0946290493011475,1.0736497640609741
1684252567645015800,10.327015869140626,0.3090135157108307,-3.3935635089874268,1.1622217893600464
1684252567655041800,10.337041748046875,0.18924883008003235,-3.4235901832580566,1.204709768295288
1684252567665067800,10.34706787109375,0.09231323003768921,-3.2022128105163574,1.2052799463272095
1684252567675094000,10.357093994140625,0.026858756318688393,-2.7361366748809814,1.1669634580612183
1684252567685119700,10.36711962890625,-0.022091474384069443,-2.0637943744659424,1.1227363348007202
1684252567695145700,10.377145751953124,-0.06077565997838974,-1.2448556423187256,1.0681746006011963
1684252567705171700,10.387171630859376,-0.100487120449543,-0.37213432788848877,1.0221381187438965
1684252567715197700,10.39719775390625,-0.16570216417312622,0.4532206058502197,1.007490634918213
1684252567725223700,10.4072236328125,-0.27471598982810974,1.0699125528335571,1.0477666854858398
1684252567735249000,10.417248779296875,-0.42377740144729614,1.3420569896697998,1.1766918897628784
1684252567745275000,10.42727490234375,-0.5495334267616272,1.2532927989959717,1.4077606201171875
1684252567755300900,10.43730078125,-0.6350706219673157,0.8537130951881409,1.7329046726226807
1684252567765326800,10.447326904296874,-0.6712621450424194,0.24486520886421204,2.112797975540161
1684252567775352800,10.457352783203126,-0.6677995920181274,-0.4061225950717926,2.4364571571350098
1684252567785378800,10.46737890625,-0.6432844400405884,-0.9109072089195251,2.621021032333374
1684252567795404800,10.47740478515625,-0.6285269260406494,-1.1475682258605957,2.6667819023132324
1684252567805430800,10.4874306640625,-0.6443160176277161,-1.127290964126587,2.610039472579956
1684252567815456800,10.497456787109375,-0.6935799717903137,-0.8999550342559814,2.5207009315490723
1684252567825482800,10.507482666015624,-0.7965250015258789,-0.5638595819473267,2.5119833946228027
1684252567835508700,10.5175087890625,-0.9254257082939148,-0.2358175665140152,2.7469143867492676
1684252567845534000,10.527533935546876,-1.0365849733352661,-0.10463478416204453,3.244821548461914
1684252567855560000,10.537559814453125,-1.0934395790100098,-0.33219900727272034,3.711364507675171
1684252567865586000,10.5475859375,-1.0567630529403687,0.1167188435792923,3.4883341789245605
1684252567875612000,10.55761181640625,-0.6763395667076111,2.144975185394287,1.755157470703125
1684252567885638000,10.567637939453125,-0.39410310983657837,1.519291639328003,-0.3223066031932831
1684252567895663600,10.57766357421875,-0.7537080645561218,-0.6568753123283386,-2.0612359046936035
1684252567905689600,10.587689697265626,-1.4584414958953857,-2.008699417114258,-3.069765567779541
1684252567915715600,10.597715576171876,-1.784897804260254,-1.7892913818359375,-3.126168727874756
1684252567925741600,10.607741455078125,-1.3043477535247803,-1.7017008066177368,-3.088793992996216
1684252567935767800,10.617767822265625,-0.5184941291809082,-1.6453694105148315,-3.142467737197876
1684252567945793800,10.627793701171875,0.1459866762161255,-1.3765692710876465,-3.3212828636169434
1684252567955819800,10.63781982421875,0.5502104163169861,-0.7680395245552063,-3.5724523067474365
1684252567965845000,10.647844970703124,0.533336877822876,-0.04304372891783714,-3.9967029094696045
1684252567975870700,10.65787060546875,0.10634315013885498,1.0112557411193848,-4.664384841918945
1684252567985896700,10.667896728515625,-0.6789423823356628,2.3291139602661133,-5.369134902954102
1684252567995922700,10.677922607421875,-1.3863188028335571,3.6491801738739014,-5.618443965911865
1684252568005948700,10.68794873046875,-1.6948745250701904,4.954039096832275,-5.394156455993652
1684252568015974700,10.697974609375,-1.6288660764694214,5.675514221191406,-4.7495856285095215
1684252568026000600,10.708000732421874,-1.9139697551727295,3.0690653324127197,-2.9274842739105225
1684252568036026600,10.718026611328124,-2.0742571353912354,-0.1360253393650055,-1.0485649108886719
1684252568046052600,10.728052490234376,-1.657543420791626,-0.5437739491462708,-0.12036991864442825
1684252568056078600,10.73807861328125,-0.9598523378372192,0.6221539974212646,0.17768514156341553
1684252568066104800,10.748104736328125,-0.2507723867893219,2.0075831413269043,0.31863081455230713
1684252568076129800,10.7581298828125,0.36116889119148254,2.789022445678711,0.3431969881057739
1684252568086155800,10.76815576171875,0.8909152746200562,1.6339093446731567,0.23188672959804535
1684252568096181800,10.778181640625,1.4479055404663086,-0.3912290632724762,-0.17303144931793213
1684252568106207700,10.788207763671876,1.7813926935195923,-1.3753360509872437,-0.8472902774810791
1684252568116233700,10.798233642578126,1.9060862064361572,-1.5801215171813965,-1.615928053855896
1684252568126259700,10.808259765625,1.9000890254974365,-1.3867517709732056,-2.2724056243896484
1684252568136285700,10.81828564453125,1.9075289964675903,-1.3137962818145752,-2.63293194770813
1684252568146311700,10.828311767578125,1.9865500926971436,-1.7142457962036133,-2.5853281021118164
1684252568156337700,10.838337646484375,1.9468878507614136,-2.202233076095581,-2.191704511642456
1684252568166363600,10.84836376953125,1.7907869815826416,-2.1387367248535156,-1.637619972229004
1684252568176389600,10.8583896484375,1.6530497074127197,-1.5938198566436768,-1.0035502910614014
1684252568186415600,10.86841552734375,1.477386236190796,-0.9661539793014526,-0.3302741050720215
1684252568196440600,10.878440673828125,1.1625337600708008,-0.7847599387168884,0.21451061964035034
1684252568206466600,10.888466552734375,0.9082365036010742,-1.821721076965332,0.31242918968200684
1684252568216492800,10.898492919921875,0.7700619101524353,-2.741122007369995,-0.057576049119234085
1684252568226518800,10.908518798828124,0.7360890507698059,-2.6197235584259033,-0.670719563961029
1684252568236544800,10.918544677734374,0.801332414150238,-1.2391059398651123,-1.1185966730117798
1684252568246570800,10.92857080078125,0.9229786992073059,0.8157950639724731,-1.0666474103927612
1684252568256596700,10.9385966796875,0.9202440977096558,2.3263626098632812,-0.6778637170791626
1684252568266622700,10.948622802734375,0.7791095972061157,2.8307840824127197,-0.254520982503891
1684252568276648700,10.958648681640625,0.5489770174026489,2.548996925354004,0.018062345683574677
1684252568286674700,10.9686748046875,0.37373727560043335,1.8930790424346924,0.000990950153209269
1684252568296700700,10.97870068359375,0.36912304162979126,1.2354705333709717,-0.3016622066497803
1684252568306725600,10.9887255859375,0.521492063999176,0.9128331542015076,-0.6387802958488464
1684252568316751600,10.998751708984376,0.7264582514762878,0.8133611679077148,-0.7961859107017517
1684252568326777600,11.008777587890625,0.891489565372467,0.6332715749740601,-0.7285991311073303
1684252568336803600,11.018803466796875,1.0112316608428955,0.40434136986732483,-0.5615262389183044
1684252568346829800,11.028829833984375,1.064756155014038,0.41870033740997314,-0.3755846321582794
1684252568356855800,11.038855712890625,1.0758463144302368,0.5195180773735046,-0.2392856627702713
1684252568366881800,11.0488818359375,1.0838954448699951,0.4159623682498932,-0.1802910566329956
1684252568376907800,11.05890771484375,1.1079375743865967,0.14582468569278717,-0.16491223871707916
1684252568386933800,11.068933837890626,1.1302937269210815,0.004348248243331909,-0.08809389173984528
1684252568396959700,11.078959716796875,1.110567569732666,0.019670063629746437,0.05297234281897545
1684252568406985700,11.08898583984375,1.0428529977798462,-0.03791147097945213,0.24018511176109314
1684252568417011700,11.09901171875,0.8925363421440125,-0.19427509605884552,0.4433269798755646
1684252568427036700,11.10903662109375,0.6501806974411011,-0.3277948200702667,0.6175912022590637
1684252568437062700,11.119062744140624,0.34130582213401794,-0.34405195713043213,0.7771960496902466
1684252568447088600,11.129088623046876,0.011761737056076527,-0.20656760036945343,0.9479302763938904
1684252568457114600,11.139114501953125,-0.3387798070907593,0.05004079267382622,1.1510027647018433
1684252568467140600,11.149140625,-0.7120513916015625,0.35989055037498474,1.3497872352600098
1684252568477166800,11.159166748046875,-1.1114721298217773,0.7047805190086365,1.5254504680633545
1684252568487192800,11.16919287109375,-1.494422197341919,1.0299623012542725,1.6697880029678345
1684252568497218800,11.17921875,-1.8263128995895386,1.2947933673858643,1.7989962100982666
1684252568507244800,11.189244873046874,-2.0921051502227783,1.471224308013916,1.9419363737106323
1684252568517270800,11.199270751953126,-2.3088741302490234,1.5307090282440186,2.1137874126434326
1684252568527296800,11.209296875,-2.426316738128662,1.4188586473464966,2.372763156890869
1684252568537321700,11.21932177734375,-2.4673538208007812,1.0707505941390991,2.719512939453125
1684252568547347700,11.22934765625,-2.4358341693878174,0.617527425289154,3.085122585296631
1684252568557373700,11.239373779296875,-2.3349170684814453,0.04433031380176544,3.4095921516418457
1684252568567399700,11.249399658203124,-2.195514678955078,-0.750048816204071,3.66755747795105
1684252568577425700,11.25942578125,-1.9221147298812866,-1.9003269672393799,3.8626856803894043
1684252568587451600,11.26945166015625,-0.6888689994812012,-3.9363787174224854,3.6430039405822754
1684252568597477600,11.2794775390625,1.781363844871521,-11.207552909851074,1.0664560794830322
1684252568607504000,11.28950390625,2.973798990249634,-7.618139266967773,-0.012378161773085594
1684252568617529900,11.29952978515625,3.6915934085845947,-3.1121017932891846,-1.122887372970581
1684252568627555800,11.309555908203125,2.7859137058258057,-2.2047457695007324,-4.496811866760254
1684252568637581800,11.319581787109374,1.9112212657928467,-10.02862548828125,-4.484511852264404
1684252568647607800,11.32960791015625,2.2252731323242188,-10.609586715698242,-0.428556889295578
1684252568657632800,11.3396328125,2.4321441650390625,-5.123454570770264,0.38507822155952454
1684252568667658800,11.34965869140625,2.3560523986816406,0.690271258354187,-0.4030667245388031
1684252568677684700,11.359684814453125,2.0704569816589355,5.075418949127197,-1.0660189390182495
1684252568687710700,11.369710693359375,1.5747959613800049,7.822093486785889,-1.399671196937561
1684252568697736700,11.37973681640625,0.9254303574562073,9.172276496887207,-1.5115141868591309
1684252568707762700,11.3897626953125,0.2543236315250397,9.587278366088867,-1.3134562969207764
1684252568717788700,11.39978857421875,-0.3231777548789978,9.416919708251953,-0.6531274914741516
1684252568727814700,11.409814697265626,-0.6873032450675964,8.412776947021484,0.3047979474067688
1684252568737841000,11.4198408203125,-0.8884060382843018,6.909769058227539,1.1476022005081177
1684252568747867000,11.429866943359375,-1.0337848663330078,5.367362022399902,1.694575548171997
1684252568757892900,11.439892822265625,-1.1443394422531128,3.9731884002685547,2.0658087730407715
1684252568767917800,11.449917724609374,-1.2510137557983398,2.694507360458374,2.2986109256744385
1684252568777943800,11.45994384765625,-1.3230600357055664,1.4344799518585205,2.3518669605255127
1684252568787969800,11.4699697265625,-1.3736079931259155,0.3343687951564789,2.28629994392395
1684252568797995800,11.479995849609375,-1.4017202854156494,-0.5340967774391174,2.17297625541687
1684252568808021800,11.490021728515625,-1.380769968032837,-1.1707593202590942,2.0243234634399414
1684252568818047700,11.5000478515625,-1.312598705291748,-1.4678277969360352,1.8556731939315796
1684252568828073700,11.51007373046875,-1.1985397338867188,-1.3905082941055298,1.6831896305084229
1684252568838099700,11.520099609375,-1.0311191082000732,-1.0037708282470703,1.5100202560424805
1684252568848125700,11.530125732421874,-0.8390790820121765,-0.4030417203903198,1.344435214996338
1684252568858151700,11.540151611328126,-0.6389829516410828,0.33122655749320984,1.2160876989364624
1684252568868178000,11.550177978515626,-0.45516568422317505,1.022453784942627,1.1504617929458618
1684252568878204000,11.560203857421875,-0.30225440859794617,1.5733156204223633,1.1359034776687622
1684252568888228600,11.570228515625,-0.2771986126899719,1.0058356523513794,1.5221211910247803
1684252568898254800,11.5802548828125,-0.5708534717559814,-2.1025969982147217,2.732387065887451
1684252568908280800,11.59028076171875,-0.6684554219245911,-4.226505279541016,3.430903434753418
1684252568918306800,11.600306884765626,-0.519659161567688,-4.816925525665283,3.5520131587982178
1684252568928332800,11.610332763671876,-0.25726667046546936,-4.483006000518799,3.2718279361724854
1684252568938358800,11.62035888671875,0.00831998698413372,-4.152130603790283,1.7912904024124146
1684252568948384800,11.630384765625,0.21741195023059845,-2.422703981399536,-0.5061548948287964
1684252568958410800,11.64041064453125,0.48523077368736267,-0.29302680492401123,-2.0295708179473877
1684252568968436700,11.650436767578125,0.8405635356903076,0.877030074596405,-2.3505911827087402
1684252568978462700,11.660462646484374,1.2183728218078613,1.0379241704940796,-1.9055243730545044
1684252568988488700,11.67048876953125,1.4775742292404175,0.9075819849967957,-1.3184880018234253
1684252568998513700,11.680513671875,1.5664101839065552,1.0403027534484863,-0.921104371547699
1684252569008539600,11.69053955078125,1.468003749847412,1.3517316579818726,-0.7524658441543579
1684252569018565600,11.700565673828125,1.2417290210723877,1.5500223636627197,-0.6627473831176758
1684252569028591900,11.710591796875,0.9582674503326416,1.439784049987793,-0.4936760365962982
1684252569038617900,11.720617919921875,0.6633246541023254,0.8818513751029968,-0.1522328406572342
1684252569048643800,11.730643798828124,0.3309949040412903,-0.06312683969736099,0.32163432240486145
1684252569058669800,11.740669921875,-0.0020240710582584143,-0.8854691386222839,0.7086586952209473
1684252569068695800,11.75069580078125,-0.2610143721103668,-1.4698902368545532,0.9597710967063904
1684252569078721800,11.7607216796875,-0.44180387258529663,-1.9843684434890747,1.1579818725585938
1684252569088747800,11.770747802734375,-0.5584317445755005,-2.3681161403656006,1.3174535036087036
1684252569098773800,11.780773681640625,-0.6238027811050415,-2.494861364364624,1.429714560508728
1684252569108799700,11.7907998046875,-0.6492290496826172,-2.3279483318328857,1.4811993837356567
1684252569118824700,11.80082470703125,-0.6389729380607605,-1.8220611810684204,1.5842770338058472
1684252569128850700,11.8108505859375,-0.5883015394210815,-0.8407766222953796,1.919006586074829
1684252569138876700,11.820876708984375,-0.5366522669792175,0.4746723771095276,2.393894672393799
1684252569148902700,11.830902587890625,-0.600040853023529,1.6133908033370972,2.6623213291168213
1684252569158929000,11.840928955078125,-0.8467854857444763,2.351808786392212,2.639254093170166
1684252569168955000,11.850954833984375,-1.2023382186889648,2.7525694370269775,2.430758237838745
1684252569178980900,11.86098095703125,-1.5435212850570679,2.9465036392211914,2.2019903659820557
1684252569189006800,11.8710068359375,-1.783277988433838,2.912212371826172,2.141357183456421
1684252569199032800,11.88103271484375,-1.827689290046692,2.502007246017456,2.381394147872925
1684252569209058800,11.891058837890625,-1.6725343465805054,1.5215877294540405,2.5778253078460693
1684252569219084800,11.901084716796875,-1.4865792989730835,0.27437257766723633,2.1400740146636963
1684252569229110800,11.91111083984375,-1.4490857124328613,-0.3730410933494568,1.120879054069519
1684252569239135700,11.9211357421875,-1.2884256839752197,0.07843581587076187,0.030603831633925438
1684252569249161700,11.93116162109375,-0.8516876697540283,1.3596112728118896,-0.9207513332366943
1684252569259187700,11.941187744140626,-0.21593207120895386,3.0173959732055664,-1.6883814334869385
1684252569269213700,11.951213623046876,0.46812134981155396,4.559939384460449,-2.248685359954834
1684252569279239700,11.96123974609375,1.0124871730804443,5.307031154632568,-2.414947748184204
1684252569289266000,11.971265869140625,1.142308235168457,3.5952677726745605,-1.6272448301315308
1684252569299292000,11.9812919921875,1.2090198993682861,1.1909949779510498,-0.6717137694358826
1684252569309318000,11.99131787109375,1.583590030670166,0.3009757995605469,-0.4169568419456482
1684252569319343900,12.00134375,1.9342188835144043,0.03681499511003494,-0.5161632895469666
1684252569329369900,12.011369873046876,2.0694634914398193,-0.1289832890033722,-0.704804003238678
1684252569339395800,12.021395751953126,1.998502254486084,-0.4559616148471832,-0.8075771927833557
1684252569349420800,12.0314208984375,1.7766656875610352,-0.8433109521865845,-0.6673663258552551
1684252569359446800,12.04144677734375,1.4238080978393555,-0.9144371747970581,-0.1366664618253708
1684252569369472800,12.05147265625,0.711544930934906,2.3121235370635986,-0.1300322562456131
1684252569379498800,12.061498779296874,-0.1536596417427063,5.078824996948242,-0.7356357574462891
1684252569389524700,12.071524658203124,-0.8039466142654419,5.6517333984375,-1.3427422046661377
1684252569399550700,12.08155078125,-1.1348059177398682,4.867778301239014,-1.9121818542480469
1684252569409576700,12.09157666015625,-1.2037115097045898,4.057380676269531,-2.4477128982543945
1684252569419602700,12.101602783203125,-1.1453220844268799,3.5347986221313477,-2.9188358783721924
1684252569429628700,12.111628662109375,-1.0072672367095947,3.146430730819702,-3.251406669616699
1684252569439654700,12.121654541015625,-0.8315470814704895,2.652492046356201,-3.3115384578704834
1684252569449681000,12.131680908203125,-0.6000773906707764,1.738138198852539,-2.9630861282348633
1684252569459705600,12.14170556640625,-0.30068209767341614,0.408984512090683,-2.258453845977783
1684252569469731800,12.15173193359375,0.08773782104253769,-0.6798137426376343,-1.4486522674560547
1684252569479757800,12.1617578125,0.5626554489135742,-0.9723079800605774,-0.6986085772514343
1684252569489783800,12.17178369140625,1.0035617351531982,-0.5009985566139221,-0.0722365528345108
1684252569499809800,12.181809814453125,1.30354642868042,0.3025475740432739,0.33070501685142517
1684252569509835800,12.191835693359375,1.4380520582199097,1.0225653648376465,0.43001750111579895
1684252569519861800,12.20186181640625,1.5271391868591309,1.5410501956939697,0.17461614310741425
1684252569529887700,12.2118876953125,1.6287883520126343,1.8263599872589111,-0.2733680307865143
1684252569539913700,12.221913818359376,1.7143810987472534,1.8890836238861084,-0.6278489828109741
1684252569549939700,12.231939697265625,1.7945643663406372,1.9780616760253906,-0.6629025340080261
1684252569559965700,12.241965576171875,1.8628244400024414,2.1205031871795654,-0.41144055128097534
1684252569569991700,12.25199169921875,1.873763084411621,2.272796869277954,0.029656164348125458
1684252569580016600,12.2620166015625,1.827862024307251,2.4259417057037354,0.5186049342155457
1684252569590042600,12.272042724609374,1.719208836555481,2.369339942932129,0.8255206346511841
1684252569600068900,12.28206884765625,1.60923171043396,2.1331191062927246,0.9268934726715088
1684252569610094800,12.2920947265625,1.5456510782241821,1.8379830121994019,0.909551739692688
1684252569620120800,12.302120849609375,1.4928570985794067,1.5886932611465454,0.8810805082321167
1684252569630146800,12.312146728515625,1.414974570274353,1.4542449712753296,0.9051400423049927
1684252569640172800,12.3221728515625,1.3024579286575317,1.3479363918304443,0.9557811617851257
1684252569650198800,12.33219873046875,1.138271450996399,1.2114282846450806,1.0195026397705078
1684252569660224800,12.342224853515624,0.9331644177436829,1.0528603792190552,1.1258636713027954
1684252569670250800,12.352250732421876,0.663116991519928,0.9240145087242126,1.2695890665054321
1684252569680276700,12.36227685546875,0.42971521615982056,0.8964126110076904,1.4317333698272705
1684252569690302700,12.372302734375,0.14797568321228027,0.9835134148597717,1.5541136264801025
1684252569700327700,12.38232763671875,-0.19856390357017517,1.1723365783691406,1.6226403713226318
1684252569710353700,12.392353759765625,-0.69071364402771,1.40256929397583,1.642029047012329
1684252569720379600,12.402379638671874,-1.1494168043136597,1.5866535902023315,1.6177687644958496
1684252569730406000,12.412406005859374,-1.5160363912582397,1.7304552793502808,1.5841256380081177
1684252569740432000,12.422431884765626,-1.8867099285125732,1.8850493431091309,1.5787758827209473
1684252569750457900,12.432457763671875,-2.378551959991455,2.1543073654174805,1.7189744710922241
1684252569760483800,12.44248388671875,-3.0523433685302734,2.8157668113708496,2.1043026447296143
1684252569770509800,12.452509765625,-3.828650951385498,3.93027663230896,2.7366762161254883
1684252569780535800,12.462535888671875,-4.369956016540527,5.238468170166016,3.4192054271698
1684252569790561800,12.472561767578124,-4.484385013580322,6.670969486236572,4.108461856842041
1684252569800587800,12.482587890625,-4.1477742195129395,7.828611850738525,4.466711044311523
1684252569810612700,12.49261279296875,-3.4365947246551514,8.761012077331543,4.453968048095703
1684252569820638700,12.502638671875,-2.5300776958465576,9.33797836303711,4.168007850646973
1684252569830664700,12.512664794921875,-1.683407187461853,9.494989395141602,3.556729793548584
1684252569840690700,12.522690673828125,-1.1090646982192993,9.281071662902832,2.585211753845215
1684252569850716700,12.532716552734374,-0.826528012752533,7.950688362121582,1.2541531324386597
1684252569860743000,12.542742919921874,-0.5523523092269897,5.588112831115723,0.28911247849464417
1684252569870769000,12.552768798828126,-0.19880327582359314,3.7222836017608643,-0.025844935327768326
1684252569880795000,12.562794921875,0.09231635183095932,2.468925952911377,-0.11855529248714447
1684252569890820900,12.57282080078125,0.2853816747665405,1.4501371383666992,-0.19804026186466217
1684252569900846600,12.5828466796875,0.43826982378959656,0.5527727007865906,-0.26952481269836426
1684252569910872600,12.59287255859375,0.5568463206291199,-0.3802582919597626,-0.3740834593772888
1684252569920898600,12.602898681640625,0.6329150795936584,-1.408390998840332,-0.49833959341049194
1684252569930923800,12.612923828125,0.6666011214256287,-2.346696138381958,-0.6418181657791138
