time,seconds_elapsed,z,y,x
1684252352468049000,0.044048828125,-0.4632498621940613,1.6616501808166504,0.5036265254020691
1684252352478075100,0.0540751953125,-0.4980275332927704,1.6983627080917358,0.35133469104766846
1684252352488101000,0.06410107421875,-0.5559424161911011,1.8649104833602905,0.08751898258924484
1684252352498127000,0.074127197265625,-0.6495738625526428,2.1550285816192627,-0.1847998946905136
1684252352508153000,0.084153076171875,-0.8375082612037659,2.512866973876953,-0.3316021263599396
1684252352518178800,0.0941787109375,-1.1173970699310303,2.9030730724334717,-0.2559531629085541
1684252352528204800,0.104204833984375,-1.461796760559082,3.2400879859924316,0.06323909014463425
1684252352538230800,0.114230712890625,-1.9145286083221436,3.7490079402923584,0.5718072652816772
1684252352548256800,0.1242568359375,-2.306356430053711,4.413414478302002,1.0343308448791504
1684252352558282800,0.13428271484375,-2.591323137283325,5.257082939147949,1.5070115327835083
1684252352568308700,0.144308837890625,-2.6950504779815674,5.950008869171143,1.961916208267212
1684252352578334000,0.154333984375,-2.7581777572631836,6.3819475173950195,2.354602813720703
1684252352588360000,0.16435986328125,-3.1005289554595947,6.728523254394531,2.6899256706237793
1684252352598386000,0.174385986328125,-3.7329275608062744,6.675323963165283,2.894331932067871
1684252352608412000,0.184411865234375,-4.621811866760254,6.229730606079102,2.88486385345459
1684252352618438000,0.19443798828125,-5.5203070640563965,5.932426929473877,2.7917208671569824
1684252352628463900,0.2044638671875,-6.2559428215026855,5.570359706878662,2.6427035331726074
1684252352638489900,0.21448974609375,-6.818075656890869,5.008398056030273,2.470486879348755
1684252352648515800,0.224515869140625,-7.226762771606445,4.346154689788818,2.193246841430664
1684252352658541800,0.234541748046875,-7.5082550048828125,3.75465989112854,1.8527567386627197
1684252352668567800,0.24456787109375,-7.556548595428467,3.4853549003601074,1.5252776145935059
1684252352678593800,0.25459375,-7.337042331695557,3.400207996368408,1.4204918146133423
1684252352688619800,0.264619873046875,-7.036909580230713,3.209385633468628,1.530846357345581
1684252352698645800,0.274645751953125,-6.742476940155029,2.7956292629241943,1.7231271266937256
1684252352708671700,0.284671630859375,-6.565967559814453,2.3471693992614746,1.9625179767608643
1684252352718698000,0.294697998046875,-6.508364677429199,2.0404582023620605,2.306865930557251
1684252352728724000,0.304723876953125,-6.477116107940674,1.8035598993301392,2.6717240810394287
1684252352738750000,0.31475,-6.2239670753479,1.6035293340682983,2.8871331214904785
1684252352748776000,0.32477587890625,-5.656643390655518,1.4356952905654907,2.90177059173584
1684252352758802000,0.334802001953125,-4.860404014587402,1.1355130672454834,2.6931312084198
1684252352768828000,0.344827880859375,-4.013375282287598,0.6939913630485535,2.3849568367004395
1684252352778852900,0.354852783203125,-3.2582600116729736,0.17495881021022797,2.0469532012939453
1684252352788878800,0.36487890625,-2.6182711124420166,-0.3183544874191284,1.7128461599349976
1684252352798904800,0.37490478515625,-2.1115882396698,-0.8840072154998779,1.4162838459014893
1684252352808930800,0.384930908203125,-1.6734645366668701,-1.445290446281433,1.138806700706482
1684252352818956800,0.394956787109375,-1.2638511657714844,-1.8217260837554932,0.9441676735877991
1684252352828982800,0.404982666015625,-0.8818612098693848,-1.9453214406967163,0.8884990215301514
1684252352839008800,0.4150087890625,-0.46388688683509827,-1.7987521886825562,0.8794897794723511
1684252352849035000,0.425034912109375,0.01501850038766861,-1.4879447221755981,0.7978888154029846
1684252352859061000,0.43506103515625,0.5001606941223145,-1.2002655267715454,0.6219643950462341
1684252352869087000,0.4450869140625,0.9727581739425659,-0.9284977912902832,0.4043019711971283
1684252352879113000,0.455113037109375,1.4765547513961792,-0.6424106359481812,0.13650299608707428
1684252352889139000,0.465138916015625,2.12294602394104,-0.40713828802108765,-0.1274888962507248
1684252352899165000,0.4751650390625,2.8483989238739014,-0.13853266835212708,-0.3467717170715332
1684252352909191000,0.48519091796875,3.2159886360168457,-0.1604538857936859,-0.6899463534355164
1684252352919217000,0.495216796875,1.8727303743362427,-0.8431474566459656,-2.1447174549102783
1684252352929243000,0.505242919921875,0.29787662625312805,-0.3439377248287201,-3.543569326400757
1684252352939268900,0.515268798828125,-0.24653714895248413,0.9635279178619385,-3.637587308883667
1684252352949295000,0.525295166015625,0.029937533661723137,1.6624130010604858,-2.981719493865967
1684252352959321000,0.535321044921875,0.9418936371803284,1.7579203844070435,-2.0172133445739746
1684252352969347000,0.54534716796875,2.173260450363159,1.5223288536071777,-1.215233325958252
1684252352979372000,0.5553720703125,3.3422608375549316,1.3323097229003906,-0.6819732785224915
1684252352989398000,0.56539794921875,4.106280326843262,1.016478180885315,-0.37604767084121704
1684252352999424000,0.575424072265625,4.659653663635254,0.3941989541053772,-0.3652706742286682
1684252353009450000,0.585449951171875,4.770705223083496,-0.20627284049987793,-0.4308471977710724
1684252353019476000,0.59547607421875,4.443324565887451,-0.2900471091270447,-0.2647061347961426
1684252353029502000,0.605501953125,3.4569146633148193,-0.7303564548492432,-0.2833736538887024
1684252353039528000,0.61552783203125,2.6255593299865723,-1.1226792335510254,-0.7026470899581909
1684252353049554000,0.625553955078125,2.296072244644165,-1.1304631233215332,-1.160826563835144
1684252353059580000,0.635579833984375,2.199087381362915,-0.5830455422401428,-1.2230342626571655
1684252353069606000,0.64560595703125,2.028430223464966,0.19848676025867462,-0.8948785066604614
1684252353079632100,0.655632080078125,1.8304882049560547,0.7830557227134705,-0.06028643622994423
1684252353089658000,0.665658203125,1.4360284805297852,0.8611962795257568,0.9471938014030457
1684252353099684000,0.67568408203125,0.88056480884552,0.7491092085838318,1.784450888633728
1684252353109710000,0.6857099609375,0.24475739896297455,0.7413045167922974,2.288623809814453
1684252353119736300,0.695736328125,-0.2994379699230194,0.9442014098167419,2.3983025550842285
1684252353129762000,0.705761962890625,-0.6754345297813416,1.154202938079834,2.1941871643066406
1684252353139788000,0.7157880859375,-1.0650259256362915,1.1566590070724487,1.6582658290863037
1684252353149814000,0.72581396484375,-1.666679859161377,0.8227123618125916,0.8415927290916443
1684252353159840000,0.735840087890625,-2.3992884159088135,0.5565568804740906,-0.2620747983455658
1684252353169865200,0.745865234375,-3.319032907485962,0.3121461868286133,-1.4366588592529297
1684252353179891200,0.75589111328125,-4.280620098114014,0.45746076107025146,-2.3476123809814453
1684252353189917400,0.76591748046875,-4.986099720001221,0.6672806739807129,-3.0364174842834473
1684252353199943400,0.775943359375,-5.10312032699585,0.551539421081543,-3.2717535495758057
1684252353209969400,0.785969482421875,-4.656979560852051,1.2597103118896484,-2.959139108657837
1684252353219995100,0.7959951171875,-4.033926963806152,1.4684604406356812,-2.5439717769622803
1684252353230021000,0.806021240234375,-3.4714951515197754,2.196232557296753,-2.2609527111053467
1684252353240047000,0.816047119140625,-2.7516589164733887,2.995119333267212,-2.075631856918335
1684252353250073000,0.826072998046875,-2.055255651473999,3.5957181453704834,-1.9185287952423096
1684252353260099000,0.83609912109375,-1.4750412702560425,3.928631544113159,-1.6503838300704956
1684252353270125000,0.846125,-1.1149699687957764,3.7206618785858154,-1.180802345275879
1684252353280151000,0.856151123046875,-1.1989681720733643,2.0554280281066895,-0.37460067868232727
1684252353290177000,0.866177001953125,-1.4046555757522583,1.198309063911438,0.3873045742511749
1684252353300203300,0.876203369140625,-1.6539801359176636,1.3578119277954102,1.1099516153335571
1684252353310229200,0.886229248046875,-2.0202555656433105,1.6767420768737793,1.7973463535308838
1684252353320255200,0.896255126953125,-2.499295949935913,1.9628876447677612,2.4798038005828857
1684252353330281200,0.90628125,-2.9497482776641846,1.9760266542434692,3.0361709594726562
1684252353340307200,0.91630712890625,-3.4374663829803467,1.7555067539215088,3.50881028175354
1684252353350333200,0.926333251953125,-3.9497427940368652,1.5742990970611572,3.9829864501953125
1684252353360358100,0.936358154296875,-4.254294395446777,1.4987319707870483,4.322207450866699
1684252353370384100,0.946384033203125,-4.410064697265625,1.0064932107925415,4.4054951667785645
1684252353380410000,0.95641015625,-5.040449619293213,0.12874490022659302,4.364387512207031
1684252353390436000,0.96643603515625,-5.651519298553467,-0.14756381511688232,4.314189910888672
1684252353400462000,0.976462158203125,-5.860172271728516,-0.09922131150960922,4.165304660797119
1684252353410488000,0.986488037109375,-5.5466628074646,0.07880264520645142,3.9302635192871094
1684252353420514000,0.99651416015625,-4.81997537612915,0.2091342806816101,3.601820230484009
1684252353430540300,1.006540283203125,-3.7507009506225586,0.3914029598236084,3.2847352027893066
1684252353440566300,1.016566162109375,-2.7171926498413086,0.3004363179206848,3.031708002090454
1684252353450592300,1.02659228515625,-1.8501299619674683,0.031544849276542664,2.7959327697753906
1684252353460618200,1.0366181640625,-1.3396480083465576,-0.29161882400512695,2.649582862854004
1684252353470644200,1.046644287109375,-1.10792076587677,-0.7565041780471802,2.5432496070861816
1684252353480670200,1.056670166015625,-1.0792454481124878,-1.4100418090820312,2.5178639888763428
1684252353490696200,1.0666962890625,-1.1904563903808594,-2.265094757080078,2.524144411087036
1684252353500722200,1.07672216796875,-1.157711148262024,-2.8803625106811523,2.205249071121216
1684252353510748200,1.086748046875,-0.3883129060268402,-1.678149700164795,0.4859788119792938
1684252353520774100,1.096774169921875,-0.9170342683792114,-1.3087013959884644,-0.34412264823913574
1684252353530800000,1.106800048828125,-1.7399375438690186,-0.039515018463134766,-0.6382323503494263
1684252353540826400,1.116826416015625,-2.239777088165283,1.1042593717575073,-0.6732510328292847
1684252353550852400,1.126852294921875,-2.3659441471099854,2.1075477600097656,-0.5576498508453369
1684252353560877300,1.136877197265625,-2.1181459426879883,2.9343717098236084,-0.3238895833492279
1684252353570903300,1.1469033203125,-1.449836015701294,3.5819029808044434,-0.13109400868415833
1684252353580929300,1.15692919921875,-0.8014678359031677,4.007171154022217,0.09590612351894379
1684252353590955300,1.166955322265625,-0.10538201034069061,4.429749011993408,0.47355836629867554
1684252353600981200,1.176981201171875,1.0616148710250854,4.9517316818237305,0.9001227617263794
1684252353611007200,1.18700732421875,2.0717098712921143,4.3687424659729,0.5875674486160278
1684252353621033200,1.197033203125,2.8016061782836914,3.3518564701080322,0.006618339568376541
1684252353631059200,1.20705908203125,3.3816678524017334,3.36495304107666,-0.399132639169693
1684252353641085200,1.217085205078125,3.572324514389038,3.792301893234253,-0.8150595426559448
1684252353651111200,1.227111083984375,2.816784620285034,3.0997917652130127,-1.7990480661392212
1684252353661137200,1.23713720703125,1.7854701280593872,1.8609501123428345,-2.8672876358032227
1684252353671163400,1.247163330078125,1.0787887573242188,1.1356860399246216,-3.4692001342773438
1684252353681189400,1.257189453125,0.8414587378501892,1.1455693244934082,-3.452854871749878
1684252353691215400,1.26721533203125,0.7409999370574951,1.7540968656539917,-3.0683040618896484
1684252353701241300,1.277241455078125,0.44641169905662537,2.472994327545166,-2.5625946521759033
1684252353711267300,1.287267333984375,0.0867033302783966,2.9621095657348633,-2.054041624069214
1684252353721293300,1.297293212890625,-0.3704437017440796,3.033548593521118,-1.6222838163375854
1684252353731319300,1.3073193359375,-0.9786114692687988,2.6541991233825684,-1.2965257167816162
1684252353741345300,1.31734521484375,-1.6877518892288208,2.093886375427246,-1.013094186782837
1684252353751371300,1.327371337890625,-2.274885654449463,1.675885796546936,-0.6518598198890686
1684252353761396200,1.337396240234375,-2.5189359188079834,1.1752409934997559,-0.3213556706905365
1684252353771422200,1.347422119140625,-2.52646541595459,0.5168347954750061,-0.0903603658080101
1684252353781448200,1.3574482421875,-2.5664985179901123,-0.1370156705379486,0.09452852606773376
1684252353791474200,1.36747412109375,-2.68717622756958,-0.7501540780067444,0.24572567641735077
1684252353801500400,1.37750048828125,-2.788140058517456,-1.8836750984191895,0.256521075963974
1684252353811526400,1.3875263671875,-2.5969111919403076,-4.712485313415527,-0.2103899121284485
1684252353821552400,1.397552490234375,-2.1426517963409424,-6.950547218322754,-0.7797021269798279
1684252353831578400,1.407578369140625,-1.6119168996810913,-7.931464672088623,-1.2004172801971436
1684252353841604400,1.417604248046875,-0.9090785384178162,-8.264115333557129,-1.5029656887054443
1684252353851630300,1.42763037109375,-0.22487984597682953,-8.419312477111816,-1.8059601783752441
1684252353861656000,1.437656005859375,0.4378432631492615,-8.295653343200684,-2.0767316818237305
1684252353871682000,1.44768212890625,1.0688506364822388,-7.009270668029785,-1.673883080482483
1684252353881708000,1.4577080078125,1.429260492324829,-4.173741340637207,-0.4714689254760742
1684252353891734000,1.467734130859375,1.6636250019073486,-1.6371699571609497,0.45613646507263184
1684252353901760000,1.477760009765625,1.933565378189087,-0.060702718794345856,0.9821382164955139
1684252353911786200,1.4877861328125,2.4541938304901123,0.7719830870628357,1.0332976579666138
1684252353921812200,1.497812255859375,3.206120729446411,1.1967487335205078,1.066455602645874
1684252353931838200,1.507838134765625,4.093887805938721,1.3318240642547607,0.9258996248245239
1684252353941864200,1.5178642578125,5.03000020980835,1.2179861068725586,0.6034195423126221
1684252353951890200,1.52789013671875,5.812521934509277,0.9284080266952515,0.138179212808609
1684252353961915100,1.5379150390625,6.290245056152344,0.6154402494430542,-0.4136815369129181
1684252353971941000,1.547941162109375,6.314842224121094,0.3625045120716095,-0.985905110836029
1684252353981967000,1.557967041015625,5.783241271972656,0.1540815383195877,-1.5128659009933472
1684252353991993000,1.5679931640625,4.685540676116943,-0.060539089143276215,-2.2058510780334473
1684252354002019000,1.57801904296875,3.3026299476623535,-0.6636835336685181,-2.722227096557617
1684252354012045000,1.588045166015625,2.031872510910034,-1.4924778938293457,-2.7687039375305176
1684252354022071000,1.598071044921875,1.1851649284362793,-2.0693554878234863,-2.334604501724243
1684252354032097000,1.608096923828125,0.7614872455596924,-2.104097843170166,-1.5386037826538086
1684252354042123300,1.618123291015625,0.5985087156295776,-1.4599475860595703,-0.6456781625747681
1684252354052149200,1.628149169921875,0.52943354845047,-0.3255375027656555,0.09620936214923859
1684252354062175200,1.63817529296875,0.4728948771953583,0.8982673287391663,0.5931413769721985
1684252354072201200,1.648201171875,0.388022780418396,1.7950196266174316,0.8921940326690674
1684252354082227200,1.658227294921875,0.26714110374450684,2.206467628479004,1.0321675539016724
1684252354092253200,1.668253173828125,0.11911197751760483,2.1635894775390625,1.0786819458007812
1684252354102279200,1.678279052734375,-0.004931138828396797,1.7798151969909668,1.061234474182129
1684252354112305200,1.68830517578125,-0.05798061564564705,1.2335216999053955,0.99372398853302
1684252354122331100,1.6983310546875,-0.019641216844320297,0.7156519889831543,0.8955351114273071
1684252354132357000,1.708357177734375,0.06987481564283371,0.34840860962867737,0.7861114740371704
1684252354142383000,1.718383056640625,0.1787983775138855,0.13884098827838898,0.7015526294708252
1684252354152409000,1.7284091796875,0.281295508146286,0.03449155390262604,0.6704695820808411
1684252354162434000,1.73843408203125,0.3467150032520294,-0.05751879885792732,0.7013470530509949
1684252354172460000,1.7484599609375,0.34999558329582214,-0.21752001345157623,0.8033062219619751
1684252354182486000,1.758486083984375,0.2910534143447876,-0.44927629828453064,0.9403687715530396
1684252354192512000,1.768511962890625,0.21502353250980377,-0.6655219793319702,1.0906188488006592
1684252354202538000,1.7785380859375,0.116237573325634,-0.817956268787384,1.221183180809021
1684252354212564000,1.78856396484375,0.006677842698991299,-0.8944172859191895,1.341553807258606
1684252354222590000,1.79858984375,-0.10917898267507553,-0.8850014209747314,1.4706894159317017
1684252354232616000,1.808615966796875,-0.2291136234998703,-0.7765681743621826,1.6043262481689453
1684252354242642200,1.81864208984375,-0.3637137711048126,-0.5848925113677979,1.731947898864746
1684252354252668200,1.828668212890625,-0.5102628469467163,-0.34591609239578247,1.8290687799453735
1684252354262694100,1.838694091796875,-0.6878269910812378,-0.1360584944486618,1.8983135223388672
1684252354272720100,1.84872021484375,-0.8879011869430542,-0.021899178624153137,1.9426888227462769
1684252354282746000,1.85874609375,-1.071128010749817,0.004293011035770178,1.953296184539795
1684252354292772000,1.868772216796875,-1.2117483615875244,-0.057381633669137955,1.9189804792404175
1684252354302798000,1.878798095703125,-1.2825695276260376,-0.14842525124549866,1.8288437128067017
1684252354312824000,1.888823974609375,-1.236195683479309,-0.2881520390510559,1.669243574142456
1684252354322850000,1.89885009765625,-1.0555353164672852,-0.4369271397590637,1.4276306629180908
1684252354332876000,1.9088759765625,-0.7627725601196289,-0.503747820854187,1.1556490659713745
1684252354342902000,1.918902099609375,-0.429106742143631,-0.5029973387718201,0.8086034655570984
1684252354352927000,1.928927001953125,-0.17359408736228943,-0.5636207461357117,0.20606324076652527
1684252354362953000,1.938952880859375,-0.0431697703897953,-0.7566426396369934,-0.8331871628761292
1684252354372979200,1.948979248046875,0.11180107295513153,-1.2410080432891846,-1.8683720827102661
1684252354383005200,1.959005126953125,0.3652234971523285,-1.7881348133087158,-2.1080379486083984
1684252354393031200,1.96903125,0.5167228579521179,-1.9405344724655151,-1.5326272249221802
1684252354403057200,1.97905712890625,0.40457531809806824,-1.8120553493499756,-0.8086529970169067
1684252354413083100,1.989083251953125,0.06223553791642189,-1.71690833568573,-0.39465242624282837
1684252354423109000,1.999109130859375,-0.4482005536556244,-1.66197669506073,-0.31853288412094116
1684252354433135000,2.009135009765625,-0.9870429635047913,-1.5067132711410522,-0.4227181077003479
1684252354443161000,2.0191611328125,-1.3929505348205566,-1.1387653350830078,-0.5452205538749695
1684252354453187000,2.02918701171875,-1.5881446599960327,-0.5190564393997192,-0.6044310927391052
1684252354463213000,2.039213134765625,-1.5844061374664307,0.24622605741024017,-0.6079328656196594
1684252354473239000,2.049239013671875,-1.4350425004959106,0.9998558759689331,-0.547015905380249
1684252354483265300,2.059265380859375,-1.1905161142349243,1.5731693506240845,-0.392831414937973
1684252354493291300,2.069291259765625,-0.8938238024711609,1.7809556722640991,-0.13480862975120544
1684252354503317000,2.07931689453125,-0.6439825892448425,1.303147792816162,0.2004292607307434
1684252354513343000,2.089343017578125,-0.5639931559562683,0.16230453550815582,0.5480607748031616
1684252354523369000,2.099368896484375,-0.5807875990867615,-0.951755940914154,0.8755031228065491
1684252354533395000,2.10939501953125,-0.6481524109840393,-1.52011239528656,1.0918166637420654
1684252354543421000,2.1194208984375,-0.6961820125579834,-1.558772325515747,1.1452819108963013
1684252354553446100,2.129446044921875,-0.6358792781829834,-1.2956931591033936,1.0753828287124634
1684252354563472100,2.13947216796875,-0.44964441657066345,-1.0818458795547485,0.8286940455436707
1684252354573498000,2.149498046875,-0.16668701171875,-1.058673620223999,0.4206308126449585
1684252354583524000,2.159524169921875,0.15667906403541565,-1.0429551601409912,-0.015856493264436722
1684252354593550000,2.169550048828125,0.4265499413013458,-0.9434823989868164,-0.35828468203544617
1684252354603576000,2.179576171875,0.5808220505714417,-0.8854726552963257,-0.5690001249313354
1684252354613602000,2.18960205078125,0.5780166387557983,-0.9699873924255371,-0.6414496898651123
1684252354623628000,2.1996279296875,0.40043967962265015,-1.2179328203201294,-0.6562848091125488
1684252354633654000,2.209654052734375,0.10495860129594803,-1.5249559879302979,-0.6883518695831299
1684252354643680000,2.219679931640625,-0.1673419028520584,-1.6573899984359741,-0.7153789401054382
1684252354653706000,2.2297060546875,-0.2817070186138153,-1.4836924076080322,-0.6638933420181274
1684252354663732000,2.23973193359375,-0.25666478276252747,-1.1998646259307861,-0.5416622161865234
1684252354673758000,2.249758056640625,-0.23323693871498108,-0.9019953012466431,-0.3822115659713745
1684252354683784000,2.259783935546875,-0.2635005712509155,-0.5916643738746643,-0.19976693391799927
1684252354693810000,2.269809814453125,-0.32210275530815125,-0.2731212377548218,0.0034166425466537476
1684252354703836000,2.2798359375,-0.39369359612464905,-0.013293389230966568,0.21556724607944489
1684252354713862000,2.28986181640625,-0.47910618782043457,0.07356051355600357,0.4530704915523529
1684252354723888000,2.29988818359375,-0.555657148361206,-0.22661074995994568,0.7230247259140015
1684252354733914000,2.3099140625,-0.5925764441490173,-1.1337274312973022,1.0230133533477783
1684252354743940000,2.319940185546875,-0.5448371171951294,-2.2617263793945312,1.3046250343322754
1684252354753965000,2.329965087890625,-0.4829234778881073,-3.126875638961792,1.469687581062317
1684252354763991000,2.339990966796875,-0.4554058313369751,-3.583016872406006,1.4803411960601807
1684252354774017000,2.35001708984375,-0.452940970659256,-3.5597798824310303,1.3220583200454712
1684252354784043000,2.36004296875,-0.47149282693862915,-3.1165990829467773,1.0288280248641968
1684252354794069000,2.370069091796875,-0.4835585355758667,-2.4456286430358887,0.6465861797332764
1684252354804095000,2.380094970703125,-0.45271939039230347,-1.7505744695663452,0.2406732439994812
1684252354814121000,2.390120849609375,-0.38929110765457153,-1.1959631443023682,-0.09130850434303284
1684252354824147000,2.40014697265625,-0.276543527841568,-0.7976022362709045,-0.3258027732372284
1684252354834173000,2.4101728515625,-0.14155980944633484,-0.539905309677124,-0.48189011216163635
1684252354844199000,2.420198974609375,-0.012635109014809132,-0.4958997368812561,-0.5651849508285522
1684252354854225200,2.43022509765625,0.09478636085987091,-0.8130249977111816,-0.5943135619163513
1684252354864251100,2.440251220703125,0.1801356077194214,-1.5479706525802612,-0.5883669853210449
1684252354874277000,2.450277099609375,0.2576138973236084,-2.8543288707733154,-0.5692554116249084
1684252354884303000,2.46030322265625,0.3814399540424347,-4.78215217590332,-0.5536908507347107
1684252354894329000,2.4703291015625,0.5861220359802246,-6.853646755218506,-0.5574436783790588
1684252354904355000,2.48035498046875,0.8654271960258484,-8.698100090026855,-0.8707568645477295
1684252354914381000,2.490381103515625,1.2089513540267944,-9.404291152954102,-1.5927255153656006
1684252354924407000,2.500406982421875,1.5279005765914917,-8.896411895751953,-2.3685250282287598
1684252354934433000,2.51043310546875,1.7643566131591797,-7.666917324066162,-3.1021511554718018
1684252354944459000,2.520458984375,1.9357397556304932,-5.888532638549805,-3.6875128746032715
1684252354954484000,2.53048388671875,1.9794336557388306,-3.1978085041046143,-3.5699260234832764
1684252354964510000,2.540510009765625,1.8925597667694092,0.04362795501947403,-2.80218768119812
1684252354974536000,2.550535888671875,1.7777273654937744,3.207094192504883,-1.8676265478134155
1684252354984562200,2.560562255859375,1.5866174697875977,5.8252434730529785,-1.182267189025879
1684252354994588200,2.570588134765625,1.0078251361846924,7.617916584014893,-0.8331504464149475
1684252355004614100,2.5806142578125,0.11896711587905884,8.797266960144043,-0.46843668818473816
1684252355014640000,2.59064013671875,-0.7440987229347229,6.843663215637207,0.3777013123035431
1684252355024666000,2.600666015625,-1.157563328742981,2.502528667449951,0.9944018125534058
1684252355034692000,2.610692138671875,-1.069528579711914,-0.6344304084777832,0.6419366598129272
1684252355044718000,2.620718017578125,-0.6652821898460388,-1.7056622505187988,-0.22607460618019104
1684252355054744000,2.630744140625,-0.34982502460479736,-0.8013161420822144,-0.9762780070304871
1684252355064770000,2.64077001953125,-0.20100200176239014,1.0300008058547974,-1.3826732635498047
1684252355074796000,2.650796142578125,-0.1412036269903183,2.739975690841675,-1.457857370376587
1684252355084822000,2.660822021484375,0.01689225435256958,3.8879756927490234,-1.2534064054489136
1684252355094848300,2.67084814453125,0.26622697710990906,3.157616138458252,-1.0190136432647705
1684252355104874200,2.680874267578125,0.5255383849143982,1.2009375095367432,-0.838580310344696
1684252355114900200,2.690900146484375,0.6941410899162292,-0.01843971572816372,-0.7326014041900635
1684252355124925700,2.70092578125,0.8067747354507446,-0.44200533628463745,-0.7287979125976562
1684252355134952000,2.710951904296875,0.9206526875495911,-0.3607751429080963,-0.7237259745597839
1684252355144978000,2.72097802734375,1.0482734441757202,0.002950596157461405,-0.6927488446235657
1684252355155003000,2.7310029296875,1.1316028833389282,0.34816232323646545,-0.6649951338768005
1684252355165028900,2.74102880859375,1.1382116079330444,0.5179466009140015,-0.6400676965713501
1684252355175054800,2.751054931640625,1.1240330934524536,0.5044381618499756,-0.5844199061393738
1684252355185080800,2.761080810546875,1.1611833572387695,0.3137877881526947,-0.5119215250015259
1684252355195106800,2.77110693359375,1.2681738138198853,0.012510823085904121,-0.4665442407131195
1684252355205132800,2.7811328125,1.4227319955825806,-0.2922607958316803,-0.44771942496299744
1684252355215158800,2.79115869140625,1.5701266527175903,-0.4782741069793701,-0.4702042043209076
1684252355225184800,2.801184814453125,1.643277883529663,-0.3998892903327942,-0.4950062334537506
1684252355235210800,2.811210693359375,1.623894214630127,-0.04069852828979492,-0.6149728298187256
1684252355245236700,2.82123681640625,1.521586537361145,0.61122727394104,-0.8124099969863892
1684252355255262700,2.8312626953125,1.382012128829956,1.3890842199325562,-0.9559795260429382
1684252355265288700,2.841288818359375,1.2302542924880981,1.9997891187667847,-1.07614004611969
1684252355275314700,2.851314697265625,1.062016487121582,2.286191701889038,-1.091425895690918
1684252355285340700,2.861340576171875,0.9076479077339172,2.2193541526794434,-0.9093644022941589
1684252355295366700,2.87136669921875,0.8118336796760559,1.8842617273330688,-0.5735069513320923
1684252355305392600,2.881392578125,0.793516993522644,1.4739066362380981,-0.14067107439041138
1684252355315418600,2.891418701171875,0.8547000885009766,1.147477388381958,0.27902427315711975
1684252355325444600,2.901444580078125,0.9791226983070374,0.9653934836387634,0.6086112260818481
1684252355335470600,2.911470703125,1.1631145477294922,0.9134436845779419,0.779361367225647
1684252355345496600,2.92149658203125,1.3516087532043457,1.029610276222229,0.773837685585022
1684252355355521800,2.931521728515625,1.485422134399414,1.2748496532440186,0.6482816934585571
1684252355365547800,2.9415478515625,1.5511001348495483,1.5790241956710815,0.5148978233337402
1684252355375573800,2.95157373046875,1.5744624137878418,1.7939307689666748,0.41899675130844116
1684252355385599500,2.961599609375,1.5576759576797485,1.8109747171401978,0.369436115026474
1684252355395625700,2.971625732421875,1.468632698059082,1.7363922595977783,0.45740360021591187
1684252355405651700,2.981651611328125,1.3140044212341309,1.7071419954299927,0.7017832398414612
1684252355415677700,2.991677734375,1.128319263458252,1.7378755807876587,0.9535387754440308
1684252355425703700,3.00170361328125,0.9587416648864746,1.863735318183899,1.1457349061965942
1684252355435729700,3.011729736328125,0.827427327632904,2.094332456588745,1.234342336654663
1684252355445755600,3.021755615234375,0.7550570368766785,2.3307559490203857,1.2470933198928833
1684252355455781600,3.03178173828125,0.7256811857223511,2.506016254425049,1.2635327577590942
1684252355465807600,3.0418076171875,0.7278990745544434,2.5053396224975586,1.2485072612762451
1684252355475833600,3.05183349609375,0.7575091123580933,2.3587963581085205,1.175203561782837
1684252355485859600,3.061859619140625,0.8251294493675232,2.2327747344970703,1.0811668634414673
1684252355495885600,3.071885498046875,0.9232968091964722,2.0971908569335938,0.9430453181266785
1684252355505911800,3.081911865234375,1.0414031744003296,1.7897675037384033,0.6992688775062561
1684252355515937800,3.091937744140625,1.1563777923583984,1.43533456325531,0.44856610894203186
1684252355525963800,3.1019638671875,1.218654990196228,1.243748664855957,0.3062337338924408
1684252355535989800,3.11198974609375,1.220929503440857,1.1214076280593872,0.2400842010974884
1684252355546015700,3.122015625,1.2064980268478394,0.8490659594535828,0.2314864546060562
1684252355556040700,3.132040771484375,1.1949067115783691,0.4731005132198334,0.31000837683677673
1684252355566066700,3.142066650390625,1.1735271215438843,0.33387553691864014,0.42466622591018677
1684252355576092700,3.1520927734375,1.1575919389724731,0.5854715704917908,0.4812033772468567
1684252355586118700,3.16211865234375,1.1694626808166504,0.7983867526054382,0.45385801792144775
1684252355596144600,3.17214453125,1.1971787214279175,0.7459412813186646,0.423307865858078
1684252355606170600,3.182170654296875,1.216712474822998,0.5505377054214478,0.39662832021713257
1684252355616196600,3.192196533203125,1.2386997938156128,0.2950904667377472,0.3863379955291748
1684252355626222600,3.20222265625,1.2266952991485596,0.025529824197292328,0.4384797513484955
1684252355636248800,3.212248779296875,1.14741849899292,-0.16014625132083893,0.599360466003418
1684252355646274800,3.22227490234375,0.9790530204772949,-0.19348503649234772,0.8996630311012268
1684252355656300800,3.23230078125,0.7593325972557068,0.05529988557100296,1.2977099418640137
1684252355666326800,3.242326904296875,0.5215461254119873,0.47295066714286804,1.4905611276626587
1684252355676352800,3.252352783203125,0.2235252857208252,0.9637415409088135,1.4571707248687744
1684252355686378800,3.262378662109375,-0.10912669450044632,1.317333698272705,1.3529596328735352
1684252355696404700,3.27240478515625,-0.30987095832824707,1.3495380878448486,1.4024380445480347
1684252355706430700,3.2824306640625,-0.42433682084083557,1.1712779998779297,1.7009985446929932
1684252355716456700,3.292456787109375,-0.6111507415771484,0.9804761409759521,2.0859949588775635
1684252355726482700,3.302482666015625,-0.9030017256736755,0.8869104981422424,2.4143612384796143
1684252355736508700,3.3125087890625,-1.2448463439941406,0.8838933706283569,2.645843505859375
1684252355746535000,3.322534912109375,-1.5472285747528076,0.93597412109375,2.7938342094421387
1684252355756559600,3.3325595703125,-1.7662060260772705,0.9767816662788391,2.893420696258545
1684252355766585900,3.3425859375,-1.9052553176879883,0.9592431783676147,2.9504261016845703
1684252355776611800,3.35261181640625,-1.9879143238067627,0.8673826456069946,2.9813485145568848
1684252355786637800,3.362637939453125,-2.0403084754943848,0.7480274438858032,2.99129581451416
1684252355796663800,3.372663818359375,-2.005277156829834,0.4593963027000427,2.9642012119293213
1684252355806689800,3.382689697265625,-1.8382329940795898,-0.12443248927593231,2.955162286758423
1684252355816715800,3.3927158203125,-1.5810643434524536,-1.0807487964630127,2.9475722312927246
1684252355826741800,3.40274169921875,-1.2936779260635376,-2.828336477279663,2.7150251865386963
1684252355836767700,3.412767822265625,-1.2128499746322632,-3.5565342903137207,2.2331066131591797
1684252355846793700,3.422793701171875,-1.0600956678390503,-2.3507299423217773,1.4713869094848633
1684252355856819700,3.43281982421875,0.17023690044879913,-4.649222373962402,-0.33404046297073364
1684252355866845700,3.442845703125,2.1672842502593994,-7.6931891441345215,-0.7528206706047058
1684252355876872000,3.452871826171875,3.2609355449676514,-9.192651748657227,0.8881290555000305
1684252355886898000,3.46289794921875,2.4527835845947266,-7.338295936584473,1.2820700407028198
1684252355896924000,3.472923828125,1.0407005548477173,1.2212390899658203,-0.8719366788864136
1684252355906949600,3.48294970703125,0.435340940952301,5.579239845275879,-1.674744963645935
1684252355916975600,3.4929755859375,-0.05881631374359131,6.654578685760498,-1.8314805030822754
1684252355927001600,3.503001708984375,-0.7508474588394165,6.52992057800293,-1.9183688163757324
1684252355937027600,3.513027587890625,-1.5594881772994995,6.015282154083252,-2.0460004806518555
1684252355947053600,3.523053466796875,-2.3654654026031494,5.537984848022461,-2.1164796352386475
1684252355957079600,3.53307958984375,-2.9792282581329346,5.194768905639648,-2.004340648651123
1684252355967104800,3.543104736328125,-3.339014768600464,4.899612903594971,-1.5952917337417603
1684252355977130800,3.553130859375,-3.3966028690338135,4.507619380950928,-0.7771707773208618
1684252355987156700,3.56315673828125,-3.227099895477295,3.8069894313812256,0.24634484946727753
1684252355997182700,3.5731826171875,-2.9078176021575928,2.855705499649048,1.2740142345428467
1684252356007208700,3.583208740234375,-2.545659065246582,1.7212040424346924,2.165336847305298
1684252356017234700,3.593234619140625,-2.159566640853882,0.635978102684021,2.8856170177459717
1684252356027260700,3.6032607421875,-1.7629398107528687,-0.30716705322265625,3.450739860534668
1684252356037286700,3.61328662109375,-1.396953821182251,-1.2572427988052368,3.8838424682617188
1684252356047312600,3.623312744140625,-1.0954089164733887,-2.5705149173736572,4.072030067443848
1684252356057338600,3.633338623046875,-0.8190805912017822,-4.013321399688721,3.7180330753326416
1684252356067364600,3.643364501953125,-0.6044194102287292,-5.055290699005127,2.8006603717803955
1684252356077390600,3.653390625,-0.44222790002822876,-5.8395819664001465,1.5885295867919922
1684252356087416600,3.66341650390625,-0.2864191234111786,-6.212591648101807,0.6579571962356567
1684252356097442600,3.673442626953125,-0.2061290144920349,-6.276234149932861,0.539138674736023
1684252356107468500,3.683468505859375,-0.22026053071022034,-5.653104782104492,1.1474895477294922
1684252356117494800,3.693494873046875,-0.31209471821784973,-3.761237621307373,1.659786581993103
1684252356127520500,3.7035205078125,-0.43630293011665344,-1.0364317893981934,1.1515557765960693
1684252356137546800,3.713546630859375,-0.49191635847091675,1.5351961851119995,0.12496364116668701
1684252356147572700,3.72357275390625,-0.33803170919418335,3.27478289604187,-0.3665136694908142
1684252356157598700,3.7335986328125,-0.08519385755062103,4.091793060302734,-0.3220663368701935
1684252356167623700,3.743623779296875,0.1506602168083191,4.129744529724121,-0.15716980397701263
1684252356177649700,3.753649658203125,0.33188432455062866,3.872257709503174,-0.12409710139036179
1684252356187675600,3.763675537109375,0.3798382878303528,3.682213544845581,-0.21637164056301117
1684252356197701600,3.77370166015625,0.30949273705482483,3.3974359035491943,-0.3699537217617035
1684252356207727600,3.7837275390625,0.1740691363811493,2.936487913131714,-0.5213677287101746
1684252356217753600,3.793753662109375,0.007838001474738121,2.410820960998535,-0.6448881030082703
1684252356227779600,3.803779541015625,-0.14901100099086761,1.9589557647705078,-0.7383842468261719
1684252356237805600,3.8138056640625,-0.2421625405550003,1.6873276233673096,-0.7999390363693237
1684252356247831600,3.82383154296875,-0.24080219864845276,1.6113977432250977,-0.8194219470024109
1684252356257857500,3.833857421875,-0.14338752627372742,1.6699429750442505,-0.7898098230361938
1684252356267883800,3.8438837890625,0.008778303861618042,1.7376465797424316,-0.6987957954406738
1684252356277909800,3.85390966796875,0.1783544421195984,1.6872236728668213,-0.5474128127098083
1684252356287935700,3.863935791015625,0.31627875566482544,1.4650835990905762,-0.33145737648010254
1684252356297961700,3.873961669921875,0.4039953351020813,1.0908448696136475,-0.08873461186885834
1684252356307987700,3.88398779296875,0.4492504298686981,0.6773499250411987,0.13832144439220428
1684252356318013700,3.894013671875,0.49229997396469116,0.32828444242477417,0.3053174912929535
1684252356328039700,3.904039794921875,0.5450260639190674,0.07266227155923843,0.40606436133384705
1684252356338065700,3.914065673828125,0.6055040955543518,-0.14456748962402344,0.4747443199157715
1684252356348091600,3.924091552734375,0.6634297370910645,-0.38766321539878845,0.5299543142318726
1684252356358117600,3.93411767578125,0.6934617757797241,-0.6829933524131775,0.587843120098114
1684252356368143600,3.9441435546875,0.6978554725646973,-0.986082911491394,0.6465325355529785
1684252356378168600,3.95416845703125,0.6701937913894653,-1.282285451889038,0.7002248764038086
1684252356388194600,3.964194580078125,0.6314882040023804,-1.5284062623977661,0.7334858775138855
1684252356398220800,3.974220703125,0.5903694033622742,-1.7130446434020996,0.7569155097007751
1684252356408246800,3.984246826171875,0.5529621243476868,-1.8495066165924072,0.7683665752410889
1684252356418272800,3.994272705078125,0.5358784198760986,-1.9616698026657104,0.7577921748161316
1684252356428298800,4.004298828125,0.5499492287635803,-2.009678602218628,0.720553457736969
1684252356438324700,4.01432470703125,0.5797035098075867,-1.9907808303833008,0.673797070980072
1684252356448350700,4.024350830078125,0.5989671945571899,-1.9484171867370605,0.6579725742340088
1684252356458376700,4.034376708984375,0.5949493050575256,-1.97325599193573,0.6873470544815063
1684252356468402700,4.044402587890625,0.5662585496902466,-2.2075345516204834,0.7675303220748901
1684252356478428700,4.0544287109375,0.5172550678253174,-2.6643190383911133,0.9141916632652283
1684252356488454700,4.06445458984375,0.45541831851005554,-3.204392671585083,1.0522589683532715
1684252356498480600,4.074480712890625,0.37906622886657715,-3.6500444412231445,1.1200156211853027
1684252356508507000,4.0845068359375,0.2702031135559082,-3.8042709827423096,1.0926167964935303
1684252356518532900,4.094532958984375,0.14283496141433716,-3.413332939147949,0.9127957820892334
1684252356528558800,4.104558837890625,0.04136664792895317,-2.4369776248931885,0.5785227417945862
1684252356538584800,4.114584716796875,-0.006224800832569599,-1.0935866832733154,0.16153761744499207
1684252356548610600,4.124610595703125,-0.0013916960451751947,0.3087784945964813,-0.22374455630779266
1684252356558636500,4.134636474609375,0.05560320243239403,1.554597020149231,-0.5141591429710388
1684252356568662500,4.14466259765625,0.134829580783844,2.4770009517669678,-0.7078609466552734
1684252356578687700,4.154687744140625,0.20857150852680206,2.929568290710449,-0.7910783290863037
1684252356588713700,4.164713623046875,0.2808036208152771,1.9921339750289917,-0.28279194235801697
1684252356598739700,4.17473974609375,0.43814459443092346,1.2203611135482788,0.184657022356987
1684252356608765700,4.184765625,0.5551873445510864,1.5198743343353271,0.14838609099388123
1684252356618791700,4.194791748046875,0.7643048763275146,2.103581428527832,-0.022016707807779312
1684252356628817700,4.204817626953125,1.145094871520996,2.664398431777954,-0.23985448479652405
1684252356638843600,4.21484375,1.6838009357452393,3.31561017036438,-0.4868094027042389
1684252356648869600,4.22486962890625,2.3465416431427,3.957559585571289,-0.8453576564788818
1684252356658895600,4.2348955078125,2.942718029022217,4.101528644561768,-1.5079925060272217
1684252356668921600,4.244921630859375,3.5610642433166504,3.501642942428589,-2.10634708404541
1684252356678947600,4.254947509765625,3.972499370574951,2.259305000305176,-2.4988291263580322
1684252356688973600,4.2649736328125,3.959505796432495,0.8293445110321045,-2.695953607559204
1684252356698999600,4.27499951171875,3.486020803451538,-0.5802100300788879,-2.788346529006958
1684252356709025500,4.285025634765625,2.779778003692627,-1.8514516353607178,-2.658496141433716
1684252356719051500,4.295051513671875,2.2179152965545654,-2.4660751819610596,-2.217756986618042
1684252356729077500,4.305077392578125,1.7992141246795654,-2.50384521484375,-1.6873459815979004
1684252356739103700,4.315103759765625,1.4326997995376587,-2.1010069847106934,-0.8825794458389282
1684252356749129700,4.325129638671875,1.0790165662765503,-1.4409524202346802,0.24403487145900726
1684252356759155700,4.33515576171875,0.6933063864707947,0.22482743859291077,1.1569361686706543
1684252356769181700,4.345181640625,0.31268930435180664,2.7230098247528076,1.2459750175476074
1684252356779207700,4.355207763671875,-0.07929489016532898,4.274890899658203,0.6668580770492554
1684252356789233700,4.365233642578125,-0.5091046094894409,4.667686939239502,-0.16058021783828735
1684252356799258600,4.375258544921875,-0.9374644756317139,4.2636189460754395,-0.9459757804870605
1684252356809284600,4.38528466796875,-1.270040512084961,3.6183533668518066,-1.5480307340621948
1684252356819310600,4.395310546875,-1.4462614059448242,3.0711910724639893,-1.938951849937439
1684252356829336600,4.405336669921875,-1.4871127605438232,2.6236824989318848,-2.1503305435180664
1684252356839362600,4.415362548828125,-1.431298851966858,2.1682183742523193,-2.1728579998016357
1684252356849388500,4.425388427734375,-1.2956887483596802,1.5195730924606323,-1.9594099521636963
1684252356859414500,4.43541455078125,-1.0662106275558472,0.673724889755249,-1.565658450126648
1684252356869440800,4.445440673828125,-0.6962975859642029,-0.22064557671546936,-1.2731528282165527
1684252356879466800,4.455466796875,-0.22300121188163757,-0.8171288371086121,-1.2870253324508667
1684252356889492700,4.46549267578125,0.28993797302246094,-1.0053373575210571,-1.4862425327301025
1684252356899518700,4.475518798828125,0.7668400406837463,-0.9891857504844666,-1.6941077709197998
1684252356909544700,4.485544677734375,1.1853994131088257,-0.9078565835952759,-1.6910488605499268
1684252356919570700,4.49557080078125,1.5989444255828857,-0.6301091909408569,-1.801478385925293
1684252356929596700,4.5055966796875,1.9817208051681519,-0.2514471113681793,-2.1995394229888916
1684252356939622700,4.51562255859375,2.45127534866333,-0.2535770535469055,-2.6516904830932617
1684252356949648600,4.525648681640625,2.9094486236572266,-0.873766303062439,-2.765950918197632
1684252356959674600,4.535674560546875,3.0629334449768066,-1.6441999673843384,-2.4603195190429688
1684252356969700600,4.54570068359375,2.754044771194458,-1.895359754562378,-2.0750036239624023
1684252356979726800,4.555726806640625,2.0942277908325195,-1.2552003860473633,-1.6745635271072388
1684252356989752800,4.5657529296875,1.2781100273132324,-0.17218680679798126,-1.244113802909851
1684252356999777800,4.57577783203125,0.5534043312072754,0.5920010209083557,-0.887573778629303
1684252357009803800,4.5858037109375,0.10454822331666946,0.7242423892021179,-0.7168976068496704
1684252357019829800,4.595829833984375,-0.08143863826990128,0.5542144775390625,-0.6703101992607117
1684252357029855700,4.605855712890625,-0.08221814036369324,0.278504341840744,-0.6932916641235352
1684252357039881700,4.6158818359375,0.01749647967517376,0.028139976784586906,-0.7242966890335083
1684252357049907700,4.62590771484375,0.133936807513237,-0.22508002817630768,-0.7149487137794495
1684252357059933700,4.63593359375,0.25741320848464966,-0.41959795355796814,-0.6124628186225891
1684252357069959700,4.645959716796875,0.3455542325973511,-0.5495639443397522,-0.41396015882492065
1684252357079985700,4.655985595703125,0.3381393253803253,-0.7467076778411865,-0.19793732464313507
1684252357090011600,4.66601171875,0.2762903571128845,-1.0428149700164795,0.04530887305736542
1684252357100037600,4.67603759765625,0.2402106076478958,-1.3166958093643188,0.3121338188648224
1684252357110063900,4.68606396484375,0.20119450986385345,-1.5191653966903687,0.4959600865840912
1684252357120089900,4.69608984375,0.04845341295003891,-1.861158013343811,0.549977719783783
1684252357130116000,4.7061162109375,-0.1790982484817505,-2.245468854904175,0.5637880563735962
1684252357140142000,4.71614208984375,-0.42933306097984314,-2.53129243850708,0.5460397601127625
1684252357150168000,4.72616796875,-0.6805458068847656,-2.7285408973693848,0.48333078622817993
1684252357160194000,4.736194091796875,-0.9368658065795898,-2.8350019454956055,0.43200939893722534
1684252357170219800,4.7462197265625,-1.1483896970748901,-2.864339828491211,0.3936084806919098
1684252357180245800,4.756245849609375,-1.2608003616333008,-2.8606789112091064,0.28035372495651245
1684252357190271700,4.766271728515625,-1.3056540489196777,-2.895728349685669,0.14353938400745392
1684252357200297700,4.776297607421875,-1.3188886642456055,-2.9349212646484375,0.06615925580263138
1684252357210323000,4.786322998046875,-1.308159589767456,-2.857901096343994,0.11734095215797424
1684252357220349000,4.796348876953125,-1.2772307395935059,-2.6085033416748047,0.2980685532093048
1684252357230375000,4.806375,-1.246593952178955,-2.280040979385376,0.5513716340065002
1684252357240401200,4.816401123046875,-1.2214607000350952,-2.056567907333374,0.8318939805030823
1684252357250427000,4.826427001953125,-1.2407550811767578,-2.055840492248535,1.069505214691162
1684252357260452900,4.836452880859375,-1.3040777444839478,-2.200300455093384,1.2462961673736572
1684252357270478800,4.846478759765625,-1.3885380029678345,-2.167698860168457,1.4401202201843262
1684252357280504800,4.8565048828125,-1.5332502126693726,-1.7680141925811768,1.6084283590316772
1684252357290530800,4.86653076171875,-1.7171705961227417,-1.2590676546096802,1.5900429487228394
1684252357300556800,4.876556884765625,-1.876318097114563,-0.9642903208732605,1.2313061952590942
1684252357310582800,4.886582763671875,-1.9986685514450073,-0.8182332515716553,0.534662127494812
1684252357320608800,4.89660888671875,-2.020190477371216,-1.0605595111846924,-0.4594469964504242
1684252357330634800,4.906634765625,-1.8477085828781128,-1.5657742023468018,-1.58218514919281
1684252357340660700,4.91666064453125,-1.494065284729004,-1.9284882545471191,-2.50797438621521
1684252357350687000,4.92668701171875,-1.3130112886428833,-1.7659707069396973,-3.0072181224823
1684252357360713000,4.936712890625,-1.3027511835098267,-1.1535919904708862,-3.0548999309539795
1684252357370739000,4.946739013671875,-1.4757286310195923,-0.9233692288398743,-2.9449214935302734
1684252357380765000,4.956764892578125,-1.8010590076446533,-1.4670155048370361,-2.775501012802124
1684252357390791000,4.966791015625,-2.1185355186462402,-2.3839025497436523,-2.4585602283477783
1684252357400817000,4.97681689453125,-2.2857754230499268,-3.4236743450164795,-1.8956184387207031
1684252357410843000,4.9868427734375,-2.299506187438965,-4.473934173583984,-1.1452933549880981
1684252357420867800,4.996867919921875,-2.2581405639648438,-5.272945404052734,-1.8827933073043823
1684252357430893800,5.006893798828125,-1.410050630569458,-3.9200356006622314,-2.7884361743927
1684252357440919800,5.016919921875,-0.19974231719970703,-0.5498353242874146,-0.997455358505249
1684252357450945800,5.02694580078125,0.7452042102813721,3.866391181945801,0.6635856032371521
1684252357460971800,5.0369716796875,1.402815818786621,7.871395111083984,1.7514538764953613
1684252357470997800,5.046997802734375,1.588387370109558,10.313289642333984,2.22712779045105
1684252357481024000,5.05702392578125,1.1435644626617432,10.348580360412598,2.1682474613189697
1684252357491050000,5.067050048828125,0.4925566017627716,8.645617485046387,1.919310212135315
1684252357501076000,5.077075927734375,-0.02241317182779312,5.903317451477051,1.452702283859253
1684252357511102000,5.08710205078125,-0.43495118618011475,2.6220338344573975,0.6624201536178589
1684252357521128000,5.0971279296875,-0.6886624097824097,-1.1469476222991943,-0.27645593881607056
1684252357531154000,5.10715380859375,-0.6129742860794067,-4.207863807678223,-0.8956371545791626
1684252357541180000,5.117179931640625,-0.29469627141952515,-5.942503929138184,-1.012014389038086
1684252357551206000,5.127205810546875,0.17518600821495056,-6.454024791717529,-0.7840755581855774
1684252357561232000,5.13723193359375,0.6654685139656067,-6.170206069946289,-0.3642783463001251
1684252357571257900,5.1472578125,0.9995919466018677,-5.8002777099609375,0.08930672705173492
1684252357581284000,5.1572841796875,1.20061194896698,-5.918361663818359,0.5447409749031067
1684252357591310000,5.16731005859375,1.3631871938705444,-7.511073589324951,1.0183801651000977
1684252357601336000,5.177336181640625,0.9298492074012756,-9.360801696777344,-0.45340976119041443
1684252357611362000,5.187362060546875,0.10873619467020035,-7.126333236694336,-2.920783042907715
1684252357621387000,5.197386962890625,-0.1484573483467102,-3.0792152881622314,-2.858323335647583
1684252357631413000,5.2074130859375,-0.21289387345314026,-0.06461227685213089,-0.6429526209831238
1684252357641439000,5.21743896484375,-0.5626124739646912,1.6956075429916382,0.9715594053268433
1684252357651465000,5.22746484375,-0.9529491066932678,2.73045015335083,1.552953839302063
1684252357661491000,5.237490966796875,-1.3674277067184448,3.052278757095337,1.4635124206542969
1684252357671517000,5.247516845703125,-1.6527457237243652,2.7090401649475098,1.0077764987945557
1684252357681543000,5.25754296875,-1.7031933069229126,2.1361255645751953,0.5174181461334229
1684252357691569000,5.26756884765625,-1.4980788230895996,1.6937310695648193,0.14108048379421234
1684252357701595000,5.277594970703125,-1.1229112148284912,1.4393116235733032,-0.08041202276945114
1684252357711621000,5.28762109375,-0.6702591180801392,1.1867257356643677,-0.16522039473056793
1684252357721647000,5.297647216796875,-0.2116725742816925,0.8572338819503784,-0.13108417391777039
1684252357731673000,5.307673095703125,0.19823025166988373,0.3665747046470642,-0.021235713735222816
1684252357741699000,5.317698974609375,0.5182093977928162,-0.2921637296676636,0.12595008313655853
1684252357751725000,5.32772509765625,0.719589114189148,-0.971246063709259,0.25677892565727234
1684252357761751000,5.3377509765625,0.8077424168586731,-1.4416581392288208,0.33456525206565857
1684252357771777000,5.347777099609375,0.8364068269729614,-1.6619057655334473,0.32265186309814453
1684252357781803000,5.357802978515625,0.8562198877334595,-1.6950719356536865,0.2162291705608368
1684252357791829000,5.3678291015625,0.8614383339881897,-1.5835014581680298,0.03282339125871658
1684252357801855000,5.37785498046875,0.8392460346221924,-1.4330247640609741,-0.13110493123531342
1684252357811880700,5.387880615234375,0.7769346833229065,-1.3727768659591675,-0.20418526232242584
1684252357821907000,5.397906982421875,0.6616318821907043,-1.2713855504989624,-0.1545245200395584
1684252357831932000,5.407931884765625,0.4768042266368866,-0.9584241509437561,-0.012529291212558746
1684252357841958100,5.417958251953125,0.2714671194553375,-0.476362407207489,0.18721553683280945
1684252357851984100,5.427984130859375,0.058327414095401764,-0.0022946910466998816,0.3981599807739258
1684252357862010000,5.438010009765625,-0.15063759684562683,0.3375348150730133,0.5730403661727905
1684252357872036000,5.4480361328125,-0.32824110984802246,0.4888042211532593,0.6790501475334167
1684252357882062000,5.45806201171875,-0.4592292606830597,0.5073764324188232,0.7026110887527466
1684252357892088000,5.468088134765625,-0.5581497550010681,0.36618149280548096,0.6748971939086914
1684252357902113800,5.47811376953125,-0.635505735874176,0.10337582975625992,0.6027504205703735
1684252357912139800,5.488139892578125,-0.6896142363548279,-0.16479863226413727,0.511121392250061
1684252357922165800,5.498165771484375,-0.7319861054420471,-0.348843514919281,0.38720208406448364
1684252357932191700,5.508191650390625,-0.756733238697052,-0.44706833362579346,0.2640545666217804
1684252357942217700,5.5182177734375,-0.7599671483039856,-0.5069987177848816,0.16917550563812256
1684252357952244000,5.528243896484375,-0.7641296982765198,-0.5893774628639221,0.10574914515018463
1684252357962270000,5.53827001953125,-0.7864336967468262,-0.7349743247032166,0.08285097032785416
1684252357972296000,5.5482958984375,-0.8173367381095886,-0.9588209986686707,0.07360260933637619
1684252357982322000,5.558322021484375,-0.8559547662734985,-1.2343636751174927,0.04083281382918358
1684252357992348000,5.568347900390625,-0.9145238399505615,-1.566607117652893,-0.07089903950691223
1684252358002374000,5.578373779296875,-0.9768815636634827,-1.931148886680603,-0.33849313855171204
1684252358012399900,5.58839990234375,-0.9538529515266418,-2.0714924335479736,-0.7604933977127075
1684252358022425900,5.59842578125,-0.7889160513877869,-1.7728644609451294,-1.2358297109603882
1684252358032451800,5.608451904296875,-0.5124152302742004,-1.370603084564209,-1.7079647779464722
1684252358042477800,5.618477783203125,-0.22039306163787842,-1.375096082687378,-2.3471829891204834
1684252358052502800,5.628502685546875,-0.023862432688474655,-1.7837765216827393,-3.2297801971435547
1684252358062528800,5.63852880859375,-0.0015541487373411655,-2.243813991546631,-4.140444278717041
1684252358072554800,5.6485546875,0.02436133846640587,-2.547243356704712,-4.660726070404053
1684252358082581000,5.6585810546875,0.1874261051416397,-2.946319341659546,-4.4389190673828125
1684252358092607000,5.66860693359375,0.37901416420936584,-3.3253836631774902,-3.6107568740844727
1684252358102633000,5.678633056640625,0.5285781621932983,-3.071126699447632,-2.4698941707611084
1684252358112659000,5.688658935546875,0.7065020799636841,-2.4776954650878906,-1.5886751413345337
1684252358122685000,5.698684814453125,1.0195029973983765,-1.775626540184021,-0.864992618560791
1684252358132711000,5.7087109375,1.2451915740966797,-0.05049097537994385,-0.7098227143287659
1684252358142737000,5.71873681640625,1.438104271888733,2.4922213554382324,-1.1136449575424194
1684252358152763000,5.728762939453125,1.651963233947754,5.355785369873047,-1.456388235092163
1684252358162788900,5.738788818359375,1.6358782052993774,6.137887001037598,-1.9936389923095703
1684252358172814800,5.74881494140625,1.1865288019180298,4.474597930908203,-2.1392056941986084
1684252358182840800,5.7588408203125,0.42970287799835205,2.5795373916625977,-2.031766414642334
1684252358192867000,5.7688671875,-0.519280195236206,2.1637537479400635,-1.8911091089248657
1684252358202893000,5.77889306640625,-1.109459400177002,2.795931816101074,-1.7306257486343384
1684252358212919000,5.7889189453125,-1.2429481744766235,3.437864065170288,-1.3461917638778687
1684252358222945000,5.798945068359375,-0.9169109463691711,3.505493640899658,-0.5622023344039917
1684252358232971000,5.808970947265625,-0.29895129799842834,2.76843523979187,0.4187330901622772
1684252358242997000,5.8189970703125,0.3808305561542511,1.6759519577026367,1.1486268043518066
1684252358253023000,5.82902294921875,0.981220006942749,0.5021909475326538,1.242143988609314
1684252358263048000,5.8390478515625,1.4530295133590698,-0.6264548301696777,0.6502106189727783
1684252358273074000,5.849073974609375,1.8237102031707764,-1.2343355417251587,-0.21147991716861725
1684252358283100000,5.859099853515625,2.027122974395752,-1.2318059206008911,-0.9080572128295898
1684252358293126000,5.8691259765625,2.0768446922302246,-1.066931128501892,-1.1917307376861572
1684252358303151900,5.87915185546875,2.002370595932007,-1.020650863647461,-0.9994323253631592
1684252358313177900,5.889177734375,1.8455555438995361,-1.0505530834197998,-0.4355982542037964
1684252358323204000,5.8992041015625,1.6270076036453247,-1.0650572776794434,0.2042008489370346
1684252358333230000,5.90922998046875,1.414021611213684,-0.8005033731460571,0.6356292366981506
1684252358343256000,5.919256103515625,1.267004132270813,-0.17103073000907898,0.7866132855415344
1684252358353282000,5.929281982421875,1.1901122331619263,0.8485381007194519,0.7540122270584106
1684252358363308000,5.93930810546875,1.126725435256958,2.0147933959960938,0.7766140103340149
1684252358373334000,5.949333984375,0.9717728495597839,2.98201060295105,0.9637801647186279
1684252358383360000,5.959360107421875,0.6695027947425842,3.4252865314483643,1.1908961534500122
1684252358393386000,5.969385986328125,0.30698856711387634,3.4047393798828125,1.3404228687286377
1684252358403412000,5.979411865234375,-0.005785271059721708,3.102107286453247,1.3681308031082153
1684252358413438000,5.98943798828125,-0.2217782884836197,2.6286590099334717,1.2242956161499023
1684252358423464000,5.9994638671875,-0.28679755330085754,2.0982649326324463,0.9790005087852478
1684252358433490000,6.009489990234375,-0.20989131927490234,1.6408089399337769,0.7264870405197144
1684252358443516000,6.019515869140625,-0.025506241247057915,1.246811032295227,0.4554615914821625
1684252358453542000,6.0295419921875,0.2428240180015564,0.901928186416626,0.19191250205039978
1684252358463568000,6.03956787109375,0.5058187246322632,0.6134307384490967,0.0021078246645629406
1684252358473593000,6.049593017578125,0.6997964382171631,0.4127362072467804,-0.08745774626731873
1684252358483619000,6.059619140625,0.7917795777320862,0.30905359983444214,-0.08584833890199661
1684252358493645000,6.06964501953125,0.799933910369873,0.32745763659477234,-0.03780677542090416
1684252358503671000,6.079671142578125,0.774271547794342,0.4569617807865143,-0.05521435663104057
1684252358513697000,6.089697021484375,0.7653267979621887,0.6707281470298767,-0.12606774270534515
1684252358523723000,6.099722900390625,0.8023967146873474,0.8406638503074646,-0.1538965106010437
1684252358533749000,6.1097490234375,0.8684329986572266,0.8440932035446167,-0.16482079029083252
1684252358543774700,6.119774658203125,0.9525842070579529,0.7635074257850647,-0.19245272874832153
1684252358553800700,6.12980078125,1.013667106628418,0.6372709274291992,-0.19304367899894714
1684252358563827000,6.139826904296875,1.0330722332000732,0.4696950912475586,-0.15687152743339539
1684252358573853000,6.14985302734375,1.0609421730041504,0.31624773144721985,-0.12921060621738434
1684252358583879000,6.15987890625,1.132318139076233,0.22470039129257202,-0.13984596729278564
1684252358593905000,6.16990478515625,1.222361445426941,0.1543378084897995,-0.19278109073638916
1684252358603931000,6.179930908203125,1.3176206350326538,0.07636656612157822,-0.26016730070114136
1684252358613956900,6.189956787109375,1.4262107610702515,-0.006487837992608547,-0.2881307601928711
1684252358623982800,6.19998291015625,1.520043969154358,-0.1202893778681755,-0.24024073779582977
1684252358634008800,6.2100087890625,1.5748350620269775,-0.26555708050727844,-0.12671497464179993
1684252358644034800,6.220034912109375,1.582969307899475,-0.3549213707447052,0.028526730835437775
1684252358654060800,6.230060791015625,1.5474907159805298,-0.30013030767440796,0.17851515114307404
1684252358664086800,6.240086669921875,1.4678653478622437,-0.1593569666147232,0.3196781873703003
1684252358674113000,6.250113037109375,1.3622217178344727,-0.02320711500942707,0.4894499182701111
1684252358684137700,6.2601376953125,1.2565516233444214,0.017057448625564575,0.7033073902130127
1684252358694164000,6.2701640625,1.1615862846374512,-0.03219052776694298,0.9500841498374939
1684252358704190000,6.28018994140625,1.0606244802474976,-0.12865127623081207,1.1795042753219604
1684252358714216000,6.2902158203125,0.9325554966926575,-0.21214431524276733,1.3499902486801147
1684252358724242000,6.300241943359375,0.7865644693374634,-0.25140365958213806,1.4752951860427856
1684252358734268000,6.310267822265625,0.6362407207489014,-0.2928136885166168,1.5801910161972046
1684252358744294000,6.3202939453125,0.47275620698928833,-0.378238707780838,1.695204257965088
1684252358754320000,6.33031982421875,0.2810690402984619,-0.5076563954353333,1.8305418491363525
1684252358764345900,6.340345947265625,0.014381629414856434,-0.6289522051811218,1.9797792434692383
1684252358774371800,6.350371826171875,-0.32579565048217773,-0.6616678237915039,2.125507116317749
1684252358784397800,6.360397705078125,-0.7217262983322144,-0.5716797113418579,2.2302839756011963
1684252358794423800,6.370423828125,-1.160236120223999,-0.31903359293937683,2.269270896911621
1684252358804450000,6.380449951171875,-1.6310310363769531,-0.04277314245700836,2.2329421043395996
1684252358814476000,6.39047607421875,-2.0967650413513184,0.12992674112319946,2.152879238128662
1684252358824502000,6.400501953125,-2.519197702407837,0.1300010085105896,2.086153268814087
1684252358834528000,6.410528076171875,-2.806979179382324,-0.05033281445503235,2.0736935138702393
1684252358844554000,6.420553955078125,-2.85648775100708,-0.5565569996833801,2.1975700855255127
1684252358854580000,6.430580078125,-2.669828176498413,-1.1067397594451904,2.43461275100708
1684252358864606000,6.44060595703125,-2.435692548751831,-1.3833401203155518,2.672074794769287
1684252358874632000,6.4506318359375,-2.303725004196167,-1.2350033521652222,2.7589876651763916
1684252358884657000,6.460656982421875,-2.2814130783081055,-0.461830198764801,2.6187245845794678
1684252358894683000,6.470682861328125,-2.360568046569824,0.6530907154083252,2.3387808799743652
1684252358904708900,6.480708984375,-2.3537492752075195,2.4218814373016357,2.0197176933288574
1684252358914734800,6.49073486328125,-1.244158387184143,0.4531165659427643,-0.33895203471183777
1684252358924760800,6.5007607421875,1.4000970125198364,-5.9909467697143555,-2.8702051639556885
1684252358934787000,6.510787109375,2.6888198852539062,-3.225504159927368,-3.161818504333496
1684252358944813000,6.52081298828125,3.255983591079712,-0.4851709008216858,-3.289884090423584
1684252358954839000,6.530839111328125,2.75334095954895,-7.266064643859863,-1.4481334686279297
1684252358964865000,6.540864990234375,2.0337376594543457,-10.186729431152344,-0.3274666368961334
1684252358974891000,6.55089111328125,1.477523684501648,-6.817155838012695,-0.39781299233436584
1684252358984917000,6.5609169921875,1.1081069707870483,-3.2111475467681885,-0.6444920301437378
1684252358994943000,6.57094287109375,0.8179891109466553,-0.2403174340724945,-0.7149821519851685
1684252359004969000,6.580968994140625,0.5646961331367493,1.9738497734069824,-0.25468960404396057
1684252359014995000,6.590994873046875,0.26718804240226746,3.2191965579986572,0.5718927383422852
1684252359025021000,6.60102099609375,-0.17724448442459106,3.895602226257324,0.9557178616523743
1684252359035047000,6.611046875,-0.7445891499519348,4.619718551635742,0.9382437467575073
1684252359045073200,6.6210732421875,-1.3276559114456177,5.348815441131592,0.7626627683639526
1684252359055099100,6.63109912109375,-1.839927077293396,5.7724995613098145,0.629935622215271
1684252359065124900,6.641124755859375,-2.243558406829834,5.488689422607422,0.7497946619987488
1684252359075150800,6.65115087890625,-2.4274935722351074,4.465776443481445,1.1575437784194946
1684252359085176800,6.6611767578125,-2.389112949371338,3.207576036453247,1.6191378831863403
1684252359095202800,6.671202880859375,-2.199671506881714,2.4524919986724854,1.9079198837280273
1684252359105228000,6.68122802734375,-1.9087008237838745,2.2919037342071533,1.9851473569869995
1684252359115254000,6.69125390625,-1.5584850311279297,2.4496066570281982,1.885151982307434
1684252359125279700,6.70127978515625,-1.2559263706207275,2.6347105503082275,1.6630488634109497
1684252359135305700,6.7113056640625,-1.0045133829116821,2.706923723220825,1.3982126712799072
1684252359145331700,6.721331787109375,-0.7989872097969055,2.5580966472625732,1.1651544570922852
1684252359155357700,6.731357666015625,-0.6734181046485901,2.148444175720215,1.0001146793365479
1684252359165383700,6.7413837890625,-0.6239690184593201,1.5323777198791504,0.8865810632705688
1684252359175410000,6.751409912109375,-0.6080986857414246,0.8762543797492981,0.8014041185379028
1684252359185435600,6.761435546875,-0.58450847864151,0.4111756980419159,0.7119572162628174
1684252359195461600,6.771461669921875,-0.5096899271011353,0.31971290707588196,0.6185793280601501
1684252359205487600,6.781487548828125,-0.36512771248817444,0.4428061246871948,0.5310351848602295
1684252359215513600,6.791513671875,-0.13947834074497223,0.5350953340530396,0.4612419605255127
1684252359225539600,6.80153955078125,0.1520940512418747,0.4037643373012543,0.4346950054168701
1684252359235565600,6.811565673828125,0.47237083315849304,0.018726909533143044,0.44530025124549866
1684252359245591600,6.821591552734375,0.7460241913795471,-0.5104320645332336,0.46281471848487854
1684252359255617500,6.831617431640625,0.8859168887138367,-1.08445405960083,0.4388502538204193
1684252359265643500,6.8416435546875,0.8899539113044739,-1.5852656364440918,0.34836170077323914
1684252359275669500,6.85166943359375,0.7807421684265137,-1.8768274784088135,0.21910732984542847
1684252359285695700,6.86169580078125,0.5845655202865601,-1.9041402339935303,0.0808631032705307
1684252359295721700,6.8717216796875,0.3529176712036133,-1.7119132280349731,-0.052441686391830444
1684252359305747700,6.881747802734375,0.13646897673606873,-1.4029266834259033,-0.16855932772159576
1684252359315772700,6.891772705078125,-0.06405587494373322,-1.1260520219802856,-0.20582520961761475
1684252359325798700,6.901798583984375,-0.24240373075008392,-0.9572530388832092,-0.1559371054172516
1684252359335824600,6.91182470703125,-0.3832226097583771,-0.7975233197212219,-0.0242171511054039
1684252359345850600,6.9218505859375,-0.4568811357021332,-0.5798590779304504,0.16752301156520844
1684252359355876600,6.931876708984375,-0.4563700556755066,-0.3656167984008789,0.4348207414150238
1684252359365902600,6.941902587890625,-0.42170411348342896,-0.11901988834142685,0.7532069683074951
1684252359375928600,6.951928466796875,-0.37712278962135315,0.3574846088886261,1.0312856435775757
1684252359385954600,6.96195458984375,-0.32335689663887024,1.073482632637024,1.2201470136642456
1684252359395980500,6.97198046875,-0.23413966596126556,1.8756682872772217,1.3054763078689575
1684252359406006500,6.982006591796875,-0.14534658193588257,2.553616523742676,1.2980421781539917
1684252359416032800,6.99203271484375,-0.07558640837669373,3.0055453777313232,1.2026504278182983
1684252359426058800,7.002058837890625,-0.010263053700327873,3.323192596435547,1.0369012355804443
1684252359436084700,7.012084716796875,0.07060036808252335,3.622199058532715,0.8274098038673401
1684252359446110700,7.02211083984375,0.17679902911186218,3.934767961502075,0.6010401248931885
1684252359456136700,7.03213671875,0.3089360296726227,4.310157299041748,0.38686609268188477
1684252359466162700,7.04216259765625,0.4662037789821625,4.81532621383667,0.18592259287834167
1684252359476188700,7.052188720703125,0.6863073706626892,5.478804588317871,0.0069757490418851376
1684252359486214700,7.062214599609375,0.977247416973114,6.252094745635986,-0.15471680462360382
1684252359496240600,7.07224072265625,1.2720973491668701,6.982761859893799,-0.3163360357284546
1684252359506266600,7.0822666015625,1.541020393371582,7.401353359222412,-0.4798215925693512
1684252359516292600,7.092292724609375,1.763871669769287,7.403223991394043,-0.5977186560630798
1684252359526317600,7.102317626953125,1.8938766717910767,6.9744038581848145,-0.6334982514381409
1684252359536343600,7.112343505859375,1.9365053176879883,6.031364917755127,-0.6076221466064453
1684252359546369800,7.122369873046875,1.9080134630203247,4.458864212036133,-0.6674581170082092
1684252359556395800,7.132395751953125,1.8427300453186035,2.6824569702148438,-0.766850471496582
1684252359566421800,7.142421875,1.7378476858139038,1.1550991535186768,-0.8422925472259521
1684252359576447700,7.15244775390625,1.6103390455245972,0.03635178133845329,-0.8949314951896667
1684252359586473700,7.1624736328125,1.57368803024292,-0.7540322542190552,-0.8929906487464905
1684252359596499700,7.172499755859375,1.5908247232437134,-1.217116355895996,-0.7826780080795288
1684252359606525700,7.182525634765625,1.6769732236862183,-1.370492696762085,-0.5651618242263794
1684252359616551700,7.1925517578125,1.7828106880187988,-1.3127645254135132,-0.23987725377082825
1684252359626577700,7.20257763671875,1.7985825538635254,-1.0330595970153809,0.0979481041431427
1684252359636603600,7.212603759765625,1.664968490600586,-0.26429927349090576,0.36696863174438477
1684252359646629600,7.222629638671875,1.4201711416244507,0.8469935655593872,0.5806974172592163
1684252359656656000,7.23265576171875,1.1345716714859009,2.1441948413848877,0.7884125113487244
1684252359666681900,7.242681884765625,0.8807563781738281,3.2733161449432373,1.081656813621521
1684252359676707800,7.252707763671875,0.7872650623321533,4.106230735778809,1.5152884721755981
1684252359686733800,7.26273388671875,0.7677984833717346,4.363771915435791,2.0046792030334473
1684252359696759800,7.272759765625,0.7683926224708557,4.026853561401367,2.4551990032196045
1684252359706785800,7.282785888671875,0.7868754267692566,3.3911283016204834,2.8363499641418457
1684252359716811800,7.292811767578125,0.819409966468811,2.7592504024505615,3.0896928310394287
1684252359726837800,7.302837646484375,0.8502718210220337,2.1654767990112305,3.1746103763580322
1684252359736863500,7.312863525390625,0.8625229001045227,1.6283365488052368,3.0493111610412598
1684252359746888700,7.322888671875,0.8342361450195312,1.318362832069397,2.7692556381225586
1684252359756914700,7.332914794921875,0.8039618730545044,1.3834353685379028,2.4661054611206055
1684252359766940700,7.342940673828125,0.7892189025878906,1.7669751644134521,2.232408285140991
1684252359776966700,7.352966552734375,0.7838776707649231,2.3281898498535156,2.0756237506866455
1684252359786993000,7.362992919921875,0.7731536626815796,2.9407825469970703,1.9806395769119263
1684252359797019000,7.373018798828125,0.7493534684181213,3.432969331741333,1.941440224647522
1684252359807044900,7.383044921875,0.716500461101532,3.6079344749450684,1.9790089130401611
1684252359817070800,7.39307080078125,0.6897695064544678,3.4805171489715576,2.061934471130371
1684252359827096600,7.4030966796875,0.711741030216217,3.2502365112304688,2.165015459060669
1684252359837122600,7.41312255859375,0.7778974175453186,3.0041308403015137,2.2670226097106934
1684252359847148500,7.4231484375,0.8237772583961487,2.7174556255340576,2.355088233947754
1684252359857174500,7.433174560546875,0.8141640424728394,2.407679796218872,2.4234633445739746
1684252359867200500,7.443200439453125,0.7488213181495667,2.0623064041137695,2.4754364490509033
1684252359877226500,7.4532265625,0.6551827192306519,1.7165367603302002,2.5178592205047607
1684252359887252500,7.46325244140625,0.5367816090583801,1.4196463823318481,2.5233516693115234
1684252359897278700,7.47327880859375,0.4143044352531433,1.2175921201705933,2.5213239192962646
1684252359907304700,7.4833046875,0.29618310928344727,1.1338833570480347,2.513578414916992
1684252359917330700,7.49333056640625,0.19125190377235413,1.235452651977539,2.499767780303955
1684252359927356700,7.503356689453125,0.10530354827642441,1.531253695487976,2.475477933883667
1684252359937382700,7.513382568359375,0.03871466591954231,2.0644302368164062,2.4312548637390137
1684252359947407600,7.52340771484375,-0.0326518677175045,2.731983184814453,2.398522138595581
1684252359957433600,7.53343359375,-0.0829310193657875,3.3474018573760986,2.409113883972168
1684252359967459600,7.54345947265625,-0.08125291764736176,3.834437370300293,2.4767611026763916
1684252359977485600,7.553485595703125,-0.01701240986585617,4.158539295196533,2.612109422683716
1684252359987511600,7.563511474609375,0.11401639133691788,4.300095558166504,2.8059639930725098
1684252359997537500,7.57353759765625,0.27240389585494995,4.284755229949951,3.0145814418792725
1684252360007563500,7.5835634765625,0.40312355756759644,4.130375385284424,3.170441150665283
1684252360017589500,7.593589599609375,0.4879087507724762,3.802947998046875,3.2588553428649902
1684252360027615700,7.60361572265625,0.5290638208389282,3.275217056274414,3.3276939392089844
1684252360037641700,7.613641845703125,0.5269596576690674,2.5065271854400635,3.437192440032959
1684252360047667700,7.623667724609375,0.5227722525596619,1.455599308013916,3.5996618270874023
1684252360057693700,7.633693603515625,0.4875125288963318,0.3257755935192108,3.7424099445343018
1684252360067719700,7.6437197265625,0.36753568053245544,-0.5411444902420044,3.767709970474243
1684252360077745700,7.65374560546875,0.19538389146327972,-1.0404936075210571,3.632412910461426
1684252360087771600,7.663771728515625,-0.00026203575544059277,-1.2517859935760498,3.3048601150512695
1684252360097797600,7.673797607421875,-0.13725876808166504,-1.2671725749969482,2.7411468029022217
1684252360107823600,7.68382373046875,-0.1917729675769806,-1.1528321504592896,1.9507145881652832
1684252360117849600,7.693849609375,-0.18907731771469116,-0.8098928928375244,1.0700291395187378
1684252360127876400,7.70387646484375,-0.1969199776649475,0.18082119524478912,0.33514532446861267
1684252360137902300,7.71390234375,-0.30693382024765015,2.099858045578003,-0.09808360040187836
1684252360147928300,7.72392822265625,-0.45576784014701843,4.040413856506348,-0.2640826106071472
1684252360157954300,7.733954345703125,-0.5888960361480713,4.998425006866455,-0.19301508367061615
1684252360167979300,7.743979248046875,-0.6866710186004639,5.104142665863037,0.20136545598506927
1684252360178005200,7.754005126953125,-0.7650834918022156,4.814867973327637,0.9434472918510437
1684252360188031200,7.76403125,-0.8198190331459045,3.727933168411255,2.1056971549987793
1684252360198057200,7.77405712890625,-0.8672110438346863,2.146580934524536,3.1273996829986572
1684252360208083200,7.784083251953125,-0.9053100347518921,1.1560977697372437,3.461153507232666
1684252360218109200,7.794109130859375,-0.8832276463508606,0.8072956204414368,3.3452084064483643
1684252360228135200,7.80413525390625,-0.8340807557106018,0.962363600730896,3.0221261978149414
1684252360238161200,7.8141611328125,-0.7501770853996277,1.5048047304153442,2.604506015777588
1684252360248187100,7.824187255859375,-0.6067852973937988,2.253521203994751,2.2003743648529053
1684252360258213400,7.83421337890625,-0.4186876118183136,2.9289495944976807,1.9059722423553467
1684252360268239400,7.8442392578125,-0.21438933908939362,3.21169114112854,1.794657826423645
1684252360278265300,7.854265380859375,-0.046570785343647,2.8918116092681885,1.882140874862671
1684252360288291300,7.864291259765625,0.01756613329052925,1.9761403799057007,2.1423232555389404
1684252360298317300,7.8743173828125,-0.013395778834819794,0.9337802529335022,2.3805458545684814
1684252360308343300,7.88434326171875,-0.08909251540899277,0.4862440824508667,2.312307596206665
1684252360318369000,7.894369140625,-0.1746969074010849,0.8603215217590332,1.8514598608016968
1684252360328395000,7.90439501953125,-0.21218222379684448,1.5209107398986816,1.131717324256897
1684252360338421000,7.9144208984375,-0.14589561522006989,1.9987324476242065,0.3906901180744171
1684252360348447000,7.924447021484375,0.016474649310112,2.3822720050811768,-0.2540050148963928
1684252360358473000,7.934472900390625,0.2003353089094162,2.8106398582458496,-0.7506310343742371
1684252360368499200,7.944499267578125,0.3617934286594391,3.189455270767212,-1.1141098737716675
1684252360378525200,7.954525146484375,0.4891737699508667,3.431925058364868,-1.3708369731903076
1684252360388550400,7.96455029296875,0.5644763708114624,3.4841222763061523,-1.5252571105957031
1684252360398576400,7.974576416015625,0.6021369695663452,3.2936060428619385,-1.56868577003479
1684252360408602000,7.98460205078125,0.6281377077102661,2.5993330478668213,-1.36698579788208
1684252360418628000,7.994628173828125,0.662223219871521,1.4974101781845093,-0.9423642158508301
1684252360428654000,8.004654052734375,0.6581242084503174,0.5653980374336243,-0.5455431342124939
1684252360438680000,8.01468017578125,0.5445638298988342,0.03611396253108978,-0.28815340995788574
1684252360448706000,8.0247060546875,0.3805307149887085,-0.1847115457057953,-0.10378311574459076
1684252360458732000,8.03473193359375,0.26984521746635437,-0.20643043518066406,0.1133505329489708
1684252360468758000,8.044758056640624,0.22908572852611542,-0.05531250685453415,0.3475775122642517
1684252360478784000,8.054783935546874,0.24058471620082855,0.19453194737434387,0.5902971625328064
1684252360488810000,8.06481005859375,0.26121777296066284,0.4750613272190094,0.8122612833976746
1684252360498836200,8.074836181640626,0.2519422471523285,0.7314486503601074,0.9904432892799377
1684252360508862200,8.0848623046875,0.20834881067276,0.976069450378418,1.121762752532959
1684252360518888200,8.09488818359375,0.15911069512367249,1.1963129043579102,1.2209711074829102
1684252360528914200,8.1049140625,0.12266585975885391,1.3493930101394653,1.3281524181365967
1684252360538940200,8.114940185546875,0.11751743406057358,1.3903779983520508,1.5030709505081177
1684252360548966100,8.124966064453124,0.12376447021961212,1.189693808555603,1.9059813022613525
1684252360558992100,8.1349921875,0.11062390357255936,0.8050363659858704,2.4680874347686768
1684252360569018000,8.14501806640625,0.03428773581981659,0.5366634726524353,2.89920973777771
1684252360579044000,8.155044189453125,-0.09966873377561569,0.3459765911102295,3.180727481842041
1684252360589070000,8.165070068359375,-0.2367183119058609,0.1843646764755249,3.33015775680542
1684252360599095000,8.175094970703125,-0.2294212430715561,1.7687220573425293,3.030211925506592
1684252360609121000,8.18512109375,-0.019650686532258987,3.6849868297576904,1.978368878364563
1684252360619147000,8.19514697265625,0.1351468861103058,4.644084930419922,0.5728744864463806
1684252360629173200,8.20517333984375,0.15109649300575256,4.628060340881348,-0.8982005715370178
1684252360639199200,8.21519921875,0.08511800318956375,3.967092990875244,-2.1282737255096436
1684252360649225200,8.22522509765625,0.07108618319034576,2.9330787658691406,-2.9194791316986084
1684252360659251200,8.235251220703125,0.2039414346218109,1.7174698114395142,-3.2695248126983643
1684252360669277200,8.245277099609375,0.4814528822898865,0.63295978307724,-3.3132882118225098
1684252360679303200,8.25530322265625,0.7720093131065369,-0.03604758158326149,-3.1870484352111816
1684252360689329200,8.2653291015625,0.9327569007873535,0.12446612119674683,-2.998899221420288
1684252360699355100,8.275355224609376,0.9743789434432983,0.8366749882698059,-2.7471141815185547
1684252360709381000,8.285381103515626,1.0046308040618896,1.671478033065796,-2.3781332969665527
1684252360719407000,8.295406982421875,1.0755620002746582,2.2662787437438965,-1.9211864471435547
1684252360729433000,8.30543310546875,1.0895122289657593,2.0286872386932373,-1.7028307914733887
1684252360739459300,8.315459228515625,1.0842949151992798,1.4509227275848389,-1.55740487575531
1684252360749485300,8.3254853515625,1.1084933280944824,0.9666960835456848,-1.3236796855926514
1684252360759511300,8.33551123046875,1.1549098491668701,0.7279655337333679,-1.0677027702331543
1684252360769537300,8.345537353515626,1.2005631923675537,0.7639330625534058,-0.836206316947937
1684252360779563300,8.355563232421876,1.231244683265686,0.9862952828407288,-0.6482369899749756
1684252360789589200,8.36558935546875,1.2210088968276978,1.2798802852630615,-0.5760870575904846
1684252360799615200,8.375615234375,1.1765966415405273,1.5405187606811523,-0.6236473917961121
1684252360809640200,8.38564013671875,1.144300937652588,1.75797438621521,-0.6692346930503845
1684252360819666200,8.395666259765624,1.1014304161071777,1.6775144338607788,-0.6747479438781738
1684252360829692200,8.405692138671874,1.0832394361495972,1.4057261943817139,-0.5352697968482971
1684252360839718100,8.41571826171875,1.1028002500534058,1.1265268325805664,-0.3271019756793976
1684252360849744100,8.425744140625,1.1941243410110474,1.0883848667144775,-0.14625786244869232
1684252360859770000,8.43577001953125,1.2508004903793335,1.1438286304473877,-0.07583668828010559
1684252360869796400,8.44579638671875,1.1968616247177124,1.2087448835372925,-0.08643365651369095
1684252360879822300,8.455822265625,1.1080734729766846,1.2330405712127686,-0.06392434984445572
1684252360889848300,8.465848388671875,1.0296717882156372,1.118098258972168,0.03327728062868118
1684252360899874300,8.475874267578124,0.9998998045921326,0.8788274526596069,0.2015637457370758
1684252360909900300,8.485900390625,1.0050082206726074,0.5719463229179382,0.3621145486831665
1684252360919926300,8.49592626953125,0.9870886206626892,0.2583300471305847,0.47379183769226074
1684252360929952300,8.5059521484375,0.9437243342399597,-0.031695298850536346,0.5388182997703552
1684252360939978200,8.515978271484375,0.876297652721405,-0.28142470121383667,0.5958698391914368
1684252360950004200,8.526004150390625,0.8282480835914612,-0.4390918016433716,0.6843948364257812
1684252360960030000,8.536030029296874,0.7947977185249329,-0.5267137885093689,0.8251908421516418
1684252360970056200,8.54605615234375,0.7570960521697998,-0.5943767428398132,1.0344393253326416
1684252360980082200,8.556082275390626,0.6963445544242859,-0.7039085626602173,1.3015005588531494
1684252360990108200,8.566108154296876,0.5937255620956421,-0.9000458717346191,1.6008272171020508
1684252361000134100,8.576134033203125,0.4087951183319092,-1.1904326677322388,1.887898325920105
1684252361010160000,8.58616015625,0.204762801527977,-1.4242157936096191,2.1521387100219727
1684252361020186000,8.59618603515625,-0.030498985201120377,-1.5578404664993286,2.429781675338745
1684252361030211300,8.60621142578125,-0.310928612947464,-1.6875860691070557,2.671645402908325
1684252361040237300,8.6162373046875,-0.6032389998435974,-1.8081433773040771,2.8508870601654053
1684252361050263000,8.626262939453126,-0.8873242735862732,-1.8681344985961914,2.9462156295776367
1684252361060289000,8.6362890625,-1.1713086366653442,-1.8435859680175781,2.9511771202087402
1684252361070315000,8.64631494140625,-1.4646903276443481,-1.7761293649673462,2.85123872756958
1684252361080341000,8.656341064453125,-1.7562599182128906,-1.6854175329208374,2.619781970977783
1684252361090367000,8.666366943359375,-2.0114901065826416,-1.481522798538208,2.304002285003662
1684252361100393200,8.676393310546874,-2.1691768169403076,-1.1002174615859985,1.934195876121521
1684252361110419200,8.686419189453124,-2.2529218196868896,-0.6181321740150452,1.5709377527236938
1684252361120445200,8.696445068359376,-2.305807113647461,-0.19990643858909607,1.3005175590515137
1684252361130470400,8.706470458984375,-2.318450450897217,0.06417252868413925,1.1968263387680054
1684252361140496400,8.716496337890625,-2.302823066711426,0.10693570226430893,1.2681576013565063
1684252361150522400,8.7265224609375,-2.3030002117156982,-0.25576579570770264,1.3751198053359985
1684252361160548400,8.73654833984375,-2.3641817569732666,-0.9735116362571716,1.4360705614089966
1684252361170574300,8.74657421875,-2.5504953861236572,-1.8335137367248535,1.4163997173309326
1684252361180600300,8.756600341796876,-2.903247833251953,-2.3055174350738525,1.198953628540039
1684252361190626300,8.766626220703126,-3.1862175464630127,-2.0908944606781006,0.6066458225250244
1684252361200652300,8.77665234375,-2.7942659854888916,-1.3237900733947754,-0.41803205013275146
1684252361210678300,8.78667822265625,-1.631884217262268,-0.9132418036460876,-1.3066812753677368
1684252361220704300,8.796704345703125,-0.3325739800930023,-0.49922066926956177,-1.3200900554656982
1684252361230730500,8.80673046875,0.39270374178886414,0.18436256051063538,-1.0107229948043823
1684252361240755200,8.816755126953124,0.5252892374992371,1.1468592882156372,-0.8299506306648254
1684252361250781400,8.826781494140626,0.2844092547893524,2.500915050506592,-0.8118939399719238
1684252361260807400,8.836807373046875,-0.19737334549427032,3.8811898231506348,-0.8055071830749512
1684252361270833400,8.84683349609375,-0.7012274861335754,5.026721477508545,-0.6641989350318909
1684252361280859400,8.856859375,-1.205448865890503,3.9779927730560303,-0.7460099458694458
1684252361290885400,8.866885498046875,-1.47272527217865,1.6905382871627808,-0.8813044428825378
1684252361300911400,8.876911376953124,-1.4623907804489136,0.3486339747905731,-0.776615560054779
1684252361310937300,8.886937255859374,-1.2209343910217285,-0.04059085622429848,-0.5465391278266907
1684252361320963300,8.89696337890625,-0.776921272277832,-0.547603189945221,-0.23469732701778412
1684252361330989300,8.9069892578125,-0.1925346851348877,-1.5357798337936401,0.042729221284389496
1684252361341015300,8.917015380859375,0.43060851097106934,-3.2909257411956787,0.13858942687511444
1684252361351041300,8.927041259765625,0.9933382272720337,-5.288576602935791,0.03556742146611214
1684252361361067500,8.937067626953125,1.316576600074768,-6.353151798248291,-0.03553418442606926
1684252361371093500,8.947093505859375,1.355932354927063,-6.145051956176758,0.00936758704483509
1684252361381119500,8.957119384765624,1.2856699228286743,-5.264778137207031,0.09087682515382767
1684252361391145500,8.9671455078125,1.1184637546539307,-4.84439754486084,0.001021440140902996
1684252361401171500,8.97717138671875,0.8566103577613831,-4.8773322105407715,-0.4642714262008667
1684252361411197400,8.987197509765625,0.5267284512519836,-4.037449359893799,-1.399402379989624
1684252361421223400,8.997223388671875,0.4135763347148895,-1.8356976509094238,-1.720314621925354
1684252361431249400,9.00724951171875,0.5576355457305908,0.28216180205345154,-1.2958805561065674
1684252361441275400,9.017275390625,0.8108925223350525,1.173172950744629,-0.510621964931488
1684252361451301400,9.02730126953125,0.9522808194160461,1.1034830808639526,0.36522385478019714
1684252361461326300,9.037326416015626,0.8382522463798523,1.1622611284255981,0.9196913838386536
1684252361471352300,9.047352294921875,0.5314153432846069,1.435673475265503,1.1186450719833374
1684252361481378300,9.05737841796875,0.15547046065330505,1.5816107988357544,1.0524765253067017
1684252361491404500,9.067404541015625,-0.23325176537036896,1.3962712287902832,0.7887746095657349
1684252361501430500,9.077430419921875,-0.5227211117744446,0.9079532623291016,0.471965491771698
1684252361511456500,9.08745654296875,-0.6456873416900635,0.2817141115665436,0.20997226238250732
1684252361521482500,9.097482421875,-0.5978106260299683,-0.37612634897232056,0.03400655463337898
1684252361531508500,9.107508544921876,-0.47139227390289307,-0.965292751789093,-0.05312005430459976
1684252361541534500,9.117534423828126,-0.3742840886116028,-1.3974775075912476,-0.14813418686389923
1684252361551560400,9.127560546875,-0.3320784270763397,-1.6546272039413452,-0.3684796690940857
1684252361561586400,9.13758642578125,-0.31095021963119507,-1.7165576219558716,-0.6755256056785583
1684252361571612400,9.1476123046875,-0.32871875166893005,-1.646578311920166,-0.8606735467910767
1684252361581638400,9.157638427734375,-0.38124266266822815,-1.531225562095642,-0.840843915939331
1684252361591664400,9.167664306640624,-0.45872071385383606,-1.3805656433105469,-0.6307752132415771
1684252361601690600,9.177690673828126,-0.5315746665000916,-1.0958439111709595,-0.33762434124946594
1684252361611716600,9.187716552734376,-0.5712176561355591,-0.6337640881538391,-0.08735323697328568
1684252361621742600,9.19774267578125,-0.5792058110237122,-0.13656283915042877,0.06664804369211197
1684252361631768600,9.2077685546875,-0.5573118329048157,0.3029705584049225,0.15272387862205505
1684252361641794600,9.217794677734375,-0.5011383295059204,0.6272943019866943,0.23965159058570862
1684252361651820500,9.227820556640625,-0.39611366391181946,0.8226627111434937,0.3300412893295288
1684252361661846300,9.23784619140625,-0.25265583395957947,0.9191868305206299,0.3928548991680145
1684252361671872300,9.247872314453126,-0.0913139209151268,0.9171911478042603,0.39832624793052673
1684252361681897500,9.2578974609375,0.02477274090051651,0.846897304058075,0.3355802893638611
1684252361691923500,9.26792333984375,0.07337207347154617,0.7219375371932983,0.2268446832895279
1684252361701949400,9.277949462890625,0.08490382879972458,0.5434301495552063,0.10379412025213242
1684252361711975400,9.287975341796875,0.09331473708152771,0.33959272503852844,-0.016613364219665527
1684252361722001400,9.29800146484375,0.1324205994606018,0.12953457236289978,-0.12416698783636093
1684252361732027600,9.308027587890624,0.20698441565036774,-0.08731746673583984,-0.21805578470230103
1684252361742053600,9.3180537109375,0.295340895652771,-0.3144803047180176,-0.3150545060634613
1684252361752079400,9.328079345703125,0.36991825699806213,-0.5463346838951111,-0.4329904615879059
1684252361762105300,9.338105224609375,0.4246089458465576,-0.8095647096633911,-0.5785543322563171
1684252361772131300,9.34813134765625,0.45816904306411743,-1.0981420278549194,-0.7465419769287109
1684252361782157300,9.3581572265625,0.49230995774269104,-1.3315038681030273,-0.9223090410232544
1684252361792183300,9.368183349609374,0.565028965473175,-1.4607394933700562,-1.0791852474212646
1684252361802209300,9.378209228515624,0.6664791703224182,-1.509937047958374,-1.19235098361969
1684252361812235300,9.3882353515625,0.75905841588974,-1.5059568881988525,-1.2648437023162842
1684252361822261200,9.39826123046875,0.8266022801399231,-1.5047576427459717,-1.3329905271530151
1684252361832287200,9.408287353515625,0.8892019391059875,-1.688452124595642,-1.4711633920669556
1684252361842313500,9.4183134765625,0.9486746191978455,-2.1496524810791016,-1.7206871509552002
1684252361852339500,9.42833935546875,1.0134309530258179,-2.8750271797180176,-2.0817716121673584
1684252361862365400,9.438365478515625,1.0785932540893555,-3.734341859817505,-2.4849655628204346
1684252361872391400,9.448391357421874,1.1490864753723145,-4.614373683929443,-2.8492660522460938
1684252361882417400,9.45841748046875,1.229952096939087,-5.4529218673706055,-3.0844924449920654
1684252361892443400,9.468443359375,1.3612598180770874,-6.1701531410217285,-3.130479574203491
1684252361902468400,9.47846826171875,1.5038760900497437,-6.550656795501709,-2.9595963954925537
1684252361912494300,9.488494384765625,1.6941038370132446,-6.219121932983398,-2.558753490447998
1684252361922520300,9.498520263671875,2.0476508140563965,-4.920397758483887,-2.165518283843994
1684252361932546300,9.50854638671875,2.3921985626220703,-2.802297353744507,-1.606239676475525
1684252361942572300,9.518572265625,2.409252882003784,-0.2595449984073639,-1.0212550163269043
1684252361952598300,9.528598388671876,2.153247833251953,1.5048463344573975,-0.49435049295425415
1684252361962624300,9.538624267578125,1.5266315937042236,1.2785745859146118,0.2881608009338379
1684252361972650500,9.548650390625,0.7053237557411194,0.9801110029220581,1.0781450271606445
1684252361982676500,9.558676513671875,0.15755844116210938,1.5186485052108765,1.360236644744873
1684252361992702500,9.568702392578125,0.07648994773626328,2.3969833850860596,1.247103214263916
1684252362002728400,9.578728515625,0.22716361284255981,2.9759955406188965,1.193840742111206
1684252362012754400,9.58875439453125,0.34808874130249023,2.9801571369171143,1.3034534454345703
1684252362022780400,9.598780517578126,0.33889898657798767,2.4429187774658203,1.5088119506835938
1684252362032806400,9.608806396484376,0.20184020698070526,1.8181661367416382,1.720705509185791
1684252362042832400,9.618832275390625,-0.1097927913069725,1.3056786060333252,1.898841381072998
1684252362052858400,9.6288583984375,-0.5133551359176636,0.9574643969535828,1.9171509742736816
1684252362062884400,9.63888427734375,-0.8649209141731262,0.7524065971374512,1.6119053363800049
1684252362072910300,9.648910400390625,-0.9906929731369019,0.6901436448097229,1.027762532234192
1684252362082936600,9.6589365234375,-0.8819161057472229,0.917718768119812,0.3724469244480133
1684252362092962600,9.668962646484376,-0.6882430911064148,1.215851068496704,-0.14101874828338623
1684252362102988500,9.678988525390626,-0.5333275198936462,1.3182283639907837,-0.5355104207992554
1684252362113014500,9.6890146484375,-0.45594489574432373,1.0464357137680054,-0.9232361912727356
1684252362123039500,9.69903955078125,-0.40173786878585815,0.4497414529323578,-1.2700148820877075
1684252362133066500,9.70906640625,-0.32768362760543823,-0.453095942735672,-1.4399158954620361
1684252362143092500,9.719092529296875,-0.15970687568187714,-1.5842925310134888,-1.296464204788208
1684252362153118500,9.729118408203124,0.0747436061501503,-2.4694268703460693,-0.8950904607772827
1684252362163144400,9.73914453125,0.32243090867996216,-2.6774024963378906,-0.49424293637275696
1684252362173170400,9.74917041015625,0.6033133864402771,-2.459529399871826,-0.2533314526081085
1684252362183196700,9.75919677734375,0.9438983798027039,-2.0276386737823486,-0.17406007647514343
1684252362193222400,9.769222412109375,1.3283107280731201,-1.3806421756744385,-0.18444180488586426
1684252362203248400,9.779248291015625,1.6657660007476807,-0.5706726312637329,-0.2700064778327942
1684252362213274400,9.7892744140625,1.8695307970046997,0.16067582368850708,-0.44192495942115784
1684252362223300400,9.79930029296875,1.8656854629516602,0.687074601650238,-0.6533056497573853
1684252362233326300,9.809326416015624,1.6252925395965576,1.0193779468536377,-0.8775765299797058
1684252362243352300,9.819352294921876,1.211186170578003,1.0357190370559692,-1.028707504272461
1684252362253378300,9.82937841796875,0.8147149085998535,0.5955497026443481,-0.990103006362915
1684252362263404300,9.839404296875,0.6544357538223267,-0.12858620285987854,-0.7469707727432251
1684252362273430300,9.84943017578125,0.7054157853126526,-0.7766295075416565,-0.4279707670211792
1684252362283456300,9.859456298828125,0.8184789419174194,-1.0660713911056519,-0.22391162812709808
1684252362293482500,9.869482421875,0.9240782260894775,-0.8394039273262024,-0.13806818425655365
1684252362303508500,9.879508544921874,0.9804174304008484,-0.30226728320121765,-0.12720248103141785
1684252362313534500,9.889534423828126,0.9766636490821838,0.28670984506607056,-0.13122107088565826
1684252362323560400,9.899560546875,0.8975893259048462,0.6445191502571106,-0.09098975360393524
1684252362333586400,9.90958642578125,0.7327421307563782,0.6581001877784729,-0.05951639264822006
1684252362343612400,9.9196123046875,0.4985158145427704,0.5186187028884888,-0.08979599922895432
1684252362353637400,9.929637451171875,0.2134077101945877,0.5683026909828186,-0.1387033760547638
1684252362363663400,9.939663330078124,-0.05600833147764206,1.0550779104232788,-0.15791356563568115
1684252362373689300,9.949689453125,-0.2477489560842514,1.6392101049423218,-0.1807497888803482
1684252362383715300,9.95971533203125,-0.40372100472450256,1.5755277872085571,-0.3034890294075012
1684252362393741300,9.9697412109375,-0.5765241980552673,0.9019607901573181,-0.46971189975738525
1684252362403767300,9.979767333984375,-0.7925933599472046,0.34869810938835144,-0.6156485676765442
1684252362413793300,9.989793212890625,-1.0311235189437866,0.358250230550766,-0.6766199469566345
1684252362423819500,9.999819580078125,-1.2315725088119507,0.7556929588317871,-0.7066444158554077
1684252362433845500,10.009845458984374,-1.398206353187561,1.244966745376587,-0.8124250769615173
1684252362443871500,10.01987158203125,-1.5586440563201904,1.5586689710617065,-0.9638153910636902
1684252362453897500,10.0298974609375,-1.6983429193496704,1.5994768142700195,-1.0683218240737915
1684252362463923500,10.03992333984375,-1.7549036741256714,1.400041937828064,-1.0499653816223145
1684252362473949400,10.049949462890625,-1.7481986284255981,1.13608717918396,-0.9246562123298645
1684252362483975400,10.059975341796875,-1.7028939723968506,0.8462806940078735,-0.7274848222732544
1684252362494001400,10.07000146484375,-1.6832948923110962,0.5648176670074463,-0.5381632447242737
1684252362504027400,10.08002734375,-1.7506464719772339,0.34467044472694397,-0.4101927578449249
1684252362514053400,10.090053466796874,-1.8680384159088135,0.2002231478691101,-0.29812267422676086
1684252362524079400,10.100079345703126,-1.960716724395752,0.037443824112415314,-0.10274068266153336
1684252362534105600,10.110105712890626,-1.9914960861206055,-0.06751541793346405,0.2065594345331192
1684252362544131600,10.120131591796875,-1.929591417312622,-0.10715470463037491,0.673394501209259
1684252362554156500,10.130156494140625,-1.9120122194290161,-0.68141770362854,1.3043962717056274
1684252362564182500,10.1401826171875,-1.8112035989761353,-2.5732169151306152,2.120396137237549
1684252362574208500,10.15020849609375,-0.6377551555633545,-7.180839538574219,2.448521614074707
1684252362584234500,10.160234375,1.4725186824798584,-7.721973896026611,1.9013183116912842
1684252362594260500,10.170260498046876,3.161489963531494,-5.6167683601379395,0.15571610629558563
1684252362604286500,10.180286376953125,3.4538426399230957,-3.904752731323242,-2.6785571575164795
1684252362614312400,10.1903125,1.8157094717025757,-2.7483322620391846,-4.47529411315918
1684252362624338400,10.20033837890625,0.32650089263916016,-7.817092418670654,-2.6857409477233887
1684252362634364400,10.210364501953125,0.002691620960831642,-6.909651756286621,0.6955414414405823
1684252362644390400,10.220390380859374,-0.6019120216369629,-1.1935316324234009,0.7306286096572876
1684252362654416400,10.23041650390625,-0.9769386649131775,3.2834198474884033,0.2689253091812134
1684252362664442600,10.240442626953126,-0.9120662212371826,5.372375965118408,0.7053647041320801
1684252362674468600,10.250468505859375,-0.692754328250885,4.757877826690674,1.4550803899765015
1684252362684494600,10.26049462890625,-0.7763123512268066,2.489736557006836,1.6852741241455078
1684252362694520600,10.2705205078125,-1.0366672277450562,1.8902254104614258,1.3646117448806763
1684252362704546600,10.280546630859375,-1.1486749649047852,1.6159112453460693,0.8869413733482361
1684252362714572500,10.290572509765624,-1.1144742965698242,1.0069453716278076,0.5763832926750183
1684252362724598500,10.3005986328125,-1.0416061878204346,0.5221216082572937,0.5832393169403076
1684252362734624500,10.31062451171875,-1.0382276773452759,0.2413124293088913,0.6197486519813538
1684252362744650200,10.320650146484375,-1.0835195779800415,0.10697885602712631,0.6187422275543213
1684252362754676200,10.33067626953125,-1.146259069442749,-0.026177531108260155,0.5932072401046753
1684252362764702200,10.3407021484375,-1.159268856048584,-0.21217350661754608,0.579841136932373
1684252362774727400,10.3507275390625,-1.0880937576293945,-0.40261077880859375,0.5887680053710938
1684252362784753400,10.36075341796875,-0.9429564476013184,-0.5594725608825684,0.6140968203544617
1684252362794779600,10.370779541015626,-0.7546828389167786,-0.7690121531486511,0.5952786803245544
1684252362804805600,10.3808056640625,-0.6135608553886414,-0.9817342758178711,0.4598609209060669
1684252362814831600,10.39083154296875,-0.5405153632164001,-1.0062637329101562,0.24840040504932404
1684252362824857600,10.400857666015625,-0.5045304894447327,-0.9077438712120056,0.048033230006694794
1684252362834883300,10.41088330078125,-0.46035706996917725,-0.8367213010787964,-0.06398800015449524
1684252362844909300,10.420909423828125,-0.36377862095832825,-0.7738230228424072,-0.05292150005698204
1684252362854935300,10.430935302734374,-0.19910497963428497,-0.6064004302024841,0.06024693697690964
1684252362864961300,10.440961181640626,-0.025558223947882652,-0.3210799992084503,0.20112869143486023
1684252362874987300,10.4509873046875,0.0886317789554596,0.018467094749212265,0.31186607480049133
1684252362885013200,10.46101318359375,0.1287938505411148,0.35122427344322205,0.37916600704193115
1684252362895039200,10.471039306640625,0.11189763993024826,0.5923187136650085,0.3989376425743103
1684252362905065500,10.4810654296875,0.06465395539999008,0.7419835925102234,0.4040975272655487
1684252362915091500,10.491091552734375,0.04360837861895561,0.8290650248527527,0.4454834759235382
1684252362925117400,10.501117431640624,0.025326576083898544,0.8440647721290588,0.5172250270843506
1684252362935143400,10.511143310546874,-0.025743262842297554,0.8318899869918823,0.557895302772522
1684252362945169400,10.52116943359375,-0.11434157192707062,0.8881495594978333,0.5718574523925781
1684252362955195400,10.5311953125,-0.20631617307662964,1.0322315692901611,0.5850387215614319
1684252362965221400,10.541221435546875,-0.28670182824134827,1.2116271257400513,0.6216244101524353
1684252362975247400,10.551247314453125,-0.331671804189682,1.3598546981811523,0.7123416066169739
1684252362985273300,10.5612734375,-0.3515632152557373,1.4153707027435303,0.8489575386047363
1684252362995298300,10.57129833984375,-0.33938953280448914,1.3720884323120117,0.9776690602302551
1684252363005324300,10.58132421875,-0.31966644525527954,1.2855147123336792,1.0890523195266724
1684252363015350300,10.591350341796876,-0.3081466853618622,1.1723822355270386,1.1741660833358765
1684252363025376300,10.601376220703125,-0.3054049611091614,1.0873175859451294,1.2230979204177856
1684252363035402500,10.611402587890625,-0.29763805866241455,1.0230602025985718,1.2489705085754395
1684252363045428500,10.621428466796875,-0.278067022562027,0.9096364378929138,1.25124990940094
1684252363055454500,10.631454345703125,-0.26028305292129517,0.7037408351898193,1.2298882007598877
1684252363065480400,10.64148046875,-0.2361454963684082,0.44257494807243347,1.2006281614303589
1684252363075506400,10.65150634765625,-0.21347063779830933,0.15498696267604828,1.1416693925857544
1684252363085532400,10.661532470703126,-0.18762946128845215,-0.12766523659229279,1.0528534650802612
1684252363095558400,10.671558349609375,-0.16164101660251617,-0.44408729672431946,0.9250277876853943
1684252363105584400,10.68158447265625,-0.1397905796766281,-0.77350252866745,0.7537801265716553
1684252363115610400,10.6916103515625,-0.1371164619922638,-1.0930702686309814,0.545436441898346
1684252363125636400,10.70163623046875,-0.1496032178401947,-1.5150039196014404,0.3599931001663208
1684252363135661600,10.71166162109375,-0.16718576848506927,-1.9904773235321045,0.22817665338516235
1684252363145687600,10.7216875,-0.19291482865810394,-2.442167282104492,0.1628759503364563
1684252363155713500,10.731713623046875,-0.22686423361301422,-2.6244986057281494,0.09509892016649246
1684252363165739800,10.74173974609375,-0.3040309250354767,-2.1161818504333496,-0.08467910438776016
1684252363175765800,10.751765869140625,-0.37080249190330505,-1.141282320022583,-0.37260913848876953
1684252363185791700,10.761791748046875,-0.39237356185913086,-0.32232943177223206,-0.6628851890563965
1684252363195817700,10.771817626953125,-0.4369271397590637,0.07330980151891708,-0.9366506934165955
1684252363205843700,10.78184375,-0.4736478626728058,0.15812616050243378,-1.1871942281723022
1684252363215868700,10.79186865234375,-0.4631081223487854,0.2140253782272339,-1.4658913612365723
1684252363225894700,10.801894775390625,-0.393496572971344,0.4668493866920471,-1.786610722541809
1684252363235920600,10.811920654296875,-0.3286481201648712,0.6628169417381287,-2.1009950637817383
1684252363245946600,10.821946533203125,-0.1485702246427536,1.3833138942718506,-3.1872777938842773
1684252363255972600,10.83197265625,-0.05501443147659302,1.7890257835388184,-4.535432815551758
1684252363265998600,10.84199853515625,-0.09142836928367615,1.2212488651275635,-4.99445104598999
1684252363276024600,10.852024658203124,0.16415365040302277,0.8038229942321777,-4.938425540924072
1684252363286050600,10.862050537109376,0.7022139430046082,1.1633760929107666,-4.883452415466309
1684252363296076800,10.872076904296875,1.305120587348938,2.1878552436828613,-4.883751392364502
1684252363306102800,10.882102783203125,1.7094736099243164,3.513850450515747,-4.853875637054443
1684252363316128800,10.892128662109375,1.758097767829895,4.7291669845581055,-4.437156677246094
1684252363326154800,10.90215478515625,1.5794544219970703,4.57069206237793,-3.575573682785034
1684252363336180700,10.9121806640625,1.1831104755401611,2.887817859649658,-2.276726245880127
1684252363346206700,10.922206787109374,0.8983852863311768,1.2261297702789307,-0.9590672254562378
1684252363356232700,10.932232666015626,0.7557368278503418,0.19228187203407288,-0.06532886624336243
1684252363366258700,10.9422587890625,0.680853545665741,-0.30437609553337097,0.5276212692260742
1684252363376284700,10.95228466796875,0.6078622937202454,-0.4950295388698578,1.125273585319519
1684252363386310700,10.962310546875,0.5031031370162964,-0.7741420865058899,1.8242545127868652
1684252363396337000,10.9723369140625,0.4238693118095398,-1.505383849143982,2.638633966445923
1684252363406363000,10.98236279296875,0.4007895588874817,-2.710899591445923,3.4038074016571045
1684252363416388900,10.992388916015624,0.5356189608573914,-4.327580451965332,3.537118434906006
1684252363426414800,11.002414794921876,1.2431696653366089,-4.362231254577637,2.204982280731201
1684252363436440800,11.01244091796875,2.1014697551727295,-2.046093463897705,0.6298509240150452
1684252363446465800,11.0224658203125,2.6176791191101074,0.9981001615524292,-0.44995757937431335
1684252363456491800,11.03249169921875,2.6225311756134033,3.585338830947876,-0.9821960926055908
1684252363466517800,11.042517822265625,2.193650722503662,4.8250322341918945,-1.0906490087509155
1684252363476543700,11.052543701171874,1.7082799673080444,4.071014881134033,-0.6179224252700806
1684252363486569700,11.06256982421875,1.3533998727798462,2.6407558917999268,0.39403802156448364
1684252363496595700,11.072595703125,1.063150405883789,1.6615827083587646,1.4605048894882202
1684252363506621700,11.08262158203125,0.7637526988983154,1.0796735286712646,2.1547465324401855
1684252363516647700,11.092647705078125,0.5001809000968933,0.8436855673789978,2.1924800872802734
1684252363526674000,11.102673828125,0.36411815881729126,1.1413553953170776,1.6538660526275635
1684252363536699600,11.11269970703125,0.3675013780593872,1.7288360595703125,1.0450434684753418
1684252363546725600,11.1227255859375,0.4159594774246216,2.427682876586914,0.642974317073822
1684252363556751600,11.132751708984374,0.4667234420776367,2.8486552238464355,0.4176750183105469
1684252363566777600,11.142777587890626,0.5057587027549744,2.767632484436035,0.29236263036727905
1684252363576803600,11.152803466796875,0.5775660276412964,2.2621421813964844,0.17402410507202148
1684252363586829600,11.16282958984375,0.7286252975463867,1.5373408794403076,0.05062839761376381
1684252363596855600,11.17285546875,0.9320144653320312,0.873659610748291,-0.070279560983181
1684252363606881500,11.182881591796875,1.1087541580200195,0.5280612111091614,-0.19754724204540253
1684252363616907500,11.192907470703124,1.1881394386291504,0.584780216217041,-0.33607226610183716
1684252363626933500,11.20293359375,1.1452125310897827,0.7813308238983154,-0.48698747158050537
1684252363636959700,11.212959716796876,1.0610604286193848,0.8078299760818481,-0.5076751112937927
1684252363646985700,11.22298583984375,0.9729850888252258,0.6951764225959778,-0.3764646053314209
1684252363657011700,11.23301171875,0.8937423229217529,0.9585676193237305,-0.15197908878326416
1684252363667036700,11.24303662109375,0.821779191493988,1.2696197032928467,0.0010331002995371819
1684252363677062700,11.253062744140625,0.7710762023925781,0.939647376537323,-0.05188342183828354
1684252363687088600,11.263088623046874,0.7378258109092712,-0.035481590777635574,-0.16639775037765503
1684252363697114600,11.273114501953126,0.682070255279541,-0.7295713424682617,-0.07587605714797974
1684252363707140600,11.283140625,0.525753378868103,-0.7036694288253784,0.21289396286010742
1684252363717166600,11.29316650390625,0.2300269454717636,-0.1970047801733017,0.6112698316574097
1684252363727192600,11.303192626953125,-0.2409307211637497,0.19055227935314178,1.0017201900482178
1684252363737218600,11.313218505859375,-0.7792057991027832,0.07466534525156021,1.2465497255325317
1684252363747244500,11.32324462890625,-1.251379370689392,-0.36035534739494324,1.3944026231765747
1684252363757270500,11.3332705078125,-1.5897473096847534,-0.8401630520820618,1.4859013557434082
1684252363767296800,11.343296875,-1.8267028331756592,-1.2658333778381348,1.5602214336395264
1684252363777322800,11.35332275390625,-2.006711959838867,-1.6155904531478882,1.663002371788025
1684252363787348700,11.3633486328125,-2.1621057987213135,-1.814011573791504,1.8284491300582886
1684252363797374700,11.373374755859375,-2.2906954288482666,-1.9862141609191895,2.12152361869812
1684252363807400700,11.383400634765625,-2.4118783473968506,-2.3574085235595703,2.5291013717651367
1684252363817426700,11.3934267578125,-2.5338406562805176,-2.732736587524414,3.0077521800994873
1684252363827452700,11.40345263671875,-2.5972366333007812,-2.9542696475982666,3.3969738483428955
1684252363837478700,11.413478759765624,-2.279989242553711,-4.7348175048828125,2.836608409881592
1684252363847504600,11.423504638671876,-0.4904436469078064,-8.858491897583008,-1.024941086769104
1684252363857530600,11.433530517578125,1.3597270250320435,-8.239263534545898,-3.347153663635254
1684252363867556600,11.443556640625,2.546609878540039,-4.901238918304443,-3.489623546600342
1684252363877582800,11.453582763671875,2.8610782623291016,-9.088753700256348,-3.5619194507598877
1684252363887607600,11.463607666015625,2.298417806625366,-13.418562889099121,-2.056748151779175
1684252363897633800,11.4736337890625,1.0509222745895386,-8.683133125305176,-2.0218513011932373
1684252363907659800,11.48365966796875,0.10256271809339523,0.40011322498321533,-1.0447771549224854
1684252363917685800,11.493685791015626,-0.4116773009300232,3.8780696392059326,0.7386536598205566
1684252363927711700,11.503711669921875,-0.9795852303504944,4.6354804039001465,1.5528392791748047
1684252363937737700,11.51373779296875,-1.4742649793624878,4.675205707550049,1.842280387878418
1684252363947763700,11.523763671875,-1.8834294080734253,4.4159932136535645,1.9679224491119385
1684252363957789700,11.533789794921875,-2.1619815826416016,3.570197105407715,2.0513784885406494
1684252363967815700,11.543815673828124,-2.317345142364502,1.8642023801803589,1.9530571699142456
1684252363977841700,11.553841552734376,-2.364384412765503,0.6741191744804382,1.5522453784942627
1684252363987867600,11.56386767578125,-2.326657772064209,0.7313867211341858,1.097184181213379
1684252363997893600,11.5738935546875,-2.174302816390991,1.2662367820739746,0.7609949111938477
1684252364007919900,11.583919921875,-1.9563267230987549,1.3801875114440918,0.5496160984039307
1684252364017945900,11.59394580078125,-1.7296555042266846,1.069310188293457,0.45879554748535156
1684252364027971800,11.603971923828125,-1.495378851890564,1.0450695753097534,0.44896450638771057
1684252364037997800,11.613997802734374,-1.2946019172668457,1.408172845840454,0.4770728051662445
1684252364048023800,11.62402392578125,-1.1827834844589233,1.731125831604004,0.5485818982124329
1684252364058049800,11.6340498046875,-1.1210216283798218,1.72891366481781,0.6690263748168945
1684252364068075800,11.64407568359375,-1.0299873352050781,1.6107012033462524,0.8350486159324646
1684252364078101800,11.654101806640625,-0.846463143825531,1.5858694314956665,1.0270085334777832
1684252364088127500,11.66412744140625,-0.6021442413330078,1.640596628189087,1.2158293724060059
1684252364098153500,11.674153564453125,-0.3521503508090973,1.7372426986694336,1.3646987676620483
1684252364108178700,11.6841787109375,-0.11223309487104416,1.8165467977523804,1.4545499086380005
1684252364118204700,11.69420458984375,0.11124745011329651,1.8176395893096924,1.485313892364502
1684252364128231000,11.70423095703125,0.2928270995616913,1.8094266653060913,1.450913429260254
1684252364138257200,11.714257080078125,0.35857313871383667,1.846619725227356,1.3351879119873047
1684252364148283000,11.724282958984375,0.25712189078330994,1.9281591176986694,1.1879342794418335
1684252364158308900,11.734308837890625,0.08583685010671616,2.066042900085449,1.0520656108856201
1684252364168334800,11.7443349609375,-0.14734581112861633,2.090297222137451,0.8918401598930359
1684252364178360800,11.75436083984375,-0.4918161630630493,1.9900668859481812,0.7325141429901123
1684252364188386800,11.76438671875,-0.8489553928375244,1.9138957262039185,0.6261605024337769
1684252364198412800,11.774412841796876,-1.1031156778335571,1.9355151653289795,0.5833646655082703
1684252364208438800,11.784438720703125,-1.1797752380371094,1.8675949573516846,0.4785043001174927
1684252364218464800,11.79446484375,-1.1600661277770996,1.8145265579223633,0.37969937920570374
1684252364228490800,11.80449072265625,-0.9979872107505798,1.930450677871704,0.35912832617759705
1684252364238517000,11.81451708984375,-0.8916781544685364,1.9919931888580322,0.2670723497867584
1684252364248543000,11.82454296875,-0.8269175291061401,2.1025478839874268,0.16867521405220032
1684252364258569000,11.83456884765625,-0.46946749091148376,2.3638200759887695,0.1589633971452713
1684252364268595000,11.844594970703126,0.0022552963346242905,2.5866823196411133,0.12635032832622528
1684252364278621000,11.854620849609375,0.4336739778518677,2.761887550354004,0.00022792292293161154
1684252364288647000,11.86464697265625,0.7492029070854187,2.7820005416870117,-0.2154495120048523
1684252364298673000,11.8746728515625,0.9797267913818359,2.5796492099761963,-0.48391100764274597
1684252364308699000,11.884698974609375,1.1439801454544067,2.1299641132354736,-0.7841813564300537
1684252364318724900,11.894724853515624,1.2995237112045288,1.518424391746521,-1.065769910812378
1684252364328749800,11.904749755859376,1.4412609338760376,0.8248829245567322,-1.12709641456604
1684252364338775800,11.91477587890625,1.4670038223266602,-0.29941824078559875,-0.746646523475647
1684252364348801800,11.9248017578125,1.2538063526153564,-1.6938037872314453,0.01066351868212223
1684252364358827800,11.934827880859375,0.8475327491760254,-2.5941741466522217,0.8001327514648438
1684252364368854000,11.94485400390625,0.46272197365760803,-2.9869728088378906,1.3351601362228394
1684252364378880000,11.9548798828125,0.0761575847864151,-2.932856321334839,1.6942236423492432
1684252364388906000,11.964906005859374,-0.26842376589775085,-2.5022213459014893,1.9538530111312866
1684252364398932000,11.974931884765626,-0.4396595358848572,-1.8130755424499512,2.1390345096588135
1684252364408958000,11.9849580078125,-0.4800458252429962,-0.8602848649024963,2.323901653289795
1684252364418984000,11.99498388671875,-0.5121972560882568,0.27945029735565186,2.4674201011657715
1684252364429010000,12.005010009765625,-0.6227828860282898,1.381209135055542,2.4386343955993652
1684252364439036000,12.015035888671875,-0.9197679758071899,2.363797903060913,2.170529365539551
1684252364449062000,12.025061767578125,-1.4119316339492798,3.002357244491577,1.638466477394104
1684252364459088000,12.035087890625,-2.158689498901367,2.914083480834961,0.9000827074050903
1684252364469113900,12.04511376953125,-2.9929287433624268,2.1376235485076904,0.08425549417734146
1684252364479140000,12.05514013671875,-3.216599941253662,0.8081042766571045,-0.716113805770874
1684252364489166000,12.065166015625,-2.598294496536255,-0.2267950475215912,-1.5412801504135132
1684252364499192000,12.075192138671875,-1.5008125305175781,-0.44204285740852356,-2.2253212928771973
1684252364509218000,12.085218017578125,-0.2946532964706421,0.107392817735672,-2.499880075454712
1684252364519244000,12.095244140625,0.5605117678642273,1.3961783647537231,-2.360300064086914
1684252364529270000,12.10527001953125,0.9966099858283997,3.1449732780456543,-2.004242420196533
1684252364539296000,12.1152958984375,1.2323400974273682,4.527156352996826,-1.8110889196395874
1684252364549322000,12.125322021484376,1.3719040155410767,5.003376483917236,-2.072852849960327
1684252364559347000,12.135346923828125,1.3721692562103271,4.6002912521362305,-2.7173027992248535
1684252364569373000,12.145373046875,1.2875292301177979,3.6897971630096436,-3.4652535915374756
1684252364579399000,12.15539892578125,1.1408767700195312,2.6433918476104736,-4.03279972076416
1684252364589425000,12.1654248046875,1.0841219425201416,1.3912814855575562,-4.0589070320129395
1684252364599451000,12.175450927734374,1.375105619430542,-0.660498857498169,-3.0957329273223877
1684252364609477000,12.18547705078125,1.721128225326538,-2.645658254623413,-1.8365936279296875
1684252364619503000,12.195503173828126,1.7341246604919434,-3.895648717880249,-0.9576058387756348
1684252364629529000,12.205529052734375,1.4481173753738403,-4.363818645477295,-0.4766887426376343
1684252364639555000,12.21555517578125,1.0415456295013428,-3.966111183166504,-0.06737913936376572
1684252364649581000,12.2255810546875,0.5974046587944031,-3.144641399383545,0.29339876770973206
1684252364659607000,12.23560693359375,0.17086614668369293,-2.4442906379699707,0.451520174741745
1684252364669633000,12.245633056640624,-0.19546949863433838,-1.8180670738220215,0.4317251443862915
1684252364679659000,12.255658935546874,-0.5048524141311646,-1.1227260828018188,0.2620086073875427
1684252364689685000,12.26568505859375,-0.7962818741798401,-0.477695107460022,-0.000015814031939953566
1684252364699710700,12.275710693359375,-0.9856163263320923,0.6162953972816467,-0.6094857454299927
1684252364709736700,12.28573681640625,-1.0802024602890015,1.9754252433776855,-1.4938775300979614
1684252364719763000,12.295762939453125,-1.2573308944702148,2.839890480041504,-2.0888144969940186
1684252364729789000,12.305788818359375,-1.493496060371399,3.3583972454071045,-2.367637872695923
1684252364739815000,12.31581494140625,-1.7395973205566406,3.550955295562744,-2.571406126022339
1684252364749841000,12.3258408203125,-1.8669753074645996,3.147613525390625,-2.7282867431640625
1684252364759867000,12.335866943359376,-1.855656385421753,1.4672552347183228,-2.490264892578125
1684252364769892000,12.34589208984375,-1.6591110229492188,-0.6314117908477783,-1.8536795377731323
1684252364779918000,12.35591796875,-1.1106208562850952,-2.693547010421753,-1.422772765159607
1684252364789943800,12.36594384765625,-0.5516760349273682,-4.145511627197266,-1.2409968376159668
1684252364799969800,12.3759697265625,-0.14256127178668976,-4.434434413909912,-0.9809361100196838
1684252364809995800,12.385995849609374,0.29522645473480225,-3.91384220123291,-0.6254603266716003
1684252364820021800,12.396021728515626,0.7348545789718628,-3.336109161376953,-0.3574705719947815
1684252364830047700,12.4060478515625,0.6194651126861572,-3.1995339393615723,-0.4051811099052429
1684252364840073700,12.41607373046875,-0.18327568471431732,-3.107297658920288,-1.0218271017074585
1684252364850100000,12.426099853515625,-0.4019281268119812,-3.486961841583252,-1.31803297996521
1684252364860126000,12.4361259765625,-0.4107723832130432,-3.838426113128662,-0.9947007298469543
1684252364870152000,12.44615185546875,-0.5418100357055664,-3.699202537536621,-0.4270908534526825
1684252364880178000,12.456177978515624,-0.8855359554290771,-2.7335023880004883,0.15292266011238098
1684252364890204000,12.466203857421876,-1.38100004196167,-1.3869096040725708,0.6697593927383423
1684252364900230000,12.47622998046875,-1.8944000005722046,-0.2427148073911667,0.9694111347198486
1684252364910255900,12.486255859375,-2.2459957599639893,0.4816029369831085,1.0633502006530762
1684252364920281900,12.49628173828125,-2.34953236579895,0.8709877133369446,1.0805188417434692
1684252364930307800,12.506307861328125,-2.2200052738189697,0.9282704591751099,1.0820271968841553
1684252364940333800,12.516333740234375,-2.0662436485290527,0.5084770321846008,1.0065662860870361
1684252364950359800,12.52635986328125,-2.181624174118042,-0.19885003566741943,0.9806467890739441
1684252364960386000,12.536385986328124,-2.3888800144195557,-0.9141823649406433,1.166757345199585
1684252364970412000,12.546412109375,-2.429612159729004,-1.5360459089279175,1.4794905185699463
1684252364980438000,12.55643798828125,-2.245842456817627,-1.759809970855713,1.7518112659454346
1684252364990464000,12.566464111328125,-1.8931206464767456,-1.572259783744812,1.680193543434143
1684252365000489000,12.576489013671875,-1.6582273244857788,-1.2700599431991577,1.3285404443740845
1684252365010515000,12.586514892578125,-1.3764384984970093,-0.8701851963996887,0.9770671725273132
1684252365020541000,12.596541015625,-0.968940794467926,-0.4502737820148468,0.807934045791626
1684252365030567000,12.60656689453125,-0.5277047753334045,0.05872765928506851,0.7838433384895325
1684252365040593000,12.616593017578126,-0.07904210686683655,0.7310569882392883,0.8138924241065979
1684252365050619000,12.626618896484375,0.45613154768943787,1.353291392326355,0.8400843739509583
1684252365060644900,12.636644775390625,1.1126459836959839,1.8675243854522705,0.8650223016738892
1684252365070670800,12.6466708984375,1.7858020067214966,2.40197491645813,0.8709084391593933
