time,seconds_elapsed,z,y,x
1684252780718745000,0.0257451171875,1.704331398010254,0.6211131811141968,0.6829395294189453
1684252780728771000,0.03577099609375,2.0740413665771484,1.6766061782836914,1.2056692838668823
1684252780738797000,0.045797119140625,2.4481325149536133,2.2812118530273438,1.6344035863876343
1684252780748823000,0.055822998046875,2.824373483657837,2.4797065258026123,1.9051575660705566
1684252780758848000,0.065847900390625,3.165902614593506,2.3575305938720703,1.9276949167251587
1684252780768874000,0.0758740234375,3.3734474182128906,1.9108060598373413,1.5974493026733398
1684252780778900000,0.08589990234375,3.368943929672241,1.1179412603378296,0.9836036562919617
1684252780788926000,0.095926025390625,3.094592332839966,0.2843121886253357,0.1958928108215332
1684252780798952000,0.105951904296875,2.311403274536133,0.4021514654159546,-0.5529499650001526
1684252780808978000,0.11597802734375,1.1539593935012817,0.8723224401473999,-0.9374560117721558
1684252780819004000,0.12600390625,0.14661048352718353,-0.35978126525878906,-1.0028603076934814
1684252780829030100,0.136030029296875,-0.9628210663795471,-0.4607745409011841,-0.9587637186050415
1684252780839054800,0.146054931640625,-2.3937790393829346,0.44217556715011597,-0.9216523170471191
1684252780849081000,0.1560810546875,-3.8867452144622803,1.6033897399902344,-0.8447086811065674
1684252780859107000,0.166107177734375,-5.0982513427734375,3.0280072689056396,-0.5825212597846985
1684252780869133000,0.176133056640625,-5.786887168884277,4.357539653778076,0.006875521037727594
1684252780879159000,0.186158935546875,-5.945111274719238,5.148977279663086,0.9384332895278931
1684252780889185000,0.19618505859375,-5.83336067199707,6.056700229644775,2.105170249938965
1684252780899211000,0.2062109375,-5.633675575256348,6.7276153564453125,3.383394479751587
1684252780909237000,0.216237060546875,-5.151669979095459,6.886124610900879,4.549072742462158
1684252780919262000,0.226261962890625,-4.0547194480896,7.164196014404297,5.353740692138672
1684252780929288000,0.236287841796875,-2.4098405838012695,8.31490421295166,5.634201526641846
1684252780939314000,0.24631396484375,-1.5039373636245728,9.894065856933594,5.590920448303223
1684252780949340000,0.25633984375,-1.625235915184021,10.356389045715332,5.734330177307129
1684252780959366000,0.266365966796875,-2.3602547645568848,9.782584190368652,5.887365818023682
1684252780969391900,0.276391845703125,-3.557058095932007,8.506211280822754,5.666906356811523
1684252780979418000,0.286418212890625,-5.205647945404053,7.226978302001953,5.270937919616699
1684252780989444000,0.296444091796875,-6.645772457122803,6.174928188323975,4.71911096572876
1684252780999469000,0.306468994140625,-7.650613307952881,5.192620754241943,3.9564080238342285
1684252781009495000,0.3164951171875,-8.33970832824707,4.686740875244141,3.1902143955230713
1684252781019521000,0.32652099609375,-8.874448776245117,4.365058422088623,2.7537782192230225
1684252781029547000,0.336547119140625,-9.093831062316895,3.892211675643921,2.54927134513855
1684252781039573000,0.346572998046875,-8.95152759552002,3.5193533897399902,2.509181499481201
1684252781049599000,0.356598876953125,-8.542645454406738,3.2419002056121826,2.7488834857940674
1684252781059625000,0.366625,-8.167569160461426,2.864997625350952,3.208881139755249
1684252781069651000,0.37665087890625,-7.845588207244873,2.3516628742218018,3.6895534992218018
1684252781079676000,0.386676025390625,-7.534706115722656,1.693094253540039,4.040768623352051
1684252781089702000,0.396701904296875,-7.336566925048828,1.112251877784729,4.06797981262207
1684252781099728000,0.406727783203125,-7.054101467132568,0.6751963496208191,3.7638769149780273
1684252781109753900,0.41675390625,-6.701584339141846,0.152103990316391,3.310969352722168
1684252781119779800,0.42677978515625,-6.174610614776611,-0.12283835560083389,2.8720545768737793
1684252781129806000,0.43680615234375,-5.459501266479492,-0.2389049232006073,2.5618534088134766
1684252781139832000,0.44683203125,-4.743108749389648,-0.39536377787590027,2.3092148303985596
1684252781149858000,0.456858154296875,-4.068759918212891,-0.6434379816055298,2.017674446105957
1684252781159884000,0.466884033203125,-3.341310977935791,-1.0235016345977783,1.7189760208129883
1684252781169909000,0.476908935546875,-2.4300477504730225,-1.5577529668807983,1.5698963403701782
1684252781179935000,0.48693505859375,-1.384198784828186,-2.0368592739105225,1.4878864288330078
1684252781189961000,0.4969609375,-0.3914356827735901,-2.5665454864501953,1.3743551969528198
1684252781199987000,0.506987060546875,0.509497344493866,-2.941479444503784,1.2134389877319336
1684252781210013000,0.517012939453125,1.3408960103988647,-3.023085355758667,0.9584274888038635
1684252781220039000,0.527038818359375,1.993904948234558,-2.946298360824585,0.5913237929344177
1684252781230065000,0.53706494140625,2.4405107498168945,-2.766265630722046,0.17539411783218384
1684252781240091000,0.5470908203125,2.703512668609619,-2.4745335578918457,-0.277396023273468
1684252781250115800,0.55711572265625,2.8508918285369873,-1.996727705001831,-0.7086658477783203
1684252781260141800,0.567141845703125,2.755168914794922,-1.5804756879806519,-1.1379244327545166
1684252781270167800,0.577167724609375,1.91115140914917,-1.4784090518951416,-2.623898983001709
1684252781280194000,0.587194091796875,1.2891045808792114,-0.8480894565582275,-4.284945487976074
1684252781290220000,0.597219970703125,1.1017943620681763,0.06803949177265167,-4.894692420959473
1684252781300246000,0.60724609375,0.9723412990570068,0.6293819546699524,-3.7347872257232666
1684252781310272000,0.61727197265625,0.9890512824058533,1.024682879447937,-2.50545334815979
1684252781320297000,0.627296875,1.1341315507888794,1.7198389768600464,-1.4502002000808716
1684252781330323000,0.637322998046875,1.3141448497772217,2.165616035461426,-0.6313360333442688
1684252781340349000,0.647348876953125,1.569665551185608,2.3876891136169434,-0.031180191785097122
1684252781350375000,0.657375,1.5756111145019531,2.3894872665405273,0.47139453887939453
1684252781360401000,0.66740087890625,1.2436296939849854,2.0570666790008545,0.5242849588394165
1684252781370427000,0.677427001953125,1.0367499589920044,1.616851568222046,0.4170416593551636
1684252781380452900,0.687452880859375,0.8394623398780823,1.0543268918991089,0.4061645269393921
1684252781390478800,0.697478759765625,0.3049953579902649,0.08900894224643707,-0.2601158618927002
1684252781400503800,0.70750390625,0.028417035937309265,-0.6857485771179199,-1.4812517166137695
1684252781410529800,0.71752978515625,0.6294115781784058,-1.3546583652496338,-2.6059200763702393
1684252781420555800,0.7275556640625,1.0865761041641235,-1.7956757545471191,-3.5028653144836426
1684252781430582000,0.73758203125,1.1977214813232422,-2.177182197570801,-3.9268414974212646
1684252781440608000,0.74760791015625,1.1148256063461304,-2.5404391288757324,-3.8156468868255615
1684252781450634000,0.757634033203125,0.7592872977256775,-2.617140769958496,-3.2609353065490723
1684252781460660000,0.767659912109375,0.0943886786699295,-2.0561161041259766,-2.2456202507019043
1684252781470686000,0.77768603515625,-0.8198119401931763,-0.8354134559631348,-1.0088403224945068
1684252781480712000,0.7877119140625,-1.383059024810791,0.209575816988945,-0.03953858092427254
1684252781490737000,0.79773681640625,-1.2992029190063477,0.8911543488502502,0.36050647497177124
1684252781500763000,0.807762939453125,-0.9455243945121765,1.2088146209716797,0.3724861741065979
1684252781510788900,0.817788818359375,-0.6189988255500793,1.2455862760543823,0.12046607583761215
1684252781520814800,0.82781494140625,-0.5565772652626038,1.0992012023925781,-0.22076183557510376
1684252781530840800,0.8378408203125,-0.8443882465362549,0.9562938213348389,-0.4259219169616699
1684252781540866300,0.8478662109375,-1.3339976072311401,0.6588719487190247,-0.583259105682373
1684252781550892300,0.857892333984375,-1.977063775062561,0.6418687105178833,-0.5900217294692993
1684252781560918300,0.867918212890625,-2.761204957962036,1.184787392616272,-0.43398845195770264
1684252781570943200,0.877943115234375,-3.4640069007873535,1.892862319946289,-0.22510398924350739
1684252781580969200,0.88796923828125,-3.893794536590576,2.7206623554229736,0.05130603164434433
1684252781590995200,0.8979951171875,-4.129349231719971,3.343440294265747,0.35060423612594604
1684252781601021200,0.908021240234375,-4.033327579498291,4.025299549102783,0.7693932056427002
1684252781611047200,0.918047119140625,-3.7848622798919678,4.4932146072387695,1.2693623304367065
1684252781621073200,0.9280732421875,-3.3616726398468018,4.718645095825195,1.7992805242538452
1684252781631099100,0.93809912109375,-2.793504476547241,4.682392120361328,2.421633720397949
1684252781641125000,0.948125,-2.1778645515441895,4.48886251449585,3.120609998703003
1684252781651150300,0.958150390625,-1.6342153549194336,3.9405431747436523,3.8157691955566406
1684252781661176300,0.96817626953125,-1.5593842267990112,2.275880813598633,4.017810344696045
1684252781671202300,0.978202392578125,-1.2896424531936646,1.384437918663025,4.1403350830078125
1684252781681228300,0.988228271484375,-0.9036700129508972,0.7899232506752014,4.060711860656738
1684252781691254300,0.998254150390625,-0.6343875527381897,0.3761809468269348,3.787843942642212
1684252781701280300,1.0082802734375,-0.5790643692016602,-0.21858680248260498,3.1333305835723877
1684252781711306200,1.01830615234375,-0.6064171195030212,-1.8144617080688477,1.8854976892471313
1684252781721332200,1.028332275390625,-0.7090561985969543,-2.586857557296753,0.5754664540290833
1684252781731357400,1.038357421875,-0.9773454070091248,-1.8416173458099365,-0.06732001900672913
1684252781741383400,1.048383544921875,-1.2527049779891968,-0.9863194227218628,-0.34668081998825073
1684252781751409400,1.058409423828125,-1.307093858718872,-0.3395165205001831,-0.49145618081092834
1684252781761435400,1.068435302734375,-1.1973481178283691,0.21497784554958344,-0.5297409296035767
1684252781771461400,1.07846142578125,-1.1255834102630615,0.8525296449661255,-0.4517872929573059
1684252781781487000,1.088487060546875,-1.0890872478485107,1.3041315078735352,-0.35630497336387634
1684252781791513000,1.09851318359375,-1.1582820415496826,1.514206051826477,-0.268909752368927
1684252781801539300,1.108539306640625,-1.254957675933838,1.5922318696975708,-0.17521710693836212
1684252781811564300,1.118564208984375,-1.3661998510360718,1.3924598693847656,-0.12575073540210724
1684252781821590500,1.128590576171875,-1.3884737491607666,0.9828575253486633,-0.1197945699095726
1684252781831616500,1.138616455078125,-1.2183798551559448,0.7018600702285767,-0.06653628498315811
1684252781841642500,1.148642578125,-0.9196599125862122,0.580186128616333,0.0133383022621274
1684252781851668500,1.15866845703125,-0.6677314043045044,0.43241557478904724,0.055534761399030685
1684252781861694200,1.168694091796875,-0.5688617825508118,0.24983936548233032,0.07021144032478333
1684252781871720200,1.17872021484375,-0.5465806126594543,0.14524675905704498,0.13527873158454895
1684252781881746200,1.18874609375,-0.639037013053894,0.11688674241304398,0.2558075189590454
1684252781891771400,1.198771484375,-0.8709467053413391,0.08100168406963348,0.38925883173942566
1684252781901797400,1.20879736328125,-1.0360389947891235,0.026081981137394905,0.4926699101924896
1684252781911823400,1.2188232421875,-0.9463626146316528,-0.04114329442381859,0.5888228416442871
1684252781921849300,1.228849365234375,-0.7498974800109863,-0.22046005725860596,0.6471870541572571
1684252781931875300,1.238875244140625,-0.6235734820365906,-0.32897883653640747,0.6733059883117676
1684252781941901300,1.2489013671875,-0.43391215801239014,-0.23766781389713287,0.7022180557250977
1684252781951927300,1.25892724609375,-0.16771553456783295,-0.03995666652917862,0.7045616507530212
1684252781961953300,1.268953369140625,0.0602843314409256,0.24308116734027863,0.6493226289749146
1684252781971978500,1.278978515625,0.30760738253593445,0.6850844025611877,0.5531882047653198
1684252781982004500,1.28900439453125,0.6207314729690552,1.300352931022644,0.46454325318336487
1684252781992030500,1.299030517578125,0.8726875185966492,1.9007436037063599,0.37782880663871765
1684252782002056400,1.309056396484375,1.036906361579895,2.283308982849121,0.3055567443370819
1684252782012082400,1.31908251953125,1.270899772644043,2.4085748195648193,0.28651323914527893
1684252782022108400,1.3291083984375,1.6348564624786377,2.3233959674835205,0.3708345293998718
1684252782032134400,1.339134521484375,2.117255926132202,2.157125949859619,0.48921361565589905
1684252782042159400,1.349159423828125,2.5597541332244873,1.9661937952041626,0.6376323699951172
1684252782052185300,1.359185302734375,2.7709033489227295,1.4656448364257812,0.692702054977417
1684252782062211300,1.36921142578125,2.810570240020752,0.46437573432922363,0.6025476455688477
1684252782072237300,1.3792373046875,2.833371162414551,-0.7518106698989868,0.4792014956474304
1684252782082263300,1.38926318359375,2.990602970123291,-1.819636344909668,0.40116849541664124
1684252782092289300,1.399289306640625,3.255401372909546,-2.7692956924438477,0.3462684452533722
1684252782102315500,1.4093154296875,3.5847768783569336,-3.7428817749023438,0.3068808317184448
1684252782112341500,1.419341552734375,3.857839584350586,-4.749255180358887,0.2993915379047394
1684252782122366500,1.429366455078125,3.7096951007843018,-4.993347644805908,0.07399570196866989
1684252782132392400,1.439392333984375,2.6149561405181885,-3.9300785064697266,-0.9884191751480103
1684252782142418400,1.44941845703125,1.0832828283309937,-2.2570436000823975,-2.494516372680664
1684252782152444400,1.4594443359375,0.019984574988484383,-0.7397086024284363,-3.6762278079986572
1684252782162470400,1.469470458984375,-0.37155309319496155,0.1119503453373909,-4.292726993560791
1684252782172496400,1.479496337890625,-0.28240489959716797,0.20777195692062378,-4.51930570602417
1684252782182522400,1.4895224609375,-0.053459588438272476,-0.24139198660850525,-4.502403259277344
1684252782192548400,1.49954833984375,0.44019633531570435,-5.4268035888671875,-4.283297061920166
1684252782202574300,1.50957421875,1.0749692916870117,-13.319110870361328,-3.5527589321136475
1684252782212599300,1.519599365234375,0.7415012717247009,-16.275676727294922,-3.2812814712524414
1684252782222625300,1.529625244140625,0.16911101341247559,-10.477465629577637,-5.067819595336914
1684252782232651300,1.5396513671875,0.11643916368484497,-2.3970885276794434,-5.881335735321045
1684252782242677200,1.54967724609375,0.27014854550361633,2.2499194145202637,-4.843208312988281
1684252782252703500,1.559703369140625,0.3639814853668213,3.550165891647339,-2.7557365894317627
1684252782262729500,1.5697294921875,0.23131267726421356,4.888653755187988,-0.6674767732620239
1684252782272755500,1.57975537109375,0.022947652265429497,6.631892204284668,0.9762881994247437
1684252782282781400,1.589781494140625,-0.12072589248418808,7.6351752281188965,2.1699564456939697
1684252782292806400,1.599806396484375,-0.24678263068199158,7.750411033630371,2.835319995880127
1684252782302832400,1.609832275390625,-0.5429854989051819,6.796197414398193,2.9707961082458496
1684252782312858400,1.6198583984375,-0.8285792469978333,2.6678221225738525,1.8992022275924683
1684252782322884400,1.62988427734375,-0.2541985511779785,-1.5586929321289062,-2.079198122024536
1684252782332910300,1.639910400390625,0.5251862406730652,-2.24599289894104,-4.907864570617676
1684252782342936300,1.649936279296875,1.2889528274536133,-1.6097164154052734,-5.870482921600342
1684252782352962300,1.65996240234375,1.9424089193344116,-0.653765082359314,-5.484320163726807
1684252782362988300,1.66998828125,2.5377776622772217,-0.20570369064807892,-4.417111873626709
1684252782373013200,1.68001318359375,3.0770864486694336,0.010682188905775547,-3.0651121139526367
1684252782383039200,1.690039306640625,3.1409401893615723,0.7204567193984985,-1.7884373664855957
1684252782393065200,1.700065185546875,2.774240255355835,1.8851433992385864,-0.519859254360199
1684252782403091500,1.710091552734375,2.5384840965270996,2.6018030643463135,0.8673001527786255
1684252782413117400,1.720117431640625,2.7625608444213867,2.395246982574463,2.267188310623169
1684252782423143400,1.730143310546875,3.345581293106079,1.3236596584320068,3.2802956104278564
1684252782433169400,1.74016943359375,4.096899509429932,-0.35640615224838257,2.9659924507141113
1684252782443194400,1.7501943359375,4.572127342224121,-0.4813680648803711,1.442120909690857
1684252782453220400,1.760220458984375,4.384195804595947,1.2456473112106323,0.4131960868835449
1684252782463246300,1.770246337890625,3.5598292350769043,3.3777213096618652,0.34895479679107666
1684252782473272300,1.780272216796875,2.4865686893463135,4.5857415199279785,1.1650358438491821
1684252782483298300,1.79029833984375,1.4569069147109985,4.403063774108887,2.119399309158325
1684252782493324300,1.80032421875,0.7059873938560486,3.831369638442993,2.541008472442627
1684252782503350300,1.810350341796875,0.21073265373706818,3.5394623279571533,2.3336706161499023
1684252782513376300,1.820376220703125,-0.09003642946481705,3.3678555488586426,1.813225507736206
1684252782523401200,1.830401123046875,-0.25111666321754456,3.0734148025512695,1.2834161520004272
1684252782533427200,1.84042724609375,-0.25753602385520935,2.551832437515259,1.032134771347046
1684252782543453200,1.850453125,-0.15076376497745514,1.9856005907058716,1.0579807758331299
1684252782553479200,1.860479248046875,0.0003857139963656664,1.4705311059951782,1.2197294235229492
1684252782563505200,1.870505126953125,0.11471282690763474,1.0641913414001465,1.3856830596923828
1684252782573531100,1.88053125,0.13103319704532623,0.7585220336914062,1.4891051054000854
1684252782583557000,1.89055712890625,0.04317551106214523,0.3156493008136749,1.5486695766448975
1684252782593583400,1.900583251953125,-0.1769816130399704,-0.26046377420425415,1.5549739599227905
1684252782603608000,1.910608154296875,-0.46174705028533936,-0.8336048126220703,1.5024819374084473
1684252782613634300,1.92063427734375,-0.7324577569961548,-1.1455950736999512,1.447742223739624
1684252782623660300,1.930660400390625,-0.9388178586959839,-1.2107906341552734,1.4776487350463867
1684252782633686300,1.940686279296875,-1.0852501392364502,-1.1002510786056519,1.6010581254959106
1684252782643712300,1.950712158203125,-1.2657808065414429,-1.020217776298523,1.7361783981323242
1684252782653738200,1.96073828125,-1.5203386545181274,-1.1912552118301392,1.8836450576782227
1684252782663764200,1.97076416015625,-1.8091952800750732,-1.6403368711471558,2.063204765319824
1684252782673790200,1.980790283203125,-2.1231913566589355,-2.187532663345337,2.265516519546509
1684252782683815200,1.990815185546875,-2.458272695541382,-2.6862449645996094,2.3499231338500977
1684252782693841200,2.000841064453125,-2.740291118621826,-3.074613571166992,2.266143798828125
1684252782703867100,2.0108671875,-2.867560625076294,-3.4060275554656982,2.2141473293304443
1684252782713893000,2.02089306640625,-2.834211826324463,-3.7120933532714844,2.3615636825561523
1684252782723919000,2.030919189453125,-2.507019519805908,-4.574097633361816,2.691763401031494
1684252782733945000,2.040945068359375,-1.537056565284729,-7.000859260559082,2.730290412902832
1684252782743971300,2.050971435546875,0.3042810261249542,-9.040694236755371,2.226637363433838
1684252782753997300,2.060997314453125,1.1944111585617065,-8.21024227142334,0.32029989361763
1684252782764022000,2.07102197265625,1.8088301420211792,-6.217667102813721,-5.307887554168701
1684252782774048300,2.08104833984375,1.443366527557373,-4.729103088378906,-5.40305757522583
1684252782784074200,2.09107421875,0.47102904319763184,-1.6069008111953735,-2.201594352722168
1684252782794100200,2.101100341796875,-0.7857985496520996,1.8436849117279053,0.42230620980262756
1684252782804126200,2.111126220703125,-1.9754703044891357,3.217379570007324,1.5577691793441772
1684252782814152200,2.121152099609375,-2.8256235122680664,2.253535270690918,1.526443600654602
1684252782824178200,2.13117822265625,-2.951549530029297,0.9127042293548584,0.899120032787323
1684252782834204200,2.1412041015625,-2.421862840652466,1.0350561141967773,0.4437127709388733
1684252782844229000,2.15122900390625,-1.644090175628662,1.717028021812439,0.09231851994991302
1684252782854255000,2.161255126953125,-0.9814414381980896,1.6929259300231934,-0.35091081261634827
1684252782864281000,2.171281005859375,-0.5296337604522705,0.7855292558670044,-0.6542996764183044
1684252782874307000,2.18130712890625,-0.3921363651752472,-0.19945524632930756,-0.5749223232269287
1684252782884333000,2.1913330078125,-0.5170247554779053,-0.825866162776947,-0.14338822662830353
1684252782894359000,2.201359130859375,-0.6953483819961548,-1.227716088294983,0.47389984130859375
1684252782904385300,2.21138525390625,-0.8707995414733887,-1.5007678270339966,1.0899618864059448
1684252782914411300,2.221411376953125,-1.0161206722259521,-1.6195505857467651,1.518983244895935
1684252782924436200,2.231436279296875,-1.1148539781570435,-1.541495680809021,1.6478039026260376
1684252782934462200,2.241462158203125,-1.1328901052474976,-1.3374569416046143,1.51211416721344
1684252782944488200,2.25148828125,-1.1028122901916504,-1.195128083229065,1.1891180276870728
1684252782954514200,2.26151416015625,-1.03916335105896,-1.2462469339370728,0.8004981279373169
1684252782964540200,2.2715400390625,-0.9588293433189392,-1.4636069536209106,0.43897584080696106
1684252782974566100,2.281566162109375,-0.8892710208892822,-1.7264257669448853,0.19832473993301392
1684252782984592100,2.291592041015625,-0.8380089402198792,-1.9261538982391357,0.10492634773254395
1684252782994618000,2.3016181640625,-0.7722194790840149,-1.902091145515442,0.13544510304927826
1684252783004643300,2.311643310546875,-0.6835277080535889,-1.6233761310577393,0.20454534888267517
1684252783014669000,2.3216689453125,-0.5832543969154358,-1.121026873588562,0.26740777492523193
1684252783024695000,2.331695068359375,-0.4747588038444519,-0.5249626636505127,0.29684528708457947
1684252783034721000,2.341720947265625,-0.3608684539794922,0.05658823624253273,0.26791247725486755
1684252783044747000,2.3517470703125,-0.24927081167697906,0.49133384227752686,0.2159600853919983
1684252783054773200,2.361773193359375,-0.16634343564510345,0.6804057359695435,0.18341705203056335
1684252783064799200,2.37179931640625,-0.10648730397224426,0.6452286243438721,0.15677666664123535
1684252783074825200,2.3818251953125,-0.05061032250523567,0.4819817543029785,0.12735266983509064
1684252783084850400,2.391850341796875,0.007929687388241291,0.275051474571228,0.08023469150066376
1684252783094876400,2.40187646484375,0.06297425925731659,0.1058717593550682,-0.023656535893678665
1684252783104902100,2.411902099609375,0.09815648198127747,0.0627802163362503,-0.1571727842092514
1684252783114928000,2.42192822265625,0.11341901868581772,0.10247787833213806,-0.30425989627838135
1684252783124954000,2.4319541015625,0.10994518548250198,0.15558211505413055,-0.43036404252052307
1684252783134980000,2.44197998046875,0.07985376566648483,0.18842491507530212,-0.5240290760993958
1684252783145006000,2.452006103515625,0.031665731221437454,0.1682370901107788,-0.5748363137245178
1684252783155032000,2.462031982421875,-0.015165157616138458,0.08551162481307983,-0.57597815990448
1684252783165057300,2.472057373046875,-0.05728944018483162,-0.06757059693336487,-0.5305011868476868
1684252783175083300,2.482083251953125,-0.09064846485853195,-0.2450791448354721,-0.44526970386505127
1684252783185109200,2.492109130859375,-0.1312539428472519,-0.3989619016647339,-0.3495303988456726
1684252783195135200,2.50213525390625,-0.16026358306407928,-0.5098137259483337,-0.2708534002304077
1684252783205161200,2.5121611328125,-0.16243192553520203,-0.5871215462684631,-0.22697195410728455
1684252783215187200,2.522187255859375,-0.15932054817676544,-0.607674241065979,-0.21470676362514496
1684252783225213200,2.532213134765625,-0.16301728785037994,-0.5734195709228516,-0.22256362438201904
1684252783235239200,2.5422392578125,-0.1672547459602356,-0.5245181322097778,-0.23418012261390686
1684252783245264400,2.552264404296875,-0.16991950571537018,-0.46786072850227356,-0.2401735782623291
1684252783255290400,2.562290283203125,-0.1629297137260437,-0.4625833034515381,-0.22703981399536133
1684252783265316400,2.57231640625,-0.15066692233085632,-0.4955085217952728,-0.1901039034128189
1684252783275342300,2.58234228515625,-0.14374426007270813,-0.6181212663650513,-0.10796568542718887
1684252783285368300,2.592368408203125,-0.15974639356136322,-0.7980961203575134,0.024454409256577492
1684252783295394300,2.602394287109375,-0.16273751854896545,-0.9864782094955444,0.17772534489631653
1684252783305420300,2.612420166015625,-0.15358343720436096,-1.2026859521865845,0.34926727414131165
1684252783315445200,2.6224453125,-0.11854210495948792,-1.4177318811416626,0.5256217122077942
1684252783325471200,2.63247119140625,-0.0766545757651329,-1.6233912706375122,0.7023624181747437
1684252783335497200,2.642497314453125,-0.05846540257334709,-1.8163682222366333,0.8585041165351868
1684252783345523200,2.652523193359375,-0.0790572389960289,-2.004188060760498,0.9936593174934387
1684252783355549400,2.662549560546875,-0.14780880510807037,-2.171969175338745,1.0976451635360718
1684252783365575400,2.672575439453125,-0.2323005199432373,-2.2932066917419434,1.1436169147491455
1684252783375601400,2.682601318359375,-0.3107174038887024,-2.393159866333008,1.120812177658081
1684252783385627400,2.69262744140625,-0.354714959859848,-2.5483028888702393,1.0629568099975586
1684252783395652400,2.70265234375,-0.3193785548210144,-2.799008846282959,1.0083534717559814
1684252783405678300,2.71267822265625,-0.21589049696922302,-3.253774642944336,1.0168862342834473
1684252783415704300,2.722704345703125,-0.12201020121574402,-3.705773115158081,1.0515941381454468
1684252783425730300,2.732730224609375,-0.10505705326795578,-3.344865083694458,0.803877055644989
1684252783435756300,2.74275634765625,-0.124054454267025,-2.037752866744995,0.21016009151935577
1684252783445782300,2.7527822265625,-0.10762886703014374,-0.23522771894931793,-0.5844744443893433
1684252783455808300,2.762808349609375,-0.1332286298274994,1.7289081811904907,-1.4459387063980103
1684252783465834200,2.772834228515625,-0.2823837697505951,3.595844030380249,-2.2646236419677734
1684252783475859200,2.782859130859375,-0.5275496244430542,4.910755157470703,-2.9037604331970215
1684252783485885200,2.79288525390625,-0.8120559453964233,5.063290596008301,-3.1988487243652344
1684252783495911200,2.8029111328125,-1.1309133768081665,3.808899164199829,-2.76163387298584
1684252783505937400,2.8129375,-1.3692854642868042,0.9379314184188843,-1.4329372644424438
1684252783515963400,2.82296337890625,-1.586237907409668,-1.1637248992919922,-0.7124752998352051
1684252783525989400,2.8329892578125,-1.6001025438308716,-2.2788197994232178,-0.5800970196723938
1684252783536015000,2.84301513671875,-1.3558990955352783,-2.3688576221466064,-0.7837862372398376
1684252783546040000,2.8530400390625,-0.9964870810508728,-1.5764344930648804,-1.1790032386779785
1684252783556066000,2.863066162109375,-0.6385838985443115,-0.23239733278751373,-1.6259530782699585
1684252783566092000,2.873092041015625,-0.13864007592201233,1.3950806856155396,-2.1106483936309814
1684252783576118000,2.883117919921875,0.3379390239715576,2.7622311115264893,-2.5615949630737305
1684252783586144000,2.89314404296875,0.6452443599700928,3.410801649093628,-2.8821699619293213
1684252783596170000,2.903169921875,0.7698909044265747,3.0491390228271484,-3.2118146419525146
1684252783606196200,2.9131962890625,0.8511806726455688,0.9882333278656006,-3.6126813888549805
1684252783616222200,2.92322216796875,0.8667054772377014,-1.0151814222335815,-3.607846736907959
1684252783626247200,2.9332470703125,0.8838647603988647,-2.212583065032959,-3.2055559158325195
1684252783636273200,2.943273193359375,1.0158861875534058,-2.7390425205230713,-2.5946578979492188
1684252783646299100,2.953299072265625,1.25326406955719,-2.745938301086426,-1.897994875907898
1684252783656325000,2.9633251953125,1.6429744958877563,-2.563223361968994,-1.2169649600982666
1684252783666351000,2.97335107421875,2.0443079471588135,-2.5269107818603516,-0.761863112449646
1684252783676377000,2.983377197265625,2.3182079792022705,-2.6189608573913574,-0.6630634069442749
1684252783686403000,2.993403076171875,2.456486463546753,-2.478452205657959,-0.6668818593025208
1684252783696429000,3.003428955078125,2.461530923843384,-2.001746892929077,-0.6373515129089355
1684252783706454000,3.0134541015625,2.3721396923065186,-1.3309228420257568,-0.6151830554008484
1684252783716480000,3.02347998046875,2.244957685470581,-0.46596938371658325,-0.5976741909980774
1684252783726506000,3.033506103515625,2.1441497802734375,0.4994789659976959,-0.6217252016067505
1684252783736532000,3.043531982421875,2.0973875522613525,1.2875880002975464,-0.6346727013587952
1684252783746558000,3.053557861328125,2.080817222595215,1.8010354042053223,-0.5945780277252197
1684252783756584200,3.063584228515625,2.0247652530670166,1.9349358081817627,-0.5629849433898926
1684252783766610200,3.073610107421875,1.9479809999465942,1.756205677986145,-0.520222008228302
1684252783776636200,3.08363623046875,1.8463212251663208,1.389101505279541,-0.4626690745353699
1684252783786661000,3.0936611328125,1.721156358718872,1.0186328887939453,-0.3630862832069397
1684252783796687000,3.10368701171875,1.6064643859863281,0.749357283115387,-0.2559887766838074
1684252783806713000,3.113713134765625,1.5064842700958252,0.5523092150688171,-0.15501262247562408
1684252783816739000,3.123739013671875,1.4411989450454712,0.4264681041240692,-0.023707756772637367
1684252783826765000,3.13376513671875,1.3815231323242188,0.3253747522830963,0.13761775195598602
1684252783836791000,3.143791015625,1.3085899353027344,0.2519354820251465,0.35230258107185364
1684252783846817000,3.153817138671875,1.2105627059936523,0.2611660063266754,0.5981988906860352
1684252783856843000,3.163843017578125,1.09648597240448,0.3328067362308502,0.7728354334831238
1684252783866868000,3.173867919921875,0.9897727966308594,0.4174925982952118,0.8738965392112732
1684252783876894000,3.18389404296875,0.8709319829940796,0.45307883620262146,0.9240049719810486
1684252783886920000,3.193919921875,0.7250123620033264,0.43135038018226624,0.9520448446273804
1684252783896946000,3.20394580078125,0.5319516062736511,0.3671984374523163,0.9710074663162231
1684252783906972200,3.21397216796875,0.31654447317123413,0.2706601619720459,1.0100300312042236
1684252783916998100,3.223998046875,0.10319357365369797,0.23401115834712982,1.1347101926803589
1684252783927024000,3.234024169921875,-0.1255147010087967,0.2573108971118927,1.3796504735946655
1684252783937049000,3.244049072265625,-0.3688981831073761,0.24735820293426514,1.7012498378753662
1684252783947075000,3.254074951171875,-0.6032114028930664,0.1322108507156372,2.022334337234497
1684252783957101000,3.26410107421875,-0.8356706500053406,-0.08443481475114822,2.309563636779785
1684252783967127000,3.274126953125,-1.079542875289917,-0.3317556381225586,2.567239999771118
1684252783977153000,3.284153076171875,-1.3336821794509888,-0.5284556746482849,2.7972350120544434
1684252783987179000,3.294178955078125,-1.611147403717041,-0.6767026782035828,2.98067569732666
1684252783997205000,3.304205078125,-1.9043940305709839,-0.7855631113052368,3.0998759269714355
1684252784007231000,3.31423095703125,-2.216465711593628,-0.8495466113090515,3.1312878131866455
1684252784017256000,3.324255859375,-2.527472734451294,-0.7907712459564209,3.0815834999084473
1684252784027282000,3.334281982421875,-2.8252484798431396,-0.5085113048553467,2.8848416805267334
1684252784037308000,3.344307861328125,-3.1066086292266846,0.15024301409721375,2.422978639602661
1684252784047334000,3.354333984375,-3.3789851665496826,1.1250048875808716,1.6882153749465942
1684252784057360100,3.364360107421875,-3.624851703643799,2.2715461254119873,0.8245110511779785
1684252784067386000,3.37438623046875,-3.601071357727051,3.098680257797241,-0.5324784517288208
1684252784077412000,3.384412109375,-3.182802200317383,2.4203784465789795,-2.6421215534210205
1684252784087438000,3.39443798828125,-2.188840866088867,-1.4421523809432983,-3.863337755203247
1684252784097463000,3.404463134765625,-1.0436476469039917,-4.9999284744262695,-2.246312141418457
1684252784107489000,3.414489013671875,-0.8673595190048218,-5.480671405792236,0.12336535006761551
1684252784117515000,3.424514892578125,-0.985204815864563,-3.261117696762085,1.224347472190857
1684252784127541000,3.434541015625,-0.849901556968689,-0.7709364891052246,1.1957651376724243
1684252784137567000,3.44456689453125,-0.8739522099494934,0.844831109046936,0.7300028204917908
1684252784147593000,3.454593017578125,-1.4435551166534424,-1.276868462562561,-1.0806268453598022
1684252784157619000,3.464618896484375,-1.8264816999435425,-2.5166029930114746,-1.9630159139633179
1684252784167644000,3.474643798828125,-1.7286465167999268,-1.4343931674957275,-1.8212417364120483
1684252784177670000,3.484669921875,-1.588813066482544,0.2777595818042755,-1.9355638027191162
1684252784187695900,3.49469580078125,-1.381087303161621,1.870497226715088,-2.1069247722625732
1684252784197721900,3.504721923828125,-1.0593734979629517,3.5374414920806885,-2.1041886806488037
1684252784207748000,3.514748046875,-0.6083240509033203,4.951528072357178,-1.94923996925354
1684252784217774000,3.524774169921875,-0.13197986781597137,6.032129287719727,-1.5817352533340454
1684252784227800000,3.534800048828125,0.15726977586746216,6.480217456817627,-1.1807079315185547
1684252784237826000,3.544825927734375,0.15612608194351196,6.43544340133667,-0.8808390498161316
1684252784247852000,3.55485205078125,-0.12608537077903748,6.016894340515137,-0.6089897155761719
1684252784257877000,3.564876953125,-0.621618390083313,5.281463146209717,-0.21064622700214386
1684252784267903000,3.574903076171875,-1.2475367784500122,3.8670759201049805,0.5548397302627563
1684252784277929000,3.584928955078125,-1.669898271560669,1.2550150156021118,1.7600061893463135
1684252784287955000,3.594954833984375,-1.5788229703903198,-0.8647465109825134,2.642491340637207
1684252784297981000,3.60498095703125,-1.2973402738571167,-1.9251790046691895,2.9408321380615234
1684252784308007000,3.6150068359375,-1.0705233812332153,-2.3572959899902344,2.8692493438720703
1684252784318033000,3.625032958984375,-0.9074380397796631,-2.511594533920288,2.5986742973327637
1684252784328058000,3.63505810546875,-0.7559340000152588,-2.562814235687256,2.22979474067688
1684252784338084000,3.645083984375,-0.607317328453064,-2.6908552646636963,1.8408821821212769
1684252784348110000,3.655110107421875,-0.47385647892951965,-3.059413433074951,1.4588357210159302
1684252784358136000,3.665135986328125,-0.37347570061683655,-3.580838680267334,1.0746159553527832
1684252784368162000,3.675162109375,-0.3025602400302887,-4.0026631355285645,0.6653070449829102
1684252784378188000,3.68518798828125,-0.24131421744823456,-4.146275520324707,0.22782419621944427
1684252784388214000,3.695214111328125,-0.18900254368782043,-4.06728458404541,-0.15654291212558746
1684252784398240000,3.705239990234375,-0.17188231647014618,-3.8489623069763184,-0.3764868378639221
1684252784408265200,3.71526513671875,-0.23765094578266144,-3.4631028175354004,-0.30452820658683777
1684252784418291200,3.725291259765625,-0.44211530685424805,-2.693946123123169,0.0570467971265316
1684252784428317200,3.735317138671875,-0.7491400241851807,-1.2241296768188477,0.3950032591819763
1684252784438343200,3.74534326171875,-1.0366792678833008,0.7405944466590881,0.37961438298225403
1684252784448369200,3.755369140625,-1.229899287223816,2.6020138263702393,0.10370688140392303
1684252784458395000,3.765394775390625,-1.3195879459381104,3.932361602783203,-0.15873786807060242
1684252784468420900,3.7754208984375,-1.3333094120025635,4.637701511383057,-0.26098835468292236
1684252784478446000,3.785446044921875,-1.2866690158843994,4.824530601501465,-0.2192438393831253
1684252784488472000,3.79547216796875,-1.215117335319519,4.631762981414795,-0.12155456840991974
1684252784498498000,3.805498046875,-1.1544893980026245,4.223376274108887,-0.060774948447942734
1684252784508524300,3.815524169921875,-1.0781506299972534,3.8622074127197266,-0.11068231612443924
1684252784518550300,3.82555029296875,-0.9601361155509949,3.6674437522888184,-0.26586446166038513
1684252784528576300,3.835576171875,-0.8071689009666443,3.6407933235168457,-0.4666486978530884
1684252784538602800,3.845602783203125,-0.6297304630279541,3.70003080368042,-0.6715231537818909
1684252784548628700,3.855628662109375,-0.45084914565086365,3.754711389541626,-0.8124334216117859
1684252784558654000,3.865654052734375,-0.29290422797203064,3.7076046466827393,-0.8330529928207397
1684252784568680000,3.875679931640625,-0.14573554694652557,3.511153221130371,-0.7381706833839417
1684252784578705700,3.88570556640625,-0.013618347235023975,3.253009557723999,-0.5865036845207214
1684252784588731600,3.895731689453125,0.042077139019966125,3.0598630905151367,-0.4468485713005066
1684252784598757600,3.905757568359375,0.012781700119376183,2.968228816986084,-0.3836914598941803
1684252784608784000,3.915783935546875,-0.07966247946023941,3.044142484664917,-0.41901668906211853
1684252784618809900,3.925809814453125,-0.1699884682893753,3.2906689643859863,-0.5195610523223877
1684252784628835800,3.9358359375,-0.23977793753147125,3.652000665664673,-0.6645592451095581
1684252784638861000,3.945861083984375,-0.27586355805397034,4.049647331237793,-0.8242570161819458
1684252784648887000,3.955886962890625,-0.2528272271156311,4.514458656311035,-0.9483379125595093
1684252784658913000,3.9659130859375,-0.18742261826992035,4.992508888244629,-1.0582962036132812
1684252784668938800,3.975938720703125,-0.12043454498052597,5.257308006286621,-1.1396418809890747
1684252784678964700,3.98596484375,-0.0795697569847107,5.326704978942871,-1.1900181770324707
1684252784688990700,3.99599072265625,0.00022254209034144878,5.094600200653076,-1.2301254272460938
1684252784699016700,4.0060166015625,0.1403956264257431,4.1454339027404785,-1.203821063041687
1684252784709042700,4.016042724609375,0.2270788550376892,2.5059971809387207,-1.1219829320907593
1684252784719068000,4.02606787109375,0.16906407475471497,0.39137381315231323,-1.0432971715927124
1684252784729094000,4.036093994140625,-0.059424497187137604,-2.0127742290496826,-0.9953679442405701
1684252784739119900,4.046119873046875,-0.3317624628543854,-4.234719276428223,-1.0357590913772583
1684252784749145900,4.056145751953125,-0.3722001612186432,-5.6957244873046875,-1.139033317565918
1684252784759171800,4.066171875,-0.13301929831504822,-6.444398880004883,-1.2118213176727295
1684252784769197800,4.07619775390625,0.2354506105184555,-6.799890518188477,-1.156956434249878
1684252784779223800,4.086223876953125,0.7754267454147339,-6.427006721496582,-0.08807916939258575
1684252784789249000,4.0962490234375,1.5012760162353516,-4.964552402496338,1.721621036529541
1684252784799275000,4.10627490234375,1.3775980472564697,-4.148743152618408,1.093863844871521
1684252784809301000,4.116301025390625,1.0422570705413818,-2.7442855834960938,-0.1313491314649582
1684252784819327000,4.126326904296875,0.9597072005271912,-0.8047569394111633,-1.1340805292129517
1684252784829353000,4.13635302734375,1.0582414865493774,1.1221661567687988,-1.867411494255066
1684252784839379000,4.14637890625,1.0547235012054443,2.1406478881835938,-2.4632914066314697
1684252784849405000,4.156405029296875,0.9037827849388123,1.9171427488327026,-2.7105677127838135
1684252784859431000,4.166430908203125,0.7069112658500671,0.6734269857406616,-2.258375883102417
1684252784869456000,4.176455810546875,0.5195996761322021,-0.5087390542030334,-1.301167368888855
1684252784879481900,4.18648193359375,0.3952460289001465,-0.937019407749176,-0.42300236225128174
1684252784889507800,4.1965078125,0.3732408583164215,-1.0570238828659058,0.053041402250528336
1684252784899533800,4.206533935546875,0.41820210218429565,-1.2563546895980835,0.17353174090385437
1684252784909560000,4.21656005859375,0.5010645389556885,-1.543009877204895,0.0716695562005043
1684252784919586000,4.2265859375,0.5913472175598145,-1.7691364288330078,-0.12415298074483871
1684252784929612000,4.236612060546875,0.652948796749115,-1.6357351541519165,-0.29967179894447327
1684252784939637000,4.246636962890625,0.6640224456787109,-1.114492416381836,-0.36056020855903625
1684252784949663000,4.2566630859375,0.5921064615249634,-0.6442996859550476,-0.3439452648162842
1684252784959689000,4.26668896484375,0.509735643863678,-0.6099013686180115,-0.3846251666545868
1684252784969715000,4.27671484375,0.43826016783714294,-0.6988224387168884,-0.47565123438835144
1684252784979741000,4.286740966796875,0.36652523279190063,-0.7089034914970398,-0.5217808485031128
1684252784989767000,4.296766845703125,0.2922757863998413,-0.7070584297180176,-0.5258605480194092
1684252784999793000,4.30679296875,0.21135294437408447,-0.6656960844993591,-0.5422662496566772
1684252785009819000,4.31681884765625,0.1442418098449707,-0.5637313723564148,-0.5607230067253113
1684252785019843800,4.32684375,0.10527869313955307,-0.4913879632949829,-0.5170132517814636
1684252785029869800,4.336869873046875,0.08828559517860413,-0.4874795079231262,-0.40994593501091003
1684252785039895800,4.346895751953125,0.07962823659181595,-0.5390282273292542,-0.24348041415214539
1684252785049921800,4.356921875,0.05041282996535301,-0.6195968389511108,-0.027225883677601814
1684252785059948000,4.366947998046875,-0.007902536541223526,-0.6926926374435425,0.19821293652057648
1684252785069974000,4.37697412109375,-0.10229188948869705,-0.7394492626190186,0.4495631456375122
1684252785080000000,4.387,-0.23084764182567596,-0.7504048347473145,0.7263920307159424
1684252785090026000,4.39702587890625,-0.38740235567092896,-0.7505483627319336,1.0183453559875488
1684252785100051000,4.407051025390625,-0.5882365107536316,-0.7735218405723572,1.2763978242874146
1684252785110077000,4.417076904296875,-0.8041437864303589,-0.7897918820381165,1.407039999961853
1684252785120103000,4.42710302734375,-1.0188359022140503,-0.7793393135070801,1.3925457000732422
1684252785130129000,4.43712890625,-1.2454060316085815,-0.6896874308586121,1.2598356008529663
1684252785140155000,4.44715478515625,-1.4659645557403564,-0.5095042586326599,1.0693423748016357
1684252785150180900,4.457180908203125,-1.6502898931503296,-0.24063926935195923,0.89914870262146
1684252785160206800,4.467206787109375,-1.7965960502624512,0.08172285556793213,0.7850056290626526
1684252785170231800,4.477231689453125,-1.8562895059585571,0.47501716017723083,0.7268387079238892
1684252785180257800,4.4872578125,-1.8384840488433838,0.8771091103553772,0.7952615022659302
1684252785190283800,4.49728369140625,-1.7681670188903809,1.2574759721755981,1.0520493984222412
1684252785200309800,4.507309814453125,-1.6498346328735352,1.6876540184020996,1.4045400619506836
1684252785210336000,4.5173359375,-1.4857757091522217,2.1283013820648193,1.7684005498886108
1684252785220362000,4.527362060546875,-1.2582497596740723,2.3968281745910645,2.1363136768341064
1684252785230388000,4.537387939453125,-0.9179285764694214,2.432560920715332,2.426194190979004
1684252785240414000,4.5474140625,-0.41932520270347595,2.4011409282684326,2.4980034828186035
1684252785250439000,4.55743896484375,0.1893884688615799,2.377967357635498,2.3498239517211914
1684252785260465000,4.56746484375,0.9068483710289001,2.3928306102752686,2.082897186279297
1684252785270491000,4.577490966796875,1.6872501373291016,2.014930009841919,1.8724654912948608
1684252785280516900,4.587516845703125,2.2360551357269287,1.3060832023620605,1.602871060371399
1684252785290542800,4.59754296875,2.1661176681518555,0.8822117447853088,1.0436700582504272
1684252785300568800,4.60756884765625,1.5206348896026611,-3.0704216957092285,0.0708891749382019
1684252785310594800,4.6175947265625,0.7367342114448547,-6.880303382873535,-0.6656714081764221
1684252785320620800,4.627620849609375,0.36381998658180237,-7.480844974517822,-0.762057900428772
1684252785330645800,4.637645751953125,0.5384032130241394,-5.443870544433594,-0.32976245880126953
1684252785340671700,4.647671630859375,0.8873849511146545,-3.0437207221984863,0.00793116819113493
1684252785350697700,4.65769775390625,1.2835581302642822,-1.2523962259292603,0.031138218939304352
1684252785360724000,4.667723876953125,1.5259555578231812,-0.10324426740407944,-0.4881984293460846
1684252785370750000,4.67775,1.6918689012527466,0.2756074368953705,-1.166401743888855
1684252785380776000,4.68777587890625,1.7220227718353271,-0.019360916689038277,-1.6188733577728271
1684252785390802000,4.697802001953125,1.5195852518081665,-1.4077434539794922,-1.4981082677841187
1684252785400827000,4.707826904296875,1.054137110710144,-3.3301610946655273,-0.9733167290687561
1684252785410852900,4.717852783203125,0.6327650547027588,-4.8952250480651855,-0.5513191819190979
1684252785420878800,4.72787890625,0.3827230930328369,-5.642549991607666,-0.39390289783477783
1684252785430904800,4.73790478515625,0.36044228076934814,-5.673925399780273,-0.40796491503715515
1684252785440930800,4.747930908203125,0.3908325135707855,-5.21010684967041,-0.42362529039382935
1684252785450956800,4.757956787109375,0.33576419949531555,-4.489513397216797,-0.33312681317329407
1684252785460982800,4.767982666015625,0.1782406121492386,-3.6550912857055664,-0.17040328681468964
1684252785471008800,4.7780087890625,-0.06068034842610359,-2.1391830444335938,0.3270368278026581
1684252785481033700,4.78803369140625,-0.4662036597728729,0.8283664584159851,1.481648325920105
1684252785491059700,4.798059814453125,-0.8306921124458313,2.6966819763183594,2.083420515060425
1684252785501085700,4.808085693359375,-0.9956086874008179,3.474759817123413,2.085155963897705
1684252785511111700,4.818111572265625,-1.0838208198547363,3.9717605113983154,1.8935672044754028
1684252785521138000,4.828137939453125,-1.1405580043792725,4.379940986633301,1.6606773138046265
1684252785531164000,4.838163818359375,-1.1906442642211914,4.755090713500977,1.484020709991455
1684252785541189000,4.848189208984375,-1.2421133518218994,5.318455696105957,1.4733905792236328
1684252785551214300,4.85821435546875,-1.3394372463226318,6.174403667449951,1.7444846630096436
1684252785561240300,4.868240234375,-1.4390512704849243,7.0190839767456055,2.273289680480957
1684252785571266000,4.87826611328125,-1.4767708778381348,7.117708206176758,2.8793697357177734
1684252785581292000,4.8882919921875,-1.4412002563476562,5.933331489562988,3.249696969985962
1684252785591318000,4.898318115234375,-1.2672975063323975,3.4060864448547363,2.5357930660247803
1684252785601344000,4.908343994140625,-0.9961512684822083,0.9622964859008789,1.0591524839401245
1684252785611370000,4.918369873046875,-0.8070204854011536,-0.5448143482208252,0.012606361880898476
1684252785621396000,4.92839599609375,-0.6325792074203491,-1.537880539894104,-0.7028999328613281
1684252785631421200,4.938421142578125,-0.4518781304359436,-2.2185957431793213,-1.1531319618225098
1684252785641447200,4.948447265625,-0.33969226479530334,-2.718714714050293,-1.3568495512008667
1684252785651473200,4.95847314453125,-0.2953421175479889,-3.056983709335327,-1.3578144311904907
1684252785661499100,4.9684990234375,-0.3346785306930542,-3.084592580795288,-1.0453054904937744
1684252785671525000,4.978525146484375,-0.44006967544555664,-2.5662777423858643,-0.3058132827281952
1684252785681551000,4.988551025390625,-0.47465839982032776,-1.6624876260757446,0.4946540296077728
1684252785691577000,4.9985771484375,-0.4080708622932434,-0.9481468200683594,0.8419462442398071
1684252785701603000,5.00860302734375,-0.27136489748954773,-0.4689349830150604,0.7708487510681152
1684252785711628300,5.018628173828125,-0.1509023904800415,-0.0802847146987915,0.5610877871513367
1684252785721654300,5.028654296875,-0.046046189963817596,0.255838006734848,0.44206732511520386
1684252785731680300,5.03868017578125,0.019005781039595604,0.5269278287887573,0.5634925365447998
1684252785741706200,5.048706298828125,0.05666491389274597,0.7787793874740601,0.8672536015510559
1684252785751732200,5.058732177734375,0.06877297163009644,0.9850580096244812,1.1844228506088257
1684252785761758200,5.06875830078125,0.05395741015672684,1.0294244289398193,1.350393533706665
1684252785771784200,5.0787841796875,0.01474236510694027,0.6296107172966003,1.186678409576416
1684252785781809200,5.08880908203125,-0.030582372099161148,-0.3067302107810974,0.7268170118331909
1684252785791835100,5.098835205078125,-0.04085977375507355,-1.2959673404693604,0.18864008784294128
1684252785801861000,5.108861083984375,0.009106669574975967,-1.8058222532272339,-0.47642046213150024
1684252785811887000,5.11888720703125,0.0629400759935379,-1.853655219078064,-1.2433555126190186
1684252785821913000,5.1289130859375,0.12473765760660172,-1.5654771327972412,-1.9580836296081543
1684252785831939300,5.138939208984375,0.22563977539539337,-1.1102237701416016,-2.5148985385894775
1684252785841965300,5.14896533203125,0.32395076751708984,-0.8877274394035339,-2.6168882846832275
1684252785851991300,5.1589912109375,0.3484710156917572,-1.2035399675369263,-2.2020678520202637
1684252785862016300,5.169016357421875,0.4152313470840454,-1.566748857498169,-1.7503094673156738
1684252785872042200,5.179042236328125,0.5576534867286682,-1.5517816543579102,-1.5271201133728027
1684252785882068200,5.189068115234375,0.7705053091049194,-0.5530555844306946,-1.0506795644760132
1684252785892094200,5.19909423828125,0.7665534019470215,1.6548271179199219,-0.007776636630296707
1684252785902120200,5.2091201171875,0.6725038886070251,3.038640022277832,0.5258699059486389
1684252785912146200,5.219146240234375,0.5803576707839966,3.5534112453460693,0.5580060482025146
1684252785922172200,5.229172119140625,0.45794451236724854,3.5564377307891846,-0.05515573173761368
1684252785932197000,5.239197021484375,0.31213513016700745,2.6649892330169678,-2.178779125213623
1684252785942223000,5.24922314453125,0.01549333892762661,1.5415443181991577,-4.100440979003906
1684252785952249000,5.2592490234375,-0.4248656630516052,0.7521896958351135,-4.937556743621826
1684252785962275000,5.269275146484375,-0.8663109540939331,0.24555282294750214,-5.003100395202637
1684252785972301000,5.279301025390625,-1.11186683177948,0.021164190024137497,-4.696305274963379
1684252785982327300,5.289327392578125,-1.0514378547668457,-0.13719545304775238,-4.125587463378906
1684252785992353300,5.299353271484375,-0.6406399011611938,-0.07376507669687271,-3.3078300952911377
1684252786002379300,5.309379150390625,0.017079154029488564,0.1423625946044922,-2.359710931777954
1684252786012404200,5.319404296875,0.6222792863845825,0.3697044253349304,-1.5012543201446533
1684252786022430200,5.32943017578125,1.0364426374435425,0.3517148792743683,-0.9297563433647156
1684252786032456200,5.339456298828125,1.2719008922576904,-0.037345241755247116,-0.7203757166862488
1684252786042482200,5.349482177734375,1.4355124235153198,-0.7562726736068726,-0.7633844614028931
1684252786052508200,5.359508056640625,1.5690572261810303,-1.464377999305725,-0.8063146471977234
1684252786062534100,5.3695341796875,1.6096972227096558,-1.9168872833251953,-0.7543650269508362
1684252786072560000,5.37956005859375,1.5745240449905396,-2.047215700149536,-0.6109607219696045
1684252786082585000,5.389585205078125,1.465311050415039,-1.9259201288223267,-0.45087501406669617
1684252786092611000,5.399611083984375,1.2886369228363037,-1.5399936437606812,-0.3329893946647644
1684252786102637000,5.409636962890625,1.0685203075408936,-1.0490838289260864,-0.28997284173965454
1684252786112663000,5.4196630859375,0.8351906538009644,-0.49697867035865784,-0.2577800154685974
1684252786122689000,5.42968896484375,0.5914467573165894,0.12266577035188675,-0.21797770261764526
1684252786132715000,5.439715087890625,0.40288135409355164,0.6673258543014526,-0.19153277575969696
1684252786142741200,5.4497412109375,0.24451275169849396,1.0819282531738281,-0.21924345195293427
1684252786152767200,5.459767333984375,0.10866010934114456,1.3655115365982056,-0.313273549079895
1684252786162792200,5.469792236328125,-0.005194236058741808,1.5281050205230713,-0.4165326952934265
1684252786172818200,5.479818115234375,-0.09306789934635162,1.5912232398986816,-0.42921385169029236
1684252786182844200,5.48984423828125,-0.17645399272441864,1.6511789560317993,-0.35324200987815857
1684252786192870100,5.4998701171875,-0.25860852003097534,1.8049530982971191,-0.19366459548473358
1684252786202896100,5.509896240234375,-0.33274737000465393,2.065157890319824,0.0033886143937706947
1684252786212922000,5.519922119140625,-0.40128037333488464,2.436859130859375,0.22468876838684082
1684252786222948000,5.529947998046875,-0.48905423283576965,2.9919683933258057,0.42586851119995117
1684252786232973000,5.53997314453125,-0.6200194358825684,3.499277114868164,0.5965211987495422
1684252786242999000,5.5499990234375,-0.7211755514144897,3.904762029647827,0.6952887773513794
1684252786253025000,5.56002490234375,-0.7660783529281616,4.259198188781738,0.733357310295105
1684252786263051000,5.570051025390625,-0.8059974312782288,4.483579158782959,0.7959080338478088
1684252786273077000,5.580076904296875,-0.8186399340629578,4.635946273803711,0.939193844795227
1684252786283103000,5.59010302734375,-0.7762175798416138,4.7385358810424805,1.1692450046539307
1684252786293129200,5.600129150390625,-0.6699281930923462,4.686984062194824,1.483542561531067
1684252786303154000,5.61015380859375,-0.35604363679885864,4.217403411865234,1.7301819324493408
1684252786313180200,5.62018017578125,0.158954456448555,1.672299861907959,-0.17569096386432648
1684252786323206100,5.6302060546875,0.8597312569618225,-0.35969236493110657,-1.2508774995803833
1684252786333232000,5.640232177734375,1.3312039375305176,-1.7085202932357788,-0.9927127957344055
1684252786343258000,5.650258056640625,1.3929420709609985,-2.5596094131469727,-0.35312533378601074
1684252786353284000,5.6602841796875,1.1659488677978516,-2.8833534717559814,0.11463415622711182
1684252786363310000,5.67031005859375,0.8698415160179138,-2.726466417312622,0.3316669166088104
1684252786373336000,5.680336181640625,0.6573305726051331,-2.3476762771606445,0.4620150625705719
1684252786383361000,5.690361083984375,0.5130538940429688,-1.8290258646011353,0.6054853796958923
1684252786393387000,5.700386962890625,0.47933560609817505,-1.0297858715057373,0.8101415634155273
1684252786403413000,5.7104130859375,0.4178105294704437,-0.06834106892347336,0.7896648645401001
1684252786413439000,5.72043896484375,0.30386584997177124,0.8008038997650146,0.3831823170185089
1684252786423465000,5.73046484375,0.14185424149036407,1.5472155809402466,-0.20881427824497223
1684252786433491000,5.740490966796875,-0.05795207992196083,2.1257309913635254,-0.7913069725036621
1684252786443517200,5.75051708984375,-0.3089849352836609,2.5471131801605225,-1.1872855424880981
1684252786453542000,5.7605419921875,-0.5514166951179504,2.8045694828033447,-1.2913738489151
1684252786463568100,5.770568115234375,-0.7296590209007263,2.9616425037384033,-1.1208640336990356
1684252786473594000,5.780593994140625,-0.7885889410972595,3.185255289077759,-0.694352924823761
1684252786483620000,5.7906201171875,-0.6332933306694031,3.5385148525238037,0.14682482182979584
1684252786493646000,5.80064599609375,-0.2635640501976013,3.934094190597534,1.3543553352355957
1684252786503672000,5.810672119140625,0.08686764538288116,4.108421325683594,2.2905149459838867
1684252786513698000,5.820697998046875,0.25655999779701233,4.153280258178711,2.6698079109191895
1684252786523724000,5.83072412109375,0.23739531636238098,4.144573211669922,2.6718199253082275
1684252786533749000,5.8407490234375,0.15509219467639923,4.0255818367004395,2.451916217803955
1684252786543775000,5.85077490234375,0.06437316536903381,3.7796878814697266,2.123283624649048
1684252786553801000,5.860801025390625,-0.015171991661190987,3.3764593601226807,1.7571184635162354
1684252786563827000,5.870826904296875,-0.13035935163497925,2.809774875640869,1.432159662246704
1684252786573853000,5.88085302734375,-0.267780601978302,2.0551068782806396,1.1713240146636963
1684252786583879000,5.89087890625,-0.32124701142311096,1.3697086572647095,0.9629175662994385
1684252786593905000,5.90090478515625,-0.25838735699653625,0.8111100792884827,0.7357699275016785
1684252786603930000,5.91093017578125,-0.10187585651874542,0.36750295758247375,0.49173545837402344
1684252786613956000,5.9209560546875,0.028403587639331818,0.05439271777868271,0.2373761534690857
1684252786623982000,5.930982177734375,-0.03605090454220772,-0.03304434195160866,0.04754714295268059
1684252786634007800,5.9410078125,-0.2939301133155823,0.010702608153223991,-0.0867914929986
1684252786644033800,5.95103369140625,-0.6340013146400452,0.18102297186851501,-0.15938101708889008
1684252786654059800,5.961059814453125,-1.0183719396591187,0.4900151789188385,-0.16137653589248657
1684252786664085800,5.971085693359375,-1.4235234260559082,0.9153648018836975,-0.12471087276935577
1684252786674112000,5.981112060546875,-1.6558477878570557,1.3853956460952759,-0.0694340392947197
1684252786684137000,5.991136962890625,-1.6341609954833984,1.7632241249084473,0.015237901359796524
1684252786694163200,6.0011630859375,-1.4408715963363647,2.0917937755584717,0.08121185749769211
1684252786704189200,6.011189208984375,-1.1809182167053223,2.3971476554870605,0.1575593501329422
1684252786714215200,6.021215087890625,-0.9766010642051697,2.6286075115203857,0.28486084938049316
1684252786724241000,6.031240966796875,-0.8659998774528503,2.852785110473633,0.3921453058719635
1684252786734267000,6.041266845703125,-0.7817726135253906,3.0593931674957275,0.4453616440296173
1684252786744292900,6.05129296875,-0.6115050315856934,3.150017499923706,0.39120355248451233
1684252786754318000,6.061318115234375,-0.3294432461261749,2.9916539192199707,0.24844108521938324
1684252786764344000,6.071343994140625,-0.00643487274646759,2.771094560623169,0.13116061687469482
1684252786774370000,6.0813701171875,0.262295663356781,2.712103843688965,0.10821881145238876
1684252786784396000,6.09139599609375,0.4372352063655853,2.7338132858276367,0.1302095204591751
1684252786794422000,6.101422119140625,0.5077293515205383,2.6739444732666016,0.10754254460334778
1684252786804448000,6.111447998046875,0.4195389151573181,2.3655834197998047,-0.17946654558181763
1684252786814474000,6.121473876953125,0.21726520359516144,1.8592122793197632,-0.574469268321991
1684252786824500000,6.1315,0.0004288086201995611,1.3316727876663208,-0.8130919933319092
1684252786834525000,6.14152490234375,-0.1454748660326004,0.8870916962623596,-0.8571486473083496
1684252786844551200,6.15155126953125,-0.19176669418811798,0.6270913481712341,-0.7745153903961182
1684252786854577200,6.1615771484375,-0.18091510236263275,0.5452628135681152,-0.629871129989624
1684252786864603100,6.17160302734375,-0.14454035460948944,0.6123149991035461,-0.4838913381099701
1684252786874629000,6.181629150390625,-0.09351631999015808,0.7814467549324036,-0.35410910844802856
1684252786884655000,6.191655029296875,-0.013547463342547417,0.9589636325836182,-0.23353742063045502
1684252786894681000,6.20168115234375,0.07935797423124313,1.1085965633392334,-0.14914236962795258
1684252786904706000,6.2117060546875,0.1517328917980194,1.240354061126709,-0.11292628198862076
1684252786914732000,6.22173193359375,0.2020498514175415,1.3827165365219116,-0.12605886161327362
1684252786924758000,6.231758056640625,0.2310926467180252,1.5616157054901123,-0.1736781746149063
1684252786934784000,6.241783935546875,0.2321065068244934,1.770240306854248,-0.2476392239332199
1684252786944810000,6.25181005859375,0.20091907680034637,1.9811652898788452,-0.35019922256469727
1684252786954836000,6.2618359375,0.13608494400978088,2.1986498832702637,-0.47231554985046387
1684252786964862000,6.271862060546875,0.03234283998608589,2.423525333404541,-0.5856490135192871
1684252786974888200,6.28188818359375,-0.08973806351423264,2.6354787349700928,-0.6693279147148132
1684252786984913000,6.291912841796875,-0.2044217586517334,2.796379566192627,-0.7139561772346497
1684252786994939100,6.301939208984375,-0.29994216561317444,2.8801567554473877,-0.7324965596199036
1684252787004965000,6.311965087890625,-0.386954128742218,2.865048885345459,-0.7523394823074341
1684252787014991000,6.3219912109375,-0.4567992687225342,2.7661755084991455,-0.7943412661552429
1684252787025017000,6.33201708984375,-0.4771552085876465,2.6093690395355225,-0.8689880967140198
1684252787035043000,6.34204296875,-0.43856680393218994,2.432124137878418,-0.9658297300338745
1684252787045069000,6.352069091796875,-0.35608750581741333,2.3043339252471924,-1.0653119087219238
1684252787055094000,6.362093994140625,-0.27060455083847046,2.2087903022766113,-1.1679551601409912
1684252787065120000,6.3721201171875,-0.2060951590538025,2.160722017288208,-1.2645872831344604
1684252787075146000,6.38214599609375,-0.14495377242565155,2.1107177734375,-1.3437124490737915
1684252787085172000,6.392171875,-0.10312572121620178,1.9960891008377075,-1.374687910079956
1684252787095198000,6.402197998046875,-0.05585967376828194,1.806544542312622,-1.3556677103042603
1684252787105224000,6.412223876953125,0.014007865451276302,1.5717494487762451,-1.2834722995758057
1684252787115250000,6.42225,0.10982707142829895,1.3840786218643188,-1.2020378112792969
1684252787125275000,6.43227490234375,0.23128758370876312,1.4031379222869873,-1.1750187873840332
1684252787135300900,6.44230078125,0.34946829080581665,1.6208593845367432,-1.208080530166626
1684252787145327000,6.4523271484375,0.4497631788253784,1.9383013248443604,-1.251897931098938
1684252787155353000,6.46235302734375,0.5044738054275513,2.244357109069824,-1.2129281759262085
1684252787165379000,6.472379150390625,0.47687724232673645,2.4886138439178467,-0.9690009951591492
1684252787175405000,6.482405029296875,0.3681395649909973,2.634136199951172,-0.5255364775657654
1684252787185431000,6.49243115234375,0.2507633566856384,2.672344207763672,-0.13896264135837555
1684252787195457000,6.50245703125,0.19373977184295654,2.6005184650421143,-0.30150389671325684
1684252787205482000,6.51248193359375,0.16089247167110443,2.5591955184936523,-0.9941244125366211
1684252787215508000,6.522508056640625,0.08110469579696655,2.709559917449951,-1.7309068441390991
1684252787225534000,6.532533935546875,-0.0242781825363636,2.991346836090088,-2.3108561038970947
1684252787235560000,6.542559814453125,-0.07448329776525497,3.247947931289673,-2.6786935329437256
1684252787245586000,6.5525859375,-0.0024615635629743338,3.4478373527526855,-2.830930233001709
1684252787255612000,6.56261181640625,0.16455964744091034,3.4844162464141846,-2.774045705795288
1684252787265638000,6.572637939453125,0.3940512239933014,3.413100004196167,-2.598240375518799
1684252787275662800,6.582662841796875,0.6786720156669617,3.3643312454223633,-2.4002091884613037
1684252787285688800,6.592688720703125,0.9998142123222351,3.4349827766418457,-2.230797529220581
1684252787295715000,6.602715087890625,1.3047959804534912,3.643904447555542,-2.077043056488037
1684252787305741000,6.612740966796875,1.5386415719985962,3.8771746158599854,-1.9389376640319824
1684252787315767000,6.62276708984375,1.6521189212799072,3.922123908996582,-1.7564085721969604
1684252787325793000,6.63279296875,1.66181218624115,3.7748754024505615,-1.5143438577651978
1684252787335819000,6.642819091796875,1.5904746055603027,3.4815571308135986,-1.2133430242538452
1684252787345844000,6.652843994140625,1.4472054243087769,3.1462838649749756,-0.9307571053504944
1684252787355870000,6.662869873046875,1.3019698858261108,2.844839572906494,-0.7346121072769165
1684252787365896000,6.67289599609375,1.1988621950149536,2.588973045349121,-0.6227757930755615
1684252787375922000,6.682921875,1.1479524374008179,2.347975254058838,-0.5491154193878174
1684252787385948000,6.692947998046875,1.1138328313827515,2.1238481998443604,-0.4788300693035126
1684252787395974000,6.702973876953125,1.0692353248596191,1.9433673620224,-0.3989773392677307
1684252787405999900,6.712999755859375,1.0347933769226074,1.8419232368469238,-0.31131139397621155
1684252787416025900,6.72302587890625,1.0383780002593994,1.860219120979309,-0.23511356115341187
1684252787426050800,6.73305078125,1.0715391635894775,2.015984535217285,-0.15511095523834229
1684252787436076800,6.743076904296875,1.1246607303619385,2.3149805068969727,-0.04352425038814545
1684252787446103000,6.75310302734375,1.1444098949432373,2.678764581680298,0.0899934247136116
1684252787456129000,6.76312890625,1.150554895401001,3.0909671783447266,0.23243632912635803
1684252787466155000,6.773155029296875,1.1833617687225342,3.505842924118042,0.3587642014026642
1684252787476181000,6.783180908203125,1.2169407606124878,3.80910587310791,0.4608311653137207
1684252787486207000,6.79320703125,1.2218791246414185,3.925248622894287,0.46872249245643616
1684252787496232000,6.80323193359375,1.220676064491272,3.898898124694824,0.2750403583049774
1684252787506258000,6.8132578125,1.1590794324874878,3.6838974952697754,-0.07805348187685013
1684252787516284000,6.823283935546875,1.0380749702453613,3.177074670791626,-0.4227440357208252
1684252787526310000,6.833309814453125,0.9223412871360779,2.453916072845459,-0.6221391558647156
1684252787536336000,6.8433359375,0.8693739771842957,1.6544544696807861,-0.6345611810684204
1684252787546363000,6.85336279296875,0.9144815802574158,0.9617012143135071,-0.513592004776001
1684252787556388900,6.863388916015625,1.075287938117981,0.5542860627174377,-0.3187157213687897
1684252787566414800,6.873414794921875,1.3326349258422852,0.5766680836677551,-0.056138262152671814
1684252787576439800,6.883439697265625,1.5857727527618408,0.8317813277244568,0.10986188799142838
1684252787586465800,6.8934658203125,1.7201240062713623,0.8654643893241882,0.04714810848236084
1684252787596491800,6.90349169921875,1.7765647172927856,0.8138949275016785,-0.08425838500261307
1684252787606517800,6.913517822265625,1.8407241106033325,0.9369221329689026,-0.1783696413040161
1684252787616543700,6.923543701171875,1.8912978172302246,1.1485787630081177,-0.2892814874649048
1684252787626569700,6.93356982421875,1.923781156539917,1.3963595628738403,-0.39948931336402893
1684252787636595700,6.943595703125,1.9053022861480713,1.585964560508728,-0.46167120337486267
1684252787646620700,6.95362060546875,1.8304328918457031,1.6843189001083374,-0.5211249589920044
1684252787656646700,6.963646728515625,1.702465295791626,1.6567034721374512,-0.5905777812004089
1684252787666672600,6.973672607421875,1.4763808250427246,1.5577375888824463,-0.6195338368415833
1684252787676699000,6.983698974609375,1.1974067687988281,1.4461114406585693,-0.589590311050415
1684252787686724900,6.993724853515625,0.9101260900497437,1.32801353931427,-0.5192495584487915
1684252787696750800,7.003750732421875,0.6256677508354187,1.151564121246338,-0.42713698744773865
1684252787706776800,7.01377685546875,0.358725905418396,0.9152412414550781,-0.31963643431663513
1684252787716801800,7.0238017578125,0.12198874354362488,0.6647840142250061,-0.1721002459526062
1684252787726827800,7.033827880859375,-0.07119971513748169,0.4503439664840698,0.01684478111565113
1684252787736853800,7.043853759765625,-0.23753036558628082,0.2943706214427948,0.25268927216529846
1684252787746879700,7.053879638671875,-0.38695698976516724,0.19505146145820618,0.5306199193000793
1684252787756905700,7.06390576171875,-0.5114395618438721,0.15086908638477325,0.8210046291351318
1684252787766931700,7.073931640625,-0.6140892505645752,0.13132794201374054,1.0988967418670654
1684252787776957700,7.083957763671875,-0.7300387620925903,0.1277553141117096,1.3544621467590332
1684252787786983700,7.093983642578125,-0.8812373876571655,0.13019174337387085,1.6028215885162354
1684252787797008600,7.104008544921875,-1.084787368774414,0.1336999237537384,1.8344364166259766
1684252787807034600,7.11403466796875,-1.3126424551010132,0.14783011376857758,2.043010711669922
1684252787817060600,7.124060546875,-1.538894534111023,0.15398414433002472,2.2272419929504395
1684252787827086800,7.1340869140625,-1.7267500162124634,0.11959143728017807,2.400644302368164
1684252787837112800,7.14411279296875,-1.8383556604385376,0.06811200082302094,2.542954206466675
1684252787847138800,7.154138916015625,-1.8292521238327026,0.08415956795215607,2.670314073562622
1684252787857164800,7.164164794921875,-1.6585397720336914,0.2010030895471573,2.7969284057617188
1684252787867189800,7.174189697265625,-1.4447602033615112,0.28084784746170044,2.8862862586975098
1684252787877215700,7.1842158203125,-1.27957284450531,0.2025490403175354,2.7578463554382324
1684252787887241700,7.19424169921875,-1.1940921545028687,0.041502077132463455,2.195861339569092
1684252787897267700,7.204267822265625,-1.2639455795288086,-0.07820248603820801,1.4421699047088623
1684252787907293700,7.214293701171875,-1.747094750404358,-0.34102097153663635,0.6723698973655701
1684252787917319700,7.224319580078125,-2.798645496368408,-1.2494792938232422,0.012435904704034328
1684252787927345700,7.234345703125,-3.3304834365844727,-3.8917315006256104,-0.29870665073394775
1684252787937371000,7.244370849609375,-2.5172624588012695,-5.504531383514404,0.501003086566925
1684252787947396900,7.25439697265625,-1.2164654731750488,-4.760134220123291,1.190110683441162
1684252787957422800,7.2644228515625,-0.19406644999980927,-3.3513402938842773,1.5685176849365234
1684252787967448800,7.27444873046875,0.4139282703399658,-1.7679136991500854,1.7559157609939575
1684252787977474800,7.284474853515625,0.7314090728759766,-0.2653168737888336,1.7146985530853271
1684252787987500800,7.294500732421875,0.8719612956047058,1.056875467300415,1.52805495262146
1684252787997526800,7.30452685546875,0.872699499130249,2.020228862762451,1.2489356994628906
1684252788007552800,7.314552734375,0.6477179527282715,2.3569693565368652,0.6169542074203491
1684252788017578000,7.324577880859375,0.23020941019058228,2.433842182159424,-0.008214869536459446
1684252788027604000,7.33460400390625,-0.2579575777053833,2.59059476852417,-0.27629098296165466
1684252788037630000,7.3446298828125,-0.7673302888870239,2.6107473373413086,-0.4863102436065674
1684252788047656000,7.354656005859375,-1.2914189100265503,2.3690903186798096,-0.7816542387008667
1684252788057682000,7.364681884765625,-1.7810996770858765,1.930450201034546,-1.0624457597732544
1684252788067708000,7.3747080078125,-2.1785013675689697,1.484496831893921,-1.2600512504577637
1684252788077733600,7.384733642578125,-2.4245119094848633,1.0779039859771729,-1.3289999961853027
1684252788087758800,7.3947587890625,-2.4616544246673584,0.5847783088684082,-1.2530653476715088
1684252788097784800,7.404784912109375,-2.163562774658203,0.15251533687114716,-1.019864797592163
1684252788107810800,7.414810791015625,-1.6044665575027466,-0.16067387163639069,-0.734311044216156
1684252788117836800,7.4248369140625,-1.0318344831466675,0.08912237733602524,0.1405690461397171
1684252788127863000,7.434863037109375,-0.715300977230072,0.7501206398010254,1.8629488945007324
1684252788137889000,7.444888916015625,-0.29485180974006653,0.8167507648468018,2.95044207572937
1684252788147915000,7.4549150390625,0.2716805338859558,0.6665806174278259,3.3927063941955566
1684252788157940000,7.46493994140625,0.7931150197982788,0.44024011492729187,3.396665573120117
1684252788167966000,7.474966064453125,1.1413259506225586,-0.5968446135520935,2.9802536964416504
1684252788177992000,7.484991943359375,1.2484697103500366,-2.4185826778411865,1.9609249830245972
1684252788188018000,7.495017822265625,1.2173511981964111,-3.3386967182159424,0.9322368502616882
1684252788198044000,7.5050439453125,1.1598215103149414,-3.3404555320739746,0.17340639233589172
1684252788208070000,7.51506982421875,1.1142702102661133,-2.836104393005371,-0.24863314628601074
1684252788218095900,7.525095947265625,0.9881083965301514,-2.178133964538574,-0.33771586418151855
1684252788228121900,7.535121826171875,0.7977373003959656,-1.4639668464660645,-0.19267117977142334
1684252788238146800,7.545146728515625,0.593864381313324,-0.799921452999115,0.05411997064948082
1684252788248172800,7.5551728515625,0.42593371868133545,-0.27888646721839905,0.2945149838924408
1684252788258198800,7.56519873046875,0.311797559261322,0.07307237386703491,0.46048933267593384
1684252788268224800,7.575224853515625,0.26125890016555786,0.2848677933216095,0.5566266775131226
1684252788278250800,7.585250732421875,0.18817110359668732,0.38089337944984436,0.6051657199859619
1684252788288277000,7.595277099609375,0.11041496694087982,0.4602801501750946,0.6241289377212524
1684252788298303000,7.605302978515625,0.07785914838314056,0.545976996421814,0.5940544009208679
1684252788308328000,7.615327880859375,0.054227590560913086,0.5612384676933289,0.5397530794143677
1684252788318354000,7.62535400390625,0.0363181009888649,0.46053847670555115,0.46232515573501587
1684252788328380000,7.6353798828125,0.008437609300017357,0.21931487321853638,0.36513054370880127
1684252788338406000,7.645406005859375,-0.02270912379026413,-0.15725238621234894,0.2802734375
1684252788348432000,7.655431884765625,-0.05415622889995575,-0.6096354126930237,0.23639187216758728
1684252788358457900,7.665457763671875,-0.06564457714557648,-1.0606129169464111,0.24446870386600494
1684252788368483800,7.67548388671875,-0.04157713055610657,-1.4386367797851562,0.2919679880142212
1684252788378508800,7.6855087890625,0.03615202009677887,-1.7289413213729858,0.37161514163017273
1684252788388534800,7.69553466796875,0.1588401198387146,-1.9035946130752563,0.466004878282547
1684252788398560800,7.705560791015625,0.3190164566040039,-1.9863330125808716,0.5551749467849731
1684252788408586800,7.715586669921875,0.5035406351089478,-2.0691397190093994,0.5654730200767517
1684252788418612700,7.72561279296875,0.699802041053772,-2.2596676349639893,0.3673337996006012
1684252788428638700,7.735638671875,0.8803057074546814,-2.5433382987976074,-0.08388844132423401
1684252788438665000,7.7456650390625,0.9840028285980225,-2.8043437004089355,-0.6930345892906189
1684252788448689700,7.755689697265625,0.9231645464897156,-3.2170088291168213,-1.4465163946151733
1684252788458716000,7.7657158203125,0.8582574129104614,-4.0247063636779785,-2.716581106185913
1684252788468742000,7.775741943359375,0.9550478458404541,-4.817474365234375,-4.641478061676025
1684252788478767900,7.785767822265625,1.0805567502975464,-4.001973628997803,-6.0021891593933105
1684252788488793900,7.7957939453125,0.965049147605896,-1.1817127466201782,-6.112524509429932
1684252788498819800,7.80581982421875,0.7772294282913208,2.7295010089874268,-5.627699851989746
1684252788508845800,7.815845703125,0.5034880042076111,6.441329002380371,-5.153156280517578
1684252788518871800,7.825871826171875,0.0553266778588295,8.272189140319824,-5.105533599853516
1684252788528896800,7.835896728515625,-0.6707649827003479,6.07952356338501,-6.477153778076172
1684252788538922800,7.8459228515625,-1.5883665084838867,1.571583867073059,-7.495942115783691
1684252788548948700,7.85594873046875,-2.403169870376587,-1.5687906742095947,-6.58146333694458
1684252788558974700,7.865974609375,-2.107659101486206,-1.4977489709854126,-3.9041028022766113
1684252788569000700,7.876000732421875,-1.036055564880371,-0.2817506194114685,-1.6728813648223877
1684252788579026700,7.886026611328125,0.24202688038349152,0.38661226630210876,-0.6655222177505493
1684252788589052700,7.896052734375,1.2542855739593506,0.46277907490730286,-0.6127172708511353
1684252788599077600,7.90607763671875,2.3635013103485107,0.2663078308105469,-0.7545790672302246
1684252788609103600,7.916103515625,3.6422929763793945,-0.1423773169517517,-0.2013193666934967
1684252788619129600,7.926129638671875,4.6521759033203125,-0.40969187021255493,0.624448299407959
1684252788629155600,7.936155517578125,5.20783805847168,-0.7121343016624451,1.0916634798049927
1684252788639181600,7.946181640625,5.259214878082275,-0.9781609177589417,1.1362764835357666
1684252788649207600,7.95620751953125,5.016809940338135,-1.5883114337921143,0.6957329511642456
1684252788659233500,7.966233642578125,4.496378421783447,-2.652927875518799,-0.12613776326179504
1684252788669259800,7.976259765625,3.6907095909118652,-3.228123426437378,-0.6941799521446228
1684252788679284500,7.986284423828125,2.5063931941986084,-1.5363668203353882,-0.05966531112790108
1684252788689310700,7.996310791015625,1.3363968133926392,2.2007901668548584,0.5596944093704224
1684252788699336700,8.006336669921875,0.643860399723053,4.8459343910217285,0.5277130603790283
1684252788709362700,8.01636279296875,0.3959271311759949,5.359694004058838,0.031138772144913673
1684252788719388700,8.026388671875,0.4161149561405182,4.296022415161133,-0.5486769676208496
1684252788729414700,8.03641455078125,0.5802143812179565,2.4233005046844482,-0.7529480457305908
1684252788739440600,8.046440673828124,0.8522024750709534,0.5293488502502441,-0.5312300324440002
1684252788749465600,8.056465576171876,1.3540585041046143,-0.7224355340003967,-0.1328885853290558
1684252788759491600,8.06649169921875,2.0369443893432617,-1.071326494216919,0.25708234310150146
1684252788769517600,8.076517578125,2.499786376953125,-0.7019886374473572,0.488496333360672
1684252788779543600,8.08654345703125,2.5054256916046143,-0.10893677175045013,0.4154418408870697
1684252788789569500,8.096569580078125,2.293799877166748,0.5191125869750977,0.18121697008609772
1684252788799595500,8.106595458984375,2.047558307647705,1.1294059753417969,0.025023100897669792
1684252788809621500,8.11662158203125,1.8204472064971924,1.5563368797302246,-0.0035417103208601475
1684252788819646700,8.126646728515626,1.6077044010162354,1.7252612113952637,0.08477377146482468
1684252788829672400,8.13667236328125,1.404547929763794,1.6822108030319214,0.2500390410423279
1684252788839698700,8.14669873046875,1.194800615310669,1.503358006477356,0.4749816060066223
1684252788849724700,8.156724609375,0.9688811898231506,1.2598552703857422,0.7278059720993042
1684252788859750700,8.166750732421875,0.7402756810188293,1.0202780961990356,1.0079638957977295
1684252788869776600,8.176776611328124,0.48522505164146423,0.7570835947990417,1.2991122007369995
1684252788879802600,8.186802734375,0.20164208114147186,0.47255492210388184,1.589802622795105
1684252788889827800,8.196827880859376,-0.11225990206003189,0.2082054167985916,1.8934959173202515
1684252788899853800,8.206853759765625,-0.4621143043041229,0.028475329279899597,2.1979286670684814
1684252788909879800,8.2168798828125,-0.862276017665863,-0.077378049492836,2.4873058795928955
1684252788919905500,8.226905517578125,-1.3042752742767334,-0.1056395098567009,2.741041898727417
1684252788929931500,8.236931640625,-1.7682162523269653,-0.03484061732888222,2.9873526096343994
1684252788939957500,8.24695751953125,-2.212477445602417,0.22113735973834991,3.2458765506744385
1684252788949983500,8.2569833984375,-2.5759506225585938,0.6580142974853516,3.5210518836975098
1684252788960008700,8.2670087890625,-2.8318729400634766,1.1635349988937378,3.80041766166687
1684252788970034700,8.27703466796875,-3.0412757396698,1.5436031818389893,4.030696392059326
1684252788980060700,8.287060791015625,-3.191333055496216,1.784735083580017,4.078644752502441
1684252788990087000,8.2970869140625,-3.1865954399108887,2.1685984134674072,3.7157680988311768
1684252789000113000,8.30711279296875,-2.677248239517212,2.176849126815796,2.819873571395874
1684252789010138600,8.317138671875,-0.7064776420593262,-5.070671558380127,0.6480228900909424
1684252789020164600,8.32716455078125,1.5417972803115845,-11.32236385345459,1.1254053115844727
1684252789030189800,8.33718994140625,2.149366617202759,-10.595813751220703,1.3734437227249146
1684252789040215800,8.3472158203125,1.2017860412597656,-6.145939826965332,1.4298076629638672
1684252789050241800,8.35724169921875,0.033762041479349136,-1.386207938194275,3.1967427730560303
1684252789060267800,8.367267822265624,-0.30545541644096375,0.2849295735359192,0.3422905504703522
1684252789070293800,8.377293701171874,0.02067694067955017,3.706472158432007,-2.817344903945923
1684252789080319700,8.38731982421875,0.037242334336042404,5.759196758270264,-4.85491943359375
1684252789090345700,8.397345703125,-0.306020051240921,6.404547691345215,-5.769839763641357
1684252789100371700,8.407371826171875,-0.8552495837211609,6.320098400115967,-5.896500587463379
1684252789110396700,8.417396728515625,-1.475124716758728,5.7341628074646,-5.606325626373291
1684252789120422700,8.427422607421875,-2.068645477294922,4.839596748352051,-5.07430362701416
1684252789130448600,8.43744873046875,-2.5397789478302,4.044633388519287,-4.364413738250732
1684252789140475000,8.447474853515626,-2.776123523712158,3.3522071838378906,-3.495964765548706
1684252789150500900,8.4575009765625,-2.619687557220459,2.56601619720459,-2.2957262992858887
1684252789160526800,8.46752685546875,-1.895218849182129,1.3309022188186646,-0.047815900295972824
1684252789170552800,8.477552734375,-0.9241548776626587,0.04814625903964043,2.272791624069214
1684252789180577800,8.487577880859375,0.0076127247884869576,-0.24540811777114868,3.4135119915008545
1684252789190603800,8.497603759765624,0.7983757257461548,0.13729415833950043,3.7880377769470215
1684252789200629800,8.507629638671874,1.3558770418167114,0.6927241086959839,3.7999727725982666
1684252789210655700,8.51765576171875,1.6671595573425293,1.2726012468338013,3.5693204402923584
1684252789220681700,8.527681640625,1.7197338342666626,1.7728813886642456,3.1992945671081543
1684252789230707700,8.537707763671875,1.546535611152649,2.0808603763580322,2.7888615131378174
1684252789240733700,8.547733642578125,1.2235586643218994,2.154527425765991,2.463881731033325
1684252789250758700,8.557758544921874,0.8339129686355591,1.5870466232299805,2.4328103065490723
1684252789260784600,8.56778466796875,0.3705492615699768,-1.0170724391937256,2.961744785308838
1684252789270810600,8.577810546875,0.037066005170345306,-3.8621530532836914,3.3687424659729004
1684252789280836600,8.587836669921876,-0.06597542017698288,-5.037543773651123,3.320840358734131
1684252789290862800,8.59786279296875,0.028842341154813766,-5.049949645996094,3.0199642181396484
1684252789300888800,8.607888916015625,0.28415799140930176,-4.690255641937256,2.6822967529296875
1684252789310914800,8.617914794921875,0.6170980930328369,-4.169029235839844,2.434966564178467
1684252789320939800,8.627939697265624,0.9258610010147095,-3.418808937072754,2.251908779144287
1684252789330965800,8.6379658203125,1.1496323347091675,-2.418433666229248,2.015211582183838
1684252789340991700,8.64799169921875,1.2534351348876953,-1.2573554515838623,1.655232310295105
1684252789351017700,8.658017822265625,1.2230113744735718,-0.1884690821170807,1.2186535596847534
1684252789361043700,8.668043701171875,1.060031771659851,0.5629154443740845,0.7996219396591187
1684252789371069700,8.678069580078125,0.7967420816421509,0.9795593023300171,0.42432528734207153
1684252789381095700,8.688095703125,0.4707562029361725,1.0942713022232056,0.09326986968517303
1684252789391121700,8.69812158203125,0.11351176351308823,1.0143202543258667,-0.17882177233695984
1684252789401146600,8.708146728515626,-0.19727939367294312,0.7890725135803223,-0.3377235233783722
1684252789411172600,8.718172607421875,-0.4332413375377655,0.2517857849597931,-0.29064440727233887
1684252789421198600,8.728198486328125,-0.5450190305709839,-0.5924192070960999,-0.019743122160434723
1684252789431224600,8.738224609375,-0.5498550534248352,-1.5655326843261719,0.32723045349121094
1684252789441250800,8.748250732421875,-0.49944868683815,-2.469780206680298,0.6455996632575989
1684252789451276800,8.75827685546875,-0.38637056946754456,-2.9733388423919678,0.843670129776001
1684252789461302800,8.768302734375,-0.2043033242225647,-2.8944590091705322,0.940339982509613
1684252789471327700,8.77832763671875,-0.01948220655322075,-2.0675532817840576,1.0529707670211792
1684252789481353700,8.788353759765625,0.044638458639383316,-0.5786821246147156,1.2763659954071045
1684252789491379700,8.798379638671875,-0.07689930498600006,0.8434571623802185,1.4678070545196533
1684252789501405700,8.80840576171875,-0.3270159363746643,1.7166162729263306,1.5286874771118164
1684252789511431700,8.818431640625,-0.5647738575935364,2.1848511695861816,1.4711087942123413
1684252789521457700,8.828457763671874,-0.7467218041419983,2.423062801361084,1.3866676092147827
1684252789531483600,8.838483642578124,-0.8978915810585022,2.4504222869873047,1.3724395036697388
1684252789541508600,8.848508544921875,-0.989283561706543,2.3328285217285156,1.4477028846740723
1684252789551534600,8.85853466796875,-1.0138949155807495,2.0772452354431152,1.5506805181503296
1684252789561560600,8.868560546875,-0.9237461686134338,1.7283052206039429,1.6016956567764282
1684252789571586600,8.878586669921875,-0.722704291343689,1.269604206085205,1.5454113483428955
1684252789581612500,8.888612548828124,-0.47733020782470703,0.6921865940093994,1.347226858139038
1684252789591638500,8.898638427734374,-0.2641866207122803,-0.05060921981930733,1.0503714084625244
1684252789601664500,8.90866455078125,-0.1338602900505066,-0.8835647702217102,0.7622527480125427
1684252789611689500,8.918689453125,-0.08396292477846146,-1.6487364768981934,0.550240695476532
1684252789621715500,8.928715576171875,-0.09282778948545456,-2.15828800201416,0.4102782905101776
1684252789631741400,8.938741455078125,-0.11929057538509369,-2.2784109115600586,0.36692488193511963
1684252789641767400,8.948767333984375,-0.135313481092453,-1.9914039373397827,0.48826783895492554
1684252789651793400,8.95879345703125,-0.13259930908679962,-1.4646551609039307,0.675448477268219
1684252789661819400,8.9688193359375,-0.14067640900611877,-1.187872290611267,0.6837900280952454
1684252789671845600,8.978845703125,-0.13571326434612274,-1.2824963331222534,0.49806955456733704
1684252789681870300,8.988870361328125,-0.08553639054298401,-1.5120837688446045,0.254192978143692
1684252789691896600,8.998896484375,0.0967012494802475,-1.5335842370986938,-0.0350157767534256
1684252789701922600,9.008922607421875,0.26599574089050293,-1.3739169836044312,-0.48200392723083496
1684252789711948500,9.018948486328124,0.38656604290008545,-1.168810248374939,-1.0801986455917358
1684252789721974500,9.028974609375,0.5568152666091919,-0.7642697095870972,-1.776561975479126
1684252789732000500,9.03900048828125,0.7606502175331116,-0.20539236068725586,-2.5332889556884766
1684252789742026500,9.049026611328125,0.9509815573692322,0.282894492149353,-3.225956439971924
1684252789752051700,9.0590517578125,1.082899808883667,0.4872684180736542,-3.6243622303009033
1684252789762077700,9.06907763671875,1.1978607177734375,0.48638612031936646,-3.606635808944702
1684252789772103400,9.079103515625,1.3991338014602661,0.2715025544166565,-3.1497786045074463
1684252789782129400,9.08912939453125,1.6861789226531982,-0.33842048048973083,-1.9037196636199951
1684252789792155400,9.0991552734375,2.039538621902466,-0.9472610950469971,-0.4614880681037903
1684252789802181400,9.109181396484376,2.1950557231903076,-1.0155237913131714,0.19153259694576263
1684252789812207400,9.119207275390625,2.2216320037841797,-0.862449586391449,0.23125706613063812
1684252789822233600,9.129233642578125,1.9472237825393677,-0.7948529720306396,-1.0936003923416138
1684252789832258600,9.139258544921875,1.4041682481765747,-0.5948298573493958,-2.7590274810791016
1684252789842284800,9.149284912109374,1.017032265663147,-0.49968022108078003,-3.4320645332336426
1684252789852310800,9.159310791015624,0.8387326002120972,-0.7846685647964478,-3.397833824157715
1684252789862336500,9.16933642578125,0.74908047914505,-1.3446624279022217,-3.2233076095581055
1684252789872362500,9.179362548828125,0.7411391139030457,-1.7669135332107544,-3.0818209648132324
1684252789882388500,9.189388427734375,0.7688372731208801,-1.878950595855713,-3.0022614002227783
1684252789892414500,9.19941455078125,0.8129103183746338,-1.779897928237915,-2.9873764514923096
1684252789902439700,9.209439697265625,0.8271049857139587,-1.3189995288848877,-2.890876531600952
1684252789912465700,9.219465576171874,0.567464292049408,0.9709401726722717,-2.640235662460327
1684252789922491600,9.22949169921875,-0.01393149234354496,3.774975538253784,-2.3223228454589844
1684252789932517600,9.239517578125,-0.6330220699310303,5.512607574462891,-2.2056527137756348
1684252789942543600,9.249543701171875,-1.082524299621582,6.359895706176758,-2.4877285957336426
1684252789952569600,9.259569580078125,-1.2575148344039917,5.8989362716674805,-3.2724292278289795
1684252789962595600,9.269595703125,-1.2021679878234863,3.9234023094177246,-4.113322734832764
1684252789972620500,9.27962060546875,-1.0153197050094604,1.1735867261886597,-4.4943037033081055
1684252789982646500,9.289646484375,-0.6908017992973328,-1.402619481086731,-4.341897010803223
1684252789992672800,9.2996728515625,-0.33510875701904297,-2.969198703765869,-3.740548610687256
1684252790002698800,9.30969873046875,0.015603471547365189,-3.3061234951019287,-2.8463220596313477
1684252790012724700,9.319724853515625,0.23559562861919403,-2.8512814044952393,-1.9961830377578735
1684252790022750700,9.329750732421875,0.30390438437461853,-2.2006924152374268,-1.4625340700149536
1684252790032776700,9.339776611328125,0.3100588023662567,-1.7181988954544067,-1.2139052152633667
1684252790042801700,9.3498017578125,0.3249695599079132,-1.4399174451828003,-1.1399176120758057
1684252790052827600,9.35982763671875,0.3778931200504303,-1.3166903257369995,-1.1387526988983154
1684252790062853600,9.369853515625,0.4864363670349121,-1.2683740854263306,-1.127562403678894
1684252790072879600,9.379879638671875,0.610625147819519,-1.179841160774231,-1.0717511177062988
1684252790082905600,9.389905517578125,0.6911548972129822,-0.9079465270042419,-0.9933248162269592
1684252790092931600,9.399931640625,0.7035223245620728,-0.5905531048774719,-0.9303251504898071
1684252790102957600,9.40995751953125,0.6734768152236938,-0.38834622502326965,-0.8535086512565613
1684252790112982500,9.419982421875,0.6131252646446228,-0.2522950768470764,-0.7498696446418762
1684252790123008500,9.430008544921876,0.54616379737854,-0.1659119874238968,-0.5811123251914978
1684252790133034500,9.440034423828125,0.4978213310241699,-0.07626821845769882,-0.3299295902252197
1684252790143060500,9.450060546875,0.4649616479873657,-0.012364600785076618,0.012360649183392525
1684252790153086700,9.460086669921875,0.4290004074573517,0.015433980152010918,0.3957144320011139
1684252790163112700,9.47011279296875,0.40853479504585266,-0.00207097758539021,0.7762516736984253
1684252790173138700,9.480138671875,0.3876357078552246,-0.0859028697013855,1.1400146484375
1684252790183163600,9.49016357421875,0.348345547914505,-0.23363028466701508,1.468936800956726
1684252790193189600,9.500189697265625,0.27852362394332886,-0.3990776538848877,1.7591733932495117
1684252790203215600,9.510215576171875,0.1989677995443344,-0.4870093762874603,2.0316812992095947
1684252790213241600,9.52024169921875,0.09304632991552353,-0.24576793611049652,2.3901140689849854
1684252790223267600,9.530267578125,-0.1097661703824997,0.6674391031265259,3.2164599895477295
1684252790233293600,9.54029345703125,-0.41196945309638977,1.7162296772003174,4.425676345825195
1684252790243319600,9.550319580078124,-0.6388670206069946,1.9956943988800049,5.381276607513428
1684252790253344500,9.560344482421876,-0.567023754119873,0.8415813446044922,5.7982988357543945
1684252790263370500,9.57037060546875,0.01332034356892109,-2.9340407848358154,4.413665294647217
1684252790273396500,9.580396484375,0.9093818068504333,-5.758289337158203,1.2375288009643555
1684252790283422500,9.59042236328125,1.2566790580749512,-6.7644805908203125,1.2393556833267212
1684252790293448400,9.600448486328125,0.8754331469535828,-6.34208869934082,0.9193306565284729
1684252790303474700,9.610474609375,-0.6010840535163879,-4.022680282592773,-0.1877041459083557
1684252790313500700,9.620500732421876,-1.9437308311462402,-0.48021164536476135,-1.8688181638717651
1684252790323525600,9.630525634765625,-2.060467481613159,3.819800615310669,-1.5211528539657593
1684252790333551600,9.640551513671875,-1.5355682373046875,5.251337051391602,0.1177058219909668
1684252790343577600,9.65057763671875,-1.2150381803512573,4.510612487792969,0.7822023034095764
1684252790353603600,9.660603515625,-1.1391056776046753,4.079173564910889,0.5991239547729492
1684252790363629600,9.670629638671874,-1.2778129577636719,3.6767890453338623,0.22975285351276398
1684252790373655600,9.680655517578124,-1.5692194700241089,2.3318676948547363,-0.2757361829280853
1684252790383681500,9.690681640625,-1.8236643075942993,-0.04849611595273018,-0.9256188273429871
1684252790393706500,9.70070654296875,-1.5790443420410156,-1.6498136520385742,-0.9673861265182495
1684252790403732500,9.710732421875,-1.0288435220718384,-2.0018904209136963,-0.482127845287323
1684252790413758500,9.720758544921875,-0.49354904890060425,-1.4093437194824219,0.1747492551803589
1684252790423784400,9.730784423828124,-0.1816422939300537,-0.500036358833313,0.6832670569419861
1684252790433810400,9.740810546875,-0.07029107958078384,0.24942320585250854,1.0332103967666626
1684252790443836400,9.75083642578125,-0.07992453128099442,0.679762601852417,1.2324049472808838
1684252790453862700,9.760862548828126,-0.14874254167079926,0.5580372214317322,1.3060427904129028
1684252790463888600,9.770888671875,-0.19289535284042358,0.13932275772094727,1.2508176565170288
1684252790473913600,9.78091357421875,-0.18038170039653778,-0.18161265552043915,1.1002150774002075
1684252790483939600,9.790939697265625,-0.1074204072356224,-0.26535895466804504,0.9080861210823059
1684252790493965600,9.800965576171874,-0.024331428110599518,-0.2855326533317566,0.7813757061958313
1684252790503991600,9.810991455078126,-0.0021041533909738064,-0.42802029848098755,0.7681973576545715
1684252790514017500,9.821017578125,-0.08078588545322418,-0.7170852422714233,0.8880716562271118
1684252790524043500,9.83104345703125,-0.20106196403503418,-1.1135090589523315,1.1113207340240479
1684252790534069500,9.841069580078125,-0.31883689761161804,-1.5085073709487915,1.374817132949829
1684252790544094200,9.85109423828125,-0.34718412160873413,-1.8277122974395752,1.6088610887527466
1684252790554120200,9.8611201171875,-0.2615105211734772,-1.9351036548614502,1.7391008138656616
1684252790564146200,9.871146240234374,-0.10065079480409622,-1.7391098737716675,1.7304985523223877
1684252790574172200,9.881172119140626,0.04988931864500046,-1.195233702659607,1.5536201000213623
1684252790584198100,9.8911982421875,0.09618757665157318,-0.43769320845603943,1.228553056716919
1684252790594224400,9.901224365234375,0.019451726227998734,0.3604564070701599,0.8695520758628845
1684252790604250400,9.91125048828125,-0.15451447665691376,1.0514771938323975,0.5899984836578369
1684252790614275300,9.921275390625,-0.3770831227302551,1.5716012716293335,0.43626123666763306
1684252790624301300,9.93130126953125,-0.597877025604248,1.903971552848816,0.41792190074920654
1684252790634327300,9.941327392578126,-0.7827895879745483,2.026648759841919,0.5137727856636047
1684252790644353300,9.951353271484376,-0.9067496061325073,1.9957572221755981,0.6928085684776306
1684252790654379300,9.961379150390625,-0.9478806257247925,1.9158191680908203,0.853753924369812
1684252790664405200,9.9714052734375,-0.935815691947937,1.819058895111084,0.9829601049423218
1684252790674431200,9.98143115234375,-0.9067410230636597,1.6974518299102783,1.0781490802764893
1684252790684456400,9.99145654296875,-0.903120219707489,1.5252572298049927,1.1275222301483154
1684252790694482400,10.001482421875,-0.9429916143417358,1.270930528640747,1.140641689300537
1684252790704508400,10.01150830078125,-1.0125011205673218,0.94798344373703,1.12810218334198
1684252790714534400,10.021534423828125,-1.0904724597930908,0.6013168692588806,1.1060444116592407
1684252790724560400,10.031560302734375,-1.1358580589294434,0.28216227889060974,1.0457885265350342
1684252790734586000,10.041586181640625,-1.1143932342529297,-0.00852416455745697,0.9460029602050781
1684252790744612400,10.0516123046875,-1.0151447057724,-0.2650667428970337,0.8350546360015869
1684252790754637300,10.06163720703125,-0.8468573093414307,-0.4646872282028198,0.7300243377685547
1684252790764663600,10.07166357421875,-0.6060971617698669,-0.5976951122283936,0.6320687532424927
1684252790774689500,10.081689453125,-0.3324419856071472,-0.67825847864151,0.5342702269554138
1684252790784715500,10.091715576171875,-0.06078197807073593,-0.73624587059021,0.4041844606399536
1684252790794741500,10.101741455078125,0.17285679280757904,-0.7451276779174805,0.21651960909366608
1684252790804767500,10.111767578125,0.3743416965007782,-0.6004709005355835,-0.021572314202785492
1684252790814793500,10.12179345703125,0.5648233294487,-0.2853195369243622,-0.2480151504278183
1684252790824818400,10.131818359375,0.642227053642273,0.07949411869049072,-0.4225328862667084
1684252790834844400,10.141844482421876,0.5829166769981384,0.3817102909088135,-0.5286093354225159
1684252790844870400,10.151870361328125,0.4512673318386078,0.5182188749313354,-0.6162055134773254
1684252790854896400,10.161896484375,0.28513288497924805,0.5216833353042603,-0.6808696985244751
1684252790864922400,10.17192236328125,0.1378939002752304,0.49290868639945984,-0.7657510042190552
1684252790874948400,10.1819482421875,0.006258758250623941,0.37764450907707214,-0.8795828819274902
1684252790884974300,10.191974365234374,-0.09016871452331543,0.07382949441671371,-1.0338821411132812
1684252790894999300,10.201999267578126,-0.08683621138334274,-0.11525504291057587,-1.2568436861038208
1684252790905025300,10.212025390625,-0.002264870097860694,-0.10104015469551086,-1.5676684379577637
1684252790915051500,10.222051513671875,0.20464977622032166,0.2888031005859375,-1.9662669897079468
1684252790925077500,10.232077392578125,0.47042232751846313,0.868806779384613,-2.3159427642822266
1684252790935103500,10.242103515625,0.7462360262870789,1.4236091375350952,-2.4737515449523926
1684252790945129500,10.25212939453125,0.9599448442459106,1.7962181568145752,-2.3552472591400146
1684252790955155500,10.262155517578124,1.109491229057312,2.045545816421509,-2.029139995574951
1684252790965180400,10.272180419921876,1.220536708831787,2.1906683444976807,-1.629518985748291
1684252790975206400,10.282206298828125,1.2065784931182861,2.1311211585998535,-1.2953089475631714
1684252790985232400,10.292232421875,1.1885480880737305,1.968761682510376,-1.0698529481887817
1684252790995258400,10.30225830078125,1.1648800373077393,1.7999063730239868,-0.8775383830070496
1684252791005284400,10.312284423828125,1.1476094722747803,1.8652042150497437,-0.40983638167381287
1684252791015310300,10.322310302734374,1.0851006507873535,2.5170137882232666,-0.010340012609958649
1684252791025336300,10.33233642578125,0.489907830953598,3.233283281326294,-1.0793840885162354
1684252791035361300,10.342361328125,-0.4446578919887543,3.3967530727386475,-2.2275407314300537
1684252791045387300,10.35238720703125,-1.3047159910202026,3.28777813911438,-2.6786558628082275
1684252791055413200,10.362413330078125,-2.1686811447143555,2.9969587326049805,-2.611314058303833
1684252791065439500,10.372439453125,-3.095510721206665,2.5756475925445557,-2.363100290298462
1684252791075465500,10.382465576171874,-3.8944597244262695,2.0974903106689453,-2.185856819152832
1684252791085491500,10.392491455078124,-4.371287822723389,1.6491307020187378,-2.1710407733917236
1684252791095517400,10.402517333984376,-4.252408027648926,1.1883906126022339,-2.31710147857666
1684252791105542400,10.41254248046875,-3.3778305053710938,0.7192513346672058,-2.5672147274017334
1684252791115568400,10.422568359375,-2.0555574893951416,0.26992180943489075,-2.8014485836029053
1684252791125594400,10.432594482421875,-0.7357049584388733,-0.20801681280136108,-2.838961601257324
1684252791135620400,10.442620361328125,0.42415130138397217,-0.66609126329422,-2.6505801677703857
1684252791145646300,10.452646240234374,1.3656632900238037,-1.0738166570663452,-2.289693832397461
1684252791155672300,10.46267236328125,2.2282252311706543,-1.3967525959014893,-1.8111627101898193
1684252791165698300,10.4726982421875,2.8329296112060547,-1.7274976968765259,-1.2814109325408936
1684252791175723300,10.48272314453125,3.004297971725464,-2.059863567352295,-0.6860272288322449
1684252791185749200,10.492749267578125,2.6989214420318604,-2.2637939453125,-0.12653064727783203
1684252791195775200,10.502775146484375,2.253753900527954,-2.3909752368927,0.223691925406456
1684252791205801200,10.51280126953125,2.0224263668060303,-3.938223361968994,-0.052803050726652145
1684252791215827500,10.522827392578124,1.328941822052002,-4.380346298217773,0.02164902724325657
1684252791225853400,10.532853515625,0.6473537683486938,-3.503632068634033,0.3893170654773712
1684252791235879400,10.54287939453125,0.30751025676727295,-3.2147109508514404,0.33551648259162903
1684252791245904400,10.552904296875,-0.03526121377944946,-2.9837543964385986,0.18380525708198547
1684252791255930400,10.562930419921875,-0.4222511649131775,-2.2069475650787354,0.15352991223335266
1684252791265956400,10.572956298828124,-0.7794929146766663,-1.0536738634109497,0.1074787974357605
1684252791275982300,10.582982421875,-1.0063862800598145,0.33493056893348694,0.06449440121650696
1684252791286008300,10.59300830078125,-1.0282760858535767,1.629003643989563,0.007724864408373833
1684252791296034300,10.603034423828126,-0.9018290042877197,2.5873911380767822,-0.0797312781214714
1684252791306060300,10.613060302734375,-0.6939226388931274,3.1156182289123535,-0.18658101558685303
1684252791316085200,10.623085205078125,-0.5426349639892578,3.4215943813323975,-0.2985364496707916
1684252791326111200,10.633111328125,-0.46817806363105774,3.6878087520599365,-0.43545249104499817
1684252791336137200,10.64313720703125,-0.4910259246826172,3.860349178314209,-0.5635544061660767
1684252791346163200,10.6531630859375,-0.6331638693809509,3.875386953353882,-0.6338344812393188
1684252791356189200,10.663189208984376,-0.7995597124099731,3.7766642570495605,-0.6885074377059937
1684252791366215400,10.67321533203125,-0.926141083240509,3.688169240951538,-0.7788690328598022
1684252791376241400,10.683241455078125,-0.9967653155326843,3.5486204624176025,-0.8562616109848022
1684252791386266400,10.693266357421875,-1.0276118516921997,3.3769989013671875,-0.934738039970398
1684252791396292400,10.703292236328124,-1.0458399057388306,3.17566180229187,-0.9939019083976746
1684252791406318300,10.713318359375,-1.0187959671020508,2.980412006378174,-0.9619485139846802
1684252791416344300,10.72334423828125,-0.8901134133338928,2.685121774673462,-0.565019428730011
1684252791426370300,10.733370361328125,-0.7320281863212585,2.132352352142334,0.11114756762981415
1684252791436396300,10.743396240234375,-0.5274416208267212,1.3512579202651978,0.8820120096206665
1684252791446422300,10.75342236328125,-0.29113906621932983,0.5826340317726135,1.6078029870986938
1684252791456447500,10.763447509765625,-0.05404017120599747,-0.11006344109773636,2.2510523796081543
1684252791466473200,10.77347314453125,0.19941046833992004,-0.6767330169677734,2.7809884548187256
1684252791476499200,10.783499267578126,0.5334985256195068,-0.9817595481872559,3.136744499206543
1684252791486525200,10.793525146484376,0.9247874617576599,-1.0420514345169067,3.2616934776306152
1684252791496551200,10.80355126953125,1.2241613864898682,-0.8698038458824158,3.1841559410095215
1684252791506577200,10.8135771484375,1.4066275358200073,-0.5799909234046936,2.980760335922241
1684252791516603400,10.823603271484375,1.5011969804763794,-0.43375784158706665,2.5692672729492188
1684252791526628400,10.83362841796875,1.307791829109192,-0.04879233241081238,2.079244375228882
1684252791536654600,10.843654541015624,0.4582400619983673,-0.10868655890226364,1.4473600387573242
1684252791546680300,10.853680419921876,-0.3958583176136017,0.1451781988143921,1.768512487411499
1684252791556706300,10.863706298828125,-0.8386731147766113,-0.819347620010376,2.483175277709961
1684252791566732300,10.873732177734375,-1.5088807344436646,-2.8975830078125,2.1937174797058105
1684252791576758300,10.88375830078125,-1.9397528171539307,-3.262416362762451,1.584969401359558
1684252791586784000,10.893783935546875,-1.9586223363876343,-1.6644936800003052,0.8286319375038147
1684252791596809200,10.903809326171874,-1.9215946197509766,0.515582799911499,-0.30210620164871216
1684252791606835200,10.913835205078126,-1.9088181257247925,2.2874538898468018,-1.4908539056777954
1684252791616861400,10.923861328125,-1.4811497926712036,3.6558382511138916,-2.1040735244750977
1684252791626887400,10.933887451171875,-0.8032073974609375,4.094809532165527,-2.1073317527770996
1684252791636913400,10.943913330078125,-0.45017895102500916,3.193633794784546,-1.6473143100738525
1684252791646939400,10.953939453125,-0.4481690526008606,1.2942633628845215,-0.7956714034080505
1684252791656965400,10.96396533203125,-0.49141350388526917,-0.9162487983703613,0.3323931097984314
1684252791666990300,10.973990234375,-0.5205069184303284,-2.232347011566162,1.5227853059768677
1684252791677016300,10.984016357421876,-0.5755515694618225,-2.8820717334747314,2.517674446105957
1684252791687042300,10.994042236328125,-0.6063142418861389,-2.802020788192749,3.350080966949463
1684252791697068300,11.004068359375,-0.5477482080459595,-2.0996110439300537,3.9814257621765137
1684252791707094300,11.01409423828125,-0.4273719787597656,-1.7608211040496826,4.103474140167236
1684252791717120300,11.024120361328125,-0.051469724625349045,-2.199359655380249,3.6721479892730713
1684252791727146200,11.034146240234374,-0.004911541007459164,-1.797837734222412,2.23110032081604
1684252791737171200,11.044171142578126,0.5445500612258911,-0.11717960983514786,0.6388667225837708
1684252791747197200,11.054197265625,1.3198699951171875,2.339294195175171,-0.7117503881454468
1684252791757223200,11.06422314453125,1.2419705390930176,3.498692512512207,-1.82889723777771
1684252791767249400,11.07424951171875,0.5707306861877441,2.9071152210235596,-2.506340265274048
1684252791777275400,11.084275390625,0.6501734852790833,1.4671893119812012,-2.5579957962036133
1684252791787301400,11.09430126953125,0.8103181719779968,0.24356447160243988,-2.098637342453003
1684252791797327400,11.104327392578124,0.666117787361145,-0.4322851598262787,-1.407352328300476
1684252791807352300,11.114352294921876,0.8019488453865051,-0.6575611233711243,-0.7139003276824951
1684252791817378300,11.12437841796875,1.1221545934677124,-0.6144788265228271,0.011681152507662773
1684252791827404300,11.134404296875,1.6240265369415283,-0.7368881106376648,0.6624261736869812
1684252791837430300,11.14443017578125,1.615161657333374,-1.1371198892593384,1.0840221643447876
1684252791847456300,11.154456298828125,1.4587167501449585,-1.4185148477554321,1.3041433095932007
1684252791857482200,11.164482177734374,1.6135507822036743,-1.1085833311080933,1.427060842514038
1684252791867508200,11.17450830078125,1.6848177909851074,-0.5815604329109192,1.341674566268921
1684252791877533200,11.184533203125,1.6692475080490112,-0.31627508997917175,1.0395262241363525
1684252791887559200,11.19455908203125,1.6423420906066895,-0.19250470399856567,0.6405072212219238
1684252791897585200,11.204585205078125,1.4346826076507568,-0.24629509449005127,0.4253036677837372
1684252791907611100,11.214611083984375,1.1108914613723755,-0.5388705134391785,0.48130595684051514
1684252791917637400,11.224637451171875,0.7723026275634766,-0.7879036068916321,0.5903631448745728
1684252791927663400,11.234663330078124,0.32684949040412903,-1.0135929584503174,0.727591872215271
1684252791937689300,11.244689453125,-0.2100159078836441,-1.2416125535964966,0.8846691250801086
1684252791947714300,11.25471435546875,-0.5425837635993958,-1.3252419233322144,0.9489761590957642
1684252791957740300,11.264740234375,-0.803093671798706,-1.3245996236801147,0.874485433101654
1684252791967766300,11.274766357421875,-1.1769102811813354,-1.4397590160369873,0.7473586201667786
1684252791977792300,11.284792236328125,-1.6201303005218506,-1.6366759538650513,0.597734272480011
1684252791987818200,11.294818359375,-1.9151883125305176,-1.695701241493225,0.37840935587882996
1684252791997844200,11.30484423828125,-1.9679685831069946,-1.4489092826843262,0.24613308906555176
1684252792007870200,11.3148701171875,-1.41562020778656,-1.0382466316223145,0.31085723638534546
1684252792017895200,11.324895263671875,-0.9375333189964294,-0.9864269495010376,0.5428000092506409
1684252792027921200,11.334921142578125,-0.7957361936569214,-1.5304255485534668,0.9013357758522034
1684252792037947100,11.344947021484375,-0.5813461542129517,-1.9203760623931885,1.2390645742416382
1684252792047973000,11.35497314453125,-0.37267419695854187,-1.8946949243545532,1.3676574230194092
1684252792057999000,11.3649990234375,-0.4095163643360138,-1.814597249031067,1.2647818326950073
1684252792068025000,11.375025146484376,-0.42652812600135803,-1.774147868156433,1.1511104106903076
1684252792078051300,11.38505126953125,-0.3044885993003845,-1.5953936576843262,1.0668747425079346
1684252792088076000,11.395075927734375,-0.2011566162109375,-1.2364981174468994,0.926754891872406
1684252792098102300,11.405102294921875,-0.05304878205060959,-0.8563937544822693,0.7033663392066956
1684252792108128300,11.415128173828125,0.28834715485572815,-0.6295486688613892,0.3843364119529724
1684252792118154200,11.425154296875,0.5974798798561096,-0.48273181915283203,0.07743800431489944
1684252792128180200,11.43518017578125,1.1615469455718994,-0.34170040488243103,-0.10205958783626556
1684252792138206200,11.445206298828126,1.787651777267456,-0.08488145470619202,-0.17925500869750977
1684252792148232200,11.455232177734375,2.674913167953491,0.2459912747144699,-0.18530172109603882
1684252792158257200,11.465257080078125,3.588055372238159,0.7699238657951355,-0.1901007741689682
1684252792168283100,11.475283203125,4.084754943847656,1.1826964616775513,-0.30284568667411804
1684252792178309000,11.48530908203125,4.951155662536621,1.6732755899429321,-0.6050495505332947
1684252792188335000,11.495335205078124,6.2979536056518555,2.2895548343658447,-1.084779143333435
1684252792198361000,11.505361083984376,7.521511077880859,2.4613053798675537,-1.7645983695983887
1684252792208387000,11.515386962890625,8.378585815429688,2.023388624191284,-2.3949434757232666
1684252792218413000,11.5254130859375,9.12635326385498,1.0814648866653442,-2.6326353549957275
1684252792228438000,11.53543798828125,9.454824447631836,-0.1931481808423996,-2.4759745597839355
1684252792238464000,11.545464111328124,9.167654037475586,-1.6201528310775757,-2.0368430614471436
1684252792248490200,11.555490234375,8.366535186767578,-2.5829553604125977,-1.6333881616592407
1684252792258516200,11.56551611328125,7.54695463180542,-3.127084255218506,-1.2775238752365112
1684252792268542200,11.575542236328126,6.626817226409912,-3.376028060913086,-1.049485445022583
1684252792278568200,11.585568115234375,5.60723876953125,-2.4077868461608887,-0.9307990074157715
1684252792288594200,11.59559423828125,4.496192932128906,-1.1275708675384521,-0.9064076542854309
1684252792298619400,11.605619384765625,3.7584643363952637,-0.6446937918663025,-0.5951060652732849
1684252792308645400,11.615645263671874,3.3355984687805176,-1.2439767122268677,0.2977469265460968
1684252792318671000,11.625671142578126,2.651629686355591,-1.1521005630493164,1.0766247510910034
1684252792328697000,11.635697021484376,1.8396670818328857,-1.1423147916793823,1.763321876525879
1684252792338723000,11.64572314453125,1.5113115310668945,-0.6500651240348816,1.2756999731063843
1684252792348749000,11.6557490234375,1.274636149406433,-0.397858202457428,-0.7133710384368896
1684252792358775000,11.665775146484375,0.7361454367637634,-0.7618072628974915,-1.183312177658081
1684252792368800300,11.67580029296875,0.4430522918701172,-1.1836256980895996,-0.4505566358566284
1684252792378826200,11.685826171875,-0.16976691782474518,-2.338775873184204,0.365846186876297
1684252792388852200,11.695852294921876,-0.39787545800209045,-3.4433462619781494,1.2679855823516846
1684252792398878200,11.705878173828125,-0.8057405352592468,-5.005746841430664,1.7566670179367065
1684252792408904200,11.715904296875,-1.0194288492202759,-6.037293434143066,1.923038363456726
1684252792418930200,11.72593017578125,-0.8237923383712769,-6.5061516761779785,1.7369369268417358
1684252792428956200,11.7359560546875,-0.24755807220935822,-6.080109119415283,1.3255465030670166
1684252792438981400,11.7459814453125,0.4844081997871399,-4.797190189361572,0.4341304898262024
1684252792449007400,11.75600732421875,1.138095736503601,-3.530238628387451,-0.43056702613830566
1684252792459033300,11.766033447265626,1.8101449012756348,-3.0065860748291016,-0.924144983291626
1684252792469059300,11.776059326171875,2.5839340686798096,-3.280508518218994,-1.2460306882858276
1684252792479085300,11.786085205078125,3.7112672328948975,-3.913133382797241,-1.5932953357696533
1684252792489111300,11.796111328125,4.632944583892822,-4.450765609741211,-1.9714852571487427
1684252792499137300,11.80613720703125,5.304354667663574,-4.711660861968994,-2.29600191116333
1684252792509162200,11.816162353515624,6.039844036102295,-4.914025783538818,-2.5058724880218506
1684252792519188200,11.826188232421876,6.930814743041992,-5.152409076690674,-2.627087116241455
1684252792529214200,11.836214111328125,7.965813159942627,-5.277943134307861,-2.7933349609375
1684252792539240200,11.846240234375,8.973393440246582,-4.995108604431152,-2.741027593612671
1684252792549266700,11.8562666015625,9.9224214553833,-4.955575466156006,-2.3181467056274414
1684252792559292700,11.866292724609375,10.352117538452148,-4.721956253051758,-1.6879875659942627
1684252792569318700,11.876318603515625,10.43735122680664,-4.476826190948486,-0.9830816388130188
1684252792579344000,11.88634375,10.281675338745117,-4.344987392425537,-0.2731926441192627
1684252792589369900,11.896369873046876,9.491745948791504,-3.9396450519561768,0.23340235650539398
1684252792599395800,11.906395751953125,8.425684928894043,-3.811267852783203,0.6099781394004822
1684252792609421800,11.916421875,7.410366535186768,-3.9505436420440674,0.9607505202293396
1684252792619447800,11.92644775390625,6.461086273193359,-4.359429359436035,1.3392523527145386
1684252792629474000,11.93647412109375,5.471299171447754,-4.845563888549805,1.7100262641906738
1684252792639499800,11.946499755859374,4.612788200378418,-5.032073020935059,2.010395050048828
1684252792649525000,11.95652490234375,4.1719441413879395,-4.048379898071289,1.8961939811706543
1684252792659551000,11.966551025390626,4.019295692443848,-2.2978248596191406,1.1195074319839478
1684252792669577000,11.976576904296875,3.7602882385253906,-1.7864227294921875,0.6920450925827026
1684252792679603000,11.98660302734375,3.4841463565826416,-2.1325221061706543,0.67262864112854
1684252792689629000,11.99662890625,3.214008092880249,-2.5197677612304688,0.6610380411148071
1684252792699655000,12.006655029296875,3.001627206802368,-2.4776663780212402,0.4597420394420624
1684252792709679900,12.016679931640626,2.8188564777374268,-2.171776294708252,0.23868180811405182
1684252792719705900,12.026705810546876,2.5930380821228027,-1.987509846687317,0.219655379652977
1684252792729731800,12.03673193359375,2.2939083576202393,-1.8788161277770996,0.3514956831932068
1684252792739757800,12.0467578125,1.9314602613449097,-1.8705089092254639,0.5120531320571899
1684252792749783800,12.05678369140625,1.594003438949585,-2.0270912647247314,0.6264747977256775
