time,seconds_elapsed,z,y,x
1684252750024546600,0.024546630859375,0.19398409128189087,2.6374704837799072,-0.7844352126121521
1684252750034571500,0.034571533203125,0.15321536362171173,3.3896806240081787,-0.600787878036499
1684252750044597500,0.044597412109375,0.0863669142127037,3.9347083568573,-0.27348312735557556
1684252750054623700,0.054623779296875,-0.04246111214160919,4.0861687660217285,0.1976388394832611
1684252750064649700,0.064649658203125,-0.2651473581790924,3.9328408241271973,0.7234073281288147
1684252750074675700,0.07467578125,-0.632529616355896,3.6566996574401855,1.1796151399612427
1684252750084701000,0.084700927734375,-1.1397535800933838,3.295482873916626,1.50700843334198
1684252750094727000,0.094726806640625,-1.833279013633728,3.27976655960083,1.6546834707260132
1684252750104753000,0.1047529296875,-2.801379442214966,2.995654344558716,1.4768142700195312
1684252750114779000,0.11477880859375,-3.860576868057251,3.2776315212249756,1.2161126136779785
1684252750124804600,0.1248046875,-4.597506523132324,3.720827102661133,0.9079068303108215
1684252750134830600,0.13483056640625,-4.849170207977295,3.987694501876831,0.7426521182060242
1684252750144855800,0.144855712890625,-4.748063087463379,4.428475856781006,0.5952001810073853
1684252750154881800,0.1548818359375,-4.638089656829834,4.112542152404785,0.17171739041805267
1684252750164907800,0.16490771484375,-5.024203777313232,3.393235206604004,-0.4362824559211731
1684252750174933800,0.174933837890625,-5.429141998291016,2.8683395385742188,-1.0785011053085327
1684252750184958700,0.184958740234375,-5.758945941925049,2.873744249343872,-1.674798846244812
1684252750194984700,0.194984619140625,-6.110241413116455,3.3162248134613037,-2.039370059967041
1684252750205010700,0.2050107421875,-6.397867679595947,4.116957187652588,-2.068882703781128
1684252750215036700,0.21503662109375,-6.613659381866455,5.17510986328125,-1.7233014106750488
1684252750225063000,0.22506298828125,-6.8949055671691895,6.261667251586914,-1.0606311559677124
1684252750235087600,0.235087646484375,-7.278591632843018,7.030930042266846,-0.27189865708351135
1684252750245113900,0.24511376953125,-7.517050743103027,7.283340930938721,0.5210410952568054
1684252750255139800,0.255139892578125,-7.4345703125,7.305506229400635,1.316790223121643
1684252750265165800,0.265165771484375,-7.150940895080566,7.060562610626221,2.135143756866455
1684252750275191800,0.27519189453125,-6.946165084838867,6.282065391540527,2.886247396469116
1684252750285217800,0.2852177734375,-6.816864967346191,5.211278438568115,3.4869203567504883
1684252750295242800,0.29524267578125,-6.595902919769287,4.27081298828125,3.8751659393310547
1684252750305268700,0.305268798828125,-6.212892532348633,3.4064221382141113,3.9901673793792725
1684252750315294700,0.315294677734375,-5.720348834991455,2.689486503601074,3.901599168777466
1684252750325320700,0.32532080078125,-5.02750825881958,2.071037769317627,3.735038995742798
1684252750335346700,0.3353466796875,-4.189306735992432,1.509024739265442,3.566636085510254
1684252750345371600,0.34537158203125,-3.3384451866149902,0.8269171118736267,3.382985830307007
1684252750355397600,0.355397705078125,-2.481980800628662,0.10810625553131104,3.187215566635132
1684252750365423600,0.365423583984375,-1.6606152057647705,-0.6435633897781372,2.9924914836883545
1684252750375449600,0.37544970703125,-0.9270766973495483,-1.4078000783920288,2.6787948608398438
1684252750385475600,0.3854755859375,-0.24892251193523407,-1.9328008890151978,2.2333929538726807
1684252750395500500,0.39550048828125,0.31129419803619385,-2.5042736530303955,1.4048850536346436
1684252750405526500,0.405526611328125,0.6901037693023682,-3.1459264755249023,-0.22422052919864655
1684252750415552500,0.415552490234375,0.9564529061317444,-3.2169649600982666,-2.242408275604248
1684252750425578800,0.425578857421875,1.1201701164245605,-2.5067298412323,-3.1389567852020264
1684252750435604700,0.435604736328125,1.3154696226119995,-1.6634105443954468,-2.969425916671753
1684252750445630000,0.4456298828125,1.4956785440444946,-0.6757444143295288,-2.358198404312134
1684252750455656000,0.455656005859375,1.670036792755127,0.34873104095458984,-1.805883765220642
1684252750465681700,0.465681640625,1.8839911222457886,1.176868200302124,-1.2720707654953003
1684252750475707600,0.475707763671875,2.1584601402282715,1.5605183839797974,-0.6792473793029785
1684252750485733600,0.485733642578125,2.2201504707336426,1.8530519008636475,-0.1667937934398651
1684252750495758800,0.4957587890625,2.218655586242676,1.749247670173645,0.06142819672822952
1684252750505784800,0.505784912109375,2.183807134628296,1.5889837741851807,0.2650117576122284
1684252750515811000,0.51581103515625,2.3206746578216553,1.2837905883789062,0.32618510723114014
1684252750525837000,0.525837158203125,2.8058180809020996,0.9357109665870667,0.4226602613925934
1684252750535863000,0.535863037109375,3.3871512413024902,0.49514663219451904,0.7041885852813721
1684252750545888000,0.545887939453125,3.5581226348876953,0.26610928773880005,1.155121922492981
1684252750555914000,0.5559140625,3.0836446285247803,0.06408216059207916,2.1468915939331055
1684252750565940000,0.56593994140625,2.021928548812866,0.11280858516693115,3.1732354164123535
1684252750575966000,0.575966064453125,0.35829517245292664,0.09382637590169907,3.8707385063171387
1684252750585992000,0.585991943359375,-1.462893009185791,0.4240253269672394,3.771672487258911
1684252750596017000,0.596016845703125,-1.6918221712112427,1.2011500597000122,3.5182907581329346
1684252750606043000,0.60604296875,-1.2014309167861938,2.1244640350341797,3.7588939666748047
1684252750616068900,0.61606884765625,-1.085619330406189,2.8553459644317627,3.8099582195281982
1684252750626094800,0.6260947265625,-0.7380199432373047,3.175652027130127,3.276564359664917
1684252750636120800,0.636120849609375,-0.29811525344848633,2.798391103744507,2.439044237136841
1684252750646145800,0.646145751953125,0.028711356222629547,2.010666608810425,1.6221524477005005
1684252750656171800,0.656171875,-0.024271966889500618,0.5524883270263672,0.9226660132408142
1684252750666197800,0.66619775390625,-0.6931569576263428,-0.5235041379928589,0.569709837436676
1684252750676223700,0.6762236328125,-0.6677575707435608,0.054452940821647644,0.7019874453544617
1684252750686250000,0.68625,-0.5422827005386353,0.4096606969833374,0.8186152577400208
1684252750696274700,0.696274658203125,-0.2061230093240738,-0.8107523322105408,0.6517663598060608
1684252750706301000,0.706301025390625,-0.07531644403934479,-1.1033331155776978,0.2866699993610382
1684252750716327000,0.716326904296875,-0.36340707540512085,-1.4937567710876465,-0.12081549316644669
1684252750726353000,0.726352783203125,-0.7600019574165344,-1.741844892501831,-0.3036642372608185
1684252750736379000,0.73637890625,-1.2260210514068604,-1.7777655124664307,-0.14225909113883972
1684252750746403800,0.74640380859375,-1.6328548192977905,-2.1596035957336426,-0.07421181350946426
1684252750756429800,0.756429931640625,-1.8733080625534058,-2.3445839881896973,-0.48400649428367615
1684252750766455800,0.766455810546875,-1.9684804677963257,-2.5502817630767822,-1.2141687870025635
1684252750776481800,0.776481689453125,-2.0840635299682617,-2.747687816619873,-1.9939018487930298
1684252750786507800,0.7865078125,-2.3529131412506104,-3.0547704696655273,-2.4862232208251953
1684252750796533000,0.796532958984375,-2.5268027782440186,-3.2884726524353027,-2.6285083293914795
1684252750806558700,0.806558837890625,-2.496807336807251,-3.3563971519470215,-2.350886344909668
1684252750816584700,0.816584716796875,-2.2629823684692383,-3.0761542320251465,-2.0396435260772705
1684252750826610700,0.826610595703125,-1.8428616523742676,-2.6989264488220215,-1.792057991027832
1684252750836636700,0.83663671875,-1.328568458557129,-2.4103434085845947,-1.5847541093826294
1684252750846662000,0.846661865234375,-0.9462873339653015,-2.305448293685913,-1.4013302326202393
1684252750856687900,0.85668798828125,-0.8695414066314697,-2.1777796745300293,-1.4470179080963135
1684252750866713900,0.8667138671875,-0.9697355031967163,-2.0196409225463867,-1.533551573753357
1684252750876740000,0.876739990234375,-1.0436989068984985,-1.890209674835205,-1.4390431642532349
1684252750886766000,0.88676611328125,-1.0731924772262573,-1.8300215005874634,-1.266356110572815
1684252750896790800,0.896790771484375,-1.0614385604858398,-1.6876240968704224,-1.0331931114196777
1684252750906817000,0.906817138671875,-0.9820593595504761,-1.4044885635375977,-0.8164758682250977
1684252750916843000,0.916843017578125,-0.7996354699134827,-0.9821692109107971,-0.611646831035614
1684252750926869000,0.926868896484375,-0.5626984238624573,-0.5312899947166443,-0.48183929920196533
1684252750936895000,0.93689501953125,-0.5872333645820618,-0.3661651909351349,-0.40099984407424927
1684252750946921000,0.9469208984375,-0.87898850440979,-0.38514336943626404,-0.38150665163993835
1684252750956946000,0.95694580078125,-1.3473050594329834,-0.2875308096408844,-0.32517173886299133
1684252750966972000,0.966971923828125,-1.9413164854049683,-0.14922229945659637,-0.3111138343811035
1684252750976998000,0.976997802734375,-2.4084246158599854,0.30949869751930237,-0.311044842004776
1684252750987024000,0.98702392578125,-2.6707541942596436,0.8576672673225403,-0.366170197725296
1684252750997049900,0.9970498046875,-2.7705540657043457,1.0038913488388062,-0.28479278087615967
1684252751007074800,1.00707470703125,-2.532592296600342,1.0376994609832764,0.2974749803543091
1684252751017100800,1.017100830078125,-2.125654935836792,1.0218642950057983,0.4347715675830841
1684252751027126800,1.027126708984375,-2.0558323860168457,0.23697912693023682,0.5371325612068176
1684252751037152800,1.03715283203125,-2.407588005065918,-0.7012211084365845,0.796974241733551
1684252751047178800,1.0471787109375,-2.2547836303710938,-0.8275918960571289,0.8460375070571899
1684252751057203700,1.05720361328125,-1.7461652755737305,-0.7917001843452454,0.9606086015701294
1684252751067229700,1.067229736328125,-0.8735508322715759,-0.9879146814346313,1.0142512321472168
1684252751077256000,1.077255859375,0.0977620780467987,-0.9130218029022217,1.163969874382019
1684252751087282000,1.087281982421875,0.8607557415962219,-1.1609371900558472,1.0211039781570435
1684252751097308000,1.097307861328125,1.3943272829055786,-1.4189250469207764,0.3818148672580719
1684252751107332900,1.107332763671875,1.9172805547714233,-1.3390141725540161,-0.130300834774971
1684252751117358800,1.11735888671875,2.4673943519592285,-1.0180691480636597,-0.4291192293167114
1684252751127384800,1.127384765625,2.9291560649871826,-0.6538544297218323,-0.7102968096733093
1684252751137410800,1.137410888671875,3.0996041297912598,-0.21724620461463928,-0.8550753593444824
1684252751147436800,1.147436767578125,2.978088855743408,0.22917631268501282,-0.7742118835449219
1684252751157462800,1.157462890625,2.6818902492523193,0.38369742035865784,-0.7351486086845398
1684252751167487700,1.16748779296875,2.723489761352539,0.07997466623783112,-0.8708236217498779
1684252751177513700,1.177513671875,3.532907724380493,-0.5302114486694336,-1.0945683717727661
1684252751187539700,1.187539794921875,4.5601396560668945,0.39306119084358215,-1.080552101135254
1684252751197565700,1.197565673828125,5.240865707397461,1.1583378314971924,-1.41071355342865
1684252751207591700,1.207591796875,5.612137794494629,1.1935055255889893,-1.7306594848632812
1684252751217617000,1.217616943359375,5.385828018188477,1.2152326107025146,-1.6739448308944702
1684252751227643000,1.227642822265625,4.934455871582031,1.253127098083496,-1.6503078937530518
1684252751237668900,1.2376689453125,5.08908224105835,0.6761420369148254,-1.6972413063049316
1684252751247694800,1.24769482421875,6.060475826263428,0.08671233057975769,-1.4209800958633423
1684252751257720800,1.257720947265625,6.3076171875,-0.5028566718101501,-0.7815200090408325
1684252751267746000,1.26774609375,5.571595668792725,-0.355337917804718,-0.34745168685913086
1684252751277772000,1.27777197265625,4.297161102294922,0.3386477530002594,-0.3361433744430542
1684252751287798000,1.287798095703125,2.5825819969177246,1.4820753335952759,-0.7065286636352539
1684252751297824000,1.297823974609375,0.41441604495048523,2.5593838691711426,-1.1829071044921875
1684252751307850000,1.30785009765625,-1.6011719703674316,2.7472407817840576,-1.1765484809875488
1684252751317875000,1.317875,-2.8926076889038086,2.1526553630828857,-0.7674102783203125
1684252751327901000,1.32790087890625,-3.631516218185425,1.7545102834701538,-0.6279202699661255
1684252751337927000,1.337927001953125,-4.025839805603027,1.6874010562896729,-0.7803470492362976
1684252751347953000,1.347952880859375,-4.147787094116211,1.5657836198806763,-1.050044298171997
1684252751357979000,1.357978759765625,-4.119499206542969,1.5320494174957275,-1.2982172966003418
1684252751368003800,1.36800390625,-4.32053804397583,1.6052520275115967,-1.4467341899871826
1684252751378029800,1.37802978515625,-4.93118953704834,2.718600273132324,-1.423620581626892
1684252751388055800,1.388055908203125,-5.714180946350098,4.053100109100342,-1.1875364780426025
1684252751398081800,1.398081787109375,-6.616229057312012,5.181456565856934,-0.8834444284439087
1684252751408107800,1.408107666015625,-7.355887413024902,5.75789737701416,-0.45565998554229736
1684252751418132700,1.4181328125,-7.694167613983154,5.8005900382995605,0.1399080455303192
1684252751428158700,1.42815869140625,-7.486328125,5.167469501495361,0.9797595143318176
1684252751438185000,1.43818505859375,-6.539125442504883,3.728761672973633,2.0278468132019043
1684252751448211000,1.4482109375,-5.034267425537109,2.027970552444458,3.137422800064087
1684252751458237000,1.45823681640625,-3.7777199745178223,1.338114857673645,3.9385600090026855
1684252751468263000,1.468262939453125,-3.06857967376709,1.2597780227661133,4.322022914886475
1684252751478288000,1.478287841796875,-2.6603634357452393,1.3998125791549683,4.367125034332275
1684252751488313900,1.48831396484375,-2.459909439086914,1.438305139541626,4.211742401123047
1684252751498339800,1.49833984375,-2.5544090270996094,1.038596272468567,3.9895057678222656
1684252751508365000,1.508364990234375,-2.700275182723999,0.5807770490646362,3.8834004402160645
1684252751518391000,1.51839111328125,-2.6813178062438965,0.41923341155052185,3.92287540435791
1684252751528416300,1.528416259765625,-3.059359550476074,-0.3820888102054596,3.588331699371338
1684252751538442200,1.538442138671875,-3.3790276050567627,-0.7890912294387817,3.2942354679107666
1684252751548468200,1.54846826171875,-3.801914930343628,-1.388234257698059,2.844494104385376
1684252751558494200,1.558494140625,-4.031914710998535,-1.0341036319732666,2.776993989944458
1684252751568520200,1.568520263671875,-4.2179412841796875,-0.5808730125427246,2.784090280532837
1684252751578545200,1.578545166015625,-4.4601850509643555,-2.0440468788146973,1.4665058851242065
1684252751588571100,1.588571044921875,-4.219099998474121,-2.5554134845733643,0.1461547613143921
1684252751598597000,1.59859716796875,-3.582026720046997,-0.9950772523880005,-0.278121680021286
1684252751608623000,1.608623046875,-2.70682692527771,1.2656794786453247,-0.5895739197731018
1684252751618649000,1.618649169921875,-1.7285908460617065,3.5319619178771973,-0.8403491973876953
1684252751628675300,1.62867529296875,-0.7154713869094849,5.400040149688721,-1.099076271057129
1684252751638700000,1.638699951171875,-0.059152137488126755,6.718360424041748,-1.3413748741149902
1684252751648726300,1.648726318359375,-0.053808845579624176,7.385704040527344,-1.5249842405319214
1684252751658752300,1.658752197265625,-0.2849925458431244,6.833113670349121,-1.8480215072631836
1684252751668778200,1.6687783203125,-0.5839133858680725,5.409894943237305,-2.233292579650879
1684252751678804200,1.67880419921875,-1.276426076889038,4.611444473266602,-2.194009780883789
1684252751688829200,1.6888291015625,-1.9388978481292725,3.8711998462677,-1.9525959491729736
1684252751698855200,1.698855224609375,-2.2682290077209473,2.8968868255615234,-1.7115668058395386
1684252751708881200,1.708881103515625,-2.0236313343048096,1.6205084323883057,-1.4509466886520386
1684252751718907100,1.7189072265625,-1.0497084856033325,-0.15436093509197235,-1.024409532546997
1684252751728933000,1.72893310546875,-0.04248577356338501,-1.744725227355957,-0.5839610695838928
1684252751738958000,1.7389580078125,0.5186148285865784,-2.7439029216766357,-0.23934032022953033
1684252751748984000,1.748984130859375,0.9556920528411865,-3.469550132751465,0.03299852833151817
1684252751759010000,1.759010009765625,1.2008417844772339,-4.011198043823242,0.2700941860675812
1684252751769036000,1.7690361328125,1.2458183765411377,-4.402993202209473,0.5052652359008789
1684252751779062000,1.77906201171875,1.2614588737487793,-4.686939716339111,0.7168962359428406
1684252751789087000,1.7890869140625,1.4461653232574463,-4.547815799713135,0.8262427449226379
1684252751799113000,1.799113037109375,1.777931809425354,-4.072777271270752,0.8440595865249634
1684252751809139000,1.809138916015625,2.13812518119812,-3.391558885574341,0.7631181478500366
1684252751819165000,1.8191650390625,2.452110767364502,-2.5571720600128174,0.5312129855155945
1684252751829191200,1.829191162109375,2.791792631149292,-1.8001209497451782,0.18829306960105896
1684252751839217200,1.839217041015625,2.9752633571624756,-1.4113446474075317,-0.08733531087636948
1684252751849242000,1.8492421875,2.9322378635406494,-1.3201448917388916,-0.3137778341770172
1684252751859268000,1.85926806640625,2.6537058353424072,-1.4514576196670532,-0.4217354655265808
1684252751869294000,1.869294189453125,2.1820626258850098,-1.7934900522232056,-0.4044671952724457
1684252751879320000,1.879320068359375,1.5966544151306152,-2.299633741378784,-0.25717946887016296
1684252751889346000,1.889345947265625,1.0532222986221313,-2.7460520267486572,-0.09069035202264786
1684252751899371300,1.899371337890625,0.5514769554138184,-3.106907367706299,0.09487231820821762
1684252751909397200,1.909397216796875,0.11079372465610504,-3.3686957359313965,0.3172559440135956
1684252751919423000,1.919423095703125,-0.23705905675888062,-3.417998790740967,0.5871036648750305
1684252751929449000,1.929448974609375,-0.4782141149044037,-3.086742639541626,0.9512882828712463
1684252751939475000,1.939474853515625,-0.3658790588378906,0.016191747039556503,2.111687183380127
1684252751949500200,1.949500244140625,-0.04523293673992157,4.193419456481934,3.213210105895996
1684252751959526100,1.959526123046875,0.041508615016937256,6.121695518493652,3.411311149597168
1684252751969552100,1.96955224609375,-0.11730305850505829,6.475600242614746,3.1975831985473633
1684252751979578000,1.979578125,-0.3954246938228607,5.8707709312438965,2.689030170440674
1684252751989604000,1.98960400390625,-0.7183518409729004,4.779952526092529,1.9864271879196167
1684252751999630300,1.99963037109375,-0.9785799980163574,3.670496702194214,0.8813751935958862
1684252752009655000,2.009655029296875,-1.0770071744918823,2.210737705230713,-0.6071807146072388
1684252752019681300,2.019681396484375,-1.1902458667755127,0.2869740426540375,-1.5390247106552124
1684252752029707300,2.029707275390625,-1.3278661966323853,-1.5865336656570435,-1.8660187721252441
1684252752039733200,2.039733154296875,-1.3876618146896362,-3.0180490016937256,-1.9288549423217773
1684252752049759200,2.04975927734375,-1.3501430749893188,-3.925442695617676,-1.951790690422058
1684252752059784200,2.0597841796875,-1.2310657501220703,-4.4005303382873535,-2.0021235942840576
1684252752069810200,2.06981005859375,-1.0703357458114624,-4.580402851104736,-2.0317842960357666
1684252752079836200,2.079836181640625,-0.8964427709579468,-4.525445938110352,-1.9730753898620605
1684252752089862100,2.089862060546875,-0.7653660178184509,-4.376707553863525,-1.8494665622711182
1684252752099888000,2.09988818359375,-0.7751550078392029,-4.334472179412842,-1.7345054149627686
1684252752109913000,2.1099130859375,-0.8213104009628296,-4.092444896697998,-1.562223196029663
1684252752119939000,2.11993896484375,-0.8758487701416016,-3.4720141887664795,-1.2917451858520508
1684252752129965000,2.129965087890625,-0.9277880191802979,-2.47286057472229,-0.9914908409118652
1684252752139991000,2.139990966796875,-0.9412436485290527,-1.4815400838851929,-0.8036881685256958
1684252752150017000,2.15001708984375,-0.9372327923774719,-0.8773893713951111,-0.774305522441864
1684252752160043000,2.16004296875,-0.9626675844192505,-0.5485749840736389,-0.8316183090209961
1684252752170068000,2.17006787109375,-0.91722571849823,1.4732991456985474,-2.526298761367798
1684252752180094000,2.180093994140625,-0.9990226626396179,3.1308753490448,-5.0551652908325195
1684252752190120200,2.1901201171875,-1.2314921617507935,3.3247873783111572,-6.2110795974731445
1684252752200146200,2.200146240234375,-1.3082228899002075,3.0199105739593506,-6.737026691436768
1684252752210172200,2.210172119140625,-1.0686835050582886,1.3477321863174438,-6.7734246253967285
1684252752220197000,2.220197021484375,-0.45137763023376465,-1.7518951892852783,-5.942567348480225
1684252752230223000,2.23022314453125,0.22084690630435944,-4.342535495758057,-4.202678203582764
1684252752240249000,2.2402490234375,0.6735411286354065,-5.032483100891113,-2.408285617828369
1684252752250275000,2.250275146484375,0.7937453389167786,-4.095209121704102,-1.3959118127822876
1684252752260301000,2.260301025390625,0.8409754037857056,-2.5070900917053223,-1.4132041931152344
1684252752270327000,2.2703271484375,1.0241789817810059,-0.7669702172279358,-2.074960470199585
1684252752280352000,2.28035205078125,1.7862299680709839,0.16745764017105103,-2.3797194957733154
1684252752290378000,2.2903779296875,3.195868492126465,0.14936676621437073,-2.1208224296569824
1684252752300404000,2.300404052734375,4.828103542327881,-0.35838115215301514,-1.4681371450424194
1684252752310430000,2.310429931640625,6.196310520172119,-0.5940122008323669,-0.6157480478286743
1684252752320456000,2.3204560546875,6.841061592102051,-0.2822667956352234,0.2182762771844864
1684252752330481200,2.330481201171875,6.72061824798584,-0.019876468926668167,0.5814068913459778
1684252752340507100,2.340507080078125,5.987852096557617,0.5263850092887878,0.49554386734962463
1684252752350533000,2.350533203125,4.917443752288818,1.4754414558410645,0.18369588255882263
1684252752360559000,2.36055908203125,3.6833550930023193,2.442744016647339,0.10839925706386566
1684252752370585000,2.370585205078125,2.286303997039795,2.8409624099731445,0.23770001530647278
1684252752380610300,2.3806103515625,0.998669445514679,2.552163600921631,0.45006048679351807
1684252752390636300,2.39063623046875,0.05845236778259277,2.332228183746338,0.752260684967041
1684252752400662300,2.400662353515625,-0.44187384843826294,2.5040974617004395,0.8968967199325562
1684252752410688300,2.410688232421875,-0.5344948768615723,2.90767765045166,0.7196337580680847
1684252752420714200,2.42071435546875,-0.2916947305202484,3.2995657920837402,0.4199887216091156
1684252752430740200,2.430740234375,0.20643840730190277,3.35726261138916,0.1974613219499588
1684252752440765200,2.44076513671875,0.9076405167579651,2.9829752445220947,0.10202907025814056
1684252752450791200,2.450791259765625,1.6493626832962036,2.449522018432617,0.09590509533882141
1684252752460817200,2.460817138671875,2.271569013595581,2.0242152214050293,0.12314869463443756
1684252752470843100,2.470843017578125,2.670172929763794,1.8740073442459106,0.09310247749090195
1684252752480869000,2.480869140625,2.8717970848083496,1.956183671951294,-0.029403991997241974
1684252752490894000,2.49089404296875,2.926182270050049,2.0643367767333984,-0.18635573983192444
1684252752500920000,2.500920166015625,2.8965072631835938,2.129960060119629,-0.2623719573020935
1684252752510946600,2.510946533203125,2.9065725803375244,2.19162917137146,-0.10551413893699646
1684252752520972500,2.52097265625,2.8936009407043457,2.1736669540405273,0.15042655169963837
1684252752530998500,2.53099853515625,2.6401641368865967,2.044287919998169,0.4584693908691406
1684252752541024500,2.5410244140625,2.142714023590088,1.9367300271987915,0.7867846488952637
1684252752551049500,2.551049560546875,1.561753749847412,1.8933607339859009,1.049481987953186
1684252752561075500,2.561075439453125,1.0614194869995117,1.7937015295028687,1.1715333461761475
1684252752571101400,2.571101318359375,0.7298668026924133,1.7158938646316528,1.2716927528381348
1684252752581127400,2.58112744140625,0.541233479976654,1.9669212102890015,1.4702516794204712
1684252752591153400,2.5911533203125,0.48787790536880493,2.4508137702941895,1.6224206686019897
1684252752601178400,2.601178466796875,0.5269851088523865,2.744009494781494,1.6397682428359985
1684252752611204400,2.611204345703125,0.5344514846801758,2.450976848602295,1.6626278162002563
1684252752621230300,2.621230224609375,0.43196454644203186,1.9300285577774048,1.9948393106460571
1684252752631256300,2.63125634765625,0.30565816164016724,1.7044984102249146,2.7503936290740967
1684252752641282600,2.641282470703125,0.23707404732704163,1.761083722114563,3.6176743507385254
1684252752651308500,2.65130859375,0.27591535449028015,1.7203344106674194,4.324185371398926
1684252752661333500,2.66133349609375,0.412247896194458,0.9832510352134705,4.465761661529541
1684252752671359500,2.671359375,1.3687105178833008,-4.581005573272705,0.6176151633262634
1684252752681385500,2.681385498046875,3.9162416458129883,-12.254446983337402,-5.244598388671875
1684252752691411500,2.691411376953125,4.007391452789307,-5.474453926086426,1.450918436050415
1684252752701437400,2.7014375,1.7393919229507446,1.117851972579956,7.245776653289795
1684252752711462400,2.71146240234375,-1.3045916557312012,-0.13298527896404266,4.692277431488037
1684252752721488400,2.72148828125,-3.18949031829834,0.5677781701087952,-1.7890944480895996
1684252752731514400,2.731514404296875,-4.097666263580322,2.4288487434387207,-2.3661134243011475
1684252752741540400,2.741540283203125,-4.286983013153076,3.271857976913452,-1.6889466047286987
1684252752751566300,2.75156640625,-4.078378677368164,2.7369232177734375,-1.384422779083252
1684252752761592300,2.76159228515625,-3.5325663089752197,2.324110984802246,-1.9074503183364868
1684252752771617500,2.771617431640625,-2.95296573638916,2.8723931312561035,-2.3708584308624268
1684252752781643300,2.781643310546875,-2.5775794982910156,3.3375604152679443,-2.3019602298736572
1684252752791669200,2.791669189453125,-2.0855822563171387,3.940239906311035,-1.5253232717514038
1684252752801695200,2.8016953125,-1.2381558418273926,5.4465742111206055,0.44345343112945557
1684252752811721200,2.81172119140625,-0.34548741579055786,5.692010402679443,2.2086117267608643
1684252752821746400,2.821746337890625,0.15026956796646118,4.36619758605957,3.0907270908355713
1684252752831772400,2.8317724609375,0.3585720956325531,2.1987149715423584,3.41178560256958
1684252752841798700,2.841798583984375,0.3250215947628021,-0.6583515405654907,3.1219699382781982
1684252752851824600,2.85182470703125,0.0719601958990097,-3.48808217048645,2.5846643447875977
1684252752861850600,2.8618505859375,-0.2476404309272766,-5.171914577484131,2.404698133468628
1684252752871876400,2.87187646484375,-0.57855623960495,-5.919398784637451,2.5843262672424316
1684252752881901600,2.881901611328125,-0.885639488697052,-6.238943099975586,2.8740999698638916
1684252752891927600,2.891927490234375,-1.124984860420227,-6.3214311599731445,3.103231430053711
1684252752901953500,2.90195361328125,-1.3181692361831665,-6.081718444824219,3.264475107192993
1684252752911979500,2.9119794921875,-1.413196325302124,-5.247206687927246,3.5201427936553955
1684252752922005500,2.922005615234375,-1.3839362859725952,-3.870377779006958,3.7248306274414062
1684252752932030500,2.932030517578125,-1.314924955368042,-2.2386889457702637,3.5694808959960938
1684252752942056400,2.942056396484375,-1.248797059059143,-0.7345589399337769,2.9924590587615967
1684252752952082400,2.95208251953125,-1.2474039793014526,0.36550071835517883,2.244898796081543
1684252752962108400,2.9621083984375,-1.3065307140350342,1.1424771547317505,1.4419324398040771
1684252752972134400,2.972134521484375,-1.4198226928710938,1.6981030702590942,0.6502135396003723
1684252752982160400,2.982160400390625,-1.527984619140625,1.7139558792114258,0.02603779546916485
1684252752992185300,2.992185302734375,-1.6981189250946045,-2.7855029106140137,-0.21400517225265503
1684252753002211300,3.00221142578125,-1.8238774538040161,-6.606930732727051,-0.24112175405025482
1684252753012237600,3.012237548828125,-1.724131464958191,-7.726232528686523,-0.16239072382450104
1684252753022263600,3.022263671875,-1.4036307334899902,-7.5578389167785645,0.03439875692129135
1684252753032289500,3.03228955078125,-1.0114762783050537,-6.769162178039551,0.26882269978523254
1684252753042314500,3.042314453125,-0.6814738512039185,-5.650091648101807,0.508675217628479
1684252753052340500,3.052340576171875,-0.46872633695602417,-4.445986270904541,0.8082740902900696
1684252753062366500,3.062366455078125,-0.35149770975112915,-3.2421975135803223,1.0669519901275635
1684252753072392400,3.072392333984375,-0.30316054821014404,-2.1358654499053955,1.2435081005096436
1684252753082418400,3.08241845703125,-0.29530155658721924,-1.1323661804199219,1.3350932598114014
1684252753092444400,3.0924443359375,-0.3176499009132385,-0.271675705909729,1.377224087715149
1684252753102469400,3.102469482421875,-0.37962910532951355,0.335848867893219,1.4837579727172852
1684252753112495400,3.112495361328125,-0.4579418897628784,0.6667587757110596,1.642149567604065
1684252753122521300,3.122521240234375,-0.47900617122650146,0.7952698469161987,1.7910043001174927
1684252753132547300,3.13254736328125,-0.4356452226638794,0.741847574710846,1.8979430198669434
1684252753142573300,3.1425732421875,-0.3366917371749878,0.2979479134082794,2.0350301265716553
1684252753152599300,3.152599365234375,-0.16412289440631866,-0.6718796491622925,2.182335376739502
1684252753162624300,3.162624267578125,0.029523279517889023,-1.8876385688781738,2.216338872909546
1684252753172650200,3.172650146484375,0.17517316341400146,-2.920560836791992,2.0443758964538574
1684252753182676500,3.182676513671875,0.30043813586235046,-3.4636502265930176,1.671746850013733
1684252753192702500,3.192702392578125,0.4140470325946808,-3.350292682647705,1.1478855609893799
1684252753202728400,3.202728515625,0.5348666310310364,-2.543433427810669,0.5100224614143372
1684252753212753400,3.21275341796875,0.6942874789237976,-1.2942252159118652,-0.08446618914604187
1684252753222779400,3.222779296875,0.8257578611373901,-0.17491033673286438,-0.30907294154167175
1684252753232805400,3.232805419921875,0.849161684513092,0.5727160573005676,0.00022211577743291855
1684252753242831400,3.242831298828125,0.8458498120307922,0.9607833623886108,0.5294872522354126
1684252753252857300,3.252857421875,0.922646164894104,1.01272714138031,0.8251508474349976
1684252753262883300,3.26288330078125,1.1304597854614258,0.9560199975967407,0.6693170666694641
1684252753272908500,3.272908447265625,1.362041711807251,1.200790524482727,0.1389959305524826
1684252753282934500,3.2829345703125,1.5816212892532349,1.938386082649231,-0.5321163535118103
1684252753292960500,3.29296044921875,1.841469168663025,2.9068892002105713,-1.1140568256378174
1684252753302986500,3.302986572265625,2.22151517868042,3.7509069442749023,-1.5043540000915527
1684252753313012500,3.313012451171875,2.6077771186828613,4.274441719055176,-1.7119688987731934
1684252753323038500,3.32303857421875,2.937838077545166,4.43566370010376,-1.7673379182815552
1684252753333063400,3.3330634765625,3.2298688888549805,3.966691017150879,-1.6358627080917358
1684252753343089400,3.34308935546875,3.5682544708251953,1.2678474187850952,-1.4687268733978271
1684252753353115600,3.35311572265625,3.7654640674591064,-3.702418088912964,-2.108819007873535
1684252753363141600,3.3631416015625,3.666175603866577,-5.353811740875244,-2.3576977252960205
1684252753373167600,3.373167724609375,3.493218183517456,-5.265336513519287,-2.2281835079193115
1684252753383192600,3.383192626953125,3.269308090209961,-4.459262847900391,-1.8294661045074463
1684252753393218600,3.393218505859375,2.974243402481079,-3.0722496509552,-1.3671575784683228
1684252753403244500,3.40324462890625,2.6357524394989014,-1.1048246622085571,-1.0316357612609863
1684252753413270500,3.4132705078125,2.2376556396484375,0.724705696105957,-0.9828096628189087
1684252753423296500,3.423296630859375,1.7924302816390991,2.166307210922241,-1.1748415231704712
1684252753433322500,3.433322509765625,1.3263230323791504,3.3174805641174316,-1.4175207614898682
1684252753443347500,3.443347412109375,0.8254687786102295,4.078161239624023,-1.4642480611801147
1684252753453373400,3.45337353515625,0.38818392157554626,4.7949676513671875,-1.251982569694519
1684252753463399400,3.4633994140625,0.05878178030252457,5.5689215660095215,-0.8381017446517944
1684252753473425400,3.47342529296875,-0.38607433438301086,5.975352764129639,-0.5533098578453064
1684252753483451400,3.483451416015625,-1.01948082447052,5.117132186889648,-0.861110270023346
1684252753493476400,3.493476318359375,-1.381808876991272,3.015700578689575,-1.4636582136154175
1684252753503502300,3.50350244140625,-1.209441900253296,0.6610738039016724,-1.8726545572280884
1684252753513528000,3.513528076171875,-0.672965407371521,-1.2601325511932373,-1.9338058233261108
1684252753523554000,3.523553955078125,-0.05136202275753021,-2.5262134075164795,-1.6511597633361816
1684252753533580300,3.533580322265625,0.5019502639770508,-3.0520191192626953,-1.1414070129394531
1684252753543606300,3.543606201171875,1.0010250806808472,-2.99008846282959,-0.4672384560108185
1684252753553631200,3.55363134765625,1.4688096046447754,-2.7475345134735107,0.058705009520053864
1684252753563657200,3.5636572265625,1.9086687564849854,-3.0457537174224854,-0.19831718504428864
1684252753573683200,3.57368310546875,2.10066294670105,-3.5767226219177246,-1.009785532951355
1684252753583709200,3.583709228515625,1.8994333744049072,-3.5332870483398438,-1.899120569229126
1684252753593735200,3.593735107421875,1.367374300956726,-2.55245304107666,-2.5489587783813477
1684252753603761200,3.60376123046875,0.7734768390655518,-0.5923838019371033,-2.3875105381011963
1684252753613786000,3.6137861328125,0.28864577412605286,0.8555164337158203,-1.559093713760376
1684252753623812000,3.62381201171875,-0.11512033641338348,0.9253945350646973,-0.7463365197181702
1684252753633838000,3.633838134765625,-0.36802375316619873,0.2430155873298645,-0.24751725792884827
1684252753643864000,3.643864013671875,-0.38227778673171997,-0.5473227500915527,-0.07247486710548401
1684252753653890000,3.65389013671875,-0.23552805185317993,-1.0298223495483398,-0.15477752685546875
1684252753663916000,3.663916015625,-0.05974103882908821,-1.1428673267364502,-0.44647061824798584
1684252753673941200,3.673941162109375,0.02354256808757782,-0.9231120347976685,-0.8073451519012451
1684252753683967200,3.68396728515625,-0.08313354849815369,-0.4844406545162201,-1.0926560163497925
1684252753693993200,3.6939931640625,-0.41156601905822754,0.024861564859747887,-1.1776691675186157
1684252753704019200,3.704019287109375,-0.9182854294776917,0.5596655607223511,-1.079435110092163
1684252753714045200,3.714045166015625,-1.528520941734314,1.1072278022766113,-0.8321245908737183
1684252753724070400,3.7240703125,-2.1325035095214844,1.7147382497787476,-0.4789840877056122
1684252753734096400,3.734096435546875,-2.637424945831299,2.3661978244781494,-0.08541645109653473
1684252753744122400,3.744122314453125,-3.03470516204834,2.941763162612915,0.3190191984176636
1684252753754148400,3.7541484375,-3.33644437789917,3.3440160751342773,0.7672134637832642
1684252753764174300,3.76417431640625,-3.4832308292388916,3.383209466934204,1.4331555366516113
1684252753774200300,3.774200439453125,-3.217555284500122,0.9048927426338196,2.102504014968872
1684252753784225300,3.784225341796875,-1.613300085067749,-7.328314304351807,0.9364118576049805
1684252753794251300,3.794251220703125,0.03799208998680115,-4.228080749511719,1.2890779972076416
1684252753804277200,3.80427734375,0.7308054566383362,0.9500866532325745,1.685869812965393
1684252753814303200,3.81430322265625,0.5885787606239319,3.3129026889801025,2.141207456588745
1684252753824329200,3.8243291015625,-0.2755748927593231,1.231560468673706,2.0360448360443115
1684252753834355200,3.834355224609375,-1.3380038738250732,-3.6748902797698975,0.8157861828804016
1684252753844380200,3.844380126953125,-1.5640809535980225,-4.2798919677734375,-0.0980658233165741
1684252753854406100,3.85440625,-1.2445162534713745,-2.361302137374878,-0.38887688517570496
1684252753864432000,3.86443212890625,-1.0075777769088745,-1.0964356660842896,-0.5636596083641052
1684252753874458000,3.8744580078125,-0.9031796455383301,-0.35604339838027954,-0.6351426243782043
1684252753884484400,3.884484375,-0.8810322880744934,0.08746054023504257,-0.6189908385276794
1684252753894509000,3.894509033203125,-0.8676596879959106,0.21893683075904846,-0.48044896125793457
1684252753904535300,3.904535400390625,-0.8637187480926514,-0.18350861966609955,-0.08596448600292206
1684252753914561300,3.914561279296875,-0.8176100850105286,-0.7619608640670776,0.4133889973163605
1684252753924587300,3.924587158203125,-0.8010883927345276,-1.203197956085205,0.9346936941146851
1684252753934613200,3.93461328125,-0.9357402324676514,-1.1705158948898315,1.3368597030639648
1684252753944639200,3.94463916015625,-1.2720668315887451,-0.9137768745422363,1.6391109228134155
1684252753954664200,3.954664306640625,-1.7284926176071167,-0.7147778272628784,1.8571738004684448
1684252753964690200,3.964690185546875,-2.167637586593628,-0.8892521262168884,2.000445604324341
1684252753974716200,3.974716064453125,-2.5190775394439697,-1.4615532159805298,2.0957772731781006
1684252753984742100,3.9847421875,-2.6902568340301514,-2.1835787296295166,2.1481144428253174
1684252753994768100,3.99476806640625,-2.663780927658081,-2.821678876876831,2.1426398754119873
1684252754004794000,4.004794189453125,-2.4871678352355957,-3.2077219486236572,2.0646681785583496
1684252754014819000,4.014819091796875,-2.2380940914154053,-3.3522186279296875,1.9226449728012085
1684252754024845000,4.024844970703125,-2.0264551639556885,-3.410632610321045,1.7721761465072632
1684252754034871000,4.03487109375,-1.8994114398956299,-3.5294649600982666,1.6473758220672607
1684252754044897000,4.04489697265625,-1.8295913934707642,-3.653804063796997,1.4771215915679932
1684252754054923300,4.05492333984375,-1.7665644884109497,-3.549880266189575,1.2260905504226685
1684252754064949200,4.06494921875,-1.7119097709655762,-3.310361623764038,0.9564247131347656
1684252754074974200,4.07497412109375,-1.7118762731552124,-3.236391305923462,0.7586550712585449
1684252754085000200,4.085000244140625,-1.7920207977294922,-3.579629898071289,0.662795901298523
1684252754095026200,4.095026123046875,-1.8916348218917847,-4.077763080596924,0.6379130482673645
1684252754105052200,4.10505224609375,-1.8602532148361206,-3.9927005767822266,0.5756204128265381
1684252754115078100,4.115078125,-1.6868432760238647,-3.2532408237457275,0.48846960067749023
1684252754125103400,4.125103271484375,-1.4269906282424927,-2.1867313385009766,0.4738696217536926
1684252754135129000,4.135129150390625,-1.108464002609253,-0.9917224049568176,0.6155284643173218
1684252754145155000,4.145155029296875,-0.8033812642097473,0.1717596799135208,0.8027102947235107
1684252754155181000,4.15518115234375,-0.4906225800514221,1.120568037033081,0.8439890146255493
1684252754165207000,4.16520703125,-0.05410463362932205,1.645919680595398,0.8066352605819702
1684252754175233000,4.17523291015625,0.4802367389202118,1.4521418809890747,0.7931391596794128
1684252754185259000,4.185259033203125,1.0112513303756714,0.4555944502353668,0.7901545763015747
1684252754195284200,4.1952841796875,1.479776382446289,-0.8158000707626343,0.7245537042617798
1684252754205310200,4.205310302734375,1.849949598312378,-1.6851420402526855,0.5153748989105225
1684252754215336200,4.215336181640625,2.086594820022583,-2.0209686756134033,0.2358705699443817
1684252754225362200,4.225362060546875,2.1701347827911377,-2.2273447513580322,0.018519604578614235
1684252754235388200,4.23538818359375,2.0990607738494873,-2.590850830078125,0.03672756254673004
1684252754245413400,4.245413330078125,1.9586254358291626,-2.8710076808929443,0.2116365283727646
1684252754255439400,4.255439453125,1.772153377532959,-2.748060703277588,0.3738658130168915
1684252754265465300,4.26546533203125,1.4583603143692017,-2.1328749656677246,0.4079761207103729
1684252754275491300,4.2754912109375,1.069474458694458,-0.9731802344322205,0.2920684218406677
1684252754285517300,4.285517333984375,0.6906150579452515,0.5768730044364929,0.030254410579800606
1684252754295543300,4.295543212890625,0.3143995702266693,2.236339807510376,-0.44209203124046326
1684252754305568300,4.305568359375,-0.055505260825157166,3.5317251682281494,-1.246764063835144
1684252754315594200,4.31559423828125,-0.6306552290916443,4.565586090087891,-3.2245028018951416
1684252754325620200,4.3256201171875,-1.368769884109497,5.1281585693359375,-5.400331497192383
1684252754335646200,4.335646240234375,-1.6751043796539307,5.097388744354248,-6.500693321228027
1684252754345672200,4.345672119140625,-1.661097764968872,4.5992045402526855,-7.132857799530029
1684252754355698200,4.3556982421875,-1.2109442949295044,3.1275711059570312,-7.48630952835083
1684252754365723100,4.36572314453125,-0.24292230606079102,1.0158261060714722,-7.229272842407227
1684252754375749000,4.3757490234375,1.0786131620407104,-0.8113006949424744,-6.368429183959961
1684252754385775000,4.385775146484375,2.516397714614868,-2.2178516387939453,-5.187288761138916
1684252754395801300,4.39580126953125,3.790078639984131,-2.9173693656921387,-3.935934543609619
1684252754405827300,4.405827392578125,4.7236552238464355,-3.2989165782928467,-2.5054869651794434
1684252754415853300,4.415853271484375,5.328027725219727,-2.9634151458740234,-0.9395095109939575
1684252754425878300,4.425878173828125,5.468934059143066,-1.2740130424499512,0.36026859283447266
1684252754435904300,4.435904296875,4.980666637420654,0.8818033933639526,1.2248451709747314
1684252754445930200,4.44593017578125,4.2754621505737305,2.5568313598632812,1.6302735805511475
1684252754455956200,4.455956298828125,3.984736680984497,3.6446635723114014,1.8089897632598877
1684252754465982200,4.465982177734375,4.221977233886719,-0.7509814500808716,0.3557383716106415
1684252754476008200,4.47600830078125,4.689272403717041,-4.587646484375,-0.8216152191162109
1684252754486033200,4.486033203125,5.10052490234375,-5.170294284820557,-0.7380755543708801
1684252754496059100,4.49605908203125,5.269092082977295,-3.8996269702911377,0.03803016245365143
1684252754506085000,4.506085205078125,5.144083023071289,-2.5622949600219727,0.7511330842971802
1684252754516110800,4.51611083984375,4.797399044036865,-1.8336620330810547,0.9849836826324463
1684252754526136800,4.52613671875,4.1671342849731445,-0.6127831339836121,0.9861384630203247
1684252754536163000,4.5361630859375,3.2953319549560547,1.5056414604187012,1.1950180530548096
1684252754546187800,4.546187744140625,2.2885873317718506,3.825629711151123,1.492340326309204
1684252754556214000,4.556214111328125,1.1736143827438354,5.240521430969238,1.6059536933898926
1684252754566240000,4.566239990234375,0.13960297405719757,5.373987674713135,1.5889006853103638
1684252754576266000,4.576265869140625,-0.4785020053386688,4.5897626876831055,1.6420091390609741
1684252754586292000,4.5862919921875,-0.6937482357025146,3.2924904823303223,1.7991068363189697
1684252754596317000,4.59631689453125,-0.7262498736381531,1.930986762046814,2.013923168182373
1684252754606343000,4.606343017578125,-0.718569278717041,0.790732741355896,2.1967966556549072
1684252754616369000,4.616368896484375,-0.7453821897506714,0.01892903819680214,2.239450454711914
1684252754626395000,4.626394775390625,-0.7990872859954834,-0.2864130139350891,2.201108455657959
1684252754636420900,4.6364208984375,-0.8806335926055908,-0.055056989192962646,2.1645619869232178
1684252754646446800,4.64644677734375,-0.9657870531082153,0.5795391201972961,2.0433247089385986
1684252754656472800,4.656472900390625,-1.033406376838684,1.2699477672576904,1.837881088256836
1684252754666498000,4.666498046875,-1.1115182638168335,1.7108668088912964,1.6322839260101318
1684252754676524000,4.67652392578125,-1.233363389968872,1.7917499542236328,1.4899568557739258
1684252754686550000,4.686550048828125,-1.3894352912902832,1.591713786125183,1.4337819814682007
1684252754696576000,4.696575927734375,-1.5403279066085815,1.2656108140945435,1.4304720163345337
1684252754706602000,4.70660205078125,-1.6519311666488647,0.8680166006088257,1.4007409811019897
1684252754716628000,4.7166279296875,-1.7399219274520874,0.4104437828063965,1.3257651329040527
1684252754726653200,4.726653076171875,-1.831333875656128,0.008735233917832375,1.2410565614700317
1684252754736679200,4.73667919921875,-1.9314415454864502,-0.30513834953308105,1.1594748497009277
1684252754746705200,4.746705078125,-2.0636253356933594,-0.5650919675827026,0.9954664707183838
1684252754756731100,4.756731201171875,-2.207686185836792,-0.987674355506897,0.13314975798130035
1684252754766757000,4.766757080078125,-2.015974760055542,-1.335047721862793,-1.4207078218460083
1684252754776782000,4.776781982421875,-0.9637019634246826,-0.8260231018066406,-0.15136250853538513
1684252754786808000,4.78680810546875,0.6061547994613647,1.7070950269699097,2.4468677043914795
1684252754796834000,4.796833984375,0.8869718909263611,4.251636505126953,2.680675983428955
1684252754806860000,4.806860107421875,-0.14039094746112823,4.494333267211914,1.8983486890792847
1684252754816886000,4.816885986328125,-0.6299613118171692,-7.807559490203857,-1.2793821096420288
1684252754826912000,4.826912109375,-0.8789676427841187,-10.270814895629883,-2.5864593982696533
1684252754836938000,4.83693798828125,-0.9315336346626282,-7.878983020782471,-2.6834521293640137
1684252754846963000,4.846962890625,-1.1781296730041504,-3.1799352169036865,1.3574621677398682
1684252754856989000,4.856989013671875,-1.5601924657821655,0.11985105276107788,2.872206211090088
1684252754867015000,4.867014892578125,-1.8546416759490967,0.860289990901947,1.7296913862228394
1684252754877041200,4.877041259765625,-1.8755873441696167,0.8826831579208374,0.32823774218559265
1684252754887067100,4.887067138671875,-1.6387838125228882,0.48876914381980896,-0.9867483973503113
1684252754897091800,4.897091796875,-1.352937936782837,-0.46188607811927795,-1.958708643913269
1684252754907118000,4.9071181640625,-1.1899231672286987,-0.912604570388794,-2.2737932205200195
1684252754917144000,4.91714404296875,-1.254048466682434,-0.31695428490638733,-1.8637875318527222
1684252754927170000,4.927170166015625,-1.4471229314804077,1.219841718673706,-1.2195979356765747
1684252754937196000,4.937196044921875,-1.5962696075439453,2.790146589279175,-0.6617590188980103
1684252754947222000,4.947221923828125,-1.628255844116211,3.760430335998535,-0.16535887122154236
1684252754957248000,4.957248046875,-1.567961573600769,4.018470764160156,0.3210718631744385
1684252754967273000,4.96727294921875,-1.4770556688308716,3.4731884002685547,0.7134249806404114
1684252754977299000,4.977298828125,-1.3982443809509277,2.6215755939483643,0.9280060529708862
1684252754987325000,4.987324951171875,-1.2950090169906616,1.9148499965667725,0.9957425594329834
1684252754997351000,4.997350830078125,-1.1612297296524048,1.2966910600662231,0.996880829334259
1684252755007377000,5.007376953125,-1.0527949333190918,0.5205939412117004,1.0189464092254639
1684252755017403000,5.01740283203125,-0.9859082698822021,-0.5362110137939453,1.0851632356643677
1684252755027427800,5.027427734375,-0.9313323497772217,-1.6833127737045288,1.1720592975616455
1684252755037453800,5.037453857421875,-0.8623068332672119,-2.707045555114746,1.2611608505249023
1684252755047479800,5.047479736328125,-0.7983528971672058,-3.5127933025360107,1.3746834993362427
1684252755057506000,5.057506103515625,-0.69752037525177,-4.054798603057861,1.5676485300064087
1684252755067532000,5.067531982421875,-0.5920128226280212,-4.17848014831543,1.859568476676941
1684252755077558000,5.07755810546875,-0.5099871158599854,-3.800443649291992,2.1690080165863037
1684252755087583000,5.0875830078125,-0.4749462902545929,-3.058112859725952,2.118929862976074
1684252755097609000,5.09760888671875,-0.4881167709827423,-2.1209306716918945,1.4238231182098389
1684252755107635000,5.107635009765625,-0.5028437376022339,-0.5578307509422302,0.3363383710384369
1684252755117661000,5.117660888671875,-0.44408220052719116,1.2330251932144165,-0.5502116084098816
1684252755127687000,5.12768701171875,-0.35233816504478455,2.589480400085449,-1.0167665481567383
1684252755137713000,5.137712890625,-0.2939971685409546,3.2259151935577393,-1.1265465021133423
1684252755147737900,5.14773779296875,-0.2859397530555725,3.3010976314544678,-1.0287832021713257
1684252755157763800,5.157763916015625,-0.34134942293167114,3.082888126373291,-0.8730822205543518
1684252755167789800,5.167789794921875,-0.3976702392101288,2.797267198562622,-0.7251675724983215
1684252755177815800,5.17781591796875,-0.4133414626121521,2.6730599403381348,-0.6180040836334229
1684252755187841800,5.187841796875,-0.3878435492515564,2.8136403560638428,-0.5445836782455444
1684252755197867800,5.19786767578125,-0.3426545262336731,3.1407225131988525,-0.47128409147262573
1684252755207893000,5.20789306640625,-0.29787322878837585,3.5072758197784424,-0.39063772559165955
1684252755217919000,5.2179189453125,-0.2552620470523834,3.7858572006225586,-0.28746354579925537
1684252755227945200,5.2279453125,-0.19314299523830414,3.9541499614715576,-0.16757790744304657
1684252755237971000,5.237970947265625,-0.11238041520118713,4.0520734786987305,-0.04940904304385185
1684252755247997000,5.247996826171875,-0.019192948937416077,4.096623420715332,0.02625003270804882
1684252755258023000,5.25802294921875,0.08387748897075653,4.061184883117676,0.039211735129356384
1684252755268048100,5.268048095703125,0.20043286681175232,3.916841983795166,-0.0024225276429206133
1684252755278074000,5.27807421875,0.3003130257129669,3.644803762435913,-0.035765159875154495
1684252755288100000,5.28810009765625,0.35532036423683167,3.289299488067627,-0.06724824756383896
1684252755298126000,5.2981259765625,0.36531633138656616,2.9376041889190674,-0.10421150177717209
1684252755308152000,5.308152099609375,0.3968113958835602,2.576871871948242,-0.12203390151262283
1684252755318178000,5.318177978515625,0.5643397569656372,2.1605708599090576,-0.09048452228307724
1684252755328203000,5.328203125,0.8778513669967651,1.5565462112426758,0.10655131191015244
1684252755338229000,5.33822900390625,1.229154109954834,0.8085698485374451,0.4776259660720825
1684252755348255000,5.3482548828125,1.5597069263458252,0.049185167998075485,1.0268146991729736
1684252755358281000,5.358281005859375,1.8689161539077759,-0.7152496576309204,1.580659031867981
1684252755368307000,5.368306884765625,2.188668966293335,-1.3736239671707153,1.9190919399261475
1684252755378333200,5.378333251953125,2.56506609916687,-1.314504623413086,1.694667935371399
1684252755388358000,5.38835791015625,2.9466257095336914,-0.5757506489753723,0.942182183265686
1684252755398384000,5.398384033203125,3.1922338008880615,0.1681058257818222,0.22829464077949524
1684252755408410000,5.40841015625,3.128664016723633,1.3927085399627686,-0.11980420351028442
1684252755418436000,5.41843603515625,2.8335328102111816,5.206178188323975,-0.0019746562466025352
1684252755428462000,5.428462158203125,2.1597108840942383,10.03177547454834,0.1149466335773468
1684252755438488000,5.438488037109375,0.8938468098640442,11.341778755187988,0.1442471742630005
1684252755448513000,5.448512939453125,-0.20123673975467682,9.976670265197754,0.11800651252269745
1684252755458539000,5.4585390625,-0.5399710536003113,7.321023941040039,-0.216717928647995
1684252755468565000,5.46856494140625,-0.09338820725679398,4.112493515014648,-1.0096707344055176
1684252755478591000,5.478591064453125,1.7096059322357178,2.398841381072998,-2.5317726135253906
1684252755488617000,5.488616943359375,2.634495496749878,3.137226104736328,-3.870384454727173
1684252755498643000,5.498642822265625,1.272064447402954,4.203200817108154,-3.911038875579834
1684252755508669000,5.5086689453125,-0.417900413274765,4.194766521453857,-3.311347723007202
1684252755518694000,5.51869384765625,-1.616377592086792,4.292825222015381,-2.8220181465148926
1684252755528720000,5.528719970703125,-2.4760398864746094,4.566690921783447,-2.554457426071167
1684252755538745900,5.538745849609375,-3.1534264087677,4.39237642288208,-2.241295337677002
1684252755548771800,5.548771728515625,-3.6833088397979736,3.471339225769043,-1.7103952169418335
1684252755558797800,5.5587978515625,-4.009517669677734,2.1682305335998535,-1.1410307884216309
1684252755568823800,5.56882373046875,-4.091176509857178,0.3494207262992859,-0.7214114665985107
1684252755578848800,5.578848876953125,-3.878103733062744,-1.8590112924575806,-0.7008383870124817
1684252755588874800,5.588874755859375,-3.5767922401428223,-4.142987251281738,-0.8183245658874512
1684252755598900700,5.598900634765625,-3.2397637367248535,-6.0829901695251465,-0.8943848013877869
1684252755608926700,5.6089267578125,-2.84645676612854,-7.655619144439697,-0.8133360147476196
1684252755618952700,5.61895263671875,-2.4207639694213867,-8.728574752807617,-0.6092020869255066
1684252755628978700,5.628978759765625,-1.932597279548645,-9.123056411743164,-0.348621129989624
1684252755639003600,5.639003662109375,-1.3462059497833252,-8.36665153503418,0.05259278789162636
1684252755649029600,5.649029541015625,-0.7546398639678955,-6.373531341552734,0.5396663546562195
1684252755659055600,5.6590556640625,-0.22960738837718964,-4.244144916534424,0.697297990322113
1684252755669081900,5.669081787109375,0.1549176424741745,-2.658238172531128,0.5633471012115479
1684252755679107800,5.67910791015625,0.3736726641654968,-1.7111334800720215,0.30648073554039
1684252755689133800,5.6891337890625,0.480135440826416,-1.2249499559402466,0.09575413167476654
1684252755699158800,5.69915869140625,0.5328910946846008,-1.1763125658035278,-0.090279221534729
1684252755709184800,5.709184814453125,0.6413097381591797,-1.3176922798156738,-0.22425992786884308
1684252755719210800,5.719210693359375,0.8346225023269653,-1.5810275077819824,-0.2853129804134369
1684252755729236700,5.72923681640625,1.0810120105743408,-1.859846830368042,-0.22279103100299835
1684252755739262700,5.7392626953125,1.3776270151138306,-2.0497775077819824,-0.059767212718725204
1684252755749288700,5.749288818359375,1.6579231023788452,-2.0311694145202637,0.19997701048851013
1684252755759314700,5.759314697265625,1.924363613128662,-1.7936931848526,0.5272696614265442
1684252755769340000,5.76933984375,2.119814157485962,-1.5145329236984253,0.8605506420135498
1684252755779366000,5.779365966796875,2.2258145809173584,-1.2017887830734253,1.1792868375778198
1684252755789392000,5.789391845703125,2.1964192390441895,-0.9849997162818909,1.4657076597213745
1684252755799417900,5.79941796875,2.036792755126953,-0.9827977418899536,1.6903797388076782
1684252755809443800,5.80944384765625,1.7245595455169678,-1.140820860862732,1.9085475206375122
1684252755819469800,5.8194697265625,1.311537742614746,-1.3601137399673462,2.0876035690307617
1684252755829494800,5.829494873046875,0.8512148261070251,-1.676783800125122,2.1966915130615234
1684252755839521000,5.83952099609375,0.3984312117099762,-1.9752095937728882,2.3399903774261475
1684252755849547000,5.849547119140625,-0.023967968299984932,-2.2096779346466064,2.5495657920837402
1684252755859573000,5.859572998046875,-0.4004881978034973,-2.3713855743408203,2.7016243934631348
1684252755869599000,5.869598876953125,-0.7882125377655029,-2.525043249130249,2.4852216243743896
1684252755879625000,5.879625,-1.8632513284683228,-0.26135218143463135,-2.64762282371521
1684252755889650000,5.88964990234375,-3.229600667953491,1.190994381904602,-4.317526817321777
1684252755899676000,5.899676025390625,-4.305139064788818,0.5376862287521362,-2.602893352508545
1684252755909702000,5.909701904296875,-5.119877815246582,0.02884829230606556,-0.5787935256958008
1684252755919727900,5.919727783203125,-5.147228717803955,-0.4101068675518036,1.3420639038085938
1684252755929753900,5.92975390625,-3.9204177856445312,-0.5441288352012634,2.6516499519348145
1684252755939779800,5.93977978515625,-2.1073737144470215,-0.7000197172164917,3.4024574756622314
1684252755949804800,5.9498046875,-0.4955423176288605,-1.097316861152649,3.865041971206665
1684252755959830800,5.959830810546875,0.45583054423332214,-1.820970892906189,3.9458885192871094
1684252755969856800,5.969856689453125,0.8880471587181091,-2.6669015884399414,3.7029619216918945
1684252755979882800,5.9798828125,0.9289980530738831,-3.3409550189971924,3.356440544128418
1684252755989909000,5.989908935546875,0.6913971900939941,-3.971785306930542,3.020707607269287
1684252755999935000,5.99993505859375,0.2076023370027542,-4.481628894805908,2.7035555839538574
1684252756009961000,6.0099609375,-0.4310263395309448,-4.869770526885986,2.319838523864746
1684252756019986000,6.01998583984375,-1.0866779088974,-5.067769527435303,1.8558107614517212
1684252756030012000,6.030011962890625,-1.6601965427398682,-5.019887447357178,1.3391748666763306
1684252756040038000,6.040037841796875,-2.1069133281707764,-4.774750232696533,0.824669361114502
1684252756050064000,6.05006396484375,-2.398190975189209,-4.394134044647217,0.3434435725212097
1684252756060089900,6.06008984375,-2.546074628829956,-3.8642568588256836,-0.06291475147008896
1684252756070115800,6.07011572265625,-2.569896697998047,-3.513946533203125,-0.25782620906829834
1684252756080140800,6.080140869140625,-2.7443652153015137,-3.755284070968628,0.24081920087337494
1684252756090166800,6.090166748046875,-2.785863161087036,-3.5055534839630127,0.5435148477554321
1684252756100192800,6.10019287109375,-2.432152032852173,-2.772843360900879,0.2861472964286804
1684252756110218800,6.11021875,-1.8800495862960815,-1.8769850730895996,-0.15006890892982483
1684252756120244700,6.12024462890625,-1.2505444288253784,-0.9638018608093262,-0.5015458464622498
1684252756130270700,6.130270751953125,-0.7198424935340881,-0.24565143883228302,-0.7465308308601379
1684252756140295700,6.140295654296875,-0.5097200870513916,0.003739641048014164,-0.6813677549362183
1684252756150321700,6.15032177734375,-0.7749453186988831,-0.8285125494003296,0.2068694829940796
1684252756160347600,6.16034765625,-1.052996277809143,-2.2679643630981445,1.3973157405853271
1684252756170374000,6.170373779296875,-0.9088869094848633,-3.1190099716186523,2.0671985149383545
1684252756180399900,6.18039990234375,-0.4825049936771393,-3.268324613571167,2.2478322982788086
1684252756190425900,6.19042578125,0.009073004126548767,-2.933542490005493,2.164292573928833
1684252756200451800,6.200451904296875,0.4261957108974457,-2.4279208183288574,2.0038862228393555
1684252756210476800,6.210476806640625,0.6228587031364441,-2.0868430137634277,1.8976081609725952
1684252756220502800,6.220502685546875,0.5002686977386475,-2.3071844577789307,2.1181249618530273
1684252756230528800,6.23052880859375,0.07608948647975922,-3.5530741214752197,2.9602622985839844
1684252756240554800,6.2405546875,-0.13966292142868042,-4.504003524780273,3.5615129470825195
1684252756250580700,6.250580810546875,0.07995252311229706,-4.289943695068359,3.378204107284546
1684252756260606700,6.260606689453125,0.4680338203907013,-3.4977991580963135,2.812382459640503
1684252756270631700,6.270631591796875,0.9310616254806519,-2.4196901321411133,2.100188970565796
1684252756280657700,6.28065771484375,1.5664219856262207,-1.1060442924499512,1.2444096803665161
1684252756290683600,6.29068359375,2.4364101886749268,0.44502803683280945,0.22865663468837738
1684252756300709600,6.300709716796875,3.395765781402588,1.992458462715149,-1.0219045877456665
1684252756310735600,6.310735595703125,4.173675060272217,2.7680375576019287,-2.2779014110565186
1684252756320761900,6.320761962890625,4.803574562072754,1.0576081275939941,-2.906487464904785
1684252756330787800,6.330787841796875,5.387014865875244,-4.089613437652588,-3.0341718196868896
1684252756340812800,6.340812744140625,5.498830318450928,-6.125420570373535,-3.1364662647247314
1684252756350838800,6.3508388671875,5.212105751037598,-5.893575191497803,-3.2789294719696045
1684252756360864800,6.36086474609375,4.557717800140381,-5.330259799957275,-3.4593348503112793
1684252756370890800,6.370890869140625,3.7829971313476562,-4.730437278747559,-3.4799652099609375
1684252756380916700,6.380916748046875,3.0381107330322266,-3.702019691467285,-2.893427610397339
1684252756390942700,6.390942626953125,2.228680372238159,-1.3908253908157349,-1.5370570421218872
1684252756400968000,6.400968017578125,1.2450072765350342,1.5697301626205444,-0.7236716151237488
1684252756410994000,6.410993896484375,0.1640413999557495,3.852146863937378,-0.8034700751304626
1684252756421020000,6.42102001953125,-0.8349453210830688,4.890683174133301,-1.1638891696929932
1684252756431046000,6.4310458984375,-1.631190299987793,4.552097797393799,-1.2503870725631714
1684252756441071900,6.44107177734375,-2.067845106124878,3.4339778423309326,-1.1997838020324707
1684252756451097600,6.45109765625,-1.949373483657837,2.172124147415161,-1.2484384775161743
1684252756461122800,6.461122802734375,-1.6040782928466797,1.0879427194595337,-1.4107626676559448
1684252756471148800,6.471148681640625,-1.1098922491073608,0.054155562072992325,-1.6722099781036377
1684252756481174800,6.4811748046875,-0.6462534666061401,-0.8760550022125244,-1.8992297649383545
1684252756491201000,6.491200927734375,-0.31886255741119385,-1.6636147499084473,-2.0471951961517334
1684252756501227000,6.50122705078125,-0.1493878811597824,-2.330828905105591,-2.0937509536743164
1684252756511253000,6.5112529296875,-0.18812115490436554,-2.7798213958740234,-2.0286903381347656
1684252756521279000,6.521279052734375,-0.4059123396873474,-2.7979042530059814,-1.8284348249435425
1684252756531304200,6.53130419921875,-0.7775205373764038,-2.061516046524048,-1.492299199104309
1684252756541330200,6.541330078125,-1.2653963565826416,-1.1444073915481567,-1.0584137439727783
1684252756551356200,6.551356201171875,-1.7453317642211914,-0.6758816242218018,-0.5948687791824341
1684252756561382100,6.561382080078125,-2.1657321453094482,-0.6261219382286072,-0.1890316754579544
1684252756571408100,6.571408203125,-2.5223681926727295,-0.7739385962486267,0.0979260578751564
1684252756581434000,6.58143408203125,-2.784111261367798,-1.0375487804412842,0.24061132967472076
1684252756591459000,6.591458984375,-2.921778678894043,-1.4655264616012573,0.26967573165893555
1684252756601485000,6.601485107421875,-2.947016716003418,-2.0847272872924805,0.2770059108734131
1684252756611511000,6.611510986328125,-2.858860969543457,-2.797631025314331,0.34547045826911926
1684252756621537000,6.621537109375,-2.6671345233917236,-3.4493401050567627,0.4945964813232422
1684252756631563300,6.631563232421875,-2.3584554195404053,-3.891031265258789,0.7155059576034546
1684252756641589200,6.64158935546875,-1.9494576454162598,-3.974273443222046,0.9614888429641724
1684252756651615200,6.651615234375,-1.5083431005477905,-3.8438942432403564,1.1819390058517456
1684252756661640200,6.66164013671875,-1.0763330459594727,-3.64793062210083,1.3114620447158813
1684252756671666200,6.671666259765625,-0.7236146926879883,-3.3563735485076904,1.3182086944580078
1684252756681692200,6.681692138671875,-0.4914184808731079,-3.0634021759033203,1.21027672290802
1684252756691718100,6.69171826171875,-0.4264621138572693,-2.8726353645324707,0.9929351806640625
1684252756701744000,6.701744140625,-0.4694890081882477,-2.8448214530944824,0.6869608759880066
1684252756711770000,6.71177001953125,-0.5506325960159302,-2.939164876937866,0.27754274010658264
1684252756721795000,6.721795166015625,-0.6360138654708862,-3.0649375915527344,-0.14282578229904175
1684252756731821000,6.731821044921875,-0.6967946290969849,-3.1481728553771973,-0.3985885679721832
1684252756741847000,6.741846923828125,-0.7450786232948303,-3.1914119720458984,-0.35007715225219727
1684252756751873000,6.751873046875,-0.7905992269515991,-3.2595293521881104,-0.0214657224714756
1684252756761899000,6.76189892578125,-0.8765467405319214,-3.3233120441436768,0.4401613175868988
1684252756771925000,6.771925048828125,-1.0128757953643799,-3.246833324432373,0.867563009262085
1684252756781950000,6.781949951171875,-1.1274181604385376,-3.035221576690674,1.1686632633209229
1684252756791976000,6.791975830078125,-1.1432324647903442,-2.8256583213806152,1.291569471359253
1684252756802002000,6.802001953125,-1.0961076021194458,-2.7476003170013428,1.2867770195007324
1684252756812028200,6.812028076171875,-1.0201560258865356,-2.7868287563323975,1.2141227722167969
1684252756822054100,6.82205419921875,-0.9405651092529297,-2.924038887023926,1.1255805492401123
1684252756832080100,6.832080078125,-0.8726432919502258,-3.1221063137054443,1.0517923831939697
1684252756842106000,6.842106201171875,-0.8000047206878662,-3.270763397216797,1.011879563331604
1684252756852131000,6.852131103515625,-0.7220276594161987,-3.297528028488159,1.0100078582763672
1684252756862157000,6.862156982421875,-0.6536839604377747,-3.206263542175293,1.0530177354812622
1684252756872183000,6.87218310546875,-0.5904695987701416,-3.01792311668396,1.113026738166809
1684252756882209000,6.882208984375,-0.5507842302322388,-2.7747609615325928,1.1633399724960327
1684252756892235000,6.892235107421875,-0.5275697112083435,-2.545689344406128,1.185971975326538
1684252756902261000,6.902260986328125,-0.5090674757957458,-2.397360324859619,1.1931462287902832
1684252756912287000,6.912286865234375,-0.4787982106208801,-2.3426263332366943,1.2125132083892822
1684252756922312000,6.92231201171875,-0.4248916506767273,-2.3638200759887695,1.2100114822387695
1684252756932338000,6.932337890625,-0.35184991359710693,-2.4490416049957275,1.154524803161621
1684252756942364000,6.942364013671875,-0.2723708748817444,-2.5928800106048584,1.0534957647323608
1684252756952390000,6.952389892578125,-0.20972797274589539,-2.8226473331451416,0.9215918779373169
1684252756962416000,6.962416015625,-0.16487717628479004,-3.261852979660034,0.7946307063102722
1684252756972442000,6.972442138671875,-0.12669996917247772,-3.8260598182678223,0.6946306228637695
1684252756982467000,6.982467041015625,-0.1022467166185379,-4.323433876037598,0.6199430227279663
1684252756992493000,6.9924931640625,-0.030081981793045998,-4.436351299285889,0.506390392780304
1684252757002519000,7.00251904296875,0.090270034968853,-4.039669513702393,0.4084925353527069
1684252757012545000,7.012544921875,0.21147902309894562,-3.342791795730591,0.36166056990623474
1684252757022571000,7.022571044921875,0.30773022770881653,-2.5987672805786133,0.35105735063552856
1684252757032597000,7.032596923828125,0.3749752938747406,-2.006969928741455,0.3997018337249756
1684252757042623000,7.042623046875,0.42592230439186096,-1.6615639925003052,0.4736872911453247
1684252757052648200,7.052648193359375,0.5143080949783325,-1.494333267211914,0.5050702691078186
1684252757062674000,7.062673828125,0.5766575336456299,-1.4451284408569336,0.5235763788223267
1684252757072700000,7.072699951171875,0.5869005918502808,-1.4541845321655273,0.5668148994445801
1684252757082726000,7.082725830078125,0.5228352546691895,-1.481721043586731,0.6447164416313171
1684252757092752000,7.092751953125,0.405417263507843,-1.4565509557724,0.7733577489852905
1684252757102777900,7.10277783203125,0.2865760624408722,-1.2222115993499756,1.0865023136138916
1684252757112803000,7.112802978515625,0.17259439826011658,-0.6444640755653381,1.7053908109664917
1684252757122829000,7.1228291015625,0.026073027402162552,0.2117144614458084,2.516664743423462
1684252757132855300,7.132855224609375,-0.13983498513698578,1.13455331325531,3.184532642364502
1684252757142881300,7.14288134765625,-0.2621123790740967,1.9665433168411255,3.3777530193328857
1684252757152907000,7.152906982421875,-0.27742740511894226,2.5363190174102783,2.8841845989227295
1684252757162933000,7.16293310546875,-0.24958525598049164,2.6793904304504395,1.6761195659637451
1684252757172959000,7.172958984375,-0.223983496427536,2.3179173469543457,0.23316973447799683
1684252757182984200,7.182984130859375,-0.2293177992105484,1.5430001020431519,-0.8555471301078796
1684252757193010200,7.19301025390625,-0.2598908841609955,0.5978822708129883,-1.3574129343032837
1684252757203036200,7.2030361328125,-0.2794317603111267,-0.36157384514808655,-1.3182828426361084
1684252757213062100,7.213062255859375,-0.25435569882392883,-1.2611374855041504,-0.9155948162078857
1684252757223088000,7.223088134765625,-0.21547874808311462,-2.022113561630249,-0.399142324924469
1684252757233114000,7.233114013671875,-0.18012234568595886,-2.597839117050171,0.015778159722685814
1684252757243139000,7.24313916015625,-0.13475848734378815,-2.9912874698638916,0.2644959092140198
1684252757253165000,7.2531650390625,-0.11715951561927795,-3.2949702739715576,0.3434820771217346
1684252757263191000,7.26319091796875,-0.12723872065544128,-3.506042718887329,0.29599529504776
1684252757273217000,7.273217041015625,-0.12236513197422028,-3.574415922164917,0.1719284951686859
1684252757283243300,7.2832431640625,-0.08844777196645737,-3.4687345027923584,0.007877101190388203
1684252757293269200,7.293269287109375,-0.05031077563762665,-3.2110202312469482,-0.15487267076969147
1684252757303295200,7.303295166015625,-0.007338809315115213,-2.7761504650115967,-0.3056809902191162
1684252757313320200,7.3133203125,0.028109995648264885,-2.240537166595459,-0.43914318084716797
1684252757323346200,7.32334619140625,0.05324559658765793,-1.6643977165222168,-0.5446665287017822
1684252757333372200,7.3333720703125,0.08197497576475143,-1.077732801437378,-0.6201104521751404
1684252757343398100,7.343398193359375,0.12809637188911438,-0.5462659597396851,-0.6627181172370911
1684252757353424100,7.353424072265625,0.16319550573825836,-0.07022006809711456,-0.6358526945114136
1684252757363450000,7.3634501953125,0.14656895399093628,0.33730822801589966,-0.5482474565505981
1684252757373476000,7.37347607421875,0.10136286169290543,0.6925235986709595,-0.41662630438804626
1684252757383501000,7.3835009765625,0.05990750342607498,1.017323613166809,-0.2308058738708496
1684252757393527000,7.393527099609375,0.03547379747033119,1.2698363065719604,-0.018579106777906418
1684252757403553000,7.403552978515625,0.04043283313512802,1.4635133743286133,0.18385949730873108
1684252757413579000,7.4135791015625,0.06689772754907608,1.6171337366104126,0.3378290832042694
1684252757423605000,7.42360498046875,0.09631896018981934,1.7218419313430786,0.42153146862983704
1684252757433631200,7.43363134765625,0.10704004764556885,1.7915687561035156,0.4508475661277771
1684252757443656000,7.443656005859375,0.09820693731307983,1.8215850591659546,0.43267571926116943
1684252757453682200,7.45368212890625,0.06486869603395462,1.79777991771698,0.4039332866668701
1684252757463708200,7.463708251953125,0.01608090102672577,1.6913739442825317,0.3870798647403717
1684252757473734100,7.473734130859375,-0.04412171617150307,1.471839189529419,0.40790072083473206
1684252757483760000,7.483760009765625,-0.10619352757930756,1.1189048290252686,0.4906329810619354
1684252757493786000,7.4937861328125,-0.1532827466726303,0.5807625651359558,0.6539015173912048
1684252757503812000,7.50381201171875,-0.14678803086280823,-0.1241476908326149,0.920488178730011
1684252757513837800,7.513837890625,-0.041326578706502914,-0.8627620935440063,1.2192472219467163
1684252757523863800,7.52386376953125,0.14321061968803406,-1.4729361534118652,1.459334373474121
1684252757533889800,7.533889892578125,0.31473681330680847,-1.9221405982971191,1.574790596961975
1684252757543915800,7.543915771484375,0.434079110622406,-2.251471996307373,1.564752459526062
1684252757553941800,7.553941650390625,0.4859843850135803,-2.4726948738098145,1.4820029735565186
1684252757563967700,7.5639677734375,0.4698280096054077,-2.583709239959717,1.3832749128341675
1684252757573993700,7.57399365234375,0.4233816862106323,-2.596055030822754,1.307187557220459
1684252757584018700,7.584018798828125,0.35931041836738586,-2.494400978088379,1.246216058731079
1684252757594044700,7.594044677734375,0.3073335289955139,-2.2700960636138916,1.1829001903533936
1684252757604070700,7.604070556640625,0.2649797797203064,-1.9093753099441528,1.1034843921661377
1684252757614096600,7.6140966796875,0.22758419811725616,-1.4292875528335571,0.9834274649620056
1684252757624122600,7.62412255859375,0.17802482843399048,-0.8516097664833069,0.8417080044746399
1684252757634148900,7.63414892578125,0.11521898210048676,-0.2487463355064392,0.6779385209083557
1684252757644174800,7.6441748046875,0.06209879741072655,0.3383534848690033,0.5107184648513794
1684252757654199800,7.65419970703125,0.03487729653716087,0.840880811214447,0.35497143864631653
1684252757664225800,7.664225830078125,0.01099897176027298,1.2144302129745483,0.2547677755355835
1684252757674251800,7.674251708984375,-0.017086457461118698,1.412169337272644,0.21683049201965332
1684252757684277800,7.68427783203125,-0.054168470203876495,1.4011095762252808,0.24267086386680603
1684252757694303700,7.6943037109375,-0.07590518891811371,1.16766357421875,0.2691434621810913
1684252757704329700,7.704329833984375,-0.08399408310651779,0.753180742263794,0.2440304458141327
1684252757714354700,7.714354736328125,-0.09377747774124146,0.2372785061597824,0.1397695541381836
1684252757724380700,7.724380615234375,-0.10666488856077194,-0.3061198592185974,-0.029354633763432503
1684252757734406700,7.73440673828125,-0.1253751963376999,-0.8118491172790527,-0.22973912954330444
1684252757744432600,7.7444326171875,-0.15100635588169098,-1.2358896732330322,-0.4283600449562073
1684252757754458600,7.754458740234375,-0.19184646010398865,-1.5692018270492554,-0.5783873796463013
1684252757764484600,7.764484619140625,-0.24182406067848206,-1.806518793106079,-0.6510643362998962
1684252757774510600,7.774510498046875,-0.3039976954460144,-1.9458683729171753,-0.6327835917472839
1684252757784535600,7.78453564453125,-0.3699630796909332,-1.9655324220657349,-0.5187367796897888
1684252757794561500,7.7945615234375,-0.4085048735141754,-1.8411556482315063,-0.336068719625473
1684252757804587800,7.804587890625,-0.41956013441085815,-1.5801606178283691,-0.12459088116884232
1684252757814613800,7.81461376953125,-0.38896042108535767,-1.2235058546066284,0.06033743545413017
1684252757824639700,7.8246396484375,-0.31857413053512573,-0.8212782740592957,0.1774122267961502
1684252757834665700,7.834665771484375,-0.22611688077449799,-0.4166024327278137,0.21811304986476898
1684252757844691700,7.844691650390625,-0.15862970054149628,-0.06613033264875412,0.18909892439842224
1684252757854716700,7.854716552734375,-0.13588683307170868,0.19240693747997284,0.10806213319301605
1684252757864742700,7.86474267578125,-0.17297929525375366,0.3377145528793335,0.004784141667187214
1684252757874768600,7.8747685546875,-0.2499006986618042,0.38390496373176575,-0.09307771176099777
1684252757884794600,7.884794677734375,-0.3515860438346863,0.3670647442340851,-0.1954886019229889
1684252757894820600,7.894820556640625,-0.45576706528663635,0.2812262773513794,-0.3333412706851959
1684252757904846600,7.9048466796875,-0.5248149037361145,0.13484536111354828,-0.5454972982406616
1684252757914872600,7.91487255859375,-0.5304847955703735,-0.03840338811278343,-0.8298608660697937
1684252757924897800,7.924897705078125,-0.4485948979854584,-0.17114944756031036,-1.407641887664795
1684252757934923800,7.934923828125,-0.08843643963336945,-0.16682127118110657,-3.5055489540100098
1684252757944949500,7.944949462890625,0.29281798005104065,-0.10768777132034302,-5.676976680755615
1684252757954975700,7.954975830078125,0.3445536196231842,-0.4036102294921875,-6.517019748687744
1684252757965001700,7.965001708984375,0.30758392810821533,-0.6288991570472717,-6.353365898132324
1684252757975027700,7.97502783203125,0.29883918166160583,-0.4747854471206665,-5.70424222946167
1684252757985053000,7.985052978515625,0.37460410594940186,-0.4370242953300476,-4.923720836639404
1684252757995079000,7.995078857421875,0.7355063557624817,-0.38893425464630127,-3.9043660163879395
1684252758005105000,8.00510498046875,1.2430520057678223,-0.3919687271118164,-2.85942006111145
1684252758015131000,8.015130859375,1.7049357891082764,-0.37006476521492004,-1.9915289878845215
1684252758025156900,8.025156982421874,1.9589569568634033,-0.10999233275651932,-1.2250274419784546
1684252758035182600,8.0351826171875,2.000779151916504,0.7359533309936523,-0.6057789921760559
1684252758045208600,8.04520849609375,1.9481827020645142,1.9030182361602783,-0.04460068792104721
1684252758055233800,8.05523388671875,2.2241315841674805,2.0335493087768555,0.33472052216529846
1684252758065259800,8.065259765625,3.1982433795928955,0.039250798523426056,-0.060830965638160706
1684252758075285800,8.07528564453125,4.4548187255859375,-2.175856828689575,-0.6302893757820129
1684252758085311700,8.085311767578125,5.798730850219727,-3.4016332626342773,-1.0703445672988892
1684252758095337700,8.095337646484374,6.694203853607178,-3.20711088180542,-1.548567533493042
1684252758105364000,8.105364013671876,6.684810161590576,-1.6400151252746582,-2.2226293087005615
1684252758115389700,8.1153896484375,5.738727569580078,0.6199609041213989,-2.8863096237182617
1684252758125415000,8.125414794921875,4.24735164642334,2.9014506340026855,-3.00555419921875
1684252758135441000,8.13544091796875,2.6242871284484863,4.520062446594238,-1.980149745941162
1684252758145467000,8.145466796875,1.3931610584259033,5.880621910095215,-0.41388270258903503
1684252758155492900,8.155492919921874,0.5449815392494202,6.373790264129639,0.4025532603263855
1684252758165518800,8.165518798828124,-0.061636753380298615,5.574734210968018,0.4253685772418976
1684252758175544800,8.175544921875,-0.5130739808082581,3.8871166706085205,0.005712713580578566
1684252758185570800,8.18557080078125,-0.8818985223770142,2.0703601837158203,-0.5155196785926819
1684252758195595800,8.195595703125,-1.2441151142120361,0.619167685508728,-1.0101323127746582
1684252758205621800,8.205621826171875,-1.4220526218414307,-0.10197125375270844,-1.4675112962722778
1684252758215647700,8.215647705078124,-1.3200372457504272,0.17422810196876526,-1.7132978439331055
1684252758225673700,8.225673828125,-0.99236661195755,1.607206106185913,-1.4559370279312134
1684252758235699700,8.23569970703125,-0.503115713596344,3.1062583923339844,-0.8990280628204346
1684252758245725700,8.2457255859375,-0.021785857155919075,3.460334539413452,-0.5591406226158142
1684252758255752000,8.255751953125,0.46654680371284485,2.969133138656616,-0.3744618594646454
1684252758265776600,8.265776611328125,0.9356170892715454,2.0874104499816895,-0.09503089636564255
1684252758275803000,8.275802978515625,1.1953701972961426,1.0904525518417358,0.35769450664520264
1684252758285828900,8.285828857421874,1.1964975595474243,0.22648295760154724,0.9384050369262695
1684252758295854800,8.295854736328126,1.0168462991714478,-0.33671462535858154,1.5045565366744995
1684252758305880800,8.305880859375,0.7419684529304504,-0.6060909032821655,1.9987695217132568
1684252758315906800,8.31590673828125,0.429724782705307,-0.7328392267227173,2.4474856853485107
1684252758325932800,8.325932861328125,0.07104509323835373,-0.8432257771492004,2.851602792739868
1684252758335957800,8.335957763671875,-0.3158578872680664,-0.9668180346488953,3.2201149463653564
1684252758345983700,8.345983642578124,-0.7251246571540833,-1.1906496286392212,3.536787509918213
1684252758356009700,8.356009765625,-1.1682634353637695,-1.5438870191574097,3.7928707599639893
1684252758366035700,8.36603564453125,-1.5978096723556519,-1.9574642181396484,3.977404832839966
1684252758376061700,8.376061767578125,-1.9862815141677856,-2.3129730224609375,4.102871417999268
1684252758386087700,8.386087646484375,-2.3398542404174805,-2.4989795684814453,4.169754505157471
1684252758396113700,8.39611376953125,-2.602111339569092,-2.24544358253479,4.187125205993652
1684252758406138600,8.406138671875,-2.6580848693847656,-1.1820673942565918,4.129676342010498
1684252758416164600,8.41616455078125,-1.7520419359207153,-1.299084186553955,0.5640576481819153
1684252758426190800,8.42619091796875,0.23299358785152435,-2.0334415435791016,0.8981742858886719
1684252758436216800,8.436216796875,1.5086742639541626,-3.928128242492676,2.5944430828094482
1684252758446242800,8.446242919921875,0.27290940284729004,-3.3927738666534424,4.14086389541626
1684252758456268800,8.456268798828125,-1.1584075689315796,-2.5459206104278564,3.40822172164917
1684252758466294800,8.466294677734375,-1.9483822584152222,-4.627181529998779,-2.1746368408203125
1684252758476319700,8.47631982421875,-1.671560287475586,-3.2743377685546875,-4.66182279586792
1684252758486345700,8.486345703125,-1.3608464002609253,-0.5317414999008179,-4.49298620223999
1684252758496371700,8.496371826171876,-1.3079906702041626,2.199016571044922,-3.200984001159668
1684252758506397700,8.506397705078125,-1.304287314414978,4.198586940765381,-1.0220366716384888
1684252758516422700,8.516422607421875,-1.3181942701339722,4.052943229675293,0.29707789421081543
1684252758526449000,8.526448974609375,-1.3226442337036133,2.405505418777466,0.7820906043052673
1684252758536475000,8.536474853515625,-1.1035592555999756,0.25990766286849976,0.8803886771202087
1684252758546499800,8.546499755859376,-0.746173083782196,-1.1758581399917603,0.8009606003761292
1684252758556525800,8.55652587890625,-0.3574844300746918,-1.7077414989471436,0.766074001789093
1684252758566551800,8.5665517578125,-0.0581619031727314,-1.817617416381836,0.9672638177871704
1684252758576577800,8.576577880859375,0.0032878743950277567,-1.631655216217041,1.3930412530899048
1684252758586603800,8.586603759765625,-0.10495243966579437,-1.0573195219039917,1.7867145538330078
1684252758596629800,8.596629638671875,-0.1829412430524826,-0.4147105813026428,1.9562345743179321
1684252758606655700,8.60665576171875,-0.1643909364938736,0.01199948601424694,1.8990726470947266
1684252758616681000,8.616680908203126,-0.10737131536006927,0.06661106646060944,1.7425616979599
1684252758626707000,8.62670703125,-0.09413091093301773,-0.12834225594997406,1.4940268993377686
1684252758636733000,8.63673291015625,-0.1410193145275116,-0.46207869052886963,1.1913002729415894
1684252758646759000,8.646759033203125,-0.2290688157081604,-0.946353554725647,0.9241411089897156
1684252758656785000,8.656784912109375,-0.34691131114959717,-1.510240912437439,0.7675637602806091
1684252758666810600,8.666810546875,-0.4803258180618286,-1.9838746786117554,0.7738790512084961
1684252758676836900,8.6768369140625,-0.603209376335144,-2.126258373260498,0.9306327104568481
1684252758686861800,8.68686181640625,-0.6188066601753235,-1.7640645503997803,1.1588584184646606
1684252758696888000,8.69688818359375,-0.48785483837127686,-1.0141831636428833,1.3712515830993652
1684252758706914000,8.7069140625,-0.27649521827697754,-0.14344018697738647,1.4643194675445557
1684252758716940000,8.71693994140625,-0.06120368465781212,0.5703194737434387,1.4103585481643677
1684252758726966000,8.726966064453125,0.09769287705421448,1.0170172452926636,1.24375319480896
1684252758736992000,8.736991943359374,0.17118839919567108,1.2036023139953613,1.0368072986602783
1684252758747018000,8.74701806640625,0.144077867269516,1.178137183189392,0.8431411981582642
1684252758757043000,8.75704296875,0.04385034367442131,1.0149352550506592,0.7216773629188538
1684252758767069000,8.76706884765625,-0.10778967291116714,0.8391713500022888,0.6327625513076782
1684252758777095000,8.777094970703125,-0.2682155668735504,0.6892555952072144,0.5545098185539246
1684252758787121000,8.787120849609375,-0.4041343927383423,0.5554683804512024,0.4791693091392517
1684252758797147000,8.79714697265625,-0.4725494086742401,0.4628276824951172,0.39789947867393494
1684252758807172900,8.8071728515625,-0.44735270738601685,0.40496891736984253,0.290622740983963
1684252758817198800,8.81719873046875,-0.353015273809433,0.38007503747940063,0.18492774665355682
1684252758827223800,8.827223876953125,-0.21697264909744263,0.37704914808273315,0.10861467570066452
1684252758837249800,8.837249755859375,-0.07673964649438858,0.3697164058685303,0.1036452129483223
1684252758847276000,8.847276123046875,0.05612461268901825,0.33075305819511414,0.1667359471321106
1684252758857302000,8.857302001953125,0.1646881103515625,0.21282027661800385,0.3045702278614044
1684252758867328000,8.867327880859374,0.2262013554573059,0.021832948550581932,0.4946083724498749
1684252758877354000,8.87735400390625,0.2560791075229645,-0.21072040498256683,0.6904982328414917
1684252758887380000,8.8873798828125,0.258716344833374,-0.47020143270492554,0.8781099319458008
1684252758897405000,8.897405029296875,0.23288872838020325,-0.7622074484825134,1.0156073570251465
1684252758907431000,8.907430908203125,0.21446357667446136,-1.0541478395462036,1.0810061693191528
1684252758917457000,8.917456787109375,0.21655122935771942,-1.2905230522155762,1.0451897382736206
1684252758927483000,8.92748291015625,0.23708921670913696,-1.440486192703247,0.9042295217514038
1684252758937508900,8.9375087890625,0.26961174607276917,-1.5149359703063965,0.7186327576637268
1684252758947534800,8.947534912109376,0.30131202936172485,-1.547958493232727,0.5550599098205566
1684252758957559800,8.957559814453125,0.31887316703796387,-1.567015290260315,0.447175532579422
1684252758967585800,8.967585693359375,0.31567367911338806,-1.5622243881225586,0.3805658221244812
1684252758977611800,8.97761181640625,0.2534864842891693,-1.5326308012008667,0.315277636051178
1684252758987637800,8.9876376953125,0.14696401357650757,-1.492347002029419,0.23777084052562714
1684252758997664000,8.9976640625,0.05236585810780525,-1.4257277250289917,0.16251762211322784
1684252759007690000,9.00768994140625,0.01451626792550087,-1.310404896736145,0.11170743405818939
1684252759017716000,9.017716064453126,0.030689379200339317,-1.1293858289718628,0.11862313002347946
1684252759027742000,9.027741943359375,0.0846162661910057,-0.8998059034347534,0.19047565758228302
1684252759037767000,9.037766845703125,0.12691152095794678,-0.662919282913208,0.30463844537734985
1684252759047793000,9.04779296875,0.11366850882768631,-0.446393221616745,0.38421833515167236
1684252759057819000,9.05781884765625,0.039206258952617645,-0.24985060095787048,0.3853919804096222
1684252759067844900,9.067844970703124,-0.07055077701807022,-0.08702743053436279,0.33383944630622864
1684252759077870800,9.077870849609376,-0.16284607350826263,0.05370652303099632,0.26783859729766846
1684252759087896800,9.087896728515625,-0.20751051604747772,0.17772448062896729,0.24157090485095978
1684252759097922800,9.0979228515625,-0.20155303180217743,0.26825037598609924,0.25396019220352173
1684252759107947800,9.10794775390625,-0.14588534832000732,0.31200575828552246,0.32685714960098267
1684252759117973800,9.117973876953124,-0.04996175318956375,0.28536108136177063,0.45261669158935547
1684252759127999700,9.127999755859374,0.05669105425477028,0.1629175990819931,0.6227154731750488
1684252759138025700,9.138025634765626,0.14333006739616394,-0.05373401567339897,0.7880727648735046
1684252759148052000,9.148052001953126,0.2058846652507782,-0.3685556650161743,0.9083808660507202
1684252759158078000,9.158077880859375,0.23422843217849731,-0.734166145324707,0.9665674567222595
1684252759168104000,9.16810400390625,0.22619566321372986,-1.1294704675674438,0.9570144414901733
1684252759178129000,9.17812890625,0.19336262345314026,-1.5170611143112183,0.9022771120071411
1684252759188155000,9.18815478515625,0.1379440277814865,-1.8604731559753418,0.8078052997589111
1684252759198180900,9.198180908203126,0.081691674888134,-2.109567403793335,0.678547739982605
1684252759208206800,9.208206787109376,0.052255306392908096,-2.2291746139526367,0.4799761474132538
1684252759218232800,9.21823291015625,0.04356594383716583,-2.2361536026000977,0.18349336087703705
1684252759228258800,9.2282587890625,0.09691841900348663,-2.1713736057281494,-0.20238471031188965
1684252759238284800,9.238284912109375,0.1959936022758484,-2.037374973297119,-0.6534653306007385
1684252759248309800,9.248309814453124,0.2575603127479553,-1.8380358219146729,-1.1619951725006104
1684252759258335700,9.258335693359374,0.25560927391052246,-1.5272043943405151,-1.7405823469161987
1684252759268361700,9.26836181640625,0.15898346900939941,-1.1241765022277832,-2.3551175594329834
1684252759278387700,9.2783876953125,-0.0779811292886734,-0.6675154566764832,-2.9150185585021973
1684252759288413700,9.28841357421875,-0.3904532790184021,-0.2378123700618744,-3.2299911975860596
1684252759298439700,9.298439697265625,-0.5749203562736511,0.13723234832286835,-3.21823787689209
1684252759308466000,9.3084658203125,-0.5539533495903015,0.36066460609436035,-2.993123769760132
1684252759318490600,9.31849072265625,-0.44211068749427795,0.39527612924575806,-2.4987916946411133
1684252759328516900,9.328516845703126,-0.33411428332328796,-0.030178245157003403,-1.6267428398132324
1684252759338542800,9.33854296875,-0.1678217202425003,-0.9258309602737427,-1.0711544752120972
1684252759348568800,9.34856884765625,0.22950710356235504,-1.7724577188491821,-1.3009703159332275
1684252759358594800,9.3585947265625,0.7322352528572083,-2.002453327178955,-1.9740813970565796
1684252759368620800,9.368620849609375,1.2053682804107666,-1.5083163976669312,-2.672419548034668
1684252759378646800,9.378646728515625,1.5408778190612793,-0.5672699809074402,-3.189143419265747
1684252759388672000,9.388672119140624,1.7213853597640991,0.4852384328842163,-3.4805901050567627
1684252759398697700,9.39869775390625,1.809114933013916,1.3396159410476685,-3.5771446228027344
1684252759408723700,9.4087236328125,1.8484591245651245,1.7856544256210327,-3.446575403213501
1684252759418749700,9.418749755859375,1.871680498123169,1.1444249153137207,-3.0806233882904053
1684252759428775700,9.428775634765625,2.020240545272827,-0.4355664849281311,-2.370142698287964
1684252759438801700,9.4388017578125,2.0211081504821777,-2.0313527584075928,-1.630608081817627
1684252759448827600,9.44882763671875,1.8230022192001343,-3.023238182067871,-1.0822774171829224
1684252759458852900,9.458852783203126,1.6558856964111328,-3.1944775581359863,-0.7144978642463684
1684252759468878800,9.46887890625,1.6425280570983887,-2.7005953788757324,-0.4753495156764984
1684252759478905000,9.478905029296875,1.7516467571258545,-1.9587234258651733,-0.3957255184650421
1684252759488930800,9.488930908203125,1.95376718044281,-1.1026514768600464,-0.4112737774848938
1684252759498956800,9.498956787109375,2.1328909397125244,-0.3084961175918579,-0.46425071358680725
1684252759508982800,9.508982666015624,2.1944797039031982,0.309118390083313,-0.5245621204376221
1684252759519009300,9.51900927734375,2.1783530712127686,0.8487182259559631,-0.4931301474571228
1684252759529034500,9.529034423828126,2.1112215518951416,1.3138691186904907,-0.32174694538116455
1684252759539060500,9.539060546875,2.0185654163360596,1.6560187339782715,-0.05668891966342926
1684252759549086200,9.549086181640625,1.9215655326843262,1.843286156654358,0.20652636885643005
1684252759559112400,9.559112548828125,1.8419692516326904,1.909494161605835,0.3378354012966156
1684252759569138400,9.569138427734375,1.7800617218017578,1.9252320528030396,0.29583150148391724
1684252759579164400,9.579164306640624,1.7367885112762451,1.9468960762023926,0.14373652637004852
1684252759589190400,9.5891904296875,1.7204986810684204,1.9522790908813477,-0.09019944071769714
1684252759599216400,9.59921630859375,1.6799997091293335,2.0123817920684814,-0.3458530604839325
1684252759609241600,9.60924169921875,1.5534889698028564,2.1113462448120117,-0.5639949440956116
1684252759619267600,9.619267578125,1.3745479583740234,2.1478772163391113,-0.6936088800430298
1684252759629293600,9.62929345703125,1.1958061456680298,2.03609561920166,-0.7662444710731506
1684252759639319300,9.6393193359375,1.0339146852493286,1.7524902820587158,-0.8024703860282898
1684252759649345300,9.64934521484375,0.9071943163871765,1.5000022649765015,-0.7736103534698486
1684252759659371300,9.659371337890626,0.8220078349113464,1.4506407976150513,-0.6406270265579224
1684252759669397200,9.669397216796876,0.7302470207214355,1.5742874145507812,-0.46844565868377686
1684252759679422500,9.67942236328125,0.619213342666626,1.804268717765808,-0.38456887006759644
1684252759689448400,9.689448486328125,0.46940335631370544,1.9995946884155273,-0.47626635432243347
1684252759699474400,9.699474365234375,0.3053968548774719,2.0161077976226807,-0.6626319289207458
1684252759709500700,9.709500732421875,0.16479630768299103,1.8280231952667236,-0.7976478338241577
1684252759719526700,9.719526611328124,0.08189503848552704,1.5228049755096436,-0.7800091505050659
1684252759729552400,9.729552490234376,0.039946671575307846,1.1237481832504272,-0.6405140161514282
1684252759739578400,9.739578369140625,0.0043769581243395805,0.6413490772247314,-0.4582475423812866
1684252759749603600,9.749603515625,-0.05946674942970276,0.2861110270023346,-0.24612627923488617
1684252759759629600,9.759629638671875,-0.1269368678331375,0.1248539462685585,-0.010843727737665176
1684252759769655600,9.769655517578125,-0.18979240953922272,0.11642839759588242,0.2356237918138504
1684252759779681500,9.779681640625,-0.21477018296718597,0.17320112884044647,0.5179188847541809
1684252759789707500,9.78970751953125,-0.2247178852558136,0.17238745093345642,0.8410161733627319
1684252759799733500,9.7997333984375,-0.3358713388442993,-0.02944047562777996,1.1843570470809937
1684252759809759500,9.809759521484375,-0.4719480872154236,-0.34779688715934753,1.5325168371200562
1684252759819784400,9.819784423828125,-0.6338171362876892,-0.5809202194213867,1.8540791273117065
1684252759829810400,9.829810546875,-0.9645515084266663,-0.6208576560020447,2.0992064476013184
1684252759839836400,9.83983642578125,-1.4654052257537842,-0.5133469104766846,2.2739639282226562
1684252759849862400,9.8498623046875,-2.0281121730804443,-0.33356449007987976,2.440267324447632
1684252759859888600,9.859888671875,-2.5441997051239014,-0.1711697280406952,2.6264302730560303
1684252759869914600,9.86991455078125,-2.900186777114868,-0.12307679653167725,2.800569534301758
1684252759879940600,9.879940673828125,-3.017665386199951,-0.45909634232521057,2.758136034011841
1684252759889966600,9.889966552734375,-2.7823729515075684,-1.9690693616867065,2.0482184886932373
1684252759899991600,9.899991455078125,-2.0871546268463135,-3.942574977874756,1.3275567293167114
1684252759910017500,9.910017578125,-1.549087643623352,-4.011539936065674,1.913343906402588
1684252759920043500,9.92004345703125,-1.5566539764404297,-2.3724489212036133,3.38199782371521
1684252759930069500,9.930069580078126,-1.9069838523864746,-1.4149435758590698,4.855254173278809
1684252759940095500,9.940095458984375,-1.5961614847183228,-4.19158935546875,5.204739570617676
1684252759950121500,9.95012158203125,-0.6566959619522095,-5.559493541717529,4.194309711456299
1684252759960147500,9.9601474609375,-0.012370020151138306,-4.00692081451416,2.5779600143432617
1684252759970172400,9.97017236328125,0.5891743898391724,-6.486955642700195,2.0293800830841064
1684252759980198400,9.980198486328124,0.5753589868545532,-7.910704135894775,2.5728824138641357
1684252759990224400,9.990224365234376,0.19937358796596527,-3.497215747833252,3.402247428894043
1684252760000250400,10.00025048828125,-0.10690563917160034,0.32688426971435547,2.800279140472412
1684252760010276600,10.010276611328125,-0.2678869068622589,-1.2241957187652588,-0.659474790096283
1684252760020302600,10.020302490234375,-0.4458443820476532,2.2256929874420166,-2.240663766860962
1684252760030328600,10.03032861328125,-0.5999670028686523,4.311898231506348,-3.136291027069092
1684252760040353500,10.040353515625,-0.7925574779510498,5.032588481903076,-3.7841989994049072
1684252760050379500,10.050379638671876,-1.190492033958435,4.892064094543457,-3.989915370941162
1684252760060405500,10.060405517578126,-1.5988110303878784,4.090060710906982,-3.378722906112671
1684252760070431500,10.070431396484375,-1.6244597434997559,3.181997776031494,-2.1891252994537354
1684252760080457500,10.08045751953125,-1.2839945554733276,2.8473191261291504,-1.1476908922195435
1684252760090483500,10.0904833984375,-0.9288855791091919,2.8259212970733643,-0.406846821308136
1684252760100509400,10.100509521484375,-0.7298478484153748,2.7523162364959717,0.1329522430896759
1684252760110535400,10.110535400390624,-0.7043735384941101,2.484452724456787,0.5349727272987366
1684252760120560400,10.120560302734376,-0.8148127198219299,1.7962466478347778,0.921161949634552
1684252760130586400,10.13058642578125,-0.995394229888916,0.35148438811302185,1.3739019632339478
1684252760140612400,10.1406123046875,-1.1331987380981445,-0.8823200464248657,1.6696820259094238
1684252760150638300,10.150638427734375,-1.1609090566635132,-1.2969609498977661,1.6887805461883545
1684252760160664600,10.16066455078125,-1.1039981842041016,-1.3897968530654907,1.5633161067962646
1684252760170690600,10.170690673828124,-1.0206618309020996,-1.7209384441375732,1.437612533569336
1684252760180716500,10.180716552734374,-0.9444612860679626,-2.426612138748169,1.4130637645721436
1684252760190741500,10.190741455078125,-0.8317596316337585,-3.087352752685547,1.4965286254882812
1684252760200767500,10.200767578125,-0.6195312738418579,-3.1440024375915527,1.647100806236267
1684252760210793500,10.21079345703125,-0.36826804280281067,-2.5469658374786377,1.8157269954681396
1684252760220819500,10.2208193359375,-0.11580037325620651,-1.5044050216674805,1.8720474243164062
1684252760230845400,10.230845458984374,0.11431431770324707,-0.48862913250923157,1.6856443881988525
1684252760240871400,10.240871337890624,0.26683753728866577,0.17148271203041077,1.2309106588363647
1684252760250897400,10.2508974609375,0.2839072644710541,0.5285208821296692,0.5757399797439575
1684252760260922400,10.26092236328125,0.18720948696136475,0.8356595635414124,-0.12814946472644806
1684252760270948400,10.2709482421875,0.04515784978866577,1.2246991395950317,-0.7178404927253723
1684252760280974300,10.280974365234375,-0.09214913845062256,1.6088910102844238,-1.0820258855819702
1684252760291000300,10.291000244140625,-0.2001277655363083,1.9278075695037842,-1.2136285305023193
1684252760301026300,10.3010263671875,-0.2861068844795227,2.19313907623291,-1.209238886833191
1684252760311052500,10.311052490234376,-0.34849095344543457,2.404494524002075,-1.138948917388916
1684252760321078500,10.32107861328125,-0.3808984160423279,2.5496864318847656,-1.0178706645965576
1684252760331104500,10.3311044921875,-0.3870658874511719,2.6234734058380127,-0.8801229000091553
1684252760341129500,10.34112939453125,-0.3681910037994385,2.64180850982666,-0.7437378764152527
1684252760351155500,10.351155517578125,-0.32242757081985474,2.6339950561523438,-0.6023883819580078
1684252760361181400,10.361181396484374,-0.2689156234264374,2.5809552669525146,-0.4459835886955261
1684252760371207400,10.37120751953125,-0.19083599746227264,2.4772589206695557,-0.2589859962463379
1684252760381233400,10.3812333984375,-0.11109217256307602,2.2830231189727783,-0.04950013756752014
1684252760391259400,10.39125927734375,-0.027992362156510353,2.031080722808838,0.13700225949287415
1684252760401285400,10.401285400390625,0.04225170612335205,1.7476080656051636,0.2878498435020447
1684252760411310300,10.411310302734375,0.08845343440771103,1.4288519620895386,0.38167059421539307
1684252760421336300,10.42133642578125,0.13515114784240723,1.087962031364441,0.4108700454235077
1684252760431362300,10.4313623046875,0.1837524175643921,0.721458375453949,0.3848252296447754
1684252760441388300,10.44138818359375,0.2186584770679474,0.34216538071632385,0.3422141373157501
1684252760451414300,10.451414306640626,0.27485379576683044,-0.08261169493198395,0.3041866719722748
1684252760461440300,10.461440185546875,0.34734824299812317,-0.5347645282745361,0.29553699493408203
1684252760471466500,10.471466552734375,0.42644527554512024,-1.0350391864776611,0.31016045808792114
1684252760481491200,10.4814912109375,0.4890860319137573,-1.4714874029159546,0.34529370069503784
1684252760491517400,10.491517333984374,0.5382269620895386,-1.7729753255844116,0.38217324018478394
1684252760501543400,10.50154345703125,0.5514495372772217,-1.9897058010101318,0.4388873875141144
1684252760511569400,10.5115693359375,0.5448523163795471,-2.1478378772735596,0.5431181788444519
1684252760521595000,10.521594970703125,0.5300382375717163,-2.2463231086730957,0.7159805297851562
1684252760531620900,10.531620849609375,0.5032155513763428,-2.2618377208709717,0.9627389311790466
1684252760541646800,10.541646728515625,0.46225589513778687,-2.1842875480651855,1.250984787940979
1684252760551673000,10.551673095703125,0.4010184705257416,-2.0280582904815674,1.5054576396942139
1684252760561698000,10.561697998046874,0.31555497646331787,-1.8419440984725952,1.691257119178772
1684252760571724300,10.571724365234376,0.22312504053115845,-1.6364288330078125,1.7958797216415405
1684252760581750300,10.581750244140625,0.14134496450424194,-1.3758020401000977,1.8549838066101074
1684252760591776300,10.5917763671875,0.09635160863399506,-0.9992373585700989,1.9122589826583862
1684252760601802000,10.601802001953125,0.08504649251699448,-0.3612124025821686,2.046340227127075
1684252760611828000,10.611827880859375,0.04881466552615166,0.5991628766059875,2.2412655353546143
1684252760621854000,10.62185400390625,-0.04345454275608063,1.753446102142334,2.3723506927490234
1684252760631879200,10.631879150390626,-0.17199595272541046,2.9168832302093506,2.409528970718384
1684252760641905200,10.6419052734375,-0.3118737041950226,3.8461508750915527,2.328213691711426
1684252760651931100,10.65193115234375,-0.4660841226577759,4.431541442871094,2.163271903991699
1684252760661957000,10.66195703125,-0.6398679614067078,4.671115398406982,1.9743976593017578
1684252760671983000,10.671983154296875,-0.7898144721984863,4.527575492858887,1.8137876987457275
1684252760682009000,10.682009033203125,-0.889510989189148,3.939068555831909,1.6612244844436646
1684252760692035000,10.69203515625,-0.8937321305274963,2.7703440189361572,1.4557994604110718
1684252760702061000,10.70206103515625,-0.8087785840034485,1.0243237018585205,1.1596037149429321
1684252760712086000,10.7120859375,-0.70018470287323,-0.9278572201728821,0.8020311594009399
1684252760722112300,10.7221123046875,-0.5912246704101562,-2.646181344985962,0.39082738757133484
1684252760732138200,10.73213818359375,-0.4909590184688568,-3.8660805225372314,-0.05659140646457672
1684252760742164200,10.742164306640625,-0.36850476264953613,-4.545537948608398,-0.4759013056755066
1684252760752190200,10.752190185546874,-0.24177441000938416,-4.768376350402832,-0.8603371977806091
1684252760762216200,10.76221630859375,-0.11534032225608826,-4.695740222930908,-1.2618584632873535
1684252760772242200,10.7722421875,0.10567338019609451,-4.303439140319824,-1.7422741651535034
1684252760782267100,10.78226708984375,0.38444456458091736,-3.5873208045959473,-2.3811514377593994
1684252760792293000,10.792293212890625,0.6481655836105347,-2.6569669246673584,-3.0728390216827393
1684252760802319000,10.802319091796875,0.8834670782089233,-1.5252565145492554,-3.699464797973633
1684252760812345000,10.812344970703125,1.0050216913223267,-0.17149591445922852,-4.0355987548828125
1684252760822371000,10.82237109375,0.8354710936546326,0.8258957266807556,-3.7475664615631104
1684252760832397000,10.83239697265625,0.3480130732059479,0.9744510650634766,-2.6599485874176025
1684252760842423000,10.842423095703126,-0.2828349173069,0.0741841271519661,-1.1414209604263306
1684252760852449300,10.85244921875,-0.621375560760498,-0.7943958044052124,0.08724984526634216
1684252760862474000,10.862473876953125,-0.617785632610321,-1.0942633152008057,0.7094367146492004
1684252760872500200,10.872500244140625,-0.39460301399230957,-1.09115469455719,0.8847385048866272
1684252760882526200,10.882526123046874,-0.12370655685663223,-0.9657730460166931,0.8449714183807373
1684252760892552200,10.89255224609375,0.09767501801252365,-0.8318235874176025,0.7782221436500549
1684252760902578200,10.902578125,0.2865333557128906,-0.7430263161659241,0.7101749181747437
1684252760912604200,10.912604248046875,0.44760116934776306,-0.724760115146637,0.6477575302124023
1684252760922630100,10.922630126953125,0.571455717086792,-0.682845950126648,0.5861982703208923
1684252760932655000,10.932655029296875,0.6877909302711487,-0.6421591639518738,0.5048283934593201
1684252760942681000,10.94268115234375,0.7930228114128113,-0.6100752949714661,0.4320412576198578
1684252760952707000,10.95270703125,0.9009217023849487,-0.4205957055091858,0.3087092936038971
1684252760962733000,10.962733154296876,1.0201064348220825,0.08994665741920471,0.03631852567195892
1684252760972759000,10.972759033203126,1.141080379486084,0.8146610856056213,-0.36670976877212524
1684252760982785000,10.982784912109375,1.1854753494262695,1.671988606452942,-0.9213436841964722
1684252760992811000,10.99281103515625,1.0349622964859009,2.6127684116363525,-1.6947553157806396
1684252761002837200,11.002837158203125,0.5950402617454529,3.505889415740967,-2.594571352005005
1684252761012862000,11.012862060546874,-0.07989758253097534,4.239299297332764,-3.39924693107605
1684252761022888200,11.02288818359375,-0.8669423460960388,4.880620002746582,-4.0201215744018555
1684252761032914200,11.0329140625,-1.640001893043518,6.223714828491211,-4.5728325843811035
1684252761042940200,11.042940185546875,-2.172969341278076,6.863504886627197,-4.281833171844482
1684252761052966100,11.052966064453125,-2.046032667160034,5.740609645843506,-3.424246072769165
1684252761062992100,11.0629921875,-1.2407010793685913,3.1443772315979004,-2.7751412391662598
1684252761073018000,11.07301806640625,-0.1852962225675583,0.6239861249923706,-2.4220635890960693
1684252761083043000,11.08304296875,0.8082298040390015,-0.5948953032493591,-2.0223164558410645
1684252761093069000,11.093069091796876,1.5270850658416748,-0.6160865426063538,-1.4789841175079346
1684252761103095000,11.103094970703125,1.8546016216278076,-0.23398736119270325,-1.0298407077789307
1684252761113121000,11.11312109375,1.9001585245132446,0.13732586801052094,-0.8520535230636597
1684252761123147000,11.12314697265625,1.919023871421814,-0.12807729840278625,-1.088060975074768
1684252761133173000,11.133173095703125,2.076314926147461,-1.088707447052002,-1.5394374132156372
1684252761143199000,11.143198974609374,2.3361880779266357,-2.2364585399627686,-1.915805459022522
1684252761153225200,11.15322509765625,2.59091854095459,-3.2793123722076416,-2.23303484916687
1684252761163250000,11.16325,2.8336782455444336,-4.127719879150391,-2.5156774520874023
1684252761173276200,11.173276123046875,3.0375285148620605,-4.674056053161621,-2.847666025161743
1684252761183302100,11.18330224609375,3.1761505603790283,-4.708707332611084,-3.1651666164398193
1684252761193328000,11.193328125,3.204345226287842,-4.1279296875,-3.358992099761963
1684252761203354000,11.20335400390625,3.2358109951019287,-2.889136552810669,-3.2879931926727295
1684252761213380000,11.213380126953124,3.21117901802063,-1.0840133428573608,-2.6216320991516113
1684252761223406000,11.223406005859376,3.1482441425323486,1.1843053102493286,-1.4795033931732178
1684252761233431000,11.23343115234375,3.0528507232666016,3.1264901161193848,-0.6650893092155457
1684252761243457000,11.24345703125,2.880659341812134,4.181172847747803,-0.4145718812942505
1684252761253483000,11.25348291015625,2.616987943649292,4.242110252380371,-0.5594109892845154
1684252761263509000,11.263509033203125,2.2580082416534424,3.653292417526245,-0.7748522162437439
1684252761273535000,11.273534912109374,1.885865330696106,2.8938870429992676,-0.8274051547050476
1684252761283561000,11.28356103515625,1.571024775505066,2.212031841278076,-0.7875900864601135
1684252761293587000,11.2935869140625,1.3165042400360107,1.8204785585403442,-0.7535997629165649
1684252761303613200,11.30361328125,1.1369105577468872,1.7450796365737915,-0.7139772176742554
1684252761313638000,11.313637939453125,1.0331034660339355,1.783491611480713,-0.6895544528961182
1684252761323664000,11.323663818359375,0.9897474646568298,1.7602485418319702,-0.6097258925437927
1684252761333690000,11.333690185546875,1.004017949104309,1.6627341508865356,-0.3902947008609772
1684252761343716000,11.343716064453124,0.9817059636116028,1.6263608932495117,-0.04696105793118477
1684252761353742000,11.3537421875,0.9163978695869446,1.6762555837631226,0.3534999489784241
1684252761363768000,11.36376806640625,0.7997862696647644,1.6456156969070435,0.8046005368232727
1684252761373794000,11.3737939453125,0.6228813529014587,1.4359346628189087,1.2195265293121338
1684252761383819000,11.383819091796875,0.38847339153289795,1.0869338512420654,1.5662575960159302
1684252761393845000,11.393844970703125,0.1290915459394455,0.7722995281219482,1.8785440921783447
1684252761403871000,11.40387109375,-0.14003153145313263,0.5030475854873657,2.196294069290161
1684252761413897000,11.41389697265625,-0.43210849165916443,0.24330168962478638,2.5296950340270996
1684252761423923000,11.4239228515625,-0.7289700508117676,-0.04979144036769867,2.8713037967681885
1684252761433949000,11.433948974609375,-1.025020718574524,-0.41820472478866577,3.2666783332824707
1684252761443975000,11.443974853515625,-1.239758014678955,-0.8350554704666138,3.630678415298462
1684252761454001000,11.4540009765625,-1.2616881132125854,-1.2455099821090698,3.796675205230713
1684252761464025900,11.46402587890625,-0.9900899529457092,-1.6158812046051025,3.6356189250946045
1684252761474051800,11.4740517578125,-0.5183036923408508,-1.4541015625,4.041539192199707
1684252761484078000,11.484078125,1.7526518106460571,-7.977333068847656,1.006569743156433
1684252761494104000,11.49410400390625,5.884817600250244,-13.967188835144043,2.0602023601531982
1684252761504130000,11.504130126953125,6.025557994842529,-9.20630931854248,5.825860500335693
1684252761514156000,11.514156005859375,1.556899905204773,-9.726340293884277,-1.6127351522445679
1684252761524182500,11.5241826171875,-2.137810707092285,-4.1144208908081055,-3.7775888442993164
1684252761534208500,11.53420849609375,-2.929569721221924,4.692599296569824,-1.5316336154937744
1684252761544233500,11.5442333984375,-3.2510292530059814,8.687241554260254,-1.225612998008728
1684252761554259500,11.554259521484376,-3.2602851390838623,8.997447967529297,-1.1422102451324463
1684252761564285400,11.564285400390625,-3.0206336975097656,7.705730438232422,-0.7927730679512024
1684252761574311400,11.5743115234375,-2.5487844944000244,5.446178436279297,-0.45852556824684143
1684252761584337400,11.58433740234375,-1.9206098318099976,2.854952335357666,-0.36356043815612793
1684252761594363400,11.59436328125,-1.2391501665115356,0.3954890966415405,-0.45509040355682373
1684252761604389600,11.6043896484375,-0.4890478551387787,-3.629132032394409,-0.5151345729827881
1684252761614414300,11.614414306640626,-0.04375481233000755,-5.666194915771484,0.17415963113307953
1684252761624440600,11.624440673828126,-0.20009355247020721,-5.250615119934082,1.3655407428741455
1684252761634466600,11.634466552734375,-0.9622507095336914,-3.543602466583252,2.410460948944092
1684252761644492500,11.644492431640625,-1.9325947761535645,-1.6746246814727783,2.8465256690979004
1684252761654518500,11.6545185546875,-2.775211811065674,-0.30602335929870605,2.740800380706787
1684252761664544500,11.66454443359375,-3.409623146057129,0.520656943321228,2.3321127891540527
1684252761674570500,11.674570556640624,-3.7662298679351807,0.6678511500358582,1.6336324214935303
1684252761684596500,11.684596435546876,-3.6993021965026855,0.4556402862071991,0.7051687240600586
1684252761694621400,11.694621337890625,-3.1860647201538086,0.4803481698036194,-0.16767044365406036
1684252761704647400,11.7046474609375,-2.485726833343506,0.9091431498527527,-0.769737958908081
1684252761714673400,11.71467333984375,-1.9058756828308105,1.4575185775756836,-1.0062103271484375
1684252761724699400,11.724699462890625,-1.531335711479187,1.8917275667190552,-0.8917303085327148
1684252761734725400,11.734725341796874,-1.3132703304290771,2.2541394233703613,-0.5685080885887146
1684252761744751400,11.74475146484375,-1.186410665512085,2.6357715129852295,-0.2358904331922531
1684252761754777600,11.754777587890626,-1.1379088163375854,2.9890496730804443,0.05461360886693001
1684252761764802600,11.764802490234375,-1.1547024250030518,3.21026349067688,0.2582698166370392
1684252761774828800,11.774828857421875,-1.1905099153518677,3.22599720954895,0.41252920031547546
1684252761784854500,11.7848544921875,-1.3695545196533203,2.906215190887451,0.4423166811466217
1684252761794880500,11.794880615234375,-1.9244242906570435,2.40971302986145,0.4076436161994934
1684252761804906500,11.804906494140624,-2.304048776626587,1.9762828350067139,0.2719060182571411
1684252761814932500,11.814932373046876,-2.1391618251800537,1.776496410369873,0.03344525769352913
1684252761824958500,11.82495849609375,-1.5393199920654297,1.5514047145843506,-0.35014021396636963
1684252761834984400,11.834984375,-0.915339469909668,1.1987941265106201,-0.7644985318183899
1684252761845010400,11.845010498046875,-0.388909250497818,1.116930365562439,-0.8900809288024902
1684252761855035600,11.85503564453125,0.19344131648540497,1.3025749921798706,-0.6485912203788757
1684252761865061600,11.8650615234375,0.8173164129257202,1.5209875106811523,-0.29236382246017456
1684252761875087600,11.875087646484374,1.104919195175171,2.1556031703948975,0.17756065726280212
1684252761885113600,11.885113525390626,1.0317487716674805,3.0252344608306885,0.5950756072998047
1684252761895139300,11.895139404296875,0.8230336308479309,3.204512596130371,0.6490429043769836
1684252761905165600,11.90516552734375,0.9427666664123535,3.2760369777679443,0.6327768564224243
1684252761915191600,11.915191650390625,1.0909353494644165,3.2197329998016357,0.5577016472816467
1684252761925216800,11.925216796875,1.139402985572815,3.0310726165771484,0.4381895959377289
1684252761935242800,11.93524267578125,1.058564305305481,2.5948150157928467,0.3352592885494232
1684252761945268700,11.945268798828126,0.874179482460022,1.5400371551513672,-0.012439299374818802
1684252761955294700,11.955294677734376,0.5603014826774597,-0.5854776501655579,-0.9103988409042358
1684252761965320700,11.96532080078125,0.07347318530082703,-1.9871717691421509,-1.3007681369781494
1684252761975346700,11.9753466796875,-0.5666602849960327,-2.4730706214904785,-1.2945259809494019
1684252761985372400,11.985372314453125,-1.1207126379013062,-2.9070992469787598,-1.285624384880066
1684252761995397600,11.995397705078124,-1.4115328788757324,-3.200138807296753,-1.1545056104660034
1684252762005423600,12.005423583984374,-1.4214457273483276,-3.1417105197906494,-0.8596515655517578
1684252762015449600,12.01544970703125,-1.230891466140747,-2.7356419563293457,-0.532987654209137
1684252762025475600,12.0254755859375,-0.9310078024864197,-2.1917219161987305,-0.25815317034721375
1684252762035501600,12.03550146484375,-0.658859133720398,-1.6829557418823242,-0.03534293174743652
1684252762045527600,12.045527587890625,-0.45219358801841736,-1.2491592168807983,0.19727939367294312
1684252762055553800,12.0555537109375,-0.2508622705936432,-0.9539670348167419,0.4488154649734497
1684252762065579800,12.065579833984375,0.05675999075174332,-1.7234935760498047,0.7375892400741577
1684252762075604700,12.075604736328126,0.23271629214286804,-2.411665439605713,1.0327260494232178
1684252762085630700,12.085630615234376,0.25928983092308044,-3.023991584777832,1.2305009365081787
1684252762095656700,12.09565673828125,0.146857351064682,-2.8841917514801025,1.3128094673156738
1684252762105682700,12.1056826171875,-0.19103200733661652,-1.7334635257720947,1.4261668920516968
1684252762115708700,12.115708740234375,-1.7813981771469116,1.4860930442810059,1.2856634855270386
1684252762125734700,12.125734619140625,-2.5966365337371826,4.813637733459473,1.575607419013977
1684252762135760600,12.1357607421875,-1.8895517587661743,6.838726043701172,2.1659412384033203
1684252762145786600,12.14578662109375,-1.1241217851638794,7.926201820373535,2.790459394454956
1684252762155811600,12.1558115234375,-0.7260496616363525,7.985313415527344,3.8543643951416016
1684252762165837600,12.165837646484375,-0.35313892364501953,5.76550817489624,4.854979515075684
1684252762175863600,12.175863525390625,-0.23768815398216248,-2.6395089626312256,3.20273494720459
1684252762185889500,12.1858896484375,0.09118375182151794,-6.128483295440674,1.461808443069458
1684252762195915500,12.19591552734375,0.6602501273155212,-3.8863396644592285,0.36361026763916016
1684252762205941800,12.205941650390624,1.2137622833251953,-1.1174449920654297,-0.39725032448768616
1684252762215967700,12.2159677734375,1.3522344827651978,1.011298418045044,-0.7694622874259949
1684252762225993700,12.22599365234375,1.139798641204834,2.2534852027893066,-0.8796032071113586
1684252762236018700,12.236018798828125,0.6386680006980896,2.210167407989502,-0.9628622531890869
1684252762246044700,12.246044677734375,0.04067964851856232,1.3016382455825806,-1.1114917993545532
1684252762256070700,12.256070556640625,-0.05365276336669922,0.2597743272781372,-0.9838701486587524
1684252762266096600,12.2660966796875,0.04907015338540077,-0.6817663311958313,-0.7845724821090698
1684252762276122600,12.27612255859375,0.2591341733932495,-1.3724496364593506,-0.7567200064659119
1684252762286148600,12.286148681640626,0.6792688965797424,-1.7212281227111816,-0.9264442920684814
1684252762296174600,12.296174560546875,1.1022509336471558,-2.0629022121429443,-1.153708815574646
1684252762306200600,12.30620068359375,1.4291654825210571,-2.850339412689209,-1.3736190795898438
1684252762316225500,12.3162255859375,1.2194286584854126,-3.4866344928741455,-1.4714475870132446
1684252762326251500,12.32625146484375,0.6401816010475159,-3.7414839267730713,-1.3082681894302368
1684252762336277500,12.336277587890624,-0.06947602331638336,-3.5484840869903564,-0.8832700848579407
1684252762346303500,12.346303466796876,-0.6727100014686584,-3.2001209259033203,-0.26307421922683716
1684252762356329700,12.356329833984375,-1.1386795043945312,-2.8936092853546143,0.33268171548843384
1684252762366355700,12.366355712890625,-1.5601513385772705,-2.700263023376465,0.8247324228286743
1684252762376381700,12.376381591796875,-1.8870677947998047,-2.6571850776672363,1.2046157121658325
1684252762386406700,12.38640673828125,-2.183067560195923,-2.967543601989746,1.5134973526000977
1684252762396432600,12.3964326171875,-2.36894154548645,-3.559788703918457,1.7380605936050415
1684252762406458600,12.406458740234376,-2.4333741664886475,-3.9799206256866455,1.7214062213897705
1684252762416484600,12.416484619140626,-2.4189393520355225,-4.360281467437744,1.597909927368164
1684252762426510600,12.426510498046875,-1.8869211673736572,-5.6360907554626465,1.8164960145950317
1684252762436536600,12.43653662109375,-1.1898216009140015,-7.437642574310303,2.1246087551116943
1684252762446562600,12.4465625,-0.5122949481010437,-8.333220481872559,1.9539639949798584
1684252762456588500,12.456588623046875,0.1901393085718155,-7.071519374847412,1.3400782346725464
1684252762466613500,12.466613525390626,0.928889811038971,-4.602181911468506,0.10022048652172089
1684252762476639500,12.476639404296876,1.3821395635604858,-2.207733631134033,-1.684695839881897
1684252762486665500,12.48666552734375,1.2435380220413208,-1.035462498664856,-2.2125136852264404
1684252762496691500,12.49669140625,1.009550929069519,-1.4547685384750366,-1.507532000541687
1684252762506717700,12.5067177734375,1.3630815744400024,-2.449572801589966,-0.48462754487991333
1684252762516743700,12.51674365234375,1.9703863859176636,-3.20625901222229,0.14327535033226013
1684252762526769700,12.526769775390624,2.5291025638580322,-4.07823371887207,0.512513279914856
1684252762536795600,12.536795654296874,3.117509126663208,-4.8516106605529785,0.7312247157096863
1684252762546820600,12.546820556640625,3.6717886924743652,-5.218982219696045,0.9214324355125427
1684252762556846600,12.5568466796875,4.007341384887695,-4.952500343322754,1.0583521127700806
1684252762566872600,12.56687255859375,4.207773685455322,-4.124274253845215,1.0897345542907715
1684252762576898600,12.576898681640625,4.39949369430542,-3.5759782791137695,1.1287782192230225
1684252762586924500,12.586924560546874,4.573692321777344,-3.463026285171509,1.0289409160614014
1684252762596950500,12.596950439453124,4.594882965087891,-3.4022202491760254,0.8397907614707947
1684252762606976500,12.6069765625,4.487514972686768,-3.3148276805877686,0.7600684762001038
1684252762617002500,12.61700244140625,4.264695644378662,-3.460008382797241,0.6961670517921448
1684252762627027500,12.62702734375,4.06115198135376,-3.6259024143218994,0.4755993187427521
