time,seconds_elapsed,z,y,x
1684253058584080000,0.023079833984375,-0.9551186561584473,2.537935733795166,-0.06847775727510452
1684253058594105000,0.03310498046875,-0.48385611176490784,3.5371627807617188,0.00029517803341150284
1684253058604131000,0.043131103515625,0.14251066744327545,4.218480587005615,0.12273766100406647
1684253058614157000,0.053156982421875,0.8227203488349915,4.794071197509766,0.3427610993385315
1684253058624182000,0.06318212890625,1.322411298751831,5.113223075866699,0.5083298683166504
1684253058634208000,0.0732080078125,1.5345839262008667,5.477193355560303,0.7154175639152527
1684253058644234200,0.083234130859375,0.9560549855232239,5.490041255950928,0.9370827674865723
1684253058654259000,0.093259033203125,-0.06705211102962494,5.480770587921143,1.1467584371566772
1684253058664285200,0.10328515625,-1.1553539037704468,5.467919826507568,1.313857078552246
1684253058674311200,0.113311279296875,-2.1673471927642822,5.445492744445801,1.3921873569488525
1684253058684335900,0.1233359375,-3.0014753341674805,6.052101135253906,1.3964725732803345
1684253058694362000,0.133362060546875,-3.4258882999420166,6.753641128540039,1.3886466026306152
1684253058704388000,0.14338818359375,-3.606682538986206,7.2820611000061035,1.4578787088394165
1684253058714413000,0.1534130859375,-3.7698235511779785,7.6444783210754395,1.6550499200820923
1684253058724439000,0.16343896484375,-3.9575448036193848,7.854458808898926,1.9826871156692505
1684253058734465000,0.173465087890625,-4.218632221221924,7.980102062225342,2.442314624786377
1684253058744490200,0.183490234375,-4.57698392868042,8.007147789001465,2.9954421520233154
1684253058754516200,0.19351611328125,-4.953878879547119,7.873473167419434,3.5803420543670654
1684253058764542200,0.203542236328125,-5.341709136962891,7.581864356994629,4.1196441650390625
1684253058774567200,0.213567138671875,-5.699323654174805,7.072474002838135,4.50421667098999
1684253058784593200,0.22359326171875,-5.914734363555908,6.39482307434082,4.736150741577148
1684253058794619100,0.233619140625,-5.914797306060791,5.650672912597656,4.813620090484619
1684253058804644000,0.24364404296875,-5.797478675842285,5.163919448852539,4.743933200836182
1684253058814670000,0.253670166015625,-5.581317901611328,4.914468765258789,4.5059285163879395
1684253058824696000,0.263696044921875,-5.369165897369385,4.3669633865356445,4.063126564025879
1684253058834721000,0.273720947265625,-5.265582084655762,3.471632242202759,3.414407730102539
1684253058844747000,0.2837470703125,-5.206150054931641,2.348444700241089,2.681306838989258
1684253058854773000,0.29377294921875,-5.205114364624023,1.2495826482772827,1.9782662391662598
1684253058864798000,0.3037978515625,-5.25169038772583,0.5348634123802185,1.3688188791275024
1684253058874824000,0.313823974609375,-5.2729620933532715,0.3416244387626648,0.864192545413971
1684253058884850000,0.323849853515625,-5.1884565353393555,0.5340017080307007,0.4338948130607605
1684253058894875100,0.333875244140625,-4.95706033706665,0.7609435319900513,0.011218952015042305
1684253058904901000,0.343901123046875,-4.5897297859191895,0.8542188405990601,-0.41412100195884705
1684253058914927000,0.353927001953125,-4.080223083496094,0.8346744179725647,-0.7210201621055603
1684253058924952000,0.3639521484375,-3.549868583679199,0.9716789126396179,-0.3053024113178253
1684253058934978000,0.37397802734375,-2.9438982009887695,1.085679054260254,0.5332324504852295
1684253058945004000,0.384004150390625,-2.2419304847717285,0.7384418845176697,1.1788034439086914
1684253058955029000,0.394029052734375,-1.5378919839859009,-0.12418101727962494,1.6553164720535278
1684253058965055000,0.404054931640625,-0.974166750907898,-1.008866548538208,1.913759469985962
1684253058975081000,0.4140810546875,-0.6239208579063416,-1.9030308723449707,1.9589895009994507
1684253058985106000,0.42410595703125,-0.25425946712493896,-1.964894413948059,1.8896411657333374
1684253058995132000,0.4341318359375,0.03558779135346413,-2.6309926509857178,1.2771761417388916
1684253059005158000,0.444157958984375,0.3373063802719116,-3.1678848266601562,0.6959553956985474
1684253059015182800,0.454182861328125,0.8134089708328247,-2.815378189086914,0.29807350039482117
1684253059025208800,0.464208740234375,1.2989869117736816,-2.717499017715454,-0.27265703678131104
1684253059035235000,0.474235107421875,1.8403116464614868,-2.9143638610839844,-0.9602817893028259
1684253059045260000,0.484260009765625,2.3181354999542236,-2.8820085525512695,-1.494994878768921
1684253059055286300,0.494286376953125,2.582937717437744,-2.7180118560791016,-1.8288077116012573
1684253059065312300,0.504312255859375,2.5744733810424805,-2.5649356842041016,-1.9656652212142944
1684253059075337200,0.514337158203125,2.4340457916259766,-2.2754132747650146,-1.8907346725463867
1684253059085363200,0.52436328125,2.2177419662475586,-1.989903450012207,-1.717581868171692
1684253059095389200,0.53438916015625,2.118619441986084,-1.7983595132827759,-1.4039841890335083
1684253059105414100,0.5444140625,2.0843305587768555,-1.4681891202926636,-1.1712335348129272
1684253059115440000,0.554440185546875,2.065192699432373,-1.1857861280441284,-1.0426340103149414
1684253059125466000,0.564466064453125,2.027913808822632,-1.1714823246002197,-1.0134198665618896
1684253059135491000,0.574490966796875,1.9078702926635742,-1.3963983058929443,-1.0723297595977783
1684253059145517000,0.58451708984375,1.9967155456542969,-0.9832926988601685,-0.891596257686615
1684253059155543000,0.59454296875,2.440580129623413,-0.11569798737764359,-0.2307610958814621
1684253059165568000,0.604568115234375,3.024369955062866,0.39908140897750854,0.4938611388206482
1684253059175594000,0.614593994140625,3.237607717514038,0.29750415682792664,1.193095088005066
1684253059185620000,0.624619873046875,3.17476749420166,-0.22467529773712158,1.631150484085083
1684253059195645200,0.634645263671875,2.858299732208252,-0.23469996452331543,1.958264946937561
1684253059205671200,0.644671142578125,1.992751955986023,1.0685523748397827,1.7465952634811401
1684253059215697200,0.654697265625,0.8618621826171875,2.0758252143859863,1.042149543762207
1684253059225722000,0.66472216796875,-0.40030544996261597,2.0874979496002197,0.4065881371498108
1684253059235748000,0.674748046875,-1.5050644874572754,1.9066767692565918,-0.11778989434242249
1684253059245774000,0.684774169921875,-1.9940502643585205,1.1173087358474731,-0.6475446224212646
1684253059255799000,0.694799072265625,-2.1220321655273438,0.03196811303496361,-0.8487882614135742
1684253059265825000,0.704824951171875,-2.240612506866455,-0.2972950041294098,-0.9655047655105591
1684253059275851000,0.71485107421875,-2.5623998641967773,-0.07244433462619781,-1.1960136890411377
1684253059285876000,0.7248759765625,-2.9297709465026855,0.08582858741283417,-1.4911143779754639
1684253059295902000,0.73490185546875,-3.1618261337280273,-0.22783984243869781,-1.810512661933899
1684253059305928000,0.744927978515625,-3.2155587673187256,-0.6100220084190369,-2.086895227432251
1684253059315953000,0.754952880859375,-3.0243442058563232,-0.45616745948791504,-2.0793542861938477
1684253059325979000,0.764978759765625,-3.126065969467163,-0.4393634498119354,-1.931707501411438
1684253059336004900,0.7750048828125,-3.41058611869812,-0.44699153304100037,-1.9981317520141602
1684253059346030000,0.785030029296875,-3.64963436126709,0.0033385385759174824,-2.2835161685943604
1684253059356056000,0.79505615234375,-3.70180344581604,0.7699113488197327,-2.597545862197876
1684253059366082000,0.80508203125,-3.7073256969451904,1.7062968015670776,-2.784528970718384
1684253059376107000,0.81510693359375,-3.7663896083831787,2.661975383758545,-2.8947739601135254
1684253059386133000,0.825133056640625,-3.8680496215820312,3.432227373123169,-2.9881322383880615
1684253059396159200,0.8351591796875,-3.726440668106079,3.166893243789673,-2.8228235244750977
1684253059406184000,0.845183837890625,-3.0957326889038086,1.6194087266921997,-2.318833112716675
1684253059416210200,0.855210205078125,-2.1900320053100586,-0.7300751209259033,-1.573713779449463
1684253059426236200,0.865236083984375,-1.2690104246139526,-2.9681599140167236,-0.7051358222961426
1684253059436261000,0.87526123046875,-0.5168949365615845,-4.318127632141113,0.1650584489107132
1684253059446287000,0.885287109375,0.019411485642194748,-4.717989921569824,0.9011207818984985
1684253059456313000,0.89531298828125,0.5522018671035767,-4.419954299926758,1.3237392902374268
1684253059466338000,0.905338134765625,1.30525803565979,-2.464707136154175,1.4564058780670166
1684253059476364000,0.915364013671875,1.5600266456604004,-0.43451160192489624,1.40903639793396
1684253059486390000,0.92539013671875,0.9211592078208923,0.8463764786720276,1.1072413921356201
1684253059496415200,0.935415283203125,0.08065463602542877,2.64036226272583,1.124658226966858
1684253059506441200,0.945441162109375,-0.8899776339530945,3.1562600135803223,0.9318745732307434
1684253059516467200,0.95546728515625,-1.635338544845581,2.9487361907958984,0.7951489090919495
1684253059526492200,0.9654921875,-2.064215660095215,2.3262550830841064,0.7623475790023804
1684253059536518100,0.97551806640625,-2.218437671661377,1.5199110507965088,0.8476259708404541
1684253059546544000,0.985544189453125,-2.185087203979492,0.4935353994369507,0.9505387544631958
1684253059556569000,0.995569091796875,-2.07370662689209,-0.6441875100135803,0.9861566424369812
1684253059566595000,1.005594970703125,-1.9336520433425903,-1.4325741529464722,0.9962372183799744
1684253059576621000,1.01562109375,-1.78911554813385,-1.6644487380981445,1.0135353803634644
1684253059586646000,1.02564599609375,-1.5714560747146606,-1.5041075944900513,1.0380668640136719
1684253059596672000,1.035672119140625,-1.3774610757827759,-1.200984001159668,1.1330524682998657
1684253059606698000,1.045697998046875,-1.4126251935958862,-0.9864344000816345,1.1318954229354858
1684253059616723000,1.055722900390625,-1.6077754497528076,-0.7185723185539246,1.0472356081008911
1684253059626749000,1.0657490234375,-1.7418535947799683,-0.3170459270477295,0.9085265398025513
1684253059636775000,1.07577490234375,-1.7410527467727661,0.09829825907945633,0.7530269622802734
1684253059646800100,1.085800048828125,-1.5777870416641235,0.36452510952949524,0.6105313301086426
1684253059656826000,1.095826171875,-1.2905595302581787,0.5040273666381836,0.4739380478858948
1684253059666852000,1.10585205078125,-0.9251543879508972,0.6378892064094543,0.328607976436615
1684253059676877000,1.115876953125,-0.5101014971733093,0.731235146522522,0.13435298204421997
1684253059686903000,1.125903076171875,-0.07494043558835983,0.7168498635292053,-0.1325560063123703
1684253059696929000,1.135928955078125,0.2764122784137726,0.5236309170722961,-0.44578316807746887
1684253059706954000,1.1459541015625,0.5699650049209595,0.2190336138010025,-0.7493290305137634
1684253059716980000,1.15597998046875,0.8674997687339783,-0.003540879115462303,-0.9352909326553345
1684253059727006000,1.166005859375,1.1045866012573242,-0.05831597000360489,-0.9346615076065063
1684253059737031000,1.176031005859375,0.8725727796554565,0.2773749530315399,-1.1799684762954712
1684253059747057000,1.186056884765625,0.4115767180919647,0.15579301118850708,-1.2312589883804321
1684253059757083100,1.196083251953125,-0.40077340602874756,0.4443494379520416,-1.2712527513504028
1684253059767107800,1.20610791015625,-1.4150209426879883,1.0444804430007935,-1.058207631111145
1684253059777134000,1.216134033203125,-2.3315205574035645,1.7193187475204468,-0.7861188650131226
1684253059787160000,1.22616015625,-3.0430641174316406,2.2449142932891846,-0.5288479328155518
1684253059797185800,1.236185791015625,-3.4725375175476074,2.695312261581421,-0.2716329097747803
1684253059807211000,1.2462109375,-3.568589925765991,2.952393054962158,-0.08938971906900406
1684253059817237000,1.256237060546875,-3.391423463821411,2.9364819526672363,0.043439172208309174
1684253059827262000,1.266261962890625,-3.104562997817993,2.6711082458496094,0.11367903649806976
1684253059837288000,1.276287841796875,-2.7805380821228027,2.3140981197357178,0.11503032594919205
1684253059847314000,1.28631396484375,-2.442744016647339,1.9470326900482178,0.10076862573623657
1684253059857339000,1.2963388671875,-2.1562092304229736,1.5840579271316528,0.064200758934021
1684253059867364900,1.30636474609375,-1.9146026372909546,1.133969783782959,-0.020909789949655533
1684253059877390800,1.316390869140625,-1.6845203638076782,0.7319046258926392,-0.10867905616760254
1684253059887416800,1.326416748046875,-1.4504661560058594,0.3765789568424225,-0.2056349515914917
1684253059897441800,1.33644189453125,-1.252108097076416,0.0817641019821167,-0.33333221077919006
1684253059907467800,1.3464677734375,-1.1119674444198608,-0.07404592633247375,-0.43930768966674805
1684253059917493800,1.35649365234375,-0.9084097743034363,-0.1270337849855423,-0.5251032710075378
1684253059927518700,1.366518798828125,-0.6449653506278992,-0.29108190536499023,-0.6608147025108337
1684253059937544700,1.376544677734375,-0.45534461736679077,-0.544309139251709,-0.8272676467895508
1684253059947570700,1.38657080078125,-0.3199741542339325,-1.185142159461975,-0.25147002935409546
1684253059957596000,1.396595947265625,-0.119814433157444,-2.366234302520752,1.315540075302124
1684253059967622000,1.406621826171875,0.11566360294818878,-3.0402729511260986,2.41876220703125
1684253059977647900,1.41664794921875,0.46335846185684204,-3.2883479595184326,3.0071702003479004
1684253059987672800,1.4266728515625,0.9271798729896545,-2.9201834201812744,2.998640298843384
1684253059997698800,1.43669873046875,1.5820534229278564,-2.087783098220825,2.917271137237549
1684253060007724800,1.446724853515625,2.3668758869171143,-1.0168399810791016,2.9300246238708496
1684253060017749800,1.456749755859375,3.1951005458831787,0.1848432421684265,2.9604573249816895
1684253060027775700,1.466775634765625,3.87180233001709,1.242414116859436,2.975628137588501
1684253060037801700,1.4768017578125,4.521419048309326,1.7890300750732422,2.9234554767608643
1684253060047826700,1.48682666015625,4.785634517669678,1.128186583518982,3.030064105987549
1684253060057852700,1.496852783203125,4.440446376800537,-0.7582427859306335,3.018259048461914
1684253060067878700,1.506878662109375,3.610719680786133,-2.7153382301330566,2.6543924808502197
1684253060077904000,1.51690380859375,2.47586989402771,-4.311509132385254,1.724409580230713
1684253060087929600,1.5269296875,1.3289116621017456,-4.655927658081055,0.3846990466117859
1684253060097955600,1.53695556640625,0.3875470757484436,-3.9042747020721436,-0.839909553527832
1684253060107980800,1.546980712890625,-0.1510620266199112,-2.8675646781921387,-1.4612737894058228
1684253060118006800,1.5570068359375,-0.421832799911499,-1.9031141996383667,-1.7130391597747803
1684253060128033000,1.567032958984375,-0.5695531964302063,-1.0638394355773926,-1.806592345237732
1684253060138057700,1.5770576171875,-0.6364102363586426,-0.40237993001937866,-1.765377163887024
1684253060148084000,1.587083984375,-0.6365531086921692,0.11690358072519302,-1.5614842176437378
1684253060158110000,1.59710986328125,-0.5694390535354614,0.5482706427574158,-1.160370945930481
1684253060168135000,1.607135009765625,-0.4444049596786499,0.8972628712654114,-0.6038081645965576
1684253060178161000,1.617160888671875,-0.31173667311668396,1.1519486904144287,-0.010922988876700401
1684253060188187000,1.627186767578125,-0.21508505940437317,1.3362181186676025,0.47916337847709656
1684253060198211800,1.6372119140625,-0.1577160507440567,1.4635637998580933,0.8117245435714722
1684253060208237800,1.64723779296875,-0.11664348095655441,1.5547370910644531,1.026023030281067
1684253060218263800,1.657263916015625,-0.07029808312654495,1.6198588609695435,1.147587537765503
1684253060228288800,1.667288818359375,-0.018339432775974274,1.6827445030212402,1.197267770767212
1684253060238314800,1.677314697265625,0.023790176957845688,1.7546250820159912,1.1942256689071655
1684253060248340700,1.6873408203125,0.05085291713476181,1.8148396015167236,1.139524221420288
1684253060258366000,1.697365966796875,0.045279987156391144,1.843326449394226,1.0332443714141846
1684253060268392000,1.707391845703125,-0.006300231441855431,1.788163661956787,0.9176474213600159
1684253060278418000,1.71741796875,-0.1001361832022667,1.6233923435211182,0.8215696215629578
1684253060288443000,1.72744287109375,-0.21826308965682983,1.3260118961334229,0.7584958672523499
1684253060298468900,1.73746875,-0.32898667454719543,1.0035459995269775,0.7105432748794556
1684253060308494800,1.747494873046875,-0.3785933554172516,0.8520025014877319,0.6660652160644531
1684253060318520800,1.757520751953125,-0.3592558801174164,0.9440639615058899,0.611016571521759
1684253060328545800,1.7675458984375,-0.2791973948478699,1.1978613138198853,0.5867730975151062
1684253060338571800,1.77757177734375,-0.16030269861221313,1.4644434452056885,0.5987243056297302
1684253060348597800,1.78759765625,-0.030777761712670326,1.6503417491912842,0.6536043882369995
1684253060358622700,1.797622802734375,0.08374162763357162,1.6738697290420532,0.7376803755760193
1684253060368648700,1.807648681640625,0.17972415685653687,1.5068761110305786,0.8173457384109497
1684253060378674700,1.8176748046875,0.2411254644393921,1.2393090724945068,0.8828656077384949
1684253060388699600,1.82769970703125,0.25933584570884705,0.9520301222801208,0.9219763278961182
1684253060398725600,1.8377255859375,0.24187271296977997,0.6886072754859924,0.9337893128395081
1684253060408751600,1.847751708984375,0.21871769428253174,0.4639624357223511,0.9243389964103699
1684253060418776800,1.85777685546875,0.2097468376159668,0.2551213204860687,0.88068687915802
1684253060428802800,1.867802734375,0.20221590995788574,0.055755164474248886,0.8098459243774414
1684253060438828800,1.877828857421875,0.1873120665550232,-0.14081114530563354,0.7121223211288452
1684253060448853800,1.887853759765625,0.15668396651744843,-0.270131379365921,0.6062614321708679
1684253060458879700,1.897879638671875,0.11043071746826172,-0.2796868085861206,0.5378197431564331
1684253060468906000,1.907906005859375,0.08083336800336838,-0.23143872618675232,0.4902365505695343
1684253060478930700,1.9179306640625,0.06446238607168198,-0.2506323754787445,0.4805317223072052
1684253060488957000,1.92795703125,0.054412294179201126,-0.43995431065559387,0.508391261100769
1684253060498983000,1.93798291015625,0.05823339894413948,-0.8214292526245117,0.5668702721595764
1684253060509008000,1.9480078125,0.06969524174928665,-1.2870649099349976,0.6226121783256531
1684253060519033900,1.958033935546875,0.11184216290712357,-1.6307519674301147,0.621117115020752
1684253060529059800,1.968059814453125,0.23768959939479828,-1.6344107389450073,0.44269299507141113
1684253060539084800,1.978084716796875,0.5216784477233887,-1.140267014503479,0.0901021733880043
1684253060549110800,1.98811083984375,0.9003848433494568,-0.27387505769729614,-0.2206559032201767
1684253060559136800,1.99813671875,1.269307017326355,0.6572363972663879,-0.40416234731674194
1684253060569162000,2.008161865234375,1.6299713850021362,1.5363110303878784,-0.5390470623970032
1684253060579188000,2.01818798828125,1.971747875213623,2.276043653488159,-0.6556404829025269
1684253060589214000,2.0282138671875,2.285186290740967,2.781148910522461,-0.765298068523407
1684253060599239000,2.038239013671875,2.523805856704712,2.9021224975585938,-0.9142409563064575
1684253060609265000,2.048264892578125,2.58927321434021,1.8309787511825562,-1.696545958518982
1684253060619291000,2.058290771484375,2.472165822982788,-0.45140698552131653,-2.6769628524780273
1684253060629315800,2.06831591796875,2.2195746898651123,-2.629429578781128,-3.1651980876922607
1684253060639341800,2.078341796875,1.842087745666504,-4.369874000549316,-3.2721493244171143
1684253060649367800,2.088367919921875,1.4098707437515259,-5.7698750495910645,-3.264490842819214
1684253060659392800,2.098392822265625,1.0078290700912476,-6.658852577209473,-3.3280210494995117
1684253060669418800,2.108418701171875,0.7663148641586304,-5.756638050079346,-3.0701522827148438
1684253060679444700,2.11844482421875,0.9456025958061218,-2.6660444736480713,-2.410259962081909
1684253060689470700,2.128470703125,1.6443065404891968,0.674235463142395,-1.526375412940979
1684253060699495700,2.13849560546875,2.3916985988616943,2.7575621604919434,-0.669070303440094
1684253060709521700,2.148521728515625,2.650705337524414,3.7095115184783936,-0.05120363458991051
1684253060719547600,2.158547607421875,2.3968966007232666,3.6388444900512695,0.173314169049263
1684253060729572900,2.16857275390625,1.8764744997024536,3.0141499042510986,0.18396152555942535
1684253060739598800,2.178598876953125,1.3719650506973267,2.303210973739624,0.09948286414146423
1684253060749624800,2.188624755859375,0.9829006791114807,1.5902644395828247,-0.06077735498547554
1684253060759649800,2.19864990234375,0.7164351344108582,1.070826530456543,-0.26623356342315674
1684253060769675800,2.20867578125,0.5272327661514282,0.9169955849647522,-0.49612635374069214
1684253060779701800,2.21870166015625,0.2800251543521881,0.995306670665741,-0.7724010944366455
1684253060789726700,2.228726806640625,-0.10948361456394196,1.1233577728271484,-1.1101700067520142
1684253060799753000,2.2387529296875,-0.5568326115608215,1.1866350173950195,-1.440883994102478
1684253060809779200,2.248779296875,-0.9211166501045227,1.0042873620986938,-1.6952019929885864
1684253060819804000,2.258803955078125,-1.1225991249084473,0.3351644277572632,-1.7937653064727783
1684253060829830100,2.268830078125,-1.0412391424179077,-0.8068133592605591,-1.531976342201233
1684253060839856000,2.278856201171875,-0.6566475033760071,-1.5947582721710205,-1.0131731033325195
1684253060849881000,2.288881103515625,-0.030085880309343338,-1.8157202005386353,-0.6507142782211304
1684253060859907000,2.298906982421875,0.7647020816802979,-1.984968900680542,-0.49584612250328064
1684253060869933000,2.30893310546875,1.6411356925964355,-2.1847527027130127,-0.3391292095184326
1684253060879958300,2.318958251953125,2.4526469707489014,-2.3400886058807373,-0.23218785226345062
1684253060889984300,2.328984375,3.005629777908325,-2.1552679538726807,-0.17681938409805298
1684253060900010000,2.339010009765625,3.3220338821411133,-1.46234130859375,-0.2660754919052124
1684253060910035200,2.34903515625,3.5114307403564453,-0.29529058933258057,-0.7250999212265015
1684253060920061200,2.359061279296875,3.661345958709717,1.1451972723007202,-1.4188486337661743
1684253060930087200,2.369087158203125,3.6886305809020996,2.3583168983459473,-2.105937957763672
1684253060940112100,2.379112060546875,3.5003905296325684,2.776003360748291,-2.7216227054595947
1684253060950138000,2.38913818359375,3.09741473197937,2.1248795986175537,-3.2079904079437256
1684253060960164000,2.3991640625,2.5267868041992188,-0.026628708466887474,-3.13977313041687
1684253060970189000,2.40918896484375,1.8584362268447876,-2.196573257446289,-2.1662685871124268
1684253060980215000,2.419215087890625,1.2233500480651855,-2.256521463394165,-1.1375575065612793
1684253060990241000,2.429240966796875,0.6224763989448547,-0.3703926205635071,-0.5865259170532227
1684253061000267000,2.43926708984375,0.17022474110126495,1.5773000717163086,-0.22882477939128876
1684253061010292000,2.4492919921875,-0.0844908356666565,2.1306257247924805,0.05218934267759323
1684253061020318000,2.45931787109375,-0.281814306974411,1.8424936532974243,0.2933955788612366
1684253061030344000,2.469343994140625,-0.5056479573249817,1.317164421081543,0.44346508383750916
1684253061040369200,2.479369140625,-0.7508087158203125,0.8985996246337891,0.44206133484840393
1684253061050395100,2.48939501953125,-0.961421012878418,0.6585322618484497,0.3054627776145935
1684253061060420900,2.4994208984375,-1.128544807434082,0.47754356265068054,0.11518897116184235
1684253061070446000,2.509446044921875,-1.2540262937545776,0.32073187828063965,-0.03584080934524536
1684253061080472000,2.51947216796875,-1.3782027959823608,0.20650677382946014,-0.08618813008069992
1684253061090498000,2.529498046875,-1.547933578491211,0.05170496925711632,-0.03297661244869232
1684253061100523000,2.53952294921875,-1.7701514959335327,-0.2441655695438385,0.14993993937969208
1684253061110549000,2.549549072265625,-2.0170562267303467,-0.6294307112693787,0.4515363276004791
1684253061120575000,2.559574951171875,-2.300793409347534,-0.9487573504447937,0.7792809009552002
1684253061130600000,2.569599853515625,-2.6197900772094727,-1.1698622703552246,1.0090035200119019
1684253061140626000,2.5796259765625,-2.971862316131592,-1.3294402360916138,1.0218048095703125
1684253061150652200,2.589652099609375,-3.29156231880188,-1.4642150402069092,0.7339009642601013
1684253061160676900,2.5996767578125,-3.259401559829712,-1.3704328536987305,-0.7842388153076172
1684253061170703000,2.609703125,-2.035560369491577,-1.8734380006790161,-4.319275379180908
1684253061180729000,2.61972900390625,-0.9086788296699524,-4.635371685028076,-2.3611791133880615
1684253061190754000,2.629754150390625,-0.9106751084327698,-2.2129127979278564,0.8909342885017395
1684253061200780000,2.639780029296875,-1.6157467365264893,-0.05982137843966484,3.3040828704833984
1684253061210806000,2.649805908203125,-2.6017913818359375,-1.811930537223816,3.770538330078125
1684253061220831200,2.659831298828125,-3.2012360095977783,-4.286153793334961,2.3968024253845215
1684253061230857200,2.669857177734375,-3.0073940753936768,-3.1864278316497803,1.3870257139205933
1684253061240883200,2.67988330078125,-2.5944671630859375,-1.2891861200332642,1.1695477962493896
1684253061250909200,2.6899091796875,-2.164161205291748,0.45355522632598877,0.9741734862327576
1684253061260934100,2.69993408203125,-1.7393187284469604,1.7685387134552002,0.7321169376373291
1684253061270960000,2.709960205078125,-1.3707438707351685,2.6727395057678223,0.46499964594841003
1684253061280986000,2.719986083984375,-0.9724206328392029,3.0944600105285645,0.25478142499923706
1684253061291011000,2.730010986328125,-0.5406527519226074,3.1644370555877686,0.15264445543289185
1684253061301037000,2.740037109375,-0.26325199007987976,2.992807149887085,0.06703713536262512
1684253061311063000,2.75006298828125,-0.2833339273929596,2.7140164375305176,-0.02160486951470375
1684253061321088000,2.760087890625,-0.5356369614601135,2.350242853164673,-0.12349900603294373
1684253061331114000,2.770114013671875,-0.8784034848213196,1.684999704360962,-0.2534227967262268
1684253061341140000,2.780139892578125,-1.3058840036392212,0.3549465537071228,-0.45888620615005493
1684253061351165200,2.790165283203125,-1.6103367805480957,-0.8932073712348938,-0.5358986258506775
1684253061361191000,2.80019091796875,-1.6664812564849854,-1.7426778078079224,-0.43606331944465637
1684253061371217000,2.810216796875,-1.5469448566436768,-2.3352794647216797,-0.25028377771377563
1684253061381242000,2.8202421875,-1.3521367311477661,-2.749986410140991,-0.03379303216934204
1684253061391268000,2.83026806640625,-1.190215826034546,-3.075467586517334,0.18054212629795074
1684253061401294000,2.840294189453125,-1.1294922828674316,-3.3224356174468994,0.3666384816169739
1684253061411319000,2.850319091796875,-1.1239327192306519,-3.3818204402923584,0.4966326951980591
1684253061421345000,2.860344970703125,-1.1395273208618164,-3.187462091445923,0.5609623789787292
1684253061431371000,2.87037109375,-1.1650469303131104,-2.8148930072784424,0.5722030401229858
1684253061441396000,2.88039599609375,-1.1853317022323608,-2.3712944984436035,0.5506146550178528
1684253061451422000,2.890421875,-1.190185308456421,-2.0015134811401367,0.5210775136947632
1684253061461448000,2.900447998046875,-1.1680747270584106,-1.8788059949874878,0.45792603492736816
1684253061471474200,2.91047412109375,-1.1334651708602905,-2.0351083278656006,0.23924851417541504
1684253061481499000,2.920498779296875,-1.0142316818237305,-2.0164291858673096,-0.053205981850624084
1684253061491525000,2.930525146484375,-0.7576014399528503,-1.6415026187896729,-0.2740827202796936
1684253061501551000,2.940551025390625,-0.38817280530929565,-1.0454802513122559,-0.35730040073394775
1684253061511576000,2.950576171875,0.002760627306997776,-0.42796140909194946,-0.3266260325908661
1684253061521602000,2.96060205078125,0.31935426592826843,0.11169248819351196,-0.25634148716926575
1684253061531628000,2.9706279296875,0.5173905491828918,0.51131272315979,-0.21665479242801666
1684253061541653200,2.9806533203125,0.5903502702713013,0.788058340549469,-0.20877982676029205
1684253061551679200,2.99067919921875,0.5640090703964233,0.9613247513771057,-0.20089000463485718
1684253061561705200,3.000705322265625,0.4900429844856262,1.0280547142028809,-0.18886104226112366
1684253061571730200,3.010730224609375,0.4102635383605957,0.9824528694152832,-0.18510505557060242
1684253061581756200,3.020756103515625,0.3544732332229614,0.911400556564331,-0.17804235219955444
1684253061591782100,3.0307822265625,0.3170243501663208,0.8892379403114319,-0.1596454381942749
1684253061601807000,3.04080712890625,0.3122439980506897,0.7811463475227356,-0.10904058814048767
1684253061611833000,3.0508330078125,0.3178873658180237,0.5546922087669373,-0.042840588837862015
1684253061621859000,3.060859130859375,0.32826972007751465,0.3471798002719879,0.00636583985760808
1684253061631884000,3.070884033203125,0.3336104452610016,0.22833096981048584,0.02892010100185871
1684253061641910000,3.080909912109375,0.3321441113948822,0.16855445504188538,0.0288535226136446
1684253061651936000,3.09093603515625,0.335624098777771,0.14769962430000305,0.015321356244385242
1684253061661962000,3.1009619140625,0.33775249123573303,0.1496810019016266,-0.007257988676428795
1684253061671987000,3.110987060546875,0.34619852900505066,0.16554151475429535,-0.026980504393577576
1684253061682013000,3.121012939453125,0.3542793393135071,-0.00556471012532711,-0.008742379024624825
1684253061692039000,3.131038818359375,0.35651668906211853,-0.5028334259986877,0.08290480077266693
1684253061702064000,3.141064208984375,0.32387298345565796,-1.1541898250579834,0.19325660169124603
1684253061712090000,3.151090087890625,0.2816188633441925,-1.5907295942306519,0.25412753224372864
1684253061722116000,3.1611162109375,0.29550567269325256,-1.6899131536483765,0.032452404499053955
1684253061732141000,3.17114111328125,0.4065938889980316,-1.3798884153366089,-0.6017218232154846
1684253061742167000,3.1811669921875,0.573899507522583,-0.6819127798080444,-1.408179521560669
1684253061752193000,3.191193115234375,0.7116547226905823,0.035772908478975296,-2.013885259628296
1684253061762218000,3.201218017578125,0.8515843749046326,0.5416401028633118,-2.3560171127319336
1684253061772244000,3.211243896484375,1.0455833673477173,0.9618791341781616,-2.6958048343658447
1684253061782270000,3.22127001953125,1.3382701873779297,1.3244799375534058,-3.1700916290283203
1684253061792295000,3.231294921875,1.7022374868392944,1.6388040781021118,-3.7169878482818604
1684253061802321000,3.24132080078125,2.062993049621582,2.0042388439178467,-3.996467113494873
1684253061812347100,3.25134716796875,2.3804354667663574,2.6703548431396484,-3.8085100650787354
1684253061822373000,3.261373046875,2.6837480068206787,3.590350866317749,-3.2930164337158203
1684253061832398000,3.271398193359375,3.12896466255188,4.457706928253174,-2.482285261154175
1684253061842424000,3.281424072265625,3.7364187240600586,4.345160007476807,-1.562268853187561
1684253061852450000,3.291449951171875,4.27548885345459,3.133532762527466,-0.5738226771354675
1684253061862475300,3.301475341796875,4.298257350921631,2.2198667526245117,0.2530672550201416
1684253061872501200,3.311501220703125,3.91479229927063,1.6599311828613281,0.897422730922699
1684253061882527200,3.32152734375,3.4297091960906982,0.9730247259140015,1.4610213041305542
1684253061892552200,3.33155224609375,3.0894858837127686,0.15170972049236298,1.94076669216156
1684253061902578200,3.341578125,3.2131032943725586,-0.3547247052192688,2.6039040088653564
1684253061912604200,3.351604248046875,3.4178223609924316,-1.312382698059082,2.7613885402679443
1684253061922629000,3.361629150390625,3.592452049255371,-2.861098051071167,1.9352223873138428
1684253061932655000,3.371655029296875,3.9123737812042236,-2.5444176197052,1.3853050470352173
1684253061942681000,3.38168115234375,4.038520812988281,-0.8244785666465759,1.0700637102127075
1684253061952706000,3.3917060546875,3.674762487411499,1.2279468774795532,0.7661712765693665
1684253061962732000,3.40173193359375,3.1401357650756836,3.03188419342041,0.46798402070999146
1684253061972758000,3.411758056640625,2.8736796379089355,3.7649192810058594,0.8749680519104004
1684253061982783000,3.421782958984375,3.0789287090301514,2.9701147079467773,2.823988199234009
1684253061992809000,3.43180908203125,2.867466688156128,3.876063823699951,3.9050331115722656
1684253062002835000,3.4418349609375,2.1711015701293945,4.449671268463135,3.858170509338379
1684253062012861000,3.45186083984375,1.4485533237457275,3.795850992202759,3.318615674972534
1684253062022886100,3.46188623046875,0.9090351462364197,2.2867512702941895,2.776378631591797
1684253062032912100,3.471912109375,0.6290386319160461,0.952968418598175,2.3889389038085938
1684253062042938000,3.481938232421875,0.5552155375480652,0.2142091542482376,2.1369621753692627
1684253062052963000,3.491963134765625,0.5441170334815979,0.06541922688484192,2.037097454071045
1684253062062989000,3.501989013671875,0.5063182711601257,0.423944890499115,1.9625093936920166
1684253062073015000,3.51201513671875,0.35497188568115234,0.8808148503303528,1.880623459815979
1684253062083040000,3.5220400390625,0.15139161050319672,1.2120238542556763,1.8020706176757812
1684253062093066000,3.53206591796875,-0.14925234019756317,1.1870932579040527,1.691572904586792
1684253062103092000,3.542092041015625,-0.5732744336128235,0.9123002290725708,1.5979928970336914
1684253062113117000,3.552116943359375,-1.048535704612732,0.7239771485328674,1.5843147039413452
1684253062123143000,3.562142822265625,-1.513511061668396,0.7497168779373169,1.659186840057373
1684253062133169200,3.572169189453125,-1.9678376913070679,0.9051898717880249,1.742300271987915
1684253062143193900,3.58219384765625,-2.406890630722046,1.0452574491500854,1.7866737842559814
1684253062153220000,3.59222021484375,-2.844027280807495,1.0314885377883911,1.7777328491210938
1684253062163246000,3.60224609375,-3.1472725868225098,0.887252151966095,1.8845075368881226
1684253062173272000,3.61227197265625,-3.287426233291626,0.5762330889701843,2.199575424194336
1684253062183297300,3.62229736328125,-3.320404291152954,0.037223901599645615,2.7322235107421875
1684253062193323000,3.632322998046875,-3.219839334487915,-0.5029025673866272,3.3984758853912354
1684253062203349000,3.642348876953125,-2.7882776260375977,-0.8281282782554626,4.254698753356934
1684253062213374200,3.652374267578125,-1.2650930881500244,-4.73681640625,5.2004780769348145
1684253062223400200,3.662400146484375,0.7670080065727234,-10.532511711120605,4.4498515129089355
1684253062233426200,3.67242626953125,1.8103225231170654,-7.556662559509277,3.145397901535034
1684253062243451100,3.682451171875,3.1100499629974365,-10.312114715576172,-3.1805858612060547
1684253062253477000,3.69247705078125,2.615915298461914,-12.775888442993164,-6.127414703369141
1684253062263503000,3.702503173828125,0.8037585616111755,-8.421456336975098,3.119030714035034
1684253062273528000,3.712528076171875,-1.9750938415527344,4.206484317779541,-0.38805508613586426
1684253062283554000,3.722553955078125,-3.3584442138671875,8.842572212219238,-1.2147493362426758
1684253062293580000,3.732580078125,-3.6359028816223145,8.869491577148438,-0.7359097003936768
1684253062303605000,3.74260498046875,-2.8598453998565674,2.277947187423706,0.0072027891874313354
1684253062313631000,3.752630859375,-2.1418440341949463,0.21855048835277557,-0.3675951063632965
1684253062323657000,3.762656982421875,-1.6151286363601685,1.0669218301773071,-0.7493541836738586
1684253062333683000,3.772682861328125,-1.2151107788085938,2.029142141342163,-0.9888573884963989
1684253062343708200,3.782708251953125,-1.0272369384765625,2.553288698196411,-1.025399923324585
1684253062353734100,3.792734130859375,-1.006643295288086,2.362377166748047,-0.7906622886657715
1684253062363759900,3.802759765625,-1.0927315950393677,1.6135454177856445,-0.37565603852272034
1684253062373785000,3.81278515625,-1.1602941751480103,1.1756539344787598,-0.03560076653957367
1684253062383811000,3.82281103515625,-1.209867000579834,1.1033883094787598,0.14644679427146912
1684253062393837000,3.832837158203125,-1.2421821355819702,1.234757900238037,0.22236506640911102
1684253062403862000,3.842862060546875,-1.262447476387024,1.4887754917144775,0.2366156429052353
1684253062413888000,3.852887939453125,-1.2555710077285767,1.8413283824920654,0.23110322654247284
1684253062423914000,3.8629140625,-1.1933728456497192,2.2450754642486572,0.22069719433784485
1684253062433939000,3.87293896484375,-1.1048269271850586,2.6123735904693604,0.23278328776359558
1684253062443965000,3.88296484375,-0.9991998672485352,2.863553524017334,0.2558545172214508
1684253062453991200,3.8929912109375,-0.9133307337760925,2.9151625633239746,0.2888866364955902
1684253062464017200,3.90301708984375,-0.8515501618385315,2.6713318824768066,0.3730909824371338
1684253062474042000,3.9130419921875,-0.8309345841407776,2.0636866092681885,0.5460629463195801
1684253062484068000,3.923068115234375,-0.7819238901138306,1.2822028398513794,0.7593086361885071
1684253062494094000,3.933093994140625,-0.6363189816474915,0.5960119962692261,0.922877848148346
1684253062504119000,3.943119140625,-0.4653070569038391,0.11031430959701538,1.0054949522018433
1684253062514145000,3.95314501953125,-0.31733834743499756,-0.22435303032398224,1.0404469966888428
1684253062524171000,3.9631708984375,-0.18794119358062744,-0.601364254951477,0.9943282604217529
1684253062534196200,3.9731962890625,-0.11450643092393875,-0.9230362176895142,0.9231613874435425
1684253062544222200,3.98322216796875,-0.07217654585838318,-1.13905930519104,0.8424084782600403
1684253062554248200,3.993248291015625,-0.0505010187625885,-1.3137280941009521,0.7481971979141235
1684253062564273200,4.003273193359375,-0.0170943234115839,-1.4785948991775513,0.6348365545272827
1684253062574299100,4.013299072265625,0.026884838938713074,-1.6237252950668335,0.505630373954773
1684253062584325000,4.0233251953125,0.09895876049995422,-1.7599467039108276,0.35416388511657715
1684253062594351000,4.03335107421875,0.1937408596277237,-1.9168916940689087,0.17928054928779602
1684253062604376000,4.0433759765625,0.2796717584133148,-2.0832340717315674,0.004306078422814608
1684253062614402000,4.053402099609375,0.35417282581329346,-2.2190957069396973,-0.14480653405189514
1684253062624428000,4.063427978515625,0.4208935499191284,-2.33136248588562,-0.24523034691810608
1684253062634453000,4.073452880859375,0.47845906019210815,-2.4731862545013428,-0.29479968547821045
1684253062644479000,4.08347900390625,0.5111903548240662,-2.6653404235839844,-0.2814415395259857
1684253062654505000,4.0935048828125,0.5187594890594482,-2.977966785430908,-0.18558712303638458
1684253062664530000,4.103530029296875,0.5254693627357483,-3.4884016513824463,-0.030062241479754448
1684253062674556000,4.113555908203125,0.541451096534729,-4.070248126983643,0.1535445600748062
1684253062684582000,4.123581787109375,0.520982563495636,-4.517452716827393,0.29495227336883545
1684253062694607000,4.133607177734375,0.47595518827438354,-4.750738620758057,0.3789803683757782
1684253062704633000,4.143633056640625,0.4274339973926544,-4.835583209991455,0.42984139919281006
1684253062714659000,4.1536591796875,0.37397652864456177,-4.842905044555664,0.4625789225101471
1684253062724685000,4.16368505859375,0.30491942167282104,-4.747816562652588,0.4891205132007599
1684253062734710000,4.1737099609375,0.17913314700126648,-4.516627311706543,0.3911043703556061
1684253062744736000,4.183736083984375,-0.09346907585859299,-3.608445882797241,-0.27234017848968506
1684253062754762200,4.19376220703125,-0.42666786909103394,-1.7490968704223633,-1.0540331602096558
1684253062764787000,4.203786865234375,-0.6610696911811829,0.06531447172164917,-1.3412591218948364
1684253062774813200,4.213813232421875,-0.7806305289268494,1.2553426027297974,-1.0793788433074951
1684253062784839200,4.223839111328125,-0.8680834174156189,1.8182514905929565,-0.5086184740066528
1684253062794864000,4.233864013671875,-0.9922841191291809,1.9372687339782715,0.11050065606832504
1684253062804889600,4.2438896484375,-1.1914781332015991,1.875535249710083,0.6102867722511292
1684253062814915600,4.25391552734375,-1.4622385501861572,1.722919225692749,0.9874385595321655
1684253062824940800,4.26394091796875,-1.7816826105117798,1.491764783859253,1.2901719808578491
1684253062834966800,4.273966796875,-2.112865924835205,1.3635826110839844,1.4956729412078857
1684253062844992500,4.283992431640625,-2.3791990280151367,1.4614636898040771,1.5521692037582397
1684253062855018500,4.2940185546875,-2.554374933242798,1.6468923091888428,1.4779713153839111
1684253062865043700,4.304043701171875,-2.5969488620758057,1.8909841775894165,1.2865626811981201
1684253062875069700,4.314069580078125,-2.4957003593444824,2.2723870277404785,1.0241873264312744
1684253062885096000,4.324095947265625,-2.2542970180511475,2.7434394359588623,0.7394946217536926
1684253062895120600,4.33412060546875,-1.9274859428405762,3.110996723175049,0.4679461717605591
1684253062905147000,4.34414697265625,-1.5043821334838867,3.0211355686187744,0.2179933488368988
1684253062915172900,4.3541728515625,-0.9599553346633911,2.4368064403533936,-0.037559304386377335
1684253062925197800,4.36419775390625,-0.3254423439502716,1.700913667678833,-0.3064773380756378
1684253062935223800,4.374223876953125,0.36279383301734924,1.066667079925537,-0.5697945952415466
1684253062945249800,4.384249755859375,1.030798316001892,0.7480602860450745,-0.8270887136459351
1684253062955275800,4.39427587890625,1.5871809720993042,0.9775020480155945,-1.0382483005523682
1684253062965300700,4.40430078125,2.1777071952819824,1.7211782932281494,-1.198238492012024
1684253062975326700,4.41432666015625,2.8594398498535156,2.736330509185791,-1.322225570678711
1684253062985352700,4.424352783203125,3.6430084705352783,3.603780746459961,-1.3204262256622314
1684253062995377700,4.434377685546875,4.362354755401611,3.9253222942352295,-1.1695760488510132
1684253063005403600,4.444403564453125,4.620665550231934,3.6872074604034424,-0.9400998950004578
1684253063015429600,4.4544296875,4.155135154724121,2.7869303226470947,-0.8481757044792175
1684253063025454800,4.464454833984375,3.619925022125244,1.6565266847610474,-0.8679920434951782
1684253063035480800,4.474480712890625,3.2544867992401123,0.6595098972320557,-0.9223830103874207
1684253063045506800,4.4845068359375,2.835855007171631,-0.2722882926464081,-0.9997198581695557
1684253063055531800,4.49453173828125,2.2845616340637207,-1.1631860733032227,-1.0683740377426147
1684253063065557800,4.504557861328125,1.6263593435287476,-1.8158824443817139,-0.9971020221710205
1684253063075583700,4.514583740234375,0.7965250611305237,-2.3143796920776367,-0.867808997631073
1684253063085609700,4.524609619140625,-0.06131403148174286,-2.5884475708007812,-0.8060052990913391
1684253063095634700,4.534634765625,-0.8791418075561523,-1.509045958518982,-0.9453539252281189
1684253063105660700,4.54466064453125,-1.8613636493682861,3.046376943588257,-1.771444320678711
1684253063115686700,4.554686767578125,-2.56459379196167,4.639548301696777,-2.040271759033203
1684253063125711600,4.564711669921875,-3.0355265140533447,4.534051895141602,-1.969869613647461
1684253063135737600,4.574737548828125,-3.308345079421997,3.9418082237243652,-1.875442624092102
1684253063145763600,4.584763671875,-3.3945438861846924,3.15234375,-1.7826908826828003
1684253063155788500,4.59478857421875,-3.367520809173584,2.2073745727539062,-1.6634446382522583
1684253063165814500,4.604814453125,-3.154261350631714,1.4905942678451538,-1.5082119703292847
1684253063175840500,4.614840576171875,-2.776219367980957,1.2500299215316772,-1.2632676362991333
1684253063185866800,4.62486669921875,-2.231255531311035,1.7221349477767944,-0.8534199595451355
1684253063195891700,4.6348916015625,-1.3438891172409058,2.948228120803833,-0.43901267647743225
1684253063205918000,4.64491796875,-0.36740484833717346,4.0189433097839355,-0.35248497128486633
1684253063215944000,4.65494384765625,0.4361063241958618,4.737383842468262,-0.3786699175834656
1684253063225969000,4.664968994140625,1.176151156425476,5.163478374481201,-1.2769695520401
1684253063235995000,4.674994873046875,2.003424644470215,4.571156978607178,-3.161067247390747
1684253063246020900,4.685020751953125,2.6647205352783203,2.7053229808807373,-4.140953540802002
1684253063256045800,4.6950458984375,3.2751200199127197,0.5039315819740295,-3.8424017429351807
1684253063266071800,4.70507177734375,3.7040040493011475,-1.5729258060455322,-2.7649028301239014
1684253063276097800,4.715097900390625,3.818161725997925,-3.145549774169922,-1.3886613845825195
1684253063286123800,4.725123779296875,3.701568603515625,-4.003404140472412,-0.08618894964456558
1684253063296148700,4.735148681640625,3.4495980739593506,-4.042072772979736,0.9151060581207275
1684253063306174700,4.7451748046875,3.0629498958587646,-3.3499255180358887,1.4270137548446655
1684253063316200700,4.75520068359375,2.568901300430298,-1.973172903060913,1.5852108001708984
1684253063326225700,4.7652255859375,1.995754599571228,-0.3332977592945099,1.64032781124115
1684253063336251600,4.775251708984375,1.3824394941329956,1.0950140953063965,1.6183092594146729
1684253063346277600,4.785277587890625,0.7508882284164429,1.9077303409576416,1.4793063402175903
1684253063356302800,4.795302734375,0.17349424958229065,2.1594643592834473,1.332079529762268
1684253063366328800,4.805328857421875,-0.32124650478363037,2.1490893363952637,1.283661127090454
1684253063376354800,4.815354736328125,-0.7044572830200195,2.0111212730407715,1.3405989408493042
1684253063386380800,4.825380859375,-0.9679344892501831,1.729066014289856,1.435731291770935
1684253063396405800,4.83540576171875,-1.1144046783447266,1.400275707244873,1.5117145776748657
1684253063406431700,4.845431640625,-1.1651886701583862,1.1640729904174805,1.5433111190795898
1684253063416457700,4.855457763671875,-1.119040846824646,1.0646100044250488,1.5316872596740723
1684253063426482700,4.865482666015625,-0.9786518812179565,1.0261033773422241,1.4897363185882568
1684253063436508700,4.8755087890625,-0.7888217568397522,0.9863787889480591,1.4450745582580566
1684253063446534700,4.88553466796875,-0.6008769273757935,0.9178335666656494,1.4091312885284424
1684253063456559600,4.8955595703125,-0.4492262303829193,0.8143712878227234,1.376608967781067
1684253063466585600,4.905585693359375,-0.33792367577552795,0.7004218101501465,1.3367371559143066
1684253063476611600,4.915611572265625,-0.2783001661300659,0.8530957102775574,1.1928352117538452
1684253063486637800,4.925637939453125,-0.2762652337551117,1.2168737649917603,0.8164342641830444
1684253063496662500,4.93566259765625,-0.3424096703529358,1.3144594430923462,0.3637574017047882
1684253063506688800,4.945688720703125,-0.41216158866882324,0.9573534727096558,0.15542921423912048
1684253063516714800,4.95571484375,-0.46338486671447754,0.45274636149406433,0.31811290979385376
1684253063526739700,4.96573974609375,-0.49716225266456604,0.21864011883735657,0.7011825442314148
1684253063536765700,4.975765625,-0.46685007214546204,0.1929226815700531,1.1159698963165283
1684253063546791700,4.985791748046875,-0.39726513624191284,0.11814592778682709,1.4938721656799316
1684253063556817000,4.99581689453125,-0.3254452049732208,-0.05584810674190521,1.7397862672805786
1684253063566843000,5.0058427734375,-0.32761144638061523,-0.20900091528892517,1.6503522396087646
1684253063576868900,5.015868896484375,-0.3568866550922394,-0.30418217182159424,0.9849374890327454
1684253063586894800,5.025894775390625,-0.3044029176235199,-0.385386198759079,0.15948942303657532
1684253063596919800,5.035919921875,-0.2598566710948944,-0.09496410191059113,-0.2865675091743469
1684253063606945800,5.04594580078125,-0.17902973294258118,0.5284984111785889,-0.5067076683044434
1684253063616971800,5.0559716796875,-0.08858926594257355,1.2568583488464355,-0.6901195645332336
1684253063626996700,5.065996826171875,-0.040377262979745865,1.950127363204956,-0.8246834874153137
1684253063637022700,5.076022705078125,-0.05985864996910095,2.432548761367798,-0.852321445941925
1684253063647048700,5.086048583984375,-0.19470861554145813,2.163416624069214,-0.6109336018562317
1684253063657073700,5.09607373046875,-0.5013164281845093,0.748282253742218,0.09004341810941696
1684253063667099600,5.106099609375,-0.6917340755462646,-0.006786743178963661,0.6507701277732849
1684253063677125600,5.116125732421875,-0.6150751113891602,0.5093492269515991,0.8819112777709961
1684253063687151600,5.126151611328125,-0.4000520408153534,1.5775065422058105,0.9738609194755554
1684253063697176600,5.136176513671875,-0.14416174590587616,2.772088050842285,1.036152958869934
1684253063707202600,5.14620263671875,0.10632959753274918,3.8390614986419678,1.1222097873687744
1684253063717228500,5.156228515625,0.2979050278663635,4.458856105804443,1.2619065046310425
1684253063727253800,5.166253662109375,0.3628922998905182,4.082075119018555,1.6388529539108276
1684253063737279700,5.17627978515625,0.32260215282440186,2.803868532180786,2.206491708755493
1684253063747305700,5.1863056640625,0.30037593841552734,1.9265280961990356,2.52225923538208
1684253063757330700,5.19633056640625,0.321091890335083,1.7095181941986084,2.555921792984009
1684253063767356700,5.206356689453125,0.3480904698371887,1.7438087463378906,2.430142402648926
1684253063777383000,5.2163828125,0.36752045154571533,1.7125228643417358,2.227780818939209
1684253063787409000,5.226408935546875,0.37794485688209534,1.249700665473938,1.9358901977539062
1684253063797433600,5.23643359375,0.3639323115348816,0.7448512315750122,1.5132770538330078
1684253063807459800,5.2464599609375,0.3561913073062897,0.8271125555038452,1.0423630475997925
1684253063817485800,5.25648583984375,0.39289698004722595,1.3648782968521118,0.628288745880127
1684253063827510800,5.2665107421875,0.4656585156917572,1.9620622396469116,0.33676260709762573
1684253063837536800,5.276536865234375,0.5262372493743896,2.313075542449951,0.19045768678188324
1684253063847562800,5.286562744140625,0.565278947353363,2.3762917518615723,0.2086031436920166
1684253063857587700,5.296587646484375,0.5637756586074829,2.256467342376709,0.330105185508728
1684253063867613700,5.30661376953125,0.5024867057800293,2.130803108215332,0.4835355281829834
1684253063877639700,5.3166396484375,0.41691529750823975,2.099724054336548,0.6166942119598389
1684253063887665700,5.326665771484375,0.31375613808631897,2.1663830280303955,0.717842161655426
1684253063897691000,5.33669091796875,0.21910499036312103,2.319580316543579,0.790966808795929
1684253063907716900,5.346716796875,0.148689404129982,2.4961249828338623,0.8766921162605286
1684253063917742800,5.356742919921875,0.11466971039772034,2.6132290363311768,0.9931925535202026
1684253063927767800,5.366767822265625,0.09449253976345062,2.6415412425994873,1.1202210187911987
1684253063937793800,5.376793701171875,0.054879043251276016,2.600588321685791,1.2140501737594604
1684253063947819800,5.38681982421875,-0.004431417677551508,2.605879068374634,1.2514598369598389
1684253063957846000,5.396845947265625,-0.04764862731099129,2.7056772708892822,1.2574806213378906
1684253063967870700,5.40687060546875,-0.07165675610303879,2.7983601093292236,1.2388970851898193
1684253063977897000,5.41689697265625,-0.0698818787932396,2.8306753635406494,1.2136595249176025
1684253063987923000,5.4269228515625,-0.05111591890454292,2.831705093383789,1.1711794137954712
1684253063997948000,5.436947998046875,-0.023343974724411964,2.9046571254730225,1.0864496231079102
1684253064007974000,5.446973876953125,-0.007928267121315002,3.0812795162200928,0.9645379185676575
1684253064018000000,5.456999755859375,-0.006349349860101938,3.314298152923584,0.8385782241821289
1684253064028024800,5.46702490234375,-0.00482655456289649,3.552863359451294,0.7373855710029602
1684253064038050800,5.47705078125,0.008468865416944027,3.799070358276367,0.6832780838012695
1684253064048076800,5.487076904296875,0.04065929353237152,4.0613884925842285,0.6634764075279236
1684253064058102800,5.497102783203125,0.08018528670072556,4.34873104095459,0.6700546741485596
1684253064068127700,5.507127685546875,0.12140196561813354,4.645003795623779,0.6828546524047852
1684253064078153700,5.51715380859375,0.14485789835453033,4.911512851715088,0.708516001701355
1684253064088179700,5.5271796875,0.1527501791715622,5.096038818359375,0.7440100908279419
1684253064098205000,5.537204833984375,0.16484948992729187,5.148518085479736,0.7959107160568237
1684253064108231000,5.54723095703125,0.17135532200336456,5.070958137512207,0.8445703983306885
1684253064118257000,5.5572568359375,0.1727544218301773,4.883152484893799,0.8963034749031067
1684253064128283000,5.567282958984375,0.17286628484725952,4.646087646484375,0.9270731210708618
1684253064138307800,5.577307861328125,0.1774131953716278,4.430157661437988,0.9258736371994019
1684253064148333800,5.587333740234375,0.18397602438926697,4.265493869781494,0.8892415761947632
1684253064158359800,5.59735986328125,0.204778790473938,4.128735542297363,0.8230982422828674
1684253064168384800,5.607384765625,0.2419155091047287,3.978367805480957,0.7358882427215576
1684253064178410800,5.61741064453125,0.2831887900829315,3.775447130203247,0.6305277347564697
1684253064188436700,5.627436767578125,0.3278505504131317,3.5213229656219482,0.5094708204269409
1684253064198461700,5.637461669921875,0.3656599819660187,3.218055248260498,0.389926552772522
1684253064208487700,5.64748779296875,0.38611388206481934,2.860776901245117,0.29209694266319275
1684253064218513700,5.657513671875,0.40207579731941223,2.4689383506774902,0.20604316890239716
1684253064228539600,5.66753955078125,0.41594499349594116,2.0909695625305176,0.1361684799194336
1684253064238564600,5.677564697265625,0.4239881932735443,1.7321312427520752,0.0852135643362999
1684253064248590600,5.687590576171875,0.4117025136947632,1.3790773153305054,0.05293578654527664
1684253064258616800,5.697616943359375,0.4095116853713989,1.0583529472351074,0.03210080787539482
1684253064268641800,5.707641845703125,0.427587628364563,0.7887864708900452,0.019382618367671967
1684253064278668000,5.71766796875,0.45215317606925964,0.5715848207473755,0.01040374394506216
1684253064288694000,5.727694091796875,0.472642719745636,0.41070303320884705,0.013063708320260048
1684253064298720000,5.737719970703125,0.4769448935985565,0.30179741978645325,0.020808208733797073
1684253064308745000,5.747744873046875,0.4833143651485443,0.2356807142496109,0.006919824983924627
1684253064318771000,5.75777099609375,0.473614364862442,0.21554474532604218,-0.011588561348617077
1684253064328797000,5.767796875,0.46610504388809204,0.24260912835597992,-0.046686891466379166
1684253064338822000,5.77782177734375,0.44858258962631226,0.33237993717193604,-0.07789742201566696
1684253064348847900,5.787847900390625,0.4015631377696991,0.46086016297340393,-0.09881015866994858
1684253064358873900,5.797873779296875,0.37806373834609985,0.19402892887592316,0.09604299068450928
1684253064368898800,5.80789892578125,0.33527472615242004,0.5823633670806885,-0.2630363404750824
1684253064378924800,5.8179248046875,0.3607126772403717,1.60688054561615,-1.0105878114700317
1684253064388950800,5.82795068359375,0.45135974884033203,2.152085781097412,-1.2270472049713135
1684253064398976800,5.837976806640625,0.5599713921546936,2.852719306945801,-1.1632914543151855
1684253064409001700,5.848001708984375,0.6746958494186401,3.8207271099090576,-1.0585048198699951
1684253064419027700,5.85802783203125,0.8664819002151489,4.619400501251221,-1.0794665813446045
1684253064429053700,5.8680537109375,1.2433159351348877,4.71877908706665,-1.359071135520935
1684253064439079000,5.878078857421875,1.8343501091003418,3.4913604259490967,-1.6625081300735474
1684253064449105000,5.88810498046875,2.586824655532837,1.5841352939605713,-1.6703402996063232
1684253064459131000,5.898130859375,3.2851195335388184,-0.005477112252265215,-1.4921414852142334
1684253064469156900,5.908156982421875,3.6343538761138916,-0.7835606336593628,-1.2704447507858276
1684253064479181800,5.918181884765625,3.6796329021453857,-0.6543179154396057,-0.8639681339263916
1684253064489207800,5.928207763671875,3.366793394088745,0.048691339790821075,-0.2802727520465851
1684253064499233800,5.93823388671875,2.6868951320648193,0.8207108974456787,0.3469831049442291
1684253064509258800,5.9482587890625,1.852826714515686,1.458801031112671,0.9342218637466431
1684253064519284700,5.95828466796875,1.1976919174194336,1.909393548965454,1.3640210628509521
1684253064529310700,5.968310791015625,0.8462151885032654,2.0972421169281006,1.5805704593658447
1684253064539335700,5.978335693359375,0.71192467212677,2.1603200435638428,1.6163132190704346
1684253064549361700,5.988361572265625,0.6870105266571045,2.319035053253174,1.5084892511367798
1684253064559388000,5.998387939453125,0.7044834494590759,2.7379181385040283,1.2829700708389282
1684253064569414000,6.008413818359375,0.7111487984657288,3.2886929512023926,1.0068204402923584
1684253064579438800,6.01843896484375,0.7386415004730225,3.740584135055542,0.7371082305908203
1684253064589464800,6.02846484375,0.8295533061027527,3.737138271331787,0.5083437561988831
1684253064599490800,6.03849072265625,1.0092965364456177,3.1164350509643555,0.34440377354621887
1684253064609516000,6.04851611328125,1.2600769996643066,2.1178228855133057,0.23964807391166687
1684253064619541800,6.058541748046875,1.4958432912826538,1.2605798244476318,0.2055351734161377
1684253064629567700,6.068567626953125,1.6369624137878418,0.8309680223464966,0.2651718854904175
1684253064639593700,6.07859375,1.6625317335128784,0.7530322670936584,0.4322430491447449
1684253064649619000,6.088618896484375,1.5938130617141724,0.7720432281494141,0.6549125909805298
1684253064659645000,6.09864501953125,1.4827851057052612,0.6996465921401978,0.8422144055366516
1684253064669671000,6.1086708984375,1.3859304189682007,0.4991939067840576,0.9119311571121216
1684253064679696000,6.11869580078125,1.350821852684021,0.17691536247730255,0.9023517370223999
1684253064689721900,6.128721923828125,1.371061086654663,-0.14057843387126923,0.9309069514274597
1684253064699747800,6.138747802734375,1.4043992757797241,-0.3397520184516907,1.0055367946624756
1684253064709773800,6.14877392578125,1.4375784397125244,-0.3536326587200165,1.1331754922866821
1684253064719798800,6.158798828125,1.4483473300933838,-0.24391180276870728,1.2724562883377075
1684253064729824800,6.16882470703125,1.3853355646133423,-0.042892936617136,1.4021501541137695
1684253064739850800,6.178850830078125,1.2325387001037598,0.1928875595331192,1.5177230834960938
1684253064749875700,6.188875732421875,0.9897363781929016,0.43039169907569885,1.6588101387023926
1684253064759901700,6.198901611328125,0.6628023386001587,0.584419310092926,1.8260921239852905
1684253064769927700,6.208927734375,0.32233795523643494,0.660555899143219,2.0109589099884033
1684253064779953700,6.21895361328125,0.0462246797978878,0.6809868812561035,2.19205904006958
1684253064789978600,6.228978515625,-0.15900516510009766,0.6252061724662781,2.3475100994110107
1684253064800005000,6.239005126953125,-0.304832398891449,0.4779491126537323,2.4720916748046875
1684253064810031000,6.249031005859375,-0.4190918803215027,0.24607032537460327,2.5973775386810303
1684253064820056300,6.259056396484375,-0.503639280796051,-0.07901968061923981,2.7158451080322266
1684253064830082300,6.269082275390625,-0.6003351807594299,-0.441893994808197,2.8210034370422363
1684253064840108000,6.27910791015625,-0.7085077166557312,-0.8592962622642517,2.8949456214904785
1684253064850134000,6.289134033203125,-0.8277153372764587,-1.384702444076538,2.9092214107513428
1684253064860159200,6.2991591796875,-0.9276401400566101,-1.9808088541030884,2.8536250591278076
1684253064870185200,6.309185302734375,-1.0012818574905396,-2.511881113052368,2.7220089435577393
1684253064880211200,6.319211181640625,-0.9984046816825867,-2.8248660564422607,2.454139232635498
1684253064890236200,6.329236083984375,-0.8815638422966003,-2.8223729133605957,1.9385309219360352
1684253064900262100,6.33926220703125,-0.567653477191925,-2.477262496948242,1.1559474468231201
1684253064910288100,6.3492880859375,-0.06720156967639923,-1.9520021677017212,0.47883954644203186
1684253064920313000,6.35931298828125,0.4596927762031555,-1.7156729698181152,0.1478586047887802
1684253064930339000,6.369339111328125,0.9089219570159912,-2.1524200439453125,-0.39937201142311096
1684253064940365000,6.379364990234375,1.3005017042160034,-2.6655983924865723,-1.5769944190979004
1684253064950391300,6.389391357421875,1.199986219406128,-2.2067739963531494,-2.653601884841919
1684253064960416000,6.399416015625,0.7113403081893921,-1.0251322984695435,-2.892110586166382
1684253064970442200,6.409442138671875,0.04410473629832268,0.35189634561538696,-2.1732473373413086
1684253064980468200,6.41946826171875,-0.5921309590339661,1.504035234451294,-1.0240731239318848
1684253064990493200,6.4294931640625,-1.0849204063415527,1.9298523664474487,0.12648659944534302
1684253065000519200,6.439519287109375,-1.4994210004806519,1.7300307750701904,0.9283408522605896
1684253065010545200,6.449545166015625,-1.903840184211731,1.3842099905014038,1.3379368782043457
1684253065020571100,6.459571044921875,-2.3216588497161865,1.0124746561050415,1.4754072427749634
1684253065030596400,6.469596435546875,-2.680788516998291,0.6221087574958801,1.3847100734710693
1684253065040622300,6.479622314453125,-2.9003183841705322,0.07655017077922821,0.9859333634376526
1684253065050648300,6.4896484375,-2.958582639694214,-0.20055733621120453,0.3529929518699646
1684253065060673300,6.49967333984375,-2.788156509399414,-0.29697543382644653,-0.28187134861946106
1684253065070699300,6.50969921875,-2.3394033908843994,-0.18762712180614471,-0.6286277174949646
1684253065080725200,6.519725341796875,-1.7249656915664673,0.16085384786128998,-0.5819621682167053
1684253065090751200,6.529751220703125,-1.1332283020019531,0.4979138672351837,-0.37993156909942627
1684253065100776200,6.539776123046875,-0.6511061787605286,0.6340165734291077,-0.1726548969745636
1684253065110802200,6.54980224609375,-0.31062448024749756,0.5974140763282776,0.04314131662249565
1684253065120828200,6.559828125,-0.15927202999591827,0.389983594417572,0.25406959652900696
1684253065130853000,6.56985302734375,-0.32112404704093933,-0.6802452802658081,0.5897756814956665
1684253065140879000,6.579879150390625,-0.6754299402236938,-2.2469661235809326,0.9405174255371094
1684253065150905000,6.589905029296875,-0.9428960084915161,-3.065854072570801,0.9919885993003845
1684253065160931000,6.59993115234375,-1.047405481338501,-3.1242430210113525,0.8301984071731567
1684253065170956000,6.6099560546875,-1.0649043321609497,-2.8788793087005615,0.5633211731910706
1684253065180982000,6.61998193359375,-0.9938916563987732,-2.554941415786743,0.29484882950782776
1684253065191008000,6.630008056640625,-0.8458330035209656,-2.268860340118408,0.078258216381073
1684253065201033200,6.640033203125,-0.6935411095619202,-2.1095399856567383,-0.08938919752836227
1684253065211059200,6.65005908203125,-0.5621277093887329,-2.019479274749756,-0.2080005407333374
1684253065221085200,6.660085205078125,-0.4641128182411194,-1.8803547620773315,-0.30063000321388245
1684253065231111200,6.670111083984375,-0.4015974998474121,-1.57712984085083,-0.40178510546684265
1684253065241136000,6.68013623046875,-0.32457205653190613,-1.1240930557250977,-0.47556373476982117
1684253065251162400,6.690162353515625,-0.2356586903333664,-0.7187227010726929,-0.5491857528686523
1684253065261188400,6.700188232421875,-0.13035346567630768,-0.3958979547023773,-0.5804663896560669
1684253065271213300,6.71021337890625,-0.016060980036854744,-0.21381282806396484,-0.5412290096282959
1684253065281239300,6.7202392578125,0.07568083703517914,-0.24040208756923676,-0.44306209683418274
1684253065291265300,6.730265380859375,0.12317591905593872,-0.47065818309783936,-0.2777990996837616
1684253065301291300,6.740291259765625,0.1313716620206833,-0.8398873209953308,-0.06214195117354393
1684253065311316200,6.750316162109375,0.1373552531003952,-1.2322956323623657,0.2131117284297943
1684253065321342200,6.76034228515625,0.14733783900737762,-1.6084752082824707,0.5260161757469177
1684253065331368200,6.7703681640625,0.1444762796163559,-1.977034568786621,0.844439685344696
1684253065341393200,6.78039306640625,0.1078859195113182,-2.3278989791870117,1.126800537109375
1684253065351419100,6.790419189453125,0.07568004727363586,-2.6507983207702637,1.3547605276107788
1684253065361445000,6.800445068359375,0.07953736186027527,-2.965989351272583,1.509658694267273
1684253065371471000,6.81047119140625,0.1186317652463913,-3.277094841003418,1.603519082069397
1684253065381496000,6.82049609375,0.20442813634872437,-3.6633026599884033,1.6235332489013672
1684253065391522000,6.83052197265625,0.3451423943042755,-4.533791542053223,1.6148377656936646
1684253065401548000,6.840548095703125,0.5157632827758789,-6.25084924697876,1.579914927482605
1684253065411573200,6.8505732421875,0.6291966438293457,-7.859798431396484,1.4110060930252075
1684253065421599200,6.86059912109375,0.7020739316940308,-8.480480194091797,1.0577255487442017
1684253065431625200,6.870625244140625,0.777005672454834,-8.435948371887207,0.5289501547813416
1684253065441651200,6.880651123046875,0.8691921830177307,-8.407368659973145,-0.16481871902942657
1684253065451676200,6.89067626953125,1.0996429920196533,-9.677860260009766,-1.9978328943252563
1684253065461702100,6.9007021484375,1.7694743871688843,-9.156115531921387,-3.793951988220215
1684253065471728000,6.91072802734375,2.401174306869507,-6.456103801727295,-4.036994457244873
1684253065481753000,6.920753173828125,2.9750239849090576,-3.6366021633148193,-4.088494777679443
1684253065491779000,6.930779052734375,3.429999351501465,-0.9982526898384094,-4.080851078033447
1684253065501805300,6.940805419921875,3.744091749191284,1.1666442155838013,-4.017206192016602
1684253065511831300,6.950831298828125,4.209168434143066,-0.2658975422382355,-4.15897798538208
1684253065521856300,6.960856201171875,4.6151814460754395,-1.9332060813903809,-3.5698082447052
1684253065531882200,6.97088232421875,4.612246036529541,-0.5782142877578735,-2.8085460662841797
1684253065541908200,6.980908203125,4.298808574676514,1.931653380393982,-2.32167387008667
1684253065551933200,6.99093310546875,3.778981924057007,3.930621862411499,-2.1750354766845703
1684253065561959200,7.000959228515625,3.308864116668701,4.422890663146973,-2.1888961791992188
1684253065571985200,7.010985107421875,3.146195650100708,3.624460220336914,-1.9599450826644897
1684253065582011100,7.02101123046875,3.038377285003662,3.285996675491333,-1.4431167840957642
1684253065592036400,7.031036376953125,2.742478847503662,3.7844138145446777,-0.8037312626838684
1684253065602062300,7.041062255859375,2.323960304260254,4.192821979522705,-0.303507924079895
1684253065612088300,7.05108837890625,2.1376612186431885,4.501108646392822,0.21678772568702698
1684253065622113300,7.06111328125,1.9155633449554443,4.223465442657471,0.5828878283500671
1684253065632139300,7.07113916015625,1.84967839717865,3.2352919578552246,0.8620917797088623
1684253065642165200,7.081165283203125,1.8410313129425049,1.3459622859954834,0.8712701797485352
1684253065652191200,7.091191162109375,1.6734389066696167,-0.6416871547698975,0.6230164766311646
1684253065662216200,7.10121630859375,1.507097601890564,-2.109646797180176,0.4510229527950287
1684253065672242200,7.1112421875,1.3331907987594604,-3.002838134765625,0.5206350088119507
1684253065682268200,7.12126806640625,1.0357301235198975,-3.4602975845336914,0.789650559425354
1684253065692294100,7.131294189453125,0.5120493173599243,-4.357163429260254,0.313056081533432
1684253065702319000,7.141319091796875,0.0775374323129654,-4.282208442687988,-0.5397973656654358
1684253065712345000,7.151344970703125,-0.04036417603492737,-2.0231785774230957,-0.3575402498245239
1684253065722371000,7.16137109375,0.06881335377693176,1.4451746940612793,0.8530208468437195
1684253065732396000,7.17139599609375,0.15870995819568634,3.972764730453491,1.7414172887802124
1684253065742422000,7.181422119140625,0.2630906403064728,5.106776714324951,2.0641191005706787
1684253065752448000,7.191447998046875,0.36445242166519165,5.236020088195801,1.9839833974838257
1684253065762474200,7.20147412109375,0.4555583596229553,4.915013313293457,1.7827786207199097
1684253065772499200,7.211499267578125,0.46435102820396423,4.330068111419678,1.487687110900879
1684253065782525200,7.221525146484375,0.4265672564506531,3.6353724002838135,1.1382842063903809
1684253065792551200,7.23155126953125,0.42355814576148987,2.941577434539795,0.8446570634841919
1684253065802576600,7.24157666015625,0.44922563433647156,2.088869333267212,0.6419142484664917
1684253065812602600,7.2516025390625,0.4397735297679901,1.0043405294418335,0.6261810660362244
1684253065822628600,7.261628662109375,0.39872822165489197,0.010906712152063847,0.8943525552749634
1684253065832654600,7.271654541015625,0.4256855249404907,-0.31305375695228577,1.2436178922653198
1684253065842679600,7.281679443359375,0.48378056287765503,-0.014133736491203308,1.3805395364761353
1684253065852705500,7.29170556640625,0.5646959543228149,0.5249624848365784,1.235177993774414
1684253065862731500,7.3017314453125,0.6615892648696899,1.0178333520889282,0.9611493349075317
1684253065872756500,7.311756591796875,0.7770452499389648,1.236832618713379,0.7490499019622803
1684253065882782500,7.321782470703125,0.8818994164466858,1.0581167936325073,0.6783839464187622
1684253065892808700,7.33180859375,0.998065173625946,0.6542173027992249,0.7199886441230774
1684253065902834700,7.341834716796875,1.0783755779266357,0.26803529262542725,0.7315822839736938
1684253065912859600,7.351859619140625,1.1279534101486206,0.011829858645796776,0.6291546821594238
1684253065922885600,7.3618857421875,1.1303372383117676,-0.15279901027679443,0.4543517827987671
1684253065932911600,7.37191162109375,1.1127617359161377,-0.22481675446033478,0.3202091455459595
1684253065942937600,7.3819375,1.1281827688217163,-0.25266486406326294,0.27976179122924805
1684253065952962600,7.391962646484375,1.134920597076416,-0.3167019188404083,0.2802318334579468
1684253065962988500,7.401988525390625,1.1295429468154907,-0.3877563178539276,0.29365888237953186
1684253065973014500,7.4120146484375,1.1298258304595947,-0.4235316216945648,0.30331364274024963
1684253065983039700,7.422039794921875,1.1356427669525146,-0.3674516975879669,0.3023111820220947
1684253065993065500,7.4320654296875,1.1354368925094604,-0.2999616265296936,0.290228933095932
1684253066003091500,7.442091552734375,1.155298113822937,-0.2559746205806732,0.28912970423698425
1684253066013117400,7.452117431640625,1.1192983388900757,-0.15963318943977356,0.36780110001564026
1684253066023142700,7.462142578125,1.0108778476715088,-0.040972135961055756,0.46189776062965393
1684253066033168600,7.472168701171875,0.8264524936676025,0.0480637289583683,0.5185181498527527
1684253066043194600,7.482194580078125,0.6095749735832214,0.16612060368061066,0.5888158679008484
1684253066053219600,7.492219482421875,0.3941212296485901,0.3205546438694,0.6764346957206726
1684253066063245600,7.50224560546875,0.2111520916223526,0.4529922604560852,0.7583365440368652
1684253066073271600,7.512271484375,0.012715168297290802,0.5601418614387512,0.8114657998085022
1684253066083297500,7.522297607421875,-0.2106250375509262,0.681462824344635,0.8471059799194336
1684253066093322500,7.532322509765625,-0.47088727355003357,0.8367956876754761,0.9180837273597717
1684253066103348500,7.542348388671875,-0.76531583070755,0.8854656219482422,1.032707691192627
1684253066113374500,7.55237451171875,-1.0785459280014038,0.8164817094802856,1.1971104145050049
1684253066123399400,7.5623994140625,-1.391664743423462,0.6112903356552124,1.3983274698257446
1684253066133425400,7.57242529296875,-1.7112641334533691,0.28365522623062134,1.5769875049591064
1684253066143451400,7.582451416015625,-2.043821096420288,-0.09857278317213058,1.6851447820663452
1684253066153477600,7.5924775390625,-2.3888893127441406,-0.4791446328163147,1.7085230350494385
1684253066163502300,7.60250244140625,-2.7423157691955566,-0.7833160161972046,1.661781907081604
1684253066173528600,7.612528564453125,-3.0803887844085693,-0.9486303925514221,1.5888222455978394
1684253066183554600,7.622554443359375,-3.375946283340454,-0.964939296245575,1.4816131591796875
1684253066193580500,7.63258056640625,-3.6252200603485107,-0.8444269895553589,1.3074225187301636
1684253066203605800,7.642605712890625,-3.8336915969848633,-0.5709167718887329,1.0337257385253906
1684253066213631700,7.6526318359375,-3.9726271629333496,-0.0800037607550621,0.6617013216018677
1684253066223657700,7.66265771484375,-3.9712090492248535,0.601758599281311,0.22610633075237274
1684253066233682700,7.6726826171875,-3.614891529083252,0.8146381378173828,-1.168317437171936
1684253066243708700,7.682708740234375,-2.3655147552490234,0.8942279815673828,-2.6154568195343018
1684253066253734700,7.692734619140625,-0.601756751537323,2.2949562072753906,-1.5241209268569946
1684253066263760600,7.7027607421875,0.726408839225769,1.8585089445114136,-0.4857325553894043
1684253066273785600,7.71278564453125,0.6467475891113281,-2.3074777126312256,-0.2974366843700409
1684253066283811600,7.7228115234375,0.1707916110754013,-5.659906387329102,-0.6185301542282104
1684253066293837600,7.732837646484375,-0.17309731245040894,-5.0318379402160645,-0.7497273683547974
1684253066303862500,7.742862548828125,-0.6087515950202942,-3.6041667461395264,-1.1613752841949463
1684253066313888500,7.752888427734375,-0.9791410565376282,-2.336878776550293,-1.4276010990142822
1684253066323914500,7.76291455078125,-1.2484257221221924,-1.1811636686325073,-1.4053161144256592
1684253066333940500,7.7729404296875,-1.450191855430603,0.0024777392391115427,-1.1808998584747314
1684253066343965400,7.78296533203125,-1.5641143321990967,1.064833402633667,-0.8695144057273865
1684253066353991400,7.792991455078125,-1.5133036375045776,1.6956895589828491,-0.5008351802825928
1684253066364017400,7.803017333984375,-1.214638590812683,2.071709394454956,-0.18257300555706024
1684253066374043400,7.81304345703125,-0.7826961874961853,2.433476686477661,0.01686314307153225
1684253066384068600,7.823068603515625,-0.3236922025680542,2.743856906890869,0.1135716587305069
1684253066394094600,7.833094482421875,0.0584956631064415,2.903343915939331,0.11228802055120468
1684253066404120600,7.84312060546875,0.22533847391605377,2.5263092517852783,0.037663765251636505
1684253066414145500,7.8531455078125,0.18326745927333832,1.5790539979934692,-0.09220129251480103
1684253066424171500,7.863171630859375,0.06921382248401642,0.911949634552002,-0.33610931038856506
1684253066434197800,7.87319775390625,-0.025497768074274063,0.8346719145774841,-0.6866888403892517
1684253066444223700,7.8832236328125,-0.07776719331741333,0.9887840151786804,-1.0599734783172607
1684253066454248700,7.893248779296875,-0.08458195626735687,1.094467282295227,-1.3547943830490112
1684253066464274700,7.903274658203125,-0.10804906487464905,0.9357189536094666,-1.4833800792694092
1684253066474300700,7.91330078125,-0.13101297616958618,0.5429196953773499,-1.4173451662063599
1684253066484325600,7.92332568359375,-0.13089795410633087,0.3232315182685852,-1.2202496528625488
1684253066494351600,7.9333515625,-0.02853669784963131,0.4940333366394043,-0.9732961058616638
1684253066504377600,7.943377685546875,0.1544691026210785,0.8535444140434265,-0.6998826265335083
1684253066514403600,7.953403564453125,0.36681413650512695,1.2056609392166138,-0.41634708642959595
1684253066524428500,7.963428466796875,0.5754419565200806,1.4427084922790527,-0.1216254010796547
1684253066534454500,7.97345458984375,0.7048790454864502,1.5538475513458252,0.14856508374214172
1684253066544480500,7.98348046875,0.7174087166786194,1.5489789247512817,0.39747312664985657
1684253066554506500,7.993506591796875,0.6284921765327454,1.4487258195877075,0.6290831565856934
1684253066564531500,8.003531494140624,0.4910997450351715,1.2802646160125732,0.8382211327552795
1684253066574557400,8.013557373046876,0.3337910771369934,1.065230131149292,1.027353048324585
1684253066584583400,8.02358349609375,0.19161467254161835,0.8236579895019531,1.200162649154663
1684253066594608600,8.033608642578125,0.07555758208036423,0.5953976511955261,1.3250744342803955
1684253066604634600,8.043634521484375,-0.029478831216692924,0.4251443147659302,1.417959213256836
1684253066614660600,8.05366064453125,-0.13645108044147491,0.2659304141998291,1.4839999675750732
1684253066624686600,8.0636865234375,-0.24326148629188538,0.0737709030508995,1.544675588607788
1684253066634711600,8.073711669921876,-0.3540990352630615,-0.13134868443012238,1.6032899618148804
1684253066644737500,8.083737548828125,-0.47682878375053406,-0.27835163474082947,1.6558582782745361
1684253066654763500,8.093763427734375,-0.5891813635826111,-0.36880162358283997,1.6939971446990967
1684253066664789800,8.103789794921875,-0.6551832556724548,-0.4049917757511139,1.7100282907485962
1684253066674814500,8.113814453125,-0.6865337491035461,-0.4089348614215851,1.6571972370147705
1684253066684840700,8.1238408203125,-0.7243561148643494,-0.49795791506767273,1.4058260917663574
1684253066694866700,8.13386669921875,-0.7614707350730896,-0.423222154378891,0.9592846035957336
1684253066704891600,8.1438916015625,-0.7263315916061401,0.05428224429488182,0.5107889175415039
1684253066714917600,8.153917724609375,-0.5956494808197021,0.8592091202735901,0.21174657344818115
1684253066724943600,8.163943603515625,-0.4102637767791748,1.6476073265075684,0.06645384430885315
1684253066734969600,8.173969482421874,-0.21808288991451263,2.101287841796875,0.04895448684692383
1684253066744994600,8.18399462890625,-0.07530593872070312,2.1439664363861084,0.12291201949119568
1684253066755020500,8.1940205078125,-0.006007554940879345,2.027836322784424,0.2602802813053131
1684253066765046500,8.204046630859375,-0.034739866852760315,1.8906227350234985,0.3634980022907257
1684253066775072500,8.214072509765625,-0.15354427695274353,1.6714802980422974,0.3444555997848511
1684253066785097500,8.224097412109375,-0.31684809923171997,1.4179190397262573,0.25509122014045715
1684253066795123500,8.23412353515625,-0.4835377633571625,1.1336250305175781,0.13249792158603668
1684253066805149200,8.244149169921876,-0.5998131036758423,0.8272939920425415,0.026892907917499542
1684253066815174100,8.254174072265625,-0.6549394726753235,0.4842708706855774,-0.03432704135775566
1684253066825200000,8.2642001953125,-0.658870279788971,0.11038916558027267,-0.023275721818208694
1684253066835226000,8.27422607421875,-0.5979046821594238,-0.26682230830192566,0.08601987361907959
1684253066845252000,8.284252197265625,-0.5282089114189148,-0.6126148104667664,0.29827558994293213
1684253066855277000,8.294277099609374,-0.5096848011016846,-0.8698258399963379,0.5495346784591675
1684253066865303000,8.304302978515626,-0.5260474681854248,-0.9894983172416687,0.7815631031990051
1684253066875329000,8.3143291015625,-0.5534349083900452,-0.9620150327682495,0.9693042039871216
1684253066885355000,8.32435498046875,-0.5990692377090454,-0.7916481494903564,1.109822154045105
1684253066895380000,8.3343798828125,-0.6749104857444763,-0.39520761370658875,1.0875122547149658
1684253066905406000,8.344406005859375,-0.7915449142456055,0.41839858889579773,0.7186774015426636
1684253066915432000,8.354431884765624,-0.8818460702896118,1.1915172338485718,0.23200470209121704
1684253066925457000,8.364456787109376,-0.8298472166061401,1.7244901657104492,-0.17540031671524048
1684253066935483000,8.37448291015625,-0.5557360649108887,2.2993991374969482,-0.4557693898677826
1684253066945508900,8.3845087890625,-0.09172345697879791,3.1612777709960938,-0.5749907493591309
1684253066955535000,8.39453515625,0.5437019467353821,3.988438606262207,-0.5767164826393127
1684253066965560000,8.40456005859375,1.2628628015518188,3.973536491394043,-0.5467026233673096
1684253066975586000,8.4145859375,2.0340750217437744,2.716427803039551,-0.3035794794559479
1684253066985612000,8.424612060546876,2.8729026317596436,0.226216122508049,0.19525481760501862
1684253066995638000,8.434637939453125,3.3846654891967773,-2.5924973487854004,0.5579374432563782
1684253067005663200,8.444663330078125,3.30407977104187,-4.989363670349121,0.2725379168987274
1684253067015689200,8.454689208984375,2.313826560974121,-4.096318244934082,-1.7540220022201538
1684253067025715200,8.464715087890625,1.2043603658676147,-2.104544162750244,-3.881565809249878
1684253067035740200,8.474740234375,0.9116719961166382,-1.735908031463623,-4.499737739562988
1684253067045766100,8.48476611328125,1.1335541009902954,-2.3820719718933105,-4.006767272949219
1684253067055792000,8.494792236328125,1.5372037887573242,-3.2858927249908447,-2.913278818130493
1684253067065818000,8.504818115234375,1.8842544555664062,-3.9053022861480713,-1.7952247858047485
1684253067075843000,8.514843017578125,1.985384225845337,-4.1203460693359375,-0.846497654914856
1684253067085869000,8.524869140625,1.880340337753296,-3.9619617462158203,-0.22001110017299652
1684253067095895000,8.53489501953125,1.559130072593689,-3.59942889213562,0.17663772404193878
1684253067105920000,8.544919921875,1.122952938079834,-3.1654815673828125,0.4665379822254181
1684253067115946000,8.554946044921875,0.6822741031646729,-2.67315411567688,0.7108926177024841
1684253067125972000,8.564971923828125,0.3061177730560303,-2.0409181118011475,0.9742183089256287
1684253067135998000,8.574998046875,0.017792748287320137,-1.2122390270233154,1.2890568971633911
1684253067146023000,8.58502294921875,-0.17558567225933075,-0.2677687406539917,1.6887826919555664
1684253067156049000,8.595048828125,-0.26011332869529724,1.0251994132995605,2.0805842876434326
1684253067166075000,8.605074951171876,-0.03132619336247444,3.5850348472595215,1.6587432622909546
1684253067176100900,8.615100830078125,0.07529719173908234,4.527144432067871,1.0108507871627808
1684253067186126000,8.6251259765625,0.07718484103679657,4.217179775238037,0.476725310087204
1684253067196152000,8.635152099609375,0.06450579315423965,3.2678399085998535,0.08056891709566116
1684253067206178000,8.645177978515624,0.0955466702580452,2.16213321685791,-0.27384862303733826
1684253067216204300,8.655204345703124,0.2274666130542755,0.886114239692688,-0.6245517730712891
1684253067226229000,8.66522900390625,0.5023678541183472,-0.39737337827682495,-0.9526912569999695
1684253067236255200,8.675255126953125,0.7647107839584351,-1.4620953798294067,-1.1500029563903809
1684253067246281200,8.68528125,0.9018688201904297,-1.9959295988082886,-1.246437907218933
1684253067256306200,8.69530615234375,0.8323225378990173,-2.1536803245544434,-1.4128609895706177
1684253067266332200,8.705332275390624,0.5952290892601013,-2.1689600944519043,-1.670859694480896
1684253067276358100,8.715358154296876,0.2914942502975464,-2.0366013050079346,-1.8334144353866577
1684253067286384000,8.725384033203126,0.03683045879006386,-1.6998522281646729,-1.8430991172790527
1684253067296409000,8.7354091796875,-0.09799154102802277,-1.2577149868011475,-1.8169766664505005
1684253067306435000,8.74543505859375,-0.003340630792081356,-0.9466816782951355,-1.8076746463775635
1684253067316461000,8.7554609375,0.412129282951355,-0.9592065215110779,-1.7812139987945557
1684253067326487000,8.765487060546874,1.0949615240097046,-1.2841711044311523,-1.6223478317260742
1684253067336512000,8.775511962890626,1.9443508386611938,-1.550718069076538,-1.2789076566696167
1684253067346538000,8.7855380859375,2.842378854751587,-1.4252804517745972,-0.8233785629272461
1684253067356564000,8.79556396484375,3.566965341567993,-0.8668906092643738,-0.5055451989173889
1684253067366589200,8.805589111328125,3.9215831756591797,0.11268488317728043,-0.5349443554878235
1684253067376615200,8.815615234375,3.916032314300537,1.159744381904602,-0.8042727708816528
1684253067386641200,8.82564111328125,3.6108522415161133,1.7400246858596802,-1.0777928829193115
1684253067396667000,8.8356669921875,2.993239164352417,1.3472084999084473,-1.1528383493423462
1684253067406692000,8.845692138671875,2.2051961421966553,0.5144128203392029,-0.8659569621086121
1684253067416718000,8.855718017578125,1.3843621015548706,-0.22768282890319824,-0.23817208409309387
1684253067426744000,8.865744140625,0.5995133519172668,-0.29562896490097046,0.4402218163013458
1684253067436770000,8.87577001953125,-0.10780975222587585,0.46803751587867737,0.9381450414657593
1684253067446795000,8.885794921875,-0.6840012669563293,1.6015175580978394,1.2272660732269287
1684253067456821000,8.895821044921876,-1.1631426811218262,2.322890043258667,1.3717771768569946
1684253067466847200,8.90584716796875,-1.5706335306167603,2.1936728954315186,1.464051365852356
1684253067476873200,8.915873291015625,-1.9175832271575928,1.3346041440963745,1.608901858329773
1684253067486898200,8.925898193359375,-2.2519655227661133,0.35780245065689087,1.830043077468872
1684253067496924200,8.935924072265625,-2.5819895267486572,-0.4247932732105255,2.0052061080932617
1684253067506950100,8.9459501953125,-2.8907697200775146,-1.1996300220489502,1.9543291330337524
1684253067516975000,8.95597509765625,-2.4485583305358887,-2.5591254234313965,-2.432523012161255
1684253067527001000,8.9660009765625,-0.6478660702705383,-5.168592929840088,-2.838413953781128
1684253067537027000,8.976027099609375,0.02503831312060356,-1.8645063638687134,0.23271994292736053
1684253067547053000,8.986052978515625,-0.13568203151226044,0.513881266117096,2.179095983505249
1684253067557078000,8.996078125,-0.8300229907035828,-1.3145686388015747,2.887608289718628
1684253067567104000,9.00610400390625,-1.823718547821045,-0.6571201086044312,2.7715320587158203
1684253067577130000,9.0161298828125,-2.48152756690979,0.19083359837532043,1.509727954864502
1684253067587156000,9.026156005859375,-2.1541497707366943,-0.2608265280723572,-0.3870321810245514
1684253067597181200,9.03618115234375,-1.622481346130371,0.3842611312866211,-0.9131156802177429
1684253067607207200,9.046207275390625,-1.1578997373580933,1.738186240196228,-0.9150129556655884
1684253067617233200,9.056233154296875,-0.8385397791862488,2.766040802001953,-0.7989172339439392
1684253067627259100,9.066259033203124,-0.6875044107437134,2.6582014560699463,-0.7177044749259949
1684253067637284000,9.0762841796875,-0.5358884930610657,2.5544228553771973,-0.6557902097702026
1684253067647310000,9.08631005859375,-0.3509518504142761,2.591912031173706,-0.6330078840255737
1684253067657336000,9.096336181640625,-0.22958171367645264,2.323961019515991,-0.6124504208564758
1684253067667361000,9.106361083984375,-0.15320776402950287,1.8024075031280518,-0.5281758904457092
1684253067677387000,9.116386962890624,-0.11156684160232544,1.235199213027954,-0.3555505573749542
1684253067687413000,9.1264130859375,-0.14359574019908905,0.7323188781738281,-0.13203078508377075
1684253067697439000,9.13643896484375,-0.2687416672706604,0.3504897654056549,0.07111567258834839
1684253067707464000,9.1464638671875,-0.4739862084388733,0.11144649237394333,0.24124282598495483
1684253067717490000,9.156489990234375,-0.6443486213684082,-0.057615771889686584,0.38672465085983276
1684253067727516200,9.16651611328125,-0.7906002998352051,-0.2843925952911377,0.5391865372657776
1684253067737542100,9.176542236328125,-0.8821808099746704,-0.5983611941337585,0.6848412156105042
1684253067747567000,9.186567138671874,-0.9151906371116638,-0.9677318930625916,0.8116267323493958
1684253067757593000,9.196593017578126,-0.8991690278053284,-1.2845714092254639,0.9014765024185181
1684253067767619000,9.206619140625,-0.8590156435966492,-1.5079244375228882,0.9225642681121826
1684253067777645000,9.21664501953125,-0.8046325445175171,-1.6872910261154175,0.886003315448761
1684253067787670000,9.226669921875,-0.7562911510467529,-1.8053923845291138,0.7687053680419922
1684253067797696000,9.236696044921874,-0.779740035533905,-1.8144786357879639,0.6217164993286133
1684253067807722200,9.24672216796875,-0.8786729574203491,-1.866702675819397,0.3710429072380066
1684253067817747200,9.256747314453126,-1.1910282373428345,-1.859442114830017,0.030020607635378838
1684253067827773400,9.2667734375,-1.7816472053527832,-1.5265212059020996,-0.1953742355108261
1684253067837799400,9.27679931640625,-2.4673516750335693,-1.233245849609375,-0.24003279209136963
1684253067847825400,9.286825439453125,-3.015599012374878,-1.1601887941360474,-0.16450870037078857
1684253067857850400,9.296850341796874,-3.430896520614624,-0.984688401222229,-0.032839085906744
1684253067867876400,9.30687646484375,-3.7376866340637207,-0.5614444017410278,0.014220408163964748
1684253067877902300,9.31690234375,-4.020692348480225,0.1020296961069107,-0.03135906159877777
1684253067887928300,9.32692822265625,-4.199212551116943,0.8744481205940247,0.06591348350048065
1684253067897953300,9.336953369140625,-4.210484027862549,1.3998712301254272,0.1980249136686325
1684253067907979300,9.346979248046875,-4.122944355010986,1.4581613540649414,0.1304299533367157
1684253067918005200,9.357005126953124,-3.7922215461730957,0.8125923275947571,-0.12503750622272491
1684253067928030200,9.3670302734375,-3.0561628341674805,-0.3729780614376068,-0.4540214538574219
1684253067938056200,9.37705615234375,-1.8870160579681396,-1.50294828414917,-0.5375304222106934
1684253067948082200,9.387082275390625,-0.6494662165641785,-2.1552317142486572,-0.259883850812912
1684253067958108200,9.397108154296875,0.36346444487571716,-2.440692186355591,0.25240927934646606
1684253067968133000,9.407133056640625,1.0548919439315796,-2.457796335220337,0.7245898246765137
1684253067978159000,9.4171591796875,1.421491265296936,-2.3575642108917236,0.9405444860458374
1684253067988185000,9.42718505859375,1.5565693378448486,-2.101675033569336,0.9454426765441895
1684253067998211000,9.437211181640626,1.6297506093978882,-1.6912325620651245,0.7959903478622437
1684253068008236300,9.447236328125,1.7399815320968628,-1.0185714960098267,0.6016342043876648
1684253068018262300,9.45726220703125,1.9060165882110596,-0.10482170432806015,0.39371800422668457
1684253068028288000,9.4672880859375,2.1042585372924805,0.9551960229873657,0.16341568529605865
1684253068038314200,9.477314208984374,2.353543996810913,2.0778067111968994,-0.09179238229990005
1684253068048339200,9.487339111328126,2.5763533115386963,3.2499358654022217,-0.3442920744419098
1684253068058365400,9.497365478515626,2.5003020763397217,4.15282678604126,-0.2898125946521759
1684253068068391400,9.507391357421875,2.080394983291626,4.441237449645996,0.1295868456363678
1684253068078416400,9.51741650390625,1.4652621746063232,4.444736480712891,0.6416658163070679
1684253068088442400,9.5274423828125,0.8418353199958801,4.704316139221191,0.9701699018478394
1684253068098468400,9.53746826171875,0.2659086585044861,5.0703253746032715,1.1003268957138062
1684253068108494300,9.547494384765624,-0.22019898891448975,5.477065086364746,1.0080506801605225
1684253068118519300,9.557519287109375,-0.6433635354042053,5.7588276863098145,0.8163204193115234
1684253068128545300,9.567545166015625,-0.6326276063919067,5.094887733459473,0.39503297209739685
1684253068138571300,9.5775712890625,0.33943971991539,1.8852676153182983,-0.7648008465766907
1684253068148597200,9.58759716796875,0.5904877185821533,-0.3845605254173279,-1.465333104133606
1684253068158622200,9.597622314453124,0.04694134742021561,-1.162308692932129,-1.944090723991394
1684253068168648200,9.607648193359376,-0.5790684223175049,-1.1013222932815552,-2.4523932933807373
1684253068178674200,9.617674072265626,-1.0945014953613281,-0.6254133582115173,-2.924267053604126
1684253068188700200,9.6277001953125,-1.3985260725021362,0.1583915799856186,-3.2627203464508057
1684253068198725000,9.63772509765625,-1.3632475137710571,1.2444062232971191,-3.230377435684204
1684253068208751000,9.647751220703125,-0.9627355337142944,2.707505941390991,-2.568288564682007
1684253068218777000,9.657777099609374,0.024129441007971764,4.118321895599365,-1.3484125137329102
1684253068228803000,9.667802978515626,1.6150978803634644,4.4721293449401855,0.24615947902202606
1684253068238828300,9.677828369140625,2.7953429222106934,2.2623555660247803,1.1762938499450684
1684253068248854300,9.687854248046875,2.506563186645508,0.7416709065437317,1.8182666301727295
1684253068258880300,9.69788037109375,1.521747350692749,-0.3821471333503723,1.790434718132019
1684253068268905200,9.7079052734375,0.6122080683708191,-1.678375244140625,1.1156425476074219
1684253068278931200,9.71793115234375,-0.09102755039930344,-2.582273006439209,0.2640523910522461
1684253068288957200,9.727957275390626,-0.8142125010490417,-2.4748013019561768,-0.5755506157875061
1684253068298983400,9.7379833984375,-1.716800332069397,-1.9061224460601807,-1.4549005031585693
1684253068309008100,9.748008056640625,-2.4030344486236572,-1.6357139348983765,-2.145639181137085
1684253068319034400,9.758034423828125,-2.431666612625122,-2.378852128982544,-1.8199154138565063
1684253068329060400,9.768060302734375,-1.753737211227417,-4.015275955200195,-0.3547447621822357
1684253068339086300,9.77808642578125,-1.5493552684783936,-3.9922280311584473,0.33220192790031433
1684253068349111300,9.788111328125,-1.7713749408721924,-2.558785915374756,0.2570304274559021
1684253068359137300,9.79813720703125,-1.9997800588607788,-0.4473002851009369,-0.18163615465164185
1684253068369163300,9.808163330078125,-2.0085792541503906,2.3863611221313477,-0.9829694032669067
1684253068379189200,9.818189208984375,-1.7054272890090942,4.408231258392334,-0.982203483581543
1684253068389214200,9.828214111328125,-1.1966884136199951,4.921087265014648,-0.2546778619289398
1684253068399240200,9.838240234375,-0.7895914912223816,4.742722511291504,0.5516945719718933
1684253068409266200,9.84826611328125,-0.5698885917663574,4.481419086456299,1.073362946510315
1684253068419292200,9.858292236328126,-0.4619738459587097,3.7582366466522217,1.3614405393600464
1684253068429317000,9.868317138671875,-0.3511604964733124,1.407092571258545,1.3774632215499878
1684253068439343000,9.878343017578125,-0.06217052787542343,-0.13523080945014954,0.8721875548362732
1684253068449369000,9.888369140625,0.4357759654521942,-2.1556403636932373,0.08157957345247269
1684253068459394300,9.898394287109374,0.9609518647193909,-3.536015510559082,-0.8834962248802185
1684253068469420300,9.908420166015626,1.3232375383377075,-4.0806355476379395,-1.663222312927246
1684253068479446300,9.9184462890625,1.4697763919830322,-3.897437810897827,-1.8805314302444458
1684253068489472300,9.92847216796875,1.4986190795898438,-3.1742312908172607,-1.5498031377792358
1684253068499497200,9.938497314453125,1.460479974746704,-2.2814149856567383,-0.8994131088256836
1684253068509523200,9.948523193359375,1.4031225442886353,-1.3611443042755127,-0.22305266559123993
1684253068519549200,9.958549072265624,1.3412724733352661,-0.7610933780670166,0.2676488757133484
1684253068529575400,9.968575439453126,1.396472454071045,-0.4858870804309845,0.48745962977409363
1684253068539600100,9.97860009765625,1.587361216545105,-0.27500972151756287,0.4397831857204437
1684253068549626400,9.98862646484375,1.8484326601028442,-0.10106899589300156,0.2776147723197937
1684253068559652400,9.99865234375,2.0802276134490967,0.12656496465206146,0.19842593371868134
1684253068569678300,10.00867822265625,2.2818684577941895,0.36313512921333313,0.31405726075172424
1684253068579703300,10.018703369140624,2.4826645851135254,0.46988579630851746,0.6293965578079224
1684253068589729300,10.028729248046876,2.6814188957214355,0.5491752624511719,1.0426106452941895
1684253068599755300,10.03875537109375,2.8388614654541016,0.7291937470436096,1.4819046258926392
1684253068609781200,10.04878125,2.897616386413574,1.0186641216278076,1.8371881246566772
1684253068619806200,10.05880615234375,2.9314956665039062,1.1331502199172974,2.0084116458892822
1684253068629832200,10.068832275390625,2.901193618774414,1.3354318141937256,2.038325786590576
1684253068639858200,10.078858154296874,2.8279547691345215,1.6700204610824585,1.8823357820510864
1684253068649884200,10.08888427734375,2.791490077972412,1.9141422510147095,1.63625967502594
1684253068659909400,10.098909423828125,2.5775673389434814,1.9525467157363892,1.4730007648468018
1684253068669935000,10.10893505859375,2.2244298458099365,2.219639539718628,1.3911259174346924
1684253068679961000,10.118961181640625,1.8380104303359985,2.6697402000427246,1.2606205940246582
1684253068689987000,10.128987060546875,1.4412617683410645,2.965930700302124,1.1225638389587402
1684253068700012300,10.13901220703125,0.9543771743774414,3.1659138202667236,0.950754702091217
1684253068710038300,10.149038330078126,0.42076343297958374,3.4504435062408447,0.4770190119743347
1684253068720064300,10.159064208984375,0.15086030960083008,3.429725170135498,-0.5111135840415955
1684253068730089200,10.169089111328125,0.3945648968219757,2.550936460494995,-1.6252751350402832
1684253068740115200,10.179115234375,0.6449574828147888,1.048484444618225,-2.0154032707214355
1684253068750141200,10.18914111328125,0.7889307141304016,-0.13966906070709229,-1.833846926689148
1684253068760167200,10.199167236328124,0.9054940938949585,-0.7686616778373718,-1.3771151304244995
1684253068770192100,10.209192138671876,1.2808337211608887,-0.8692706227302551,-0.7087101340293884
1684253068780218000,10.219218017578125,1.6634570360183716,-0.25738462805747986,0.041194431483745575
1684253068790244400,10.229244384765625,2.0093038082122803,0.7275119423866272,0.8000317215919495
1684253068800270300,10.239270263671875,2.162118911743164,1.8501431941986084,1.4611811637878418
1684253068810294500,10.24929443359375,2.079160451889038,2.5906245708465576,2.0183749198913574
1684253068820320800,10.25932080078125,1.7344422340393066,3.0292625427246094,2.431636333465576
1684253068830346800,10.2693466796875,1.249620795249939,3.1086926460266113,2.649374008178711
1684253068840372700,10.279372802734375,0.5301803946495056,2.565153121948242,2.557541608810425
1684253068850398000,10.28939794921875,-0.08987918496131897,1.0329041481018066,2.1070358753204346
1684253068860423700,10.299423583984375,-0.177500382065773,-1.0655138492584229,1.4852007627487183
1684253068870449700,10.30944970703125,0.3375409245491028,-2.243734836578369,1.2130039930343628
1684253068880475600,10.3194755859375,0.6395151615142822,-2.5485424995422363,1.2108886241912842
1684253068890500900,10.3295009765625,1.1726057529449463,-2.7060344219207764,1.5816242694854736
1684253068900526800,10.33952685546875,1.3912276029586792,-2.2084832191467285,2.1648733615875244
1684253068910552800,10.349552734375,1.1937239170074463,-1.5992270708084106,2.550194501876831
1684253068920577800,10.359577880859375,0.9821591973304749,-0.9375752806663513,2.566542625427246
1684253068930603800,10.369603759765624,0.9009435176849365,0.1027359664440155,2.3661880493164062
1684253068940629800,10.379629638671876,0.7640218734741211,0.9846782684326172,1.9104511737823486
1684253068950655700,10.38965576171875,0.6155877113342285,1.5184253454208374,1.468601107597351
1684253068960680700,10.3996806640625,0.39260706305503845,1.5254476070404053,1.1739468574523926
1684253068970706700,10.409706787109375,0.25817784667015076,0.9406755566596985,1.0838606357574463
1684253068980732700,10.419732666015625,0.21972154080867767,0.4089632034301758,1.1233981847763062
1684253068990758700,10.429758544921874,0.4219426214694977,-0.19803562760353088,1.2039234638214111
1684253069000783600,10.43978369140625,0.6925317049026489,-0.48056215047836304,1.30522620677948
1684253069010809600,10.4498095703125,0.8790656924247742,-0.3663769066333771,1.358052134513855
1684253069020835600,10.459835693359375,1.1309083700180054,0.20160265266895294,1.4793235063552856
1684253069030861600,10.469861572265625,1.5741469860076904,0.6723984479904175,1.7878316640853882
1684253069040886500,10.479886474609375,2.031015396118164,0.9163453578948975,2.0015814304351807
1684253069050912500,10.48991259765625,2.2780003547668457,0.8314399719238281,1.7268075942993164
1684253069060938800,10.499938720703126,2.1992361545562744,0.3513207733631134,1.0474762916564941
1684253069070964700,10.50996484375,2.1626462936401367,-0.28316113352775574,0.5315948724746704
1684253069080990000,10.519989990234375,2.221251964569092,-0.8692821264266968,0.23523670434951782
1684253069091016000,10.530015869140625,2.2522828578948975,-1.4011774063110352,-0.026191504672169685
1684253069101042000,10.5400419921875,2.314283847808838,-1.9081040620803833,-0.3786398470401764
1684253069111067600,10.550067626953124,2.5080697536468506,-2.3086066246032715,-0.7804868221282959
1684253069121092900,10.5600927734375,2.8315563201904297,-2.6312193870544434,-1.0504357814788818
1684253069131118800,10.570118896484376,3.0128350257873535,-2.7005422115325928,-1.1028512716293335
1684253069141144800,10.580144775390625,3.13179087638855,-2.6464715003967285,-1.0192967653274536
1684253069151170800,10.5901708984375,3.325988292694092,-2.696174144744873,-0.9408939480781555
1684253069161195800,10.60019580078125,3.5483133792877197,-2.8575825691223145,-0.9262635707855225
1684253069171221800,10.6102216796875,3.738280773162842,-3.1172688007354736,-0.9684205055236816
1684253069181247700,10.620247802734376,3.929574966430664,-3.53420090675354,-0.9876304268836975
1684253069191272700,10.630272705078125,4.00520133972168,-3.973233938217163,-0.9266037344932556
1684253069201298700,10.640298583984375,4.046026229858398,-4.309831619262695,-0.9091504812240601
1684253069211324700,10.65032470703125,4.193037033081055,-4.292335510253906,-1.0579966306686401
1684253069221350700,10.6603505859375,4.623173713684082,-3.5416483879089355,-1.3477400541305542
1684253069231375600,10.670375732421874,5.3075103759765625,-2.5451314449310303,-1.6270396709442139
1684253069241401600,10.680401611328126,6.070157527923584,-2.4178378582000732,-1.8355294466018677
1684253069251427600,10.690427490234375,6.7382001876831055,-2.2751383781433105,-2.0199756622314453
1684253069261453600,10.70045361328125,7.1651434898376465,-2.455556631088257,-2.1381642818450928
1684253069271478500,10.710478515625,7.32217264175415,-3.0506949424743652,-2.218942642211914
1684253069281504500,10.72050439453125,7.23334264755249,-3.990561008453369,-2.2731313705444336
1684253069291530800,10.73053076171875,6.964296340942383,-5.166189193725586,-2.306914806365967
1684253069301556700,10.740556640625,6.523199558258057,-6.346723556518555,-2.29382061958313
1684253069311582000,10.75058203125,5.503329277038574,-6.844500541687012,-1.829569697380066
1684253069321608000,10.76060791015625,4.234527111053467,-7.757168769836426,-1.2470647096633911
1684253069331634000,10.770634033203125,3.0032527446746826,-8.306028366088867,-0.613158106803894
1684253069341660000,10.780659912109375,2.062528610229492,-8.769817352294922,-0.048880621790885925
1684253069351684900,10.790684814453124,1.5270891189575195,-9.021952629089355,0.34059926867485046
1684253069361710800,10.8007109375,1.7713086605072021,-6.446349620819092,-0.31019580364227295
1684253069371736800,10.81073681640625,1.9506583213806152,-3.8059659004211426,-0.8757241368293762
1684253069381762800,10.8207626953125,1.68153715133667,-3.047638177871704,-0.4493182301521301
1684253069391787800,10.830787841796875,1.3988548517227173,-3.103205680847168,0.1841239631175995
1684253069401813800,10.840813720703125,1.2169934511184692,-2.7535667419433594,0.6229878664016724
1684253069411839700,10.85083984375,1.061524748802185,-2.008575439453125,0.8245988488197327
1684253069421865700,10.86086572265625,0.7402542233467102,-1.519433617591858,1.077035903930664
1684253069431890700,10.870890625,0.41552937030792236,-1.513469934463501,1.4427651166915894
1684253069441916700,10.880916748046875,0.1575135439634323,-1.9402601718902588,1.7722055912017822
1684253069451942700,10.890942626953125,-0.14064887166023254,-2.399289608001709,1.909596562385559
1684253069461968600,10.90096875,-0.5057269930839539,-2.6336381435394287,1.7775259017944336
1684253069471993600,10.91099365234375,-0.8158536553382874,-2.568600654602051,1.490631341934204
1684253069482019600,10.92101953125,-0.9474045038223267,-2.292302131652832,1.1653437614440918
1684253069492045600,10.931045654296875,-0.9381452202796936,-2.0141539573669434,0.8890779614448547
1684253069502071600,10.941071533203125,-0.8955010771751404,-1.8481098413467407,0.7110539078712463
1684253069512096800,10.9510966796875,-0.8763017654418945,-1.7593462467193604,0.6274056434631348
1684253069522122500,10.96112255859375,-0.874553918838501,-1.651702880859375,0.6512478590011597
1684253069532148700,10.971148681640624,-0.8676097393035889,-1.5349619388580322,0.7494192123413086
1684253069542174700,10.9811748046875,-0.9537100195884705,-1.323020100593567,0.8639659881591797
1684253069552200000,10.991199951171875,-1.078434944152832,-1.085925579071045,0.9440094828605652
1684253069562226000,11.001225830078125,-1.145472526550293,-0.9466261863708496,1.0114496946334839
1684253069572252000,11.011251953125,-1.1903223991394043,-0.8054227232933044,1.1452571153640747
1684253069582276900,11.02127685546875,-1.201548457145691,-0.19635027647018433,1.1630600690841675
1684253069592302800,11.031302734375,-1.1120015382766724,0.5187776684761047,0.786379337310791
1684253069602328800,11.041328857421876,-1.0017095804214478,0.4284301698207855,0.4567423164844513
1684253069612354800,11.051354736328125,-0.9767245650291443,-0.23843857645988464,0.2975934147834778
