time,seconds_elapsed,z,y,x
1684253166881895400,0.0128955078125,-0.18124693632125854,-3.111917495727539,-0.834287703037262
1684253166891921400,0.02292138671875,0.05575842037796974,-2.6104300022125244,-0.4203837215900421
1684253166901947100,0.032947021484375,0.3973281979560852,-1.8541884422302246,0.08879023790359497
1684253166911972400,0.042972412109375,0.7153024077415466,-0.8274277448654175,0.6210626363754272
1684253166921998300,0.052998291015625,0.8321590423583984,0.46072614192962646,1.0996971130371094
1684253166932024300,0.0630244140625,0.7576728463172913,1.9220324754714966,1.5517559051513672
1684253166942049300,0.07304931640625,0.5909592509269714,3.3344106674194336,1.989881992340088
1684253166952075300,0.0830751953125,0.5750281810760498,4.595280647277832,2.423891305923462
1684253166962101200,0.093101318359375,0.7352651357650757,5.555800914764404,2.838221788406372
1684253166972127200,0.103127197265625,1.101050853729248,5.654031276702881,2.910640001296997
1684253166982152200,0.113152099609375,1.4679267406463623,4.090814113616943,2.2144651412963867
1684253166992178200,0.12317822265625,1.8415453433990479,1.4548335075378418,1.030665636062622
1684253167002204200,0.1332041015625,1.9629580974578857,-1.038873314857483,0.07217791676521301
1684253167012229000,0.14322900390625,1.7265729904174805,-2.4475419521331787,-0.6479767560958862
1684253167022255000,0.153255126953125,0.9993986487388611,-3.3709115982055664,-0.7899787425994873
1684253167032281000,0.163281005859375,-0.5404045581817627,-0.8390737175941467,-0.28714171051979065
1684253167042306300,0.173306396484375,-1.2775368690490723,-0.03965216502547264,0.36677804589271545
1684253167052332300,0.183332275390625,-1.1071739196777344,0.978587806224823,0.8392126560211182
1684253167062358000,0.19335791015625,-1.0822428464889526,1.7451363801956177,1.1610817909240723
1684253167072383200,0.20338330078125,-1.6320947408676147,2.317352771759033,1.4236282110214233
1684253167082409200,0.2134091796875,-2.4930410385131836,2.699354648590088,1.6900969743728638
1684253167092435200,0.223435302734375,-3.25506329536438,3.021928310394287,1.938201904296875
1684253167102460200,0.233460205078125,-3.7152857780456543,3.9097766876220703,2.1144590377807617
1684253167112486100,0.243486083984375,-3.950510025024414,5.098297595977783,2.1944210529327393
1684253167122512100,0.25351220703125,-4.266180992126465,5.902096271514893,2.2495789527893066
1684253167132537000,0.263537109375,-4.6356072425842285,6.438226699829102,2.343848705291748
1684253167142563000,0.27356298828125,-4.964986324310303,6.788223743438721,2.445525646209717
1684253167152589000,0.283589111328125,-5.207052707672119,6.885768890380859,2.5340659618377686
1684253167162614000,0.293614013671875,-5.415683746337891,6.70477294921875,2.5188043117523193
1684253167172640000,0.303639892578125,-5.58941650390625,6.341907024383545,2.35221004486084
1684253167182666200,0.313666259765625,-5.718792915344238,6.083803176879883,2.0488109588623047
1684253167192691200,0.323691162109375,-5.793883323669434,5.784493923187256,1.6677314043045044
1684253167202717200,0.33371728515625,-5.870254993438721,5.142749309539795,1.1744476556777954
1684253167212743200,0.3437431640625,-5.944514751434326,4.404905319213867,0.6167431473731995
1684253167222768000,0.35376806640625,-5.973624229431152,3.645782232284546,0.07292027771472931
1684253167232794400,0.36379443359375,-5.94049072265625,2.9930732250213623,-0.4253925681114197
1684253167242820400,0.3738203125,-5.855957508087158,2.543172836303711,-0.8111820220947266
1684253167252845300,0.38384521484375,-5.815075874328613,2.335050106048584,-1.0450160503387451
1684253167262871300,0.393871337890625,-5.964203357696533,2.3658292293548584,-1.0650355815887451
1684253167272897300,0.403897216796875,-6.232452869415283,2.5449330806732178,-0.9042744636535645
1684253167282922200,0.413922119140625,-6.4449143409729,2.935865640640259,-0.5461864471435547
1684253167292948200,0.4239482421875,-6.606370449066162,3.2361342906951904,-0.07068198919296265
1684253167302974200,0.43397412109375,-6.768695831298828,3.4124066829681396,0.4774157702922821
1684253167312999200,0.443999267578125,-6.917858123779297,3.676640510559082,1.1031748056411743
1684253167323025200,0.454025146484375,-6.966972827911377,3.6925134658813477,1.7469569444656372
1684253167333051100,0.464051025390625,-6.8360795974731445,3.228163480758667,2.2649946212768555
1684253167343077000,0.4740771484375,-6.530293941497803,2.619309425354004,2.5657753944396973
1684253167353102000,0.48410205078125,-6.154458999633789,1.8846880197525024,2.5757358074188232
1684253167363128000,0.494128173828125,-5.696430683135986,1.069743275642395,2.3163909912109375
1684253167373154000,0.504154052734375,-5.078970432281494,0.20929913222789764,1.828074336051941
1684253167383179300,0.51417919921875,-4.314612865447998,-0.4782189428806305,1.2082031965255737
1684253167393205200,0.524205322265625,-3.579049587249756,-0.9037574529647827,0.6594172716140747
1684253167403231200,0.534231201171875,-2.8887710571289062,-1.1153701543807983,0.3624774217605591
1684253167413256200,0.544256103515625,-2.211397647857666,-1.3240933418273926,0.307376891374588
1684253167423282200,0.5542822265625,-1.6123812198638916,-1.5615941286087036,0.40419527888298035
1684253167433308200,0.56430810546875,-1.0823642015457153,-1.8502613306045532,0.5364742279052734
1684253167443333000,0.5743330078125,-0.5546466708183289,-2.097435235977173,0.6470532417297363
1684253167453359000,0.584359130859375,0.004936976823955774,-2.253235101699829,0.7172251343727112
1684253167463385000,0.594385009765625,0.5327144265174866,-2.313961982727051,0.7036802172660828
1684253167473410000,0.60441015625,1.0115910768508911,-2.224520206451416,0.6475405097007751
1684253167483436000,0.61443603515625,1.4710347652435303,-1.9721691608428955,0.5983668565750122
1684253167493462000,0.6244619140625,1.873569369316101,-1.6406694650650024,0.5352784395217896
1684253167503487200,0.6344873046875,2.332636594772339,-1.2439309358596802,0.5162162780761719
1684253167513513200,0.64451318359375,2.6715970039367676,-0.8192312717437744,0.6044899225234985
1684253167523539000,0.6545390625,2.7536919116973877,-0.6253806352615356,0.7238242030143738
1684253167533564200,0.664564208984375,2.576079845428467,-0.4983140528202057,0.918003261089325
1684253167543590100,0.674590087890625,2.160909652709961,-0.5519037842750549,0.6582314372062683
1684253167553616400,0.684616455078125,1.286985993385315,-0.21119090914726257,-1.6025160551071167
1684253167563641000,0.69464111328125,0.5953649878501892,-0.02259812504053116,-2.501250982284546
1684253167573667300,0.704667236328125,0.3930979073047638,-0.006974424701184034,-2.400515079498291
1684253167583693300,0.714693359375,0.7948061227798462,0.24523669481277466,-1.7028799057006836
1684253167593718300,0.72471826171875,1.217110514640808,0.6456370949745178,-0.9289975166320801
1684253167603744300,0.734744140625,1.579120397567749,0.5603120923042297,-0.6082764863967896
1684253167613770200,0.744770263671875,1.8163771629333496,0.3038531541824341,-0.3175825774669647
1684253167623795200,0.754795166015625,1.8427417278289795,0.27741703391075134,-0.1921490728855133
1684253167633821200,0.7648212890625,1.487226128578186,0.47342410683631897,-0.2540995180606842
1684253167643847200,0.77484716796875,0.8445294499397278,0.4046053886413574,-0.48733025789260864
1684253167653872000,0.7848720703125,0.32735660672187805,0.3569057583808899,-0.8431373834609985
1684253167663898000,0.794898193359375,0.01949867606163025,0.21340739727020264,-1.194689393043518
1684253167673924000,0.804924072265625,-0.3621237874031067,0.4622606337070465,-1.6112135648727417
1684253167683949300,0.81494921875,-0.8169869184494019,0.7400928139686584,-1.807160496711731
1684253167693975300,0.824975341796875,-1.4471105337142944,1.0033174753189087,-1.7686429023742676
1684253167704001300,0.835001220703125,-2.118265151977539,1.3070826530456543,-1.517642855644226
1684253167714027300,0.84502734375,-2.706853151321411,2.058745861053467,-1.0995380878448486
1684253167724052200,0.85505224609375,-3.1465559005737305,2.6961259841918945,-0.7147685289382935
1684253167734078200,0.865078125,-3.560486316680908,2.821575880050659,-0.5758069157600403
1684253167744104200,0.875104248046875,-4.061605453491211,2.7130627632141113,-0.638441801071167
1684253167754129200,0.885129150390625,-4.558530330657959,2.9230077266693115,-0.6914349794387817
1684253167764155100,0.895155029296875,-5.094839096069336,3.46212100982666,-0.5962479114532471
1684253167774181000,0.90518115234375,-5.737658977508545,4.060031890869141,-0.4208054840564728
1684253167784206000,0.9152060546875,-6.169615268707275,4.5284833908081055,-0.09747424721717834
1684253167794232000,0.925232177734375,-5.856518268585205,4.2958903312683105,0.5712957978248596
1684253167804258000,0.935258056640625,-4.13814115524292,1.343277931213379,2.537550210952759
1684253167814283000,0.945282958984375,-2.3063340187072754,-0.6745074987411499,4.213597297668457
1684253167824309000,0.95530908203125,-1.6893856525421143,-0.8386919498443604,4.763579368591309
1684253167834335000,0.9653349609375,-1.74014151096344,-0.714904248714447,4.653294086456299
1684253167844360200,0.975360107421875,-1.952242136001587,-0.977200984954834,4.180119514465332
1684253167854386200,0.98538623046875,-2.049145221710205,-1.7708312273025513,3.4301633834838867
1684253167864412200,0.995412109375,-1.8651715517044067,-2.704831600189209,2.521247386932373
1684253167874437000,1.00543701171875,-1.6024930477142334,-3.6993422508239746,1.868309497833252
1684253167884463000,1.015463134765625,-1.1409231424331665,-3.977745294570923,1.2738887071609497
1684253167894489300,1.0254892578125,-0.662095308303833,-3.684685468673706,0.8520426154136658
1684253167904514000,1.03551416015625,-0.35421958565711975,-3.023426055908203,0.5420301556587219
1684253167914540000,1.0455400390625,-0.2165469378232956,-2.2707560062408447,0.33259832859039307
1684253167924566000,1.05556591796875,-0.3366086781024933,-1.9521127939224243,0.029489636421203613
1684253167934591000,1.065591064453125,-0.32125768065452576,-1.4905123710632324,-0.17166265845298767
1684253167944617000,1.075616943359375,-0.08634375035762787,-1.0140055418014526,-0.23793244361877441
1684253167954643000,1.085642822265625,0.11240769922733307,-0.6377243399620056,-0.24453255534172058
1684253167964668200,1.095668212890625,0.008945781737565994,-0.5929468274116516,-0.34731870889663696
1684253167974694000,1.10569384765625,-0.33537060022354126,-0.6786449551582336,-0.4738907516002655
1684253167984720000,1.115719970703125,-0.8287104964256287,-0.8183306455612183,-0.592872142791748
1684253167994745000,1.1257451171875,-1.3272221088409424,-0.8623532652854919,-0.6659554243087769
1684253168004771000,1.13577099609375,-1.6753313541412354,-0.8520041704177856,-0.7207114100456238
1684253168014797000,1.145797119140625,-1.9123625755310059,-0.7484610080718994,-0.7811574339866638
1684253168024822000,1.155822021484375,-2.01357364654541,-0.499153196811676,-0.8397424817085266
1684253168034848000,1.165847900390625,-2.0780694484710693,-0.1027376651763916,-0.8819295763969421
1684253168044874000,1.1758740234375,-2.2379305362701416,0.36928924918174744,-0.9032059907913208
1684253168054900200,1.185900146484375,-2.5278966426849365,0.9692806005477905,-0.8424749970436096
1684253168064925000,1.195925048828125,-2.8904192447662354,1.537706971168518,-0.779511570930481
1684253168074951200,1.205951171875,-3.210212230682373,2.0324394702911377,-0.6753692030906677
1684253168084977200,1.21597705078125,-3.4166643619537354,2.529365301132202,-0.4572097361087799
1684253168095002000,1.226002197265625,-3.298219919204712,2.8100545406341553,-0.24644502997398376
1684253168105028000,1.236028076171875,-2.839552402496338,3.0026605129241943,-0.06537569314241409
1684253168115054000,1.24605419921875,-2.2394182682037354,3.380997896194458,0.15639984607696533
1684253168125079000,1.2560791015625,-1.4433279037475586,3.799246072769165,0.3814467191696167
1684253168135105000,1.26610498046875,-0.5450578331947327,4.00827693939209,0.48129528760910034
1684253168145131000,1.276131103515625,0.4566256105899811,4.116580009460449,0.44605159759521484
1684253168155156200,1.28615625,1.4898653030395508,4.156232833862305,0.3212446868419647
1684253168165182200,1.29618212890625,2.5846123695373535,4.194842338562012,0.08162824809551239
1684253168175208200,1.306208251953125,3.627281427383423,4.009745121002197,-0.31993356347084045
1684253168185233200,1.316233154296875,4.456389427185059,2.7738912105560303,-0.9243270754814148
1684253168195259100,1.326259033203125,5.119043827056885,0.23303310573101044,-1.4549578428268433
1684253168205285000,1.33628515625,5.643490314483643,-2.264336109161377,-1.785201907157898
1684253168215310000,1.34631005859375,5.795206069946289,-4.1759772300720215,-1.953020453453064
1684253168225336000,1.356336181640625,5.523501873016357,-5.518421173095703,-2.061113119125366
1684253168235362000,1.366362060546875,5.024324893951416,-6.429182052612305,-1.9965541362762451
1684253168245387000,1.376386962890625,4.331442832946777,-6.852071762084961,-1.8805185556411743
1684253168255413000,1.3864130859375,3.591782331466675,-6.922569274902344,-1.7965447902679443
1684253168265439000,1.39643896484375,2.901090145111084,-6.716472148895264,-1.6307120323181152
1684253168275464000,1.4064638671875,2.1546409130096436,-6.084659576416016,-1.3239339590072632
1684253168285490000,1.416489990234375,1.3878719806671143,-4.247340202331543,-1.085534930229187
1684253168295516000,1.426515869140625,0.634600818157196,-2.0695793628692627,-1.1020779609680176
1684253168305541000,1.436541015625,-0.039426229894161224,-0.5823009610176086,-1.187225341796875
1684253168315567000,1.446567138671875,-0.5533137917518616,0.01919310912489891,-1.2231277227401733
1684253168325593000,1.456593017578125,-0.8454321026802063,0.07860606163740158,-1.152071475982666
1684253168335618000,1.4666181640625,-0.9881186485290527,-0.17612236738204956,-1.0532439947128296
1684253168345644000,1.47664404296875,-1.0639369487762451,-0.5719531178474426,-1.0498790740966797
1684253168355670000,1.486669921875,-1.140358805656433,-0.8949056267738342,-1.196961760520935
1684253168365695000,1.496695068359375,-1.2329331636428833,-0.9620917439460754,-1.3486026525497437
1684253168375721000,1.506720947265625,-1.3215924501419067,-0.7659198045730591,-1.4040262699127197
1684253168385747000,1.516746826171875,-1.3775286674499512,-0.41437700390815735,-1.4107427597045898
1684253168395772000,1.52677197265625,-1.4247510433197021,0.12145473808050156,-1.4030814170837402
1684253168405798000,1.5367978515625,-1.4433677196502686,0.9533360004425049,-1.34427809715271
1684253168415824100,1.54682421875,-1.4064832925796509,1.881007194519043,-1.2665995359420776
1684253168425849000,1.55684912109375,-1.2212549448013306,2.5661325454711914,-1.3738065958023071
1684253168435875000,1.566875,-0.520623505115509,2.1647543907165527,-2.5050721168518066
1684253168445901000,1.576901123046875,0.7819094061851501,-0.497761994600296,-4.333494663238525
1684253168455927000,1.586927001953125,1.9075756072998047,-2.1293978691101074,-4.902536392211914
1684253168465952300,1.5969521484375,2.6494123935699463,-2.103506326675415,-4.334261417388916
1684253168475978200,1.606978271484375,2.741142988204956,-1.2042535543441772,-3.3864786624908447
1684253168486004200,1.617004150390625,2.2809882164001465,-0.13332852721214294,-2.4498980045318604
1684253168496029200,1.627029296875,1.6757904291152954,0.7482113838195801,-1.65193772315979
1684253168506055200,1.63705517578125,1.3391964435577393,1.1772514581680298,-0.9055445790290833
1684253168516081200,1.6470810546875,1.3759349584579468,1.3514221906661987,-0.0826779156923294
1684253168526106000,1.657106201171875,1.5449024438858032,1.4270410537719727,0.8062610030174255
1684253168536132000,1.667132080078125,1.703410267829895,1.5428742170333862,1.6709707975387573
1684253168546158000,1.677157958984375,1.7891905307769775,1.5291398763656616,2.328585624694824
1684253168556183000,1.68718310546875,1.756883978843689,1.1704539060592651,2.620772123336792
1684253168566209000,1.697208984375,1.6848177909851074,0.5881301164627075,2.4423019886016846
1684253168576235000,1.707235107421875,1.634186029434204,0.1757899671792984,1.9383312463760376
1684253168586260000,1.717260009765625,1.5773818492889404,0.3118452727794647,1.495740532875061
1684253168596286000,1.727285888671875,1.407949686050415,0.9527996778488159,1.2493211030960083
1684253168606312000,1.73731201171875,1.1532942056655884,1.6550002098083496,1.275126338005066
1684253168616337200,1.747337158203125,0.8154579401016235,2.1369946002960205,1.5369049310684204
1684253168626363100,1.757363037109375,0.5190268754959106,2.36208438873291,1.8985458612442017
1684253168636389000,1.76738916015625,0.3654666244983673,2.4468936920166016,2.209498167037964
1684253168646414000,1.7774140625,0.3694913685321808,2.5354788303375244,2.2406721115112305
1684253168656440000,1.787440185546875,0.5975237488746643,2.6618471145629883,1.9052127599716187
1684253168666466000,1.797466064453125,1.0219208002090454,2.8431332111358643,1.3404313325881958
1684253168676491000,1.807490966796875,1.5456769466400146,2.9437129497528076,0.817305326461792
1684253168686517000,1.81751708984375,2.0218029022216797,2.78358793258667,0.4992445409297943
1684253168696543000,1.82754296875,2.3092408180236816,2.1053550243377686,0.4481233060359955
1684253168706568000,1.83756787109375,2.2962698936462402,0.8208926320075989,0.868719220161438
1684253168716594000,1.847593994140625,2.0316758155822754,0.23938530683517456,1.3777203559875488
1684253168726620000,1.857619873046875,1.7485407590866089,0.9694737195968628,1.484775424003601
1684253168736644900,1.867644775390625,1.6065328121185303,1.9532041549682617,1.2818853855133057
1684253168746670800,1.8776708984375,1.5840636491775513,2.229630470275879,1.0957287549972534
1684253168756697000,1.887697021484375,1.6074899435043335,1.8994776010513306,1.0428013801574707
1684253168766722000,1.89772216796875,1.5583871603012085,1.2906599044799805,1.0210061073303223
1684253168776748000,1.907748046875,1.3917263746261597,0.8159785866737366,0.9421581029891968
1684253168786774300,1.917774169921875,1.138941764831543,0.6279699802398682,0.7726436257362366
1684253168796799000,1.927799072265625,0.8422415852546692,0.6076894998550415,0.5369448065757751
1684253168806825200,1.9378251953125,0.5269986391067505,0.5909232497215271,0.35179150104522705
1684253168816851200,1.947851318359375,0.2669295072555542,0.4572483003139496,0.31704017519950867
1684253168826877200,1.957877197265625,0.05203132703900337,0.2862009108066559,0.4590331017971039
1684253168836902100,1.967902099609375,-0.18352074921131134,0.11560042202472687,0.7054053544998169
1684253168846928100,1.97792822265625,-0.5008503794670105,-0.05451328307390213,0.9151901602745056
1684253168856954000,1.9879541015625,-0.875149130821228,-0.1667253077030182,1.064797043800354
1684253168866979000,1.99797900390625,-1.2716156244277954,-0.2496461421251297,1.1924902200698853
1684253168877005000,2.008005126953125,-1.6554452180862427,-0.3856511116027832,1.302137851715088
1684253168887031000,2.018031005859375,-2.0303268432617188,-0.616203784942627,1.434792160987854
1684253168897056000,2.028055908203125,-2.3711843490600586,-0.9450687766075134,1.5925301313400269
1684253168907082800,2.038082763671875,-2.631274938583374,-1.3304001092910767,1.7423478364944458
1684253168917108700,2.048108642578125,-2.754661798477173,-1.7208576202392578,1.8749362230300903
1684253168927133700,2.0581337890625,-2.7161850929260254,-2.161963701248169,2.0179502964019775
1684253168937159700,2.06815966796875,-2.435300827026367,-2.4730067253112793,2.34950590133667
1684253168947185700,2.078185546875,-2.0265543460845947,-2.6153910160064697,2.845512866973877
1684253168957211000,2.0882109375,-1.748106598854065,-2.534250020980835,3.2649691104888916
1684253168967236900,2.09823681640625,-1.8763552904129028,-2.1965906620025635,3.256706714630127
1684253168977262800,2.108262939453125,-2.541256904602051,-1.4624907970428467,2.578528881072998
1684253168987287800,2.118287841796875,-4.136799335479736,-0.9327017068862915,1.2627050876617432
1684253168997313800,2.128313720703125,-5.239383697509766,-5.225205421447754,-2.789961814880371
1684253169007339800,2.13833984375,-3.2913434505462646,-7.899023056030273,-4.306628227233887
1684253169017364700,2.14836474609375,-0.45423218607902527,-4.416956424713135,-2.5424368381500244
1684253169027390700,2.158390625,1.5111920833587646,-2.3081629276275635,0.011486712843179703
1684253169037416700,2.168416748046875,1.3957546949386597,-5.500668048858643,2.335613250732422
1684253169047441700,2.178441650390625,0.05691571533679962,-2.5657780170440674,0.08434009552001953
1684253169057467600,2.188467529296875,-0.6650973558425903,-0.7701008915901184,-1.1359705924987793
1684253169067493600,2.19849365234375,-0.7780889868736267,0.7597299814224243,-1.2609468698501587
1684253169077518600,2.2085185546875,-0.6828833818435669,2.2543447017669678,-0.9532116651535034
1684253169087544600,2.218544677734375,-0.6596348285675049,3.421576499938965,-0.79460209608078
1684253169097570600,2.228570556640625,-0.7426831126213074,4.123650074005127,-0.7321770787239075
1684253169107595800,2.238595703125,-0.9560143947601318,4.651313304901123,-0.6496070027351379
1684253169117621800,2.248621826171875,-1.2374333143234253,5.279402732849121,-0.5067406892776489
1684253169127647700,2.258647705078125,-1.4252971410751343,5.970937252044678,-0.25928011536598206
1684253169137672700,2.268672607421875,-1.422855019569397,6.605658054351807,0.0843488872051239
1684253169147698700,2.27869873046875,-1.3112488985061646,7.024815082550049,0.5024597644805908
1684253169157724700,2.288724609375,-1.245907187461853,6.248757839202881,1.1865289211273193
1684253169167749600,2.29874951171875,-1.2341123819351196,3.6098382472991943,2.2882659435272217
1684253169177775600,2.308775634765625,-0.9953886866569519,1.7757601737976074,2.897458553314209
1684253169187801600,2.318801513671875,-0.6635206341743469,0.8272029161453247,2.993856191635132
1684253169197827600,2.32882763671875,-0.3260970413684845,0.15071846544742584,2.8040971755981445
1684253169207852500,2.3388525390625,0.011290552094578743,-0.46159279346466064,2.4541444778442383
1684253169217878500,2.34887841796875,0.3219863772392273,-1.202605962753296,1.963130235671997
1684253169227903500,2.358903564453125,0.5838921666145325,-2.1570684909820557,1.3111940622329712
1684253169237929500,2.368929443359375,0.814570963382721,-2.797079563140869,0.6437662839889526
1684253169247955700,2.378955810546875,1.0696783065795898,-2.815430164337158,0.13283929228782654
1684253169257981700,2.388981689453125,1.3102682828903198,-2.537543535232544,-0.21900209784507751
1684253169268007000,2.3990068359375,1.5081448554992676,-2.259761095046997,-0.4543273150920868
1684253169278033000,2.409032958984375,1.6195321083068848,-2.15439772605896,-0.6109561324119568
1684253169288059000,2.419058837890625,1.622779130935669,-2.2558693885803223,-0.6964170932769775
1684253169298083800,2.429083740234375,1.5524847507476807,-2.46616268157959,-0.7137617468833923
1684253169308109800,2.43910986328125,1.4190912246704102,-2.6843435764312744,-0.6759499311447144
1684253169318135800,2.4491357421875,1.2472057342529297,-2.8137810230255127,-0.6071135997772217
1684253169328160800,2.459160888671875,1.076300859451294,-2.852510452270508,-0.5239605903625488
1684253169338186800,2.469186767578125,0.9194608926773071,-2.8020668029785156,-0.43647846579551697
1684253169348212700,2.479212646484375,0.7693511247634888,-2.65686297416687,-0.3471008837223053
1684253169358237700,2.48923779296875,0.5985758900642395,-2.4317924976348877,-0.2573707401752472
1684253169368263700,2.499263671875,0.42715558409690857,-2.1570403575897217,-0.18552547693252563
1684253169378289700,2.50928955078125,0.2687808573246002,-1.850961685180664,-0.13164226710796356
1684253169388314600,2.519314697265625,0.14558638632297516,-1.5050710439682007,-0.08865734934806824
1684253169398340600,2.529340576171875,0.06906072050333023,-1.0903326272964478,-0.08647409081459045
1684253169408366600,2.53936669921875,0.046362027525901794,-0.6527588963508606,-0.12066629528999329
1684253169418391800,2.549391845703125,0.05603143572807312,-0.22833622992038727,-0.17321471869945526
1684253169428417800,2.559417724609375,0.08297459781169891,0.14293572306632996,-0.22639751434326172
1684253169438443800,2.56944384765625,0.10472117364406586,0.4249737858772278,-0.24344173073768616
1684253169448468700,2.57946875,0.11961466819047928,0.6261582374572754,-0.23856227099895477
1684253169458494700,2.58949462890625,0.12510398030281067,0.7388067841529846,-0.2118784636259079
1684253169468520700,2.599520751953125,0.1092420369386673,0.760168731212616,-0.14759592711925507
1684253169478545700,2.609545654296875,0.06924241781234741,0.6956486105918884,-0.040962424129247665
1684253169488571600,2.619571533203125,-0.013805214315652847,0.5186233520507812,0.12685509026050568
1684253169498597600,2.62959765625,-0.1448678821325302,0.19351527094841003,0.3703439235687256
1684253169508622600,2.63962255859375,-0.32557106018066406,-0.22620385885238647,0.6866027116775513
1684253169518648600,2.649648681640625,-0.5180765986442566,-0.6813545823097229,1.039604902267456
1684253169528674600,2.659674560546875,-0.6931006908416748,-1.1051692962646484,1.3856984376907349
1684253169538699500,2.669699462890625,-0.8187281489372253,-1.457448959350586,1.6922261714935303
1684253169548725500,2.6797255859375,-0.8885732293128967,-1.754913330078125,1.9552565813064575
1684253169558751500,2.68975146484375,-0.9164890050888062,-2.056130886077881,2.1936569213867188
1684253169568776700,2.699776611328125,-0.889859676361084,-2.2761318683624268,2.325369358062744
1684253169578802700,2.709802734375,-0.7774369716644287,-2.009465456008911,2.1715128421783447
1684253169588829000,2.719828857421875,-0.5304844379425049,-0.45983508229255676,1.2483240365982056
1684253169598853600,2.729853515625,-0.25440067052841187,1.105185627937317,0.11637672036886215
1684253169608879600,2.739879638671875,-0.07327614724636078,1.5802727937698364,-0.5340561866760254
1684253169618905900,2.74990576171875,0.026110630482435226,1.5680289268493652,-0.8944886922836304
1684253169628931800,2.759931884765625,0.2067142277956009,1.9261516332626343,-1.279165267944336
1684253169638956800,2.769956787109375,0.4920455515384674,2.660409927368164,-1.7026294469833374
1684253169648982800,2.779982666015625,0.8572724461555481,3.405778646469116,-2.0855166912078857
1684253169659008800,2.7900087890625,1.1727588176727295,3.8620455265045166,-2.449502944946289
1684253169669033700,2.80003369140625,1.2884877920150757,4.01833963394165,-2.8371622562408447
1684253169679059700,2.810059814453125,1.1857588291168213,3.8585970401763916,-3.2588305473327637
1684253169689085700,2.820085693359375,0.9397531747817993,3.118030548095703,-3.643556594848633
1684253169699110700,2.830110595703125,0.6335165500640869,2.017545223236084,-3.842426061630249
1684253169709136600,2.84013671875,0.2628459334373474,0.6662515997886658,-3.8725597858428955
1684253169719162600,2.85016259765625,-0.1616123914718628,-0.8537929058074951,-3.74141788482666
1684253169729187800,2.860187744140625,-0.570968747138977,-2.4381930828094482,-3.4071524143218994
1684253169739213800,2.8702138671875,-0.9171264171600342,-3.6997852325439453,-3.0259721279144287
1684253169749239800,2.88023974609375,-1.251009464263916,-4.571702480316162,-2.663548707962036
1684253169759264800,2.8902646484375,-1.6121666431427002,-5.132718563079834,-2.2808380126953125
1684253169769290800,2.900290771484375,-1.8583338260650635,-5.249807834625244,-1.8850730657577515
1684253169779316700,2.910316650390625,-2.0288422107696533,-4.972484111785889,-1.4336944818496704
1684253169789341700,2.920341796875,-2.1624786853790283,-4.363492012023926,-0.9057736992835999
1684253169799367700,2.93036767578125,-2.2836008071899414,-3.668632984161377,-0.4138186275959015
1684253169809393700,2.9403935546875,-2.375419855117798,-2.9766578674316406,0.005651061423122883
1684253169819418600,2.950418701171875,-2.1616554260253906,0.30393150448799133,1.2736356258392334
1684253169829444600,2.960444580078125,-1.777850866317749,5.644225120544434,2.8397576808929443
1684253169839470600,2.970470703125,-1.6373862028121948,8.299172401428223,3.478175640106201
1684253169849495600,2.98049560546875,-1.5829627513885498,9.46319580078125,3.4939448833465576
1684253169859521500,2.990521484375,-1.4386426210403442,9.879698753356934,2.673579216003418
1684253169869547500,3.000547607421875,-1.1888349056243896,9.488579750061035,0.7170544266700745
1684253169879572700,3.01057275390625,-1.167219877243042,7.247829437255859,-1.44492769241333
1684253169889598700,3.0205986328125,-1.3995689153671265,3.9016504287719727,-3.34049129486084
1684253169899624700,3.030624755859375,-1.6673228740692139,0.12146386504173279,-4.358359336853027
1684253169909650000,3.04064990234375,-1.662353515625,-3.168600082397461,-4.4938554763793945
1684253169919676000,3.050676025390625,-1.2311869859695435,-5.0552659034729,-3.9608311653137207
1684253169929702000,3.060701904296875,-0.4960702955722809,-6.028266429901123,-2.9662699699401855
1684253169939726800,3.070726806640625,0.25366947054862976,-6.876664638519287,-1.94893479347229
1684253169949752800,3.0807529296875,0.8633418083190918,-7.207735538482666,-1.4845434427261353
1684253169959778800,3.09077880859375,1.1887500286102295,-6.220794677734375,-1.3406577110290527
1684253169969803800,3.1008037109375,1.2784696817398071,-3.6302506923675537,-1.1074110269546509
1684253169979829800,3.110829833984375,1.1250380277633667,-0.31449589133262634,-0.9135105013847351
1684253169989855700,3.120855712890625,0.7180682420730591,1.7192180156707764,-0.9647706747055054
1684253169999880700,3.130880615234375,0.32910531759262085,2.147202253341675,-1.0489752292633057
1684253170009906700,3.14090673828125,0.16435189545154572,1.605779767036438,-1.1135300397872925
1684253170019932700,3.1509326171875,0.18910172581672668,0.7567044496536255,-1.1150485277175903
1684253170029959000,3.160958984375,0.2940371036529541,0.07764698565006256,-1.0268176794052124
1684253170039983900,3.17098388671875,0.41160768270492554,-0.27351662516593933,-0.8707707524299622
1684253170050009900,3.181009765625,0.48800137639045715,-0.31652745604515076,-0.7309153079986572
1684253170060035800,3.191035888671875,0.4776643216609955,-0.21642108261585236,-0.6266504526138306
1684253170070061000,3.20106103515625,0.36825528740882874,-0.09296613931655884,-0.5331349968910217
1684253170080087000,3.211087158203125,0.18218503892421722,-0.026641447097063065,-0.41678518056869507
1684253170090113000,3.221113037109375,-0.009664146229624748,0.01460015308111906,-0.2194545567035675
1684253170100138000,3.231137939453125,-0.19844551384449005,0.04458574950695038,0.08684305846691132
1684253170110164000,3.2411640625,-0.37647175788879395,0.04918152466416359,0.5168152451515198
1684253170120190000,3.25118994140625,-0.5436559319496155,0.08130963146686554,1.0264921188354492
1684253170130215000,3.26121484375,-0.6954148411750793,0.24474088847637177,1.60123610496521
1684253170140241000,3.271240966796875,-0.8135913014411926,0.6190375089645386,2.1701929569244385
1684253170150267000,3.281266845703125,-0.9428586363792419,1.0773345232009888,2.657626152038574
1684253170160291800,3.291291748046875,-1.1417087316513062,1.4289854764938354,2.9815731048583984
1684253170170317800,3.30131787109375,-1.4089460372924805,1.418045997619629,3.047032594680786
1684253170180343800,3.31134375,-1.694313883781433,0.5828514695167542,2.761990785598755
1684253170190368800,3.32136865234375,-1.9917912483215332,-1.0591330528259277,2.0225753784179688
1684253170200394800,3.331394775390625,-2.525297164916992,-2.0765082836151123,1.1945618391036987
1684253170210420700,3.341420654296875,-3.08121919631958,-4.2701544761657715,-0.15662425756454468
1684253170220446000,3.351446044921875,-2.9188361167907715,-5.786609172821045,-0.1525869071483612
1684253170230472000,3.361471923828125,-1.6868308782577515,-5.066226005554199,1.4994959831237793
1684253170240498000,3.371497802734375,-0.3857736587524414,-3.454530715942383,2.4619853496551514
1684253170250523000,3.38152294921875,0.3035997748374939,-2.0124409198760986,2.411137104034424
1684253170260548900,3.391548828125,0.4691013991832733,-0.7955310940742493,1.8219032287597656
1684253170270574800,3.401574951171875,0.3243643641471863,0.320565402507782,1.072584629058838
1684253170280599800,3.411599853515625,0.09306295216083527,1.2704066038131714,0.3531116247177124
1684253170290625800,3.421625732421875,-0.14994540810585022,2.2318286895751953,-0.061720073223114014
1684253170300651800,3.43165185546875,-0.40586400032043457,3.004910945892334,-0.2398139089345932
1684253170310676700,3.4416767578125,-0.6941000819206238,3.4087719917297363,-0.313143789768219
1684253170320702700,3.45170263671875,-0.9642250537872314,3.454444169998169,-0.2881087362766266
1684253170330728700,3.461728759765625,-1.1761293411254883,3.329585552215576,-0.1446719467639923
1684253170340754000,3.47175390625,-1.336327314376831,3.274813413619995,0.04059351608157158
1684253170350779600,3.481779541015625,-1.4500128030776978,3.360450029373169,0.24003201723098755
1684253170360805600,3.4918056640625,-1.5517077445983887,3.5705044269561768,0.5101308822631836
1684253170370830800,3.501830810546875,-1.6077295541763306,3.848489284515381,0.7966203689575195
1684253170380856800,3.51185693359375,-1.5786049365997314,3.8953630924224854,1.0649651288986206
1684253170390883000,3.521883056640625,-1.5033742189407349,3.6297717094421387,1.305417537689209
1684253170400907800,3.53190771484375,-1.4011362791061401,3.037519931793213,1.4688072204589844
1684253170410933800,3.541933837890625,-1.2446448802947998,2.1305911540985107,1.6487902402877808
1684253170420960000,3.5519599609375,-0.7996567487716675,0.8787168264389038,2.1097512245178223
1684253170430986000,3.561986083984375,0.013689830899238586,-2.8393421173095703,2.8351078033447266
1684253170441011000,3.572010986328125,0.5303188562393188,-5.529813289642334,2.3812925815582275
1684253170451037000,3.582036865234375,0.8338636755943298,-6.361282825469971,1.6261043548583984
1684253170461063000,3.59206298828125,1.0431265830993652,-5.805449485778809,0.8609304428100586
1684253170471087900,3.602087890625,1.1190829277038574,-4.389519214630127,0.0755370706319809
1684253170481113900,3.61211376953125,1.135053038597107,-2.6896564960479736,-0.5720659494400024
1684253170491139800,3.622139892578125,1.0546901226043701,-1.0447865724563599,-1.0065735578536987
1684253170501164800,3.632164794921875,0.8520745038986206,0.27445024251937866,-1.2453469038009644
1684253170511190800,3.642190673828125,0.5571199655532837,1.2108113765716553,-1.3298550844192505
1684253170521216800,3.652216796875,0.22605577111244202,1.7611526250839233,-1.3201085329055786
1684253170531242000,3.662241943359375,-0.022427154704928398,2.1035614013671875,-1.280271291732788
1684253170541268000,3.67226806640625,-0.16843976080417633,2.2894773483276367,-1.1861435174942017
1684253170551294000,3.6822939453125,-0.2395482063293457,2.3211708068847656,-1.0104020833969116
1684253170561319000,3.69231884765625,-0.27331098914146423,2.1893270015716553,-0.7496222853660583
1684253170571345000,3.702344970703125,-0.2831838130950928,1.9243988990783691,-0.43124768137931824
1684253170581371000,3.712370849609375,-0.2962929606437683,1.5866371393203735,-0.09773523360490799
1684253170591395800,3.722395751953125,-0.3084264099597931,1.2249211072921753,0.23800987005233765
1684253170601421800,3.732421875,-0.27682533860206604,0.8694342970848083,0.541034460067749
1684253170611447800,3.74244775390625,-0.18715672194957733,0.556870698928833,0.7825130820274353
1684253170621472800,3.75247265625,-0.04781799763441086,0.2987622320652008,0.9680294394493103
1684253170631498800,3.762498779296875,0.09690935909748077,0.07114405930042267,1.1099625825881958
1684253170641524700,3.772524658203125,0.21274727582931519,-0.10339126735925674,1.2044278383255005
1684253170651549700,3.7825498046875,0.2529146671295166,-0.2365664541721344,1.304115891456604
1684253170661575700,3.79257568359375,0.21340854465961456,-0.37392058968544006,1.5003160238265991
1684253170671601700,3.8026015625,0.1078333780169487,-0.5501914024353027,1.8235594034194946
1684253170681627000,3.812626953125,-0.041742533445358276,-0.762221097946167,2.181861162185669
1684253170691652900,3.82265283203125,-0.19502030313014984,-0.9726915955543518,2.4364054203033447
1684253170701678800,3.832678955078125,-0.29378044605255127,-1.1594593524932861,2.5434248447418213
1684253170711703800,3.842703857421875,-0.3190750181674957,-1.2904953956604004,2.4797675609588623
1684253170721729800,3.852729736328125,-0.2630048394203186,-1.3441463708877563,2.2441909313201904
1684253170731755800,3.862755859375,-0.15144966542720795,-1.3120455741882324,1.8911060094833374
1684253170741780700,3.87278076171875,-0.014791149646043777,-1.1739050149917603,1.5046967267990112
1684253170751806700,3.882806640625,0.13596351444721222,-0.9426093697547913,1.0074115991592407
1684253170761833000,3.8928330078125,0.29840171337127686,-0.5734880566596985,0.26754114031791687
1684253170771857700,3.902857666015625,0.4266729950904846,-0.17617668211460114,-0.5189475417137146
1684253170781884000,3.9128837890625,0.4575720727443695,0.03416484221816063,-1.0698381662368774
1684253170791910000,3.922909912109375,0.4486325681209564,0.06713659316301346,-1.3291079998016357
1684253170801936000,3.932935791015625,0.49558064341545105,-0.012587792240083218,-1.4721062183380127
1684253170811960800,3.9429609375,0.5304384827613831,-0.16510990262031555,-1.6643016338348389
1684253170821986800,3.95298681640625,0.49640166759490967,-0.3955146074295044,-1.95464289188385
1684253170832012800,3.9630126953125,0.4211430549621582,-0.6619265079498291,-2.3262643814086914
1684253170842038000,3.9730380859375,0.38313016295433044,-0.8605865836143494,-2.749332904815674
1684253170852064000,3.98306396484375,0.3844018280506134,-0.8251866102218628,-3.1735339164733887
1684253170862090000,3.993090087890625,0.4156564176082611,-0.5096763372421265,-3.6801438331604004
1684253170872115000,4.003114990234375,0.4296729862689972,0.09458739310503006,-4.230584621429443
1684253170882141000,4.013140869140625,0.3851553201675415,1.0229389667510986,-4.6720075607299805
1684253170892167000,4.0231669921875,0.3109697699546814,1.777909278869629,-4.844027042388916
1684253170902191000,4.033191162109375,0.20780424773693085,2.3370351791381836,-4.553426265716553
1684253170912217000,4.043217041015625,0.19639001786708832,2.5611162185668945,-3.556678533554077
1684253170922243000,4.0532431640625,0.6184616684913635,1.2098032236099243,-2.7693605422973633
1684253170932268000,4.06326806640625,1.3301177024841309,-0.7123475074768066,-2.131061553955078
1684253170942294000,4.0732939453125,1.9746102094650269,-1.7490370273590088,-1.5759721994400024
1684253170952320000,4.083320068359375,2.356858015060425,-1.5127248764038086,-1.0434863567352295
1684253170962345200,4.09334521484375,2.4968910217285156,-0.6298826932907104,-0.524243175983429
1684253170972371200,4.10337109375,2.467494487762451,0.7493011355400085,-0.21846213936805725
1684253170982397200,4.113397216796875,2.538313865661621,2.0751471519470215,-0.2556561231613159
1684253170992422100,4.123422119140625,3.048443555831909,2.455684185028076,-0.9441879987716675
1684253171002448100,4.1334482421875,3.9307894706726074,2.144892930984497,-1.6583915948867798
1684253171012474400,4.143474365234375,4.78780460357666,1.7241915464401245,-2.1084096431732178
1684253171022499000,4.1534990234375,5.117674827575684,1.3472256660461426,-2.3032188415527344
1684253171032525300,4.163525390625,4.803564548492432,0.9858378171920776,-2.4142768383026123
1684253171042551300,4.17355126953125,4.113198757171631,0.7124701738357544,-2.4092249870300293
1684253171052576300,4.183576171875,3.3036844730377197,0.5576621294021606,-2.2447047233581543
1684253171062602200,4.193602294921875,2.5155792236328125,0.5643921494483948,-1.9687464237213135
1684253171072628200,4.203628173828125,1.8146581649780273,0.8308646082878113,-1.5778969526290894
1684253171082653200,4.213653076171875,1.2278215885162354,1.400227427482605,-1.0628052949905396
1684253171092679200,4.22367919921875,0.7279019355773926,2.1127209663391113,-0.5831183195114136
1684253171102705200,4.233705078125,0.3106727600097656,2.4294369220733643,-0.23474404215812683
1684253171112730400,4.24373046875,-0.03372592478990555,2.1783077716827393,-0.012368042021989822
1684253171122756400,4.25375634765625,-0.24500620365142822,1.5733277797698975,0.04296205937862396
1684253171132782300,4.2637822265625,-0.2827244699001312,0.9292037487030029,0.02501218393445015
1684253171142807300,4.273807373046875,-0.12775535881519318,0.43164291977882385,-0.05718974396586418
1684253171152833300,4.283833251953125,0.21303220093250275,0.20454804599285126,-0.1834055334329605
1684253171162859300,4.293859375,0.6854268908500671,0.36445194482803345,-0.25630903244018555
1684253171172885200,4.30388525390625,1.1661162376403809,0.7939594984054565,-0.29476678371429443
1684253171182910200,4.31391015625,1.5356007814407349,1.213690996170044,-0.31815147399902344
1684253171192936200,4.323936279296875,1.6801371574401855,1.4128865003585815,-0.351433664560318
1684253171202962200,4.333962158203125,1.5947554111480713,1.3878695964813232,-0.41416069865226746
1684253171212987100,4.343987060546875,1.3620328903198242,1.1832438707351685,-0.5013331770896912
1684253171223013000,4.35401318359375,1.0798803567886353,0.8571393489837646,-0.4787873923778534
1684253171233038000,4.3640380859375,0.7967299222946167,0.5180659294128418,-0.21869301795959473
1684253171243064000,4.37406396484375,0.5546336770057678,0.2810233235359192,0.19991089403629303
1684253171253090000,4.384090087890625,0.3692242205142975,0.1350165605545044,0.633211076259613
1684253171263116000,4.394115966796875,0.2438255250453949,0.026830704882740974,1.0165326595306396
1684253171273141200,4.404141357421875,0.14301027357578278,-0.10179861634969711,1.3322513103485107
1684253171283167200,4.414167236328125,0.028543349355459213,-0.23508822917938232,1.5854369401931763
1684253171293193200,4.424193115234375,-0.11264020949602127,-0.42493298649787903,1.8101472854614258
1684253171303218200,4.43421826171875,-0.2627018988132477,-0.654584527015686,2.064088821411133
1684253171313244200,4.444244140625,-0.4254550337791443,-0.8643296360969543,2.3991715908050537
1684253171323270100,4.454270263671875,-0.5998057723045349,-1.0392358303070068,2.7786526679992676
1684253171333295000,4.464295166015625,-0.7748087644577026,-1.220454454421997,3.133837938308716
1684253171343321000,4.474321044921875,-0.9389670491218567,-1.500203013420105,3.402465581893921
1684253171353347300,4.484347412109375,-1.0474504232406616,-1.8396401405334473,3.6087534427642822
1684253171363372000,4.4943720703125,-1.106023907661438,-2.066666841506958,3.7907683849334717
1684253171373398300,4.504398193359375,-1.1998471021652222,-2.200543165206909,3.9389216899871826
1684253171383424300,4.51442431640625,-1.3985685110092163,-2.289525270462036,4.069149494171143
1684253171393449000,4.524448974609375,-1.771121859550476,-2.3675458431243896,4.085428714752197
1684253171403475200,4.53447509765625,-2.3693058490753174,-2.19832706451416,3.6360116004943848
1684253171413501200,4.544501220703125,-3.0608654022216797,-1.9845815896987915,2.7590253353118896
1684253171423526400,4.5545263671875,-3.6391711235046387,-2.1809723377227783,2.1225223541259766
1684253171433552400,4.564552490234375,-3.9376533031463623,-1.9448250532150269,1.6930359601974487
1684253171443578400,4.574578369140625,-3.7946224212646484,-1.798599362373352,0.8971281051635742
1684253171453603300,4.584603271484375,-3.1850051879882812,-3.3394272327423096,-0.7536546587944031
1684253171463629300,4.59462939453125,-2.0940399169921875,-4.212991714477539,-1.9135531187057495
1684253171473655300,4.6046552734375,-0.5004109144210815,-3.8106980323791504,-2.5969762802124023
1684253171483680300,4.61468017578125,0.710480809211731,-2.025212049484253,-2.0010147094726562
1684253171493706200,4.624706298828125,0.973859429359436,-0.11649122089147568,-1.2577840089797974
1684253171503732200,4.634732177734375,0.6301355957984924,0.9860119223594666,-0.8921735286712646
1684253171513757200,4.644757080078125,0.0594739094376564,1.634447455406189,-0.8303573131561279
1684253171523783200,4.654783203125,-0.4858948588371277,2.240312337875366,-0.9145861864089966
1684253171533809200,4.66480908203125,-0.9186855554580688,2.7734601497650146,-1.1197624206542969
1684253171543834000,4.674834228515625,-1.2270222902297974,3.3423871994018555,-1.3334674835205078
1684253171553860000,4.684860107421875,-1.4181110858917236,3.979872703552246,-1.4051225185394287
1684253171563886000,4.694885986328125,-1.5006053447723389,4.915833950042725,-1.2663547992706299
1684253171573911300,4.704911376953125,-1.4723129272460938,6.110864639282227,-0.9610035419464111
1684253171583937300,4.714937255859375,-1.3846923112869263,7.3278489112854,-0.6101149916648865
1684253171593963300,4.72496337890625,-1.2714966535568237,8.237492561340332,-0.29559144377708435
1684253171603989200,4.7349892578125,-1.1963006258010864,8.600482940673828,-0.023325320333242416
1684253171614014200,4.74501416015625,-1.1484538316726685,8.524450302124023,0.23077775537967682
1684253171624040200,4.755040283203125,-1.1205025911331177,7.970390319824219,0.486845463514328
1684253171634065200,4.765065185546875,-1.1223629713058472,6.851696014404297,0.7381693720817566
1684253171644091100,4.775091064453125,-1.169608235359192,5.214663982391357,0.9711336493492126
1684253171654117000,4.7851171875,-1.1857903003692627,3.1626229286193848,1.209176778793335
1684253171664143000,4.79514306640625,-1.065474271774292,1.2424668073654175,1.286202073097229
1684253171674168000,4.80516796875,-0.7518407106399536,-0.4227895140647888,1.1081149578094482
1684253171684194000,4.815194091796875,-0.2726179361343384,-1.8479849100112915,0.8726713061332703
1684253171694220300,4.82522021484375,0.2822176516056061,-2.99630069732666,0.6944250464439392
1684253171704245000,4.835244873046875,0.8577070832252502,-3.8088526725769043,0.5543134808540344
1684253171714271000,4.84527099609375,1.3645951747894287,-4.357179164886475,0.4862924814224243
1684253171724297200,4.855297119140625,1.738380789756775,-4.754901885986328,0.5169143080711365
1684253171734322200,4.865322265625,1.982648253440857,-5.0302324295043945,0.6366169452667236
1684253171744348200,4.87534814453125,2.0734832286834717,-5.229947566986084,0.7932374477386475
1684253171754374100,4.8853740234375,1.9931657314300537,-5.383035659790039,0.9795041680335999
1684253171764399400,4.8953994140625,1.7745662927627563,-5.496293067932129,1.1661310195922852
1684253171774425300,4.90542529296875,1.481339693069458,-5.536953926086426,1.3608962297439575
1684253171784451300,4.915451416015625,1.1670610904693604,-5.417663097381592,1.7013843059539795
1684253171794476300,4.925476318359375,0.9527173638343811,-4.540175437927246,2.5514163970947266
1684253171804502300,4.935502197265625,0.6641880869865417,-1.330486536026001,3.1942756175994873
1684253171814528300,4.9455283203125,0.12707661092281342,2.3042166233062744,2.432691812515259
1684253171824553200,4.95555322265625,-0.45651358366012573,4.1433000564575195,1.2064810991287231
1684253171834579200,4.9655791015625,-0.9428975582122803,4.660059928894043,0.20478692650794983
1684253171844605200,4.975605224609375,-1.2478300333023071,4.250622272491455,-0.3597494065761566
1684253171854630100,4.985630126953125,-1.3625894784927368,3.1951088905334473,-0.5567803382873535
1684253171864656100,4.99565625,-1.3451145887374878,1.9823176860809326,-0.6131157875061035
1684253171874682000,5.00568212890625,-1.2179054021835327,0.798819363117218,-0.6349122524261475
1684253171884707300,5.015707275390625,-0.9940185546875,-0.2865202724933624,-0.6351615190505981
1684253171894733300,5.0257333984375,-0.7515912055969238,-1.2510805130004883,-0.6707726120948792
1684253171904759300,5.03575927734375,-0.5552339553833008,-2.0825653076171875,-0.7557804584503174
1684253171914784300,5.0457841796875,-0.40612003207206726,-2.7589797973632812,-0.8714210391044617
1684253171924810500,5.055810546875,-0.28439468145370483,-3.3100368976593018,-0.9696109890937805
1684253171934836500,5.06583642578125,-0.1834200769662857,-3.772005558013916,-1.043586015701294
1684253171944861400,5.075861328125,-0.10445335507392883,-4.165592193603516,-1.0852020978927612
1684253171954887400,5.085887451171875,-0.04811239242553711,-4.485837459564209,-1.0877431631088257
1684253171964913400,5.095913330078125,-0.020293543115258217,-4.718147277832031,-1.051345944404602
1684253171974938400,5.1059384765625,-0.026406070217490196,-4.878968238830566,-0.984998881816864
1684253171984964400,5.11596435546875,-0.06060532480478287,-4.965206146240234,-0.88683021068573
1684253171994990300,5.125990234375,-0.11316756159067154,-5.000930309295654,-0.7971574068069458
1684253172005015300,5.136015380859375,-0.18275490403175354,-4.9837775230407715,-0.7084216475486755
1684253172015041300,5.146041259765625,-0.2661898732185364,-4.891427993774414,-0.6453993916511536
1684253172025067300,5.1560673828125,-0.35124003887176514,-4.701664447784424,-0.6125572919845581
1684253172035093200,5.16609326171875,-0.42882758378982544,-4.365725040435791,-0.6203778386116028
1684253172045118200,5.1761181640625,-0.48521098494529724,-3.7862181663513184,-0.6685413718223572
1684253172055144200,5.186144287109375,-0.5226965546607971,-2.958625555038452,-0.7506310939788818
1684253172065170200,5.196170166015625,-0.558858335018158,-1.9463920593261719,-0.8284516334533691
1684253172075195400,5.2061953125,-0.5650185346603394,-0.8722559213638306,-0.8496237993240356
1684253172085221400,5.216221435546875,-0.5385810732841492,0.09378313273191452,-0.8065541386604309
1684253172095247400,5.226247314453125,-0.49864766001701355,0.8117280006408691,-0.6655580401420593
1684253172105272300,5.236272216796875,-0.4643216133117676,1.278578758239746,-0.4639362692832947
1684253172115298300,5.24629833984375,-0.41211870312690735,1.511027455329895,-0.25357329845428467
1684253172125324300,5.25632421875,-0.2834475338459015,1.4916197061538696,-0.01817408949136734
1684253172135349200,5.266349365234375,-0.23328445851802826,0.08876872807741165,0.6469917297363281
1684253172145375200,5.276375244140625,-0.18599924445152283,-2.0857183933258057,1.486119270324707
1684253172155401200,5.286401123046875,-0.02556200511753559,-3.608475923538208,1.921595573425293
1684253172165426200,5.29642626953125,0.19401749968528748,-4.368393898010254,1.9459171295166016
1684253172175452200,5.3064521484375,0.44199714064598083,-4.779468536376953,1.6393355131149292
1684253172185478100,5.31647802734375,0.6630269885063171,-5.1941351890563965,1.0949249267578125
1684253172195503400,5.32650341796875,0.784302830696106,-5.6096510887146,0.41797298192977905
1684253172205529000,5.336529052734375,0.8005539774894714,-6.013279914855957,-0.2166450023651123
1684253172215555300,5.346555419921875,0.7663020491600037,-6.395254135131836,-0.6571653485298157
1684253172225580300,5.356580322265625,0.6924598217010498,-6.387308120727539,-0.7835960388183594
1684253172235606300,5.366606201171875,0.5777386426925659,-5.533515930175781,-0.6672406792640686
1684253172245632500,5.376632568359375,0.4057661294937134,-3.796316385269165,-0.5368261933326721
1684253172255657200,5.3866572265625,0.21358533203601837,-1.8068400621414185,-0.5864318013191223
1684253172265683500,5.396683349609375,0.030559858307242393,-0.19429895281791687,-0.7280302047729492
1684253172275709400,5.40670947265625,-0.10968140512704849,0.8671722412109375,-0.8883251547813416
1684253172285734400,5.416734375,-0.24076858162879944,1.4436895847320557,-0.9625008702278137
1684253172295760400,5.426760498046875,-0.38319462537765503,1.5858616828918457,-0.9287738800048828
1684253172305786400,5.436786376953125,-0.505440354347229,1.4001141786575317,-0.8611850142478943
1684253172315811300,5.446811279296875,-0.5327364802360535,0.9083976745605469,-0.8861561417579651
1684253172325837300,5.45683740234375,-0.4806724488735199,-0.20321904122829437,-0.9082552790641785
1684253172335863300,5.46686328125,-0.26402339339256287,-1.5538361072540283,-0.9155232310295105
1684253172345888300,5.47688818359375,0.007899743504822254,-2.539628028869629,-0.9509875178337097
1684253172355914200,5.486914306640625,0.1661050170660019,-3.1988742351531982,-0.9057903289794922
1684253172365940200,5.496940185546875,0.23251201212406158,-3.590285539627075,-0.7776907086372375
1684253172375965400,5.50696533203125,0.2788207232952118,-3.7113699913024902,-0.5748456120491028
1684253172385991400,5.516991455078125,0.3472362756729126,-3.6547634601593018,-0.3238557279109955
1684253172396017400,5.527017333984375,0.3925146460533142,-3.581383466720581,-0.10506656020879745
1684253172406042400,5.53704248046875,0.3451199531555176,-3.526285409927368,0.028673658147454262
1684253172416068400,5.547068359375,0.19669502973556519,-3.515418767929077,0.04726093262434006
1684253172426094300,5.55709423828125,-0.007433068007230759,-3.5698306560516357,-0.04003668576478958
1684253172436120300,5.567120361328125,-0.20614582300186157,-3.610261917114258,-0.20523673295974731
1684253172446145300,5.577145263671875,-0.36170637607574463,-3.5682997703552246,-0.36263781785964966
1684253172456171300,5.587171142578125,-0.45537319779396057,-3.362020254135132,-0.43388381600379944
1684253172466196200,5.5971962890625,-0.5133121013641357,-2.974764585494995,-0.3874524235725403
1684253172476222200,5.60722216796875,-0.5960884094238281,-2.5473387241363525,-0.29573968052864075
1684253172486248200,5.617248291015625,-0.7550005316734314,-2.254232168197632,-0.26408055424690247
1684253172496274200,5.627274169921875,-0.9659681916236877,-2.1257731914520264,-0.32847172021865845
1684253172506299100,5.637299072265625,-1.1615115404129028,-2.1244025230407715,-0.45081204175949097
1684253172516325000,5.6473251953125,-1.3301492929458618,-2.1564862728118896,-0.5686878561973572
1684253172526351000,5.65735107421875,-1.4323068857192993,-2.1739609241485596,-0.6288918256759644
1684253172536376300,5.667376220703125,-1.4843586683273315,-2.2049808502197266,-0.6131961941719055
1684253172546402300,5.67740234375,-1.4978656768798828,-2.2794387340545654,-0.5186251997947693
1684253172556428300,5.68742822265625,-1.4710131883621216,-2.366769313812256,-0.40728843212127686
1684253172566453200,5.697453369140625,-1.434909462928772,-2.446016788482666,-0.298383504152298
1684253172576479200,5.707479248046875,-1.4130457639694214,-2.5094621181488037,-0.21740442514419556
1684253172586505500,5.71750537109375,-1.3970156908035278,-2.5393776893615723,-0.1654168665409088
1684253172596530200,5.7275302734375,-1.385143756866455,-2.4897987842559814,-0.15498821437358856
1684253172606556400,5.737556396484375,-1.3662480115890503,-2.3916633129119873,-0.17041616141796112
1684253172616582400,5.74758251953125,-1.3608264923095703,-2.298140287399292,-0.1920934021472931
1684253172626607400,5.757607421875,-1.3665893077850342,-2.1961050033569336,-0.2090529352426529
1684253172636633300,5.76763330078125,-1.3746438026428223,-2.0761938095092773,-0.21100760996341705
1684253172646659300,5.777659423828125,-1.3662585020065308,-1.939415454864502,-0.16503052413463593
1684253172656684300,5.787684326171875,-1.336577296257019,-1.8176202774047852,-0.05888671055436134
1684253172666710300,5.797710205078125,-1.2773698568344116,-1.8011879920959473,0.09362826496362686
1684253172676736300,5.807736328125,-1.2195773124694824,-1.9255666732788086,0.27200308442115784
1684253172686761500,5.817761474609375,-1.1760928630828857,-2.21724009513855,0.45727548003196716
1684253172696787500,5.827787353515625,-1.1490572690963745,-2.624387502670288,0.6140034198760986
1684253172706813400,5.8378134765625,-1.124146580696106,-3.071539878845215,0.7174123525619507
1684253172716838400,5.84783837890625,-1.0715336799621582,-3.4659135341644287,0.7588769793510437
1684253172726864400,5.857864501953125,-0.9899536371231079,-3.726775646209717,0.7511734962463379
1684253172736890400,5.867890380859375,-0.8864688277244568,-3.854391098022461,0.7216360569000244
1684253172746915300,5.877915283203125,-0.7716559767723083,-3.888967514038086,0.6904267072677612
1684253172756941300,5.88794140625,-0.686491072177887,-3.868253707885742,0.6669259071350098
1684253172766967300,5.89796728515625,-0.6317015886306763,-3.826035499572754,0.662956714630127
1684253172776992300,5.9079921875,-0.6047959327697754,-3.7519190311431885,0.6888104677200317
1684253172787018200,5.918018310546875,-0.5872065424919128,-3.6633365154266357,0.7312250137329102
1684253172797044200,5.928044189453125,-0.5763534903526306,-3.5802133083343506,0.7896767854690552
1684253172807069200,5.938069091796875,-0.5600647926330566,-3.506483554840088,0.8523987531661987
1684253172817095200,5.94809521484375,-0.5454269051551819,-3.4600670337677,0.9193631410598755
1684253172827121200,5.95812109375,-0.5241215825080872,-3.4311797618865967,0.9908948540687561
1684253172837146400,5.968146484375,-0.4972611665725708,-3.3855338096618652,1.0519318580627441
1684253172847172400,5.97817236328125,-0.4702324867248535,-3.309690237045288,1.089003324508667
1684253172857198300,5.9881982421875,-0.4288199543952942,-3.173281192779541,1.090222716331482
1684253172867223300,5.998223388671875,-0.36940428614616394,-2.957805871963501,1.0488909482955933
1684253172877249300,6.008249267578125,-0.28163111209869385,-2.705350637435913,0.9807280898094177
1684253172887275300,6.018275146484375,-0.19368313252925873,-2.4657082557678223,0.9064580798149109
1684253172897301200,6.02830126953125,-0.09778878837823868,-2.2434823513031006,0.8407703638076782
1684253172907326700,6.03832666015625,-0.018727529793977737,-2.082425594329834,0.7989747524261475
1684253172917353000,6.04835302734375,0.040215715765953064,-2.0254106521606445,0.8040575385093689
1684253172927379000,6.05837890625,0.07954954355955124,-2.140307664871216,0.8893172740936279
1684253172937404000,6.06840380859375,0.09047036617994308,-2.526580810546875,1.0758615732192993
1684253172947430000,6.078429931640625,0.07786189764738083,-3.1585631370544434,1.3636739253997803
1684253172957456000,6.088455810546875,0.12677964568138123,-3.7230000495910645,1.6383966207504272
1684253172967480800,6.098480712890625,0.21263329684734344,-4.061087131500244,1.7812237739562988
1684253172977506800,6.1085068359375,0.2749693691730499,-4.1758012771606445,1.8145418167114258
1684253172987532800,6.11853271484375,0.29983505606651306,-4.1438798904418945,1.7739977836608887
1684253172997557800,6.128557861328125,0.2789783775806427,-4.079989910125732,1.7338674068450928
1684253173007583700,6.138583740234375,0.23098263144493103,-4.0983076095581055,1.7546021938323975
1684253173017609700,6.148609619140625,0.17808018624782562,-4.2533416748046875,1.8931795358657837
1684253173027635000,6.158635009765625,0.11412570625543594,-4.466708183288574,2.105884552001953
1684253173037661000,6.168660888671875,0.007599528878927231,-4.619706153869629,2.26924991607666
1684253173047687000,6.17868701171875,-0.1435931771993637,-4.614150047302246,2.314649820327759
1684253173057711900,6.1887119140625,-0.2921624779701233,-4.416141986846924,2.200122356414795
1684253173067737900,6.19873779296875,-0.3687922954559326,-4.111073017120361,1.6572498083114624
1684253173077763800,6.208763916015625,-0.2829514443874359,-3.400979995727539,0.5386560559272766
1684253173087788800,6.218788818359375,-0.056152667850255966,-2.32900071144104,-0.5012226104736328
1684253173097814800,6.228814697265625,0.18222185969352722,-1.25505530834198,-1.0455701351165771
1684253173107840800,6.2388408203125,0.35062286257743835,-0.4317537844181061,-1.1698987483978271
1684253173117865700,6.24886572265625,0.4729491174221039,0.10915471613407135,-1.104943037033081
1684253173127891700,6.2588916015625,0.562401533126831,0.40195968747138977,-1.027912974357605
1684253173137917700,6.268917724609375,0.6034310460090637,0.4699196517467499,-0.9294920563697815
1684253173147942700,6.278942626953125,0.5642964243888855,0.28175798058509827,-0.760001540184021
1684253173157968600,6.28896875,0.4542239010334015,-0.10814091563224792,-0.5503721833229065
1684253173167994600,6.29899462890625,0.3323954641819,-0.47995710372924805,-0.42433515191078186
1684253173178019800,6.309019775390625,0.2763974070549011,-0.707312285900116,-0.4069572687149048
1684253173188045800,6.3190458984375,0.3175885081291199,-0.758642315864563,-0.44517818093299866
1684253173198071800,6.32907177734375,0.4034545421600342,-0.6572206616401672,-0.5159221291542053
1684253173208096800,6.3390966796875,0.46955713629722595,-0.45584598183631897,-0.5897947549819946
1684253173218122800,6.349122802734375,0.47754961252212524,-0.21848922967910767,-0.6638669371604919
1684253173228148700,6.359148681640625,0.4428616762161255,0.03242288529872894,-0.7167139053344727
1684253173238173700,6.369173583984375,0.38948488235473633,0.28125059604644775,-0.7448252439498901
1684253173248199700,6.37919970703125,0.33677107095718384,0.502013087272644,-0.7290198802947998
1684253173258226000,6.389225830078125,0.2873561680316925,0.6839125156402588,-0.6680192351341248
1684253173268250600,6.399250732421875,0.24062806367874146,0.8294902443885803,-0.5653448104858398
1684253173278276900,6.40927685546875,0.19226984679698944,0.9484162926673889,-0.4340662956237793
1684253173288302800,6.419302734375,0.13109943270683289,1.025982141494751,-0.28530532121658325
1684253173298327800,6.429327880859375,0.06229355186223984,1.0486063957214355,-0.1464645266532898
1684253173308353800,6.439353759765625,-0.003391183912754059,1.0242505073547363,-0.007982008159160614
1684253173318379800,6.4493798828125,-0.058226510882377625,0.9494752883911133,0.12300214916467667
1684253173328405800,6.45940576171875,-0.08995088189840317,0.8250768780708313,0.2428412139415741
1684253173338431000,6.469430908203125,-0.10537803918123245,0.6616469621658325,0.34200215339660645
1684253173348457000,6.47945703125,-0.11142448335886002,0.48665541410446167,0.4207092225551605
1684253173358483000,6.48948291015625,-0.10749361664056778,0.31045717000961304,0.4865158200263977
1684253173368508000,6.4995078125,-0.10099177807569504,0.11709250509738922,0.543193519115448
1684253173378534000,6.509533935546875,-0.09149373322725296,-0.09780802577733994,0.5955150127410889
1684253173388560000,6.519559814453125,-0.08061205595731735,-0.31164228916168213,0.6561338305473328
1684253173398584800,6.529584716796875,-0.06402917951345444,-0.49297499656677246,0.7263220548629761
1684253173408610800,6.53961083984375,-0.0424964539706707,-0.6318031549453735,0.8321771025657654
1684253173418636800,6.54963671875,-0.010400244034826756,-0.7451176643371582,0.9893710017204285
1684253173428661800,6.559661865234375,0.02408822625875473,-0.8436269164085388,1.230664610862732
1684253173438687700,6.569687744140625,0.02116852067410946,-0.9100433588027954,1.557074785232544
1684253173448713700,6.579713623046875,-0.04152229055762291,-0.9136149287223816,1.91803777217865
1684253173458738700,6.58973876953125,-0.1614825576543808,-0.8661282062530518,2.2403485774993896
1684253173468764700,6.5997646484375,-0.2921835482120514,-0.7673987150192261,2.4829838275909424
1684253173478790700,6.609790771484375,-0.38916340470314026,-0.6165893077850342,2.636137008666992
1684253173488815900,6.61981591796875,-0.4398342967033386,-0.27868181467056274,2.438964605331421
1684253173498841900,6.629841796875,-0.3656013309955597,0.3142799437046051,1.3846471309661865
1684253173508867800,6.639867919921875,-0.21332313120365143,0.8060672879219055,0.053536634892225266
1684253173518892800,6.649892822265625,-0.11747895181179047,0.9491310715675354,-0.9025470018386841
1684253173528918800,6.659918701171875,-0.09408814460039139,0.7054470181465149,-1.342653751373291
1684253173538944800,6.66994482421875,-0.1113281175494194,0.20470908284187317,-1.3404099941253662
1684253173548969700,6.6799697265625,-0.14830398559570312,-0.37526774406433105,-1.0875190496444702
1684253173558995700,6.68999560546875,-0.18158823251724243,-0.8254685401916504,-0.8198064565658569
1684253173569021700,6.700021728515625,-0.20708507299423218,-1.0932152271270752,-0.7059605717658997
1684253173579046700,6.710046630859375,-0.17557580769062042,-1.1440509557724,-0.8228449821472168
1684253173589072600,6.72007275390625,-0.09334352612495422,-0.8823524713516235,-1.193164348602295
1684253173599099000,6.730098876953125,0.009677134454250336,-0.38979199528694153,-1.7870904207229614
1684253173609123600,6.74012353515625,0.11009003221988678,0.297903835773468,-2.4964370727539062
1684253173619149800,6.75014990234375,0.18251626193523407,1.1408144235610962,-3.122107982635498
1684253173629175800,6.76017578125,0.21900449693202972,2.0268943309783936,-3.545415163040161
1684253173639201000,6.770200927734375,0.2465238869190216,2.78627610206604,-3.688002586364746
1684253173649227000,6.78022705078125,0.27868661284446716,3.220989227294922,-3.570591688156128
1684253173659253000,6.7902529296875,0.2851775288581848,3.1066274642944336,-3.209298610687256
1684253173669278000,6.80027783203125,0.21458034217357635,1.467604160308838,-2.2845396995544434
1684253173679304000,6.810303955078125,0.31002721190452576,-1.9480643272399902,-1.6938749551773071
1684253173689330000,6.820329833984375,0.6257159113883972,-5.077173233032227,-2.308832883834839
1684253173699355000,6.83035498046875,1.010143756866455,-6.833980083465576,-2.850656032562256
1684253173709380900,6.840380859375,1.3309977054595947,-7.250224590301514,-2.9450578689575195
1684253173719406800,6.85040673828125,1.5573086738586426,-5.974329471588135,-2.4541494846343994
1684253173729432800,6.860432861328125,1.886048674583435,-3.047701120376587,-1.4871212244033813
1684253173739457800,6.870457763671875,2.0601155757904053,0.3599989116191864,-0.6902331709861755
1684253173749483800,6.88048388671875,2.030259609222412,3.1607794761657715,-0.27110785245895386
1684253173759509800,6.890509765625,1.7884087562561035,5.112272262573242,0.029372043907642365
1684253173769534700,6.90053466796875,1.4368573427200317,6.13286828994751,0.1998007744550705
1684253173779560700,6.910560791015625,1.0996220111846924,5.71336555480957,-0.10696661472320557
1684253173789586700,6.920586669921875,1.099740982055664,3.5783159732818604,-1.0218743085861206
1684253173799612000,6.93061181640625,1.5710937976837158,1.1449737548828125,-1.8209012746810913
1684253173809638000,6.940637939453125,2.3151285648345947,-0.5964972972869873,-2.1271984577178955
1684253173819664000,6.950663818359375,3.05983829498291,-1.4611958265304565,-2.0036098957061768
1684253173829688800,6.960688720703125,3.510913133621216,-1.4932423830032349,-1.6253819465637207
1684253173839714800,6.97071484375,3.4777820110321045,-0.8095370531082153,-1.086240291595459
1684253173849740800,6.98074072265625,3.057145833969116,0.3621334731578827,-0.494228720664978
1684253173859765800,6.990765869140625,2.4410481452941895,1.7507539987564087,-0.08283758163452148
1684253173869791700,7.000791748046875,1.8115020990371704,2.8624637126922607,0.1097414493560791
1684253173879817700,7.010817626953125,1.2877453565597534,3.460930109024048,0.0970233827829361
1684253173889842700,7.0208427734375,0.9176766872406006,3.448293685913086,-0.06689125299453735
1684253173899868700,7.03086865234375,0.7273613810539246,2.875709056854248,-0.3602030873298645
1684253173909895000,7.04089501953125,0.6551335453987122,2.012166738510132,-0.7391650676727295
1684253173919919900,7.050919921875,0.6714895963668823,1.218302845954895,-1.175211787223816
1684253173929945900,7.06094580078125,0.71491539478302,0.8570048213005066,-1.5731751918792725
1684253173939971800,7.070971923828125,0.747191309928894,1.0120012760162354,-1.7390527725219727
1684253173949997000,7.0809970703125,0.8100767731666565,1.4623218774795532,-1.5295538902282715
1684253173960023000,7.09102294921875,0.9588456153869629,1.7640856504440308,-1.0061278343200684
1684253173970049000,7.101049072265625,1.1506770849227905,1.567807912826538,-0.46119415760040283
1684253173980074000,7.111073974609375,1.3236668109893799,1.0001108646392822,-0.06842070817947388
1684253173990100000,7.121099853515625,1.4250706434249878,0.41219812631607056,0.14307956397533417
1684253174000126000,7.1311259765625,1.4261318445205688,0.07662617415189743,0.22399099171161652
1684253174010151000,7.14115087890625,1.3285802602767944,0.007666278630495071,0.2407452017068863
1684253174020177000,7.151177001953125,1.1804105043411255,0.011173849925398827,0.31935712695121765
1684253174030203000,7.161202880859375,1.0000678300857544,0.1376763880252838,0.4611651301383972
1684253174040227800,7.171227783203125,0.761154055595398,0.15671955049037933,0.6383773684501648
1684253174050253800,7.18125390625,0.49575063586235046,0.025532497093081474,0.8966755270957947
1684253174060280000,7.191280029296875,0.22856983542442322,-0.12896960973739624,1.2102594375610352
1684253174070304800,7.2013046875,-0.057285621762275696,-0.2752692997455597,1.5448424816131592
1684253174080331000,7.2113310546875,-0.35636308789253235,-0.38199347257614136,1.8892089128494263
1684253174090357000,7.22135693359375,-0.6706634759902954,-0.4406999349594116,2.284113645553589
1684253174100382200,7.23138232421875,-0.9959512948989868,-0.42930373549461365,2.7422995567321777
1684253174110408200,7.241408203125,-1.3187706470489502,-0.44211408495903015,3.2909939289093018
1684253174120434000,7.251433837890625,-1.653303623199463,-0.5650957822799683,3.8394150733947754
1684253174130459100,7.261459228515625,-1.9909207820892334,-0.7849639654159546,4.346850395202637
1684253174140485000,7.271485107421875,-2.2987260818481445,-1.0667784214019775,4.839494705200195
1684253174150511000,7.281510986328125,-2.503708839416504,-1.2583569288253784,5.343839645385742
1684253174160536000,7.2915361328125,-2.621116876602173,-1.4152250289916992,5.756415843963623
1684253174170562000,7.30156201171875,-2.4778285026550293,-2.7143919467926025,5.4383134841918945
1684253174180588000,7.311588134765625,-0.5553250312805176,-9.391891479492188,0.15280276536941528
1684253174190614000,7.321614013671875,1.2872527837753296,-11.823633193969727,-0.4835643470287323
1684253174200639000,7.331638916015625,1.0901694297790527,-10.68033218383789,0.6008983850479126
1684253174210665000,7.3416650390625,-0.31480222940444946,-8.774598121643066,-1.070546269416809
1684253174220691000,7.35169091796875,-1.6154284477233887,-4.816937446594238,-2.8027119636535645
1684253174230716000,7.3617158203125,-1.9274321794509888,3.2789947986602783,-0.6777626872062683
1684253174240742000,7.371741943359375,-2.0339133739471436,6.977173328399658,0.27881699800491333
1684253174250768000,7.381767822265625,-2.153728723526001,8.536416053771973,0.1646110564470291
1684253174260793000,7.39179296875,-2.3231799602508545,9.47669792175293,0.0775558277964592
1684253174270819000,7.401819091796875,-2.4082045555114746,9.267938613891602,0.07767859846353531
1684253174280844800,7.4118447265625,-2.4730818271636963,8.12979507446289,0.14717867970466614
1684253174290870000,7.4218701171875,-2.4839110374450684,6.354721546173096,0.2148173749446869
1684253174300896000,7.43189599609375,-2.286956310272217,3.1931087970733643,-0.0541529655456543
1684253174310922000,7.441921875,-2.0455405712127686,0.6959178447723389,-0.40608304738998413
1684253174320947000,7.451947021484375,-1.760096788406372,-0.4761643409729004,-0.5806029438972473
1684253174330973000,7.461972900390625,-1.3941453695297241,-1.1509678363800049,-0.6660892963409424
1684253174340999000,7.4719990234375,-0.9944530129432678,-1.9421828985214233,-0.6893494725227356
1684253174351023900,7.48202392578125,-0.596795916557312,-3.266568183898926,-0.363772451877594
1684253174361049900,7.4920498046875,-0.18939609825611115,-4.466595649719238,0.4746682941913605
1684253174371075800,7.502075927734375,0.10951417684555054,-4.629126071929932,1.3439933061599731
1684253174381100800,7.512100830078125,0.2269286960363388,-3.832751989364624,1.900016188621521
1684253174391126800,7.522126708984375,0.17874838411808014,-2.4749326705932617,2.071042060852051
1684253174401153000,7.532153076171875,0.018463244661688805,-0.8575992584228516,1.9614779949188232
1684253174411178000,7.542177978515625,-0.2249579280614853,0.6448187828063965,1.764459490776062
1684253174421204000,7.552203857421875,-0.5084370970726013,1.7947156429290771,1.5400904417037964
1684253174431230000,7.56222998046875,-0.705039918422699,2.3717126846313477,1.288145899772644
1684253174441255200,7.572255126953125,-0.7724997401237488,2.5223441123962402,0.9980932474136353
1684253174451281200,7.58228125,-0.7086043953895569,2.494516372680664,0.7010295987129211
1684253174461307100,7.59230712890625,-0.5405877828598022,2.478970527648926,0.44088369607925415
1684253174471332000,7.60233203125,-0.32032838463783264,2.5099620819091797,0.2446497529745102
1684253174481358000,7.612358154296875,-0.08049163967370987,2.5706048011779785,0.12868176400661469
1684253174491384000,7.622384033203125,0.12666554749011993,2.531653881072998,0.07746492326259613
1684253174501409000,7.632408935546875,0.30968040227890015,2.3896713256835938,0.06732850521802902
1684253174511435000,7.64243505859375,0.461180180311203,2.132488250732422,0.09684378653764725
1684253174521461000,7.6524609375,0.5621582865715027,1.7748925685882568,0.1698852926492691
1684253174531486000,7.66248583984375,0.6111673712730408,1.3326866626739502,0.285839319229126
1684253174541512000,7.672511962890625,0.6195130944252014,0.8233285546302795,0.4270682632923126
1684253174551538000,7.682537841796875,0.5867199897766113,0.2709015905857086,0.5619078278541565
1684253174561563100,7.692563232421875,0.5226263999938965,-0.27206429839134216,0.6701074838638306
1684253174571589000,7.702589111328125,0.45826175808906555,-0.7723601460456848,0.7103049755096436
1684253174581614800,7.71261474609375,0.4129243791103363,-1.2293612957000732,0.6696175336837769
1684253174591640000,7.72264013671875,0.40496233105659485,-1.6446924209594727,0.5851385593414307
1684253174601666000,7.732666015625,0.43045270442962646,-1.9915953874588013,0.4756016731262207
1684253174611692000,7.742692138671875,0.47453415393829346,-2.322796583175659,0.35019582509994507
1684253174621718000,7.752718017578125,0.538865864276886,-2.65156626701355,0.23531807959079742
1684253174631743000,7.762742919921875,0.604456901550293,-2.978137731552124,0.1653674989938736
1684253174641769000,7.77276904296875,0.6741195917129517,-3.2897372245788574,0.1416662037372589
1684253174651795000,7.782794921875,0.7382122874259949,-3.5183088779449463,0.15616923570632935
1684253174661820000,7.79281982421875,0.7589123249053955,-3.6259963512420654,0.21237629652023315
1684253174671846000,7.802845947265625,0.7292090654373169,-3.618600606918335,0.2816733419895172
1684253174681872000,7.812871826171875,0.6574612259864807,-3.5168709754943848,0.34805843234062195
1684253174691896800,7.822896728515625,0.534397304058075,-3.3464417457580566,0.4007062017917633
1684253174701922800,7.8329228515625,0.360736221075058,-3.1170663833618164,0.42982929944992065
1684253174711948800,7.84294873046875,0.16414779424667358,-2.7908551692962646,0.44157782196998596
1684253174721974000,7.85297412109375,-0.08452385663986206,-2.295072078704834,0.5513302087783813
1684253174732000000,7.863,-0.38814979791641235,-1.4851113557815552,0.9018152356147766
1684253174742026000,7.87302587890625,-0.6443589925765991,-0.38956719636917114,1.44793701171875
1684253174752051000,7.883051025390625,-0.7446203231811523,0.6308368444442749,1.8560006618499756
1684253174762077200,7.8930771484375,-0.712663471698761,1.4271163940429688,2.025942325592041
1684253174772103200,7.903103271484375,-0.6373679041862488,2.0337839126586914,2.0301432609558105
1684253174782128000,7.913128173828125,-0.5536457896232605,2.392186164855957,1.9341961145401
1684253174792154000,7.923154052734375,-0.4871826469898224,2.4485929012298584,1.8021645545959473
1684253174802180000,7.93318017578125,-0.4417829215526581,2.1729836463928223,1.6651427745819092
1684253174812205000,7.943205078125,-0.3748611509799957,1.592627763748169,1.5292421579360962
1684253174822231000,7.95323095703125,-0.24865612387657166,0.7275887727737427,1.372556209564209
1684253174832257000,7.963257080078125,-0.043729864060878754,-0.3685592710971832,1.1768250465393066
1684253174842282000,7.973281982421875,0.23431085050106049,-1.5710021257400513,0.8079559803009033
1684253174852308000,7.983307861328125,0.5464897751808167,-2.507215738296509,0.25744566321372986
1684253174862334000,7.993333984375,0.8414016962051392,-2.9919426441192627,-0.28316569328308105
1684253174872359000,8.00335888671875,1.0569244623184204,-3.221963882446289,-0.7227300405502319
1684253174882385000,8.013385009765624,1.1645610332489014,-3.2999324798583984,-0.97737056016922
1684253174892411000,8.023410888671876,1.1585733890533447,-3.2530345916748047,-1.0202323198318481
1684253174902436000,8.03343603515625,1.0406196117401123,-3.097914218902588,-0.9018468856811523
1684253174912461600,8.043461669921875,0.8412750959396362,-2.889310836791992,-0.807863175868988
1684253174922487600,8.053487548828125,0.6037784218788147,-2.710615873336792,-0.8902748823165894
1684253174932512500,8.063512451171874,0.4553747773170471,-2.5082004070281982,-1.1487958431243896
1684253174942538500,8.07353857421875,0.4758988916873932,-2.169990301132202,-1.5334053039550781
1684253174952564700,8.083564697265626,0.592501163482666,-1.6556940078735352,-2.0511906147003174
1684253174962589400,8.09358935546875,0.7427856922149658,-0.987176239490509,-2.7046093940734863
1684253174972615700,8.10361572265625,0.8604938983917236,-0.1762961745262146,-3.4102706909179688
1684253174982641700,8.1136416015625,0.9284283518791199,0.7017859816551208,-3.994262456893921
1684253174992666400,8.123666259765624,0.9235997796058655,1.5528795719146729,-4.245215892791748
1684253175002692600,8.133692626953126,0.8544851541519165,2.0592758655548096,-4.131348133087158
1684253175012718600,8.143718505859376,0.6865411400794983,1.8864387273788452,-3.6639838218688965
1684253175022743800,8.153743896484375,0.5134859681129456,0.942287266254425,-2.733015775680542
1684253175032769800,8.163769775390625,0.45748260617256165,-0.6599268913269043,-1.7712205648422241
1684253175042795800,8.173795654296875,0.467077374458313,-2.1300365924835205,-1.3838775157928467
1684253175052820700,8.18382080078125,0.49067428708076477,-3.0408005714416504,-1.5172337293624878
1684253175062846700,8.1938466796875,0.4677826464176178,-3.3200111389160156,-1.8897227048873901
1684253175072872700,8.203872802734375,0.4230964183807373,-3.401726722717285,-2.18605899810791
1684253175082897700,8.213897705078125,0.40435296297073364,-3.239628791809082,-2.4101614952087402
1684253175092923600,8.223923583984375,0.4093586504459381,-2.6257708072662354,-2.5628693103790283
1684253175102949600,8.23394970703125,0.5409607291221619,-1.4323756694793701,-2.5285933017730713
1684253175112975600,8.2439755859375,0.8340935111045837,-0.006651614792644978,-2.470824718475342
1684253175123000600,8.25400048828125,1.3242945671081543,0.877479612827301,-2.665205478668213
1684253175133026600,8.264026611328125,1.8246439695358276,0.736710786819458,-3.0780651569366455
1684253175143052500,8.274052490234375,2.1383745670318604,-0.04853246733546257,-3.183058261871338
1684253175153077500,8.284077392578125,2.222500801086426,-1.0140728950500488,-2.7343714237213135
1684253175163103500,8.294103515625,2.0959324836730957,-1.703039288520813,-1.923371434211731
1684253175173129500,8.30412939453125,1.8614323139190674,-1.7837730646133423,-1.0633070468902588
1684253175183154700,8.31415478515625,1.690486192703247,-1.4385441541671753,-0.39614251255989075
1684253175193180700,8.3241806640625,1.686812400817871,-1.0081709623336792,-0.0918036624789238
1684253175203206700,8.33420654296875,1.8388681411743164,-0.7079114317893982,-0.17805731296539307
1684253175213231600,8.344231689453125,1.9628862142562866,-0.23421445488929749,-0.4252684414386749
1684253175223257600,8.354257568359374,1.9166545867919922,0.4143715798854828,-0.6877042055130005
1684253175233283600,8.36428369140625,1.6432288885116577,1.0557677745819092,-0.9459922313690186
1684253175243308500,8.37430859375,1.2788355350494385,1.4779516458511353,-1.1547445058822632
1684253175253334500,8.38433447265625,0.9762743711471558,1.5171654224395752,-1.3362607955932617
1684253175263360500,8.394360595703125,0.79366135597229,1.3076844215393066,-1.480476975440979
1684253175273385500,8.404385498046874,0.7005372643470764,1.1211446523666382,-1.5765489339828491
1684253175283411500,8.414411376953124,0.6851055026054382,1.094093680381775,-1.6360305547714233
1684253175293437700,8.424437744140626,0.7119605541229248,1.1258114576339722,-1.5637919902801514
1684253175303462400,8.43446240234375,0.7438329458236694,1.1315456628799438,-1.1957743167877197
1684253175313488400,8.44448828125,0.755966305732727,1.1047931909561157,-0.5401610732078552
1684253175323514600,8.4545146484375,0.6906479001045227,1.0020430088043213,0.07898913323879242
1684253175333539600,8.46453955078125,0.5012489557266235,0.8185043334960938,0.46921756863594055
1684253175343565800,8.47456591796875,0.23341888189315796,0.616595983505249,0.6317855715751648
1684253175353591800,8.484591796875,-0.021053077653050423,0.41951942443847656,0.662469208240509
1684253175363616800,8.49461669921875,-0.1956581473350525,0.16114424169063568,0.656318187713623
1684253175373642800,8.504642822265625,-0.3113322854042053,-0.12301850318908691,0.7230197191238403
1684253175383668700,8.514668701171875,-0.4446644186973572,-0.3227832019329071,0.9205327033996582
1684253175393693700,8.524693603515624,-0.6287743449211121,-0.4149394929409027,1.2252694368362427
1684253175403719700,8.5347197265625,-0.8620755672454834,-0.4431198835372925,1.5580272674560547
1684253175413745700,8.54474560546875,-1.1232051849365234,-0.444499671459198,1.8506869077682495
1684253175423770600,8.5547705078125,-1.40069580078125,-0.4771283268928528,2.114130735397339
1684253175433796600,8.564796630859375,-1.689681053161621,-0.5399051904678345,2.380605459213257
1684253175443822600,8.574822509765625,-1.986009120941162,-0.6209948658943176,2.678428888320923
1684253175453847600,8.58484765625,-2.294179916381836,-0.7106949090957642,2.999941349029541
1684253175463873500,8.59487353515625,-2.635188102722168,-0.8389305472373962,3.322559356689453
1684253175473899500,8.6048994140625,-3.0404586791992188,-1.0018233060836792,3.6081366539001465
1684253175483925500,8.614925537109375,-3.511145830154419,-1.150315761566162,3.8401589393615723
1684253175493950700,8.62495068359375,-4.062414169311523,-1.182372808456421,3.9450442790985107
1684253175503976700,8.634976806640625,-4.577747821807861,-0.734188437461853,3.803978681564331
1684253175514002700,8.645002685546874,-4.772233009338379,0.7913687825202942,3.4732959270477295
1684253175524027600,8.655027587890626,-4.408137798309326,3.0429649353027344,3.047064781188965
1684253175534053600,8.6650537109375,-3.7685141563415527,4.792046546936035,2.436649799346924
1684253175544079600,8.67507958984375,-3.0660314559936523,5.41070032119751,1.749526023864746
1684253175554104600,8.6851044921875,-2.455714464187622,4.488804817199707,1.3355916738510132
1684253175564130600,8.695130615234374,-1.9681487083435059,2.8477485179901123,0.8789745569229126
1684253175574156500,8.705156494140626,-1.4761741161346436,0.6867393255233765,0.15398567914962769
1684253175584181500,8.715181396484375,-0.9733982086181641,-1.700350046157837,-0.6398102641105652
1684253175594207500,8.72520751953125,-0.38986873626708984,-3.8335964679718018,-1.281432867050171
1684253175604233500,8.7352333984375,0.184719517827034,-6.135832786560059,-1.6873685121536255
1684253175614258400,8.745258544921874,0.6126412749290466,-8.347111701965332,-1.666041612625122
1684253175624284400,8.755284423828124,0.912681519985199,-7.937761306762695,-0.7840663194656372
1684253175634310400,8.765310302734376,1.0200062990188599,-5.628782272338867,-0.11329646408557892
1684253175644335600,8.775335693359375,0.9360983967781067,-2.944434642791748,-0.25647857785224915
1684253175654361600,8.785361572265625,0.7790283560752869,-0.785656750202179,-1.075789451599121
1684253175664387600,8.7953876953125,0.5751407146453857,1.0165889263153076,-2.0197505950927734
1684253175674412500,8.80541259765625,0.29359641671180725,2.725823163986206,-2.809514045715332
1684253175684438800,8.815438720703124,-0.03500557318329811,4.340453624725342,-3.3639767169952393
1684253175694464800,8.82546484375,-0.3756891191005707,5.988585472106934,-3.6139020919799805
1684253175704489700,8.83548974609375,-0.6310964226722717,7.510790824890137,-3.4219532012939453
1684253175714515700,8.845515625,-0.7570825815200806,8.532159805297852,-2.9121925830841064
1684253175724541700,8.855541748046875,-0.7240220904350281,8.946744918823242,-2.05602765083313
1684253175734566700,8.865566650390624,-0.6202674508094788,7.652386665344238,-0.5203242301940918
1684253175744592600,8.875592529296876,-0.22242069244384766,5.079573154449463,1.3029471635818481
1684253175754618600,8.88561865234375,0.1331603080034256,2.0551462173461914,2.8601973056793213
1684253175764643600,8.8956435546875,0.3585156798362732,0.24626250565052032,3.5496625900268555
1684253175774669600,8.905669677734375,0.43637531995773315,-0.5494325160980225,3.644892692565918
1684253175784695600,8.915695556640625,0.42997536063194275,-0.962899386882782,3.350649118423462
1684253175794720800,8.925720703125,0.3871663808822632,-1.2029178142547607,2.906496286392212
1684253175804746800,8.935746826171876,0.3909050524234772,-1.3534865379333496,2.357224941253662
1684253175814772500,8.9457724609375,0.46174541115760803,-1.37421715259552,1.7641128301620483
1684253175824797700,8.955797607421875,0.5878362655639648,-1.2867910861968994,1.230134129524231
1684253175834823700,8.96582373046875,0.7320688366889954,-1.227437138557434,0.8119008541107178
1684253175844849700,8.975849609375,0.8389461636543274,-1.2511122226715088,0.5442875623703003
1684253175854874600,8.98587451171875,0.9020864963531494,-1.3960837125778198,0.44564196467399597
1684253175864900600,8.995900634765626,0.9458966851234436,-1.9567134380340576,0.690483570098877
1684253175874926600,9.005926513671875,0.9474879503250122,-2.747603416442871,1.345747947692871
1684253175884951600,9.01595166015625,0.868083655834198,-3.0785441398620605,1.929344892501831
1684253175894977500,9.0259775390625,0.7415313124656677,-2.7619717121124268,2.1579275131225586
1684253175905003500,9.03600341796875,0.5965028405189514,-1.9992872476577759,2.08019757270813
1684253175915028000,9.046028076171876,0.4479418396949768,-0.9648626446723938,1.805111289024353
1684253175925054000,9.056053955078125,0.31642743945121765,0.24969817698001862,1.4458394050598145
1684253175935080200,9.066080078125,0.1916666030883789,1.5201612710952759,1.1064666509628296
1684253175945105200,9.076105224609375,0.05854606628417969,2.608853816986084,0.858643114566803
1684253175955131400,9.08613134765625,-0.08896029740571976,3.3187713623046875,0.7169938087463379
1684253175965157400,9.096157470703124,-0.24134835600852966,3.685154438018799,0.6360235214233398
1684253175975182300,9.106182373046876,-0.410366952419281,3.7990689277648926,0.5641202926635742
1684253175985208300,9.116208251953125,-0.595262348651886,3.693023920059204,0.48658686876296997
1684253175995234300,9.126234375,-0.7475384473800659,3.4100027084350586,0.3948020935058594
1684253176005259300,9.13625927734375,-0.8673686981201172,3.0618810653686523,0.28913167119026184
1684253176015285200,9.14628515625,-0.9409191012382507,2.6902859210968018,0.18716536462306976
1684253176025311200,9.156311279296874,-0.9477928280830383,2.3060717582702637,0.11056719720363617
1684253176035337200,9.166337158203126,-0.9238864183425903,1.8572834730148315,0.0891638994216919
1684253176045362200,9.176362060546875,-0.8997007012367249,1.314624309539795,0.11186755448579788
1684253176055388200,9.18638818359375,-0.8349465131759644,0.7062506675720215,0.16434620320796967
1684253176065414100,9.1964140625,-0.7103202939033508,0.08992781490087509,0.20289015769958496
1684253176075439000,9.206439208984374,-0.5483652353286743,-0.461654394865036,0.19531852006912231
1684253176085465000,9.216465087890626,-0.3630533814430237,-0.8688545227050781,0.12940703332424164
1684253176095491000,9.226490966796876,-0.1883864849805832,-1.11520254611969,0.004582541063427925
1684253176105516300,9.236516357421875,-0.06050697714090347,-1.2275290489196777,-0.1561053842306137
1684253176115542300,9.246542236328125,0.0037833331152796745,-1.1811466217041016,-0.33392277359962463
1684253176125568300,9.256568359375,0.029314937070012093,-0.984764575958252,-0.5408403873443604
1684253176135593200,9.26659326171875,0.05041249841451645,-0.683870255947113,-0.7484508752822876
1684253176145619200,9.276619140625,0.09369275718927383,-0.3489888906478882,-0.9660232067108154
1684253176155645200,9.286645263671875,0.13947515189647675,0.040478967130184174,-1.2502049207687378
1684253176165670100,9.296670166015625,0.17419573664665222,0.43569910526275635,-1.5896499156951904
1684253176175696100,9.306696044921875,0.22507035732269287,0.830897867679596,-1.9551661014556885
1684253176185722000,9.31672216796875,0.34848061203956604,1.3365132808685303,-2.3961567878723145
1684253176195747000,9.3267470703125,0.5327239632606506,1.8406448364257812,-3.171809196472168
1684253176205773000,9.33677294921875,0.7144457101821899,2.3398513793945312,-4.571305274963379
1684253176215799000,9.346799072265625,0.9151743054389954,2.9726648330688477,-6.021970272064209
1684253176225824000,9.356823974609375,1.0958728790283203,3.4725396633148193,-6.895656108856201
1684253176235850000,9.36685009765625,1.2885549068450928,3.462928533554077,-6.933582782745361
1684253176245876000,9.3768759765625,1.5293242931365967,2.735563278198242,-6.304697513580322
1684253176255901200,9.386901123046876,1.6691184043884277,1.4716801643371582,-5.523813247680664
1684253176265927200,9.39692724609375,1.5667405128479004,-0.6068832278251648,-4.6343255043029785
1684253176275953400,9.406953369140625,1.2614530324935913,-3.1113224029541016,-3.486663341522217
1684253176285978000,9.41697802734375,0.9233419895172119,-5.303050518035889,-2.321133852005005
1684253176296004400,9.42700439453125,0.8568713665008545,-6.1996636390686035,-1.1632232666015625
1684253176306030300,9.4370302734375,1.1098122596740723,-5.160450458526611,-0.10442203283309937
1684253176316055300,9.44705517578125,1.5193887948989868,-3.0416970252990723,0.7749471068382263
1684253176326081300,9.457081298828125,2.0317330360412598,-0.8148669600486755,1.5309257507324219
1684253176336107300,9.467107177734375,2.5597987174987793,1.0527774095535278,1.8218199014663696
1684253176346132200,9.47713232421875,3.3964574337005615,1.860508680343628,0.5574737787246704
1684253176356158200,9.487158203125,4.4574432373046875,2.3129262924194336,-0.9380006194114685
1684253176366184200,9.49718408203125,5.259679794311523,2.742685317993164,-1.7587801218032837
1684253176376209200,9.507209228515626,5.4570512771606445,3.037682056427002,-1.7834497690200806
1684253176386235100,9.517235107421875,5.0336833000183105,3.0320324897766113,-1.2579262256622314
1684253176396261000,9.52726123046875,4.159494876861572,2.5926425457000732,-0.5569170713424683
1684253176406286300,9.537286376953125,3.025886297225952,2.081939697265625,0.094007208943367
1684253176416312300,9.547312255859374,1.858635663986206,1.8494147062301636,0.4381467401981354
1684253176426338300,9.55733837890625,0.9171649217605591,1.976744532585144,0.41079556941986084
1684253176436363300,9.56736328125,0.1610676497220993,2.3975963592529297,0.18144679069519043
1684253176446389200,9.57738916015625,-0.5401571989059448,2.655677080154419,-0.040827833116054535
1684253176456415200,9.587415283203125,-1.1543327569961548,2.334340810775757,-0.22897297143936157
1684253176466440200,9.597440185546875,-1.5956228971481323,1.8012776374816895,-0.4760866165161133
1684253176476466200,9.607466064453124,-1.8293323516845703,1.5386455059051514,-0.7260927557945251
1684253176486492200,9.6174921875,-1.6829338073730469,1.8330707550048828,-0.6175188422203064
1684253176496517000,9.62751708984375,-1.335110068321228,2.1246285438537598,-0.399432897567749
1684253176506543000,9.637543212890625,-0.8526036739349365,1.9752451181411743,-0.23222596943378448
1684253176516569000,9.647569091796875,-0.1951187402009964,1.4259518384933472,-0.15129250288009644
1684253176526595000,9.657594970703125,0.49883314967155457,0.811368465423584,-0.042469389736652374
1684253176536620000,9.6676201171875,1.0313830375671387,0.42882901430130005,0.12152913212776184
1684253176546646000,9.67764599609375,1.2302707433700562,0.24475975334644318,0.31369948387145996
1684253176556672000,9.687672119140625,1.137619137763977,0.16804686188697815,0.48852962255477905
1684253176566697200,9.697697265625,0.8862414360046387,0.11168665438890457,0.6477672457695007
1684253176576723200,9.70772314453125,0.5547061562538147,-0.011875233612954617,0.7853735685348511
1684253176586749200,9.717749267578125,0.21760502457618713,-0.0966467633843422,0.9768752455711365
1684253176596774100,9.727774169921876,-0.09609244018793106,-0.08932600170373917,1.2711896896362305
1684253176606800100,9.737800048828126,-0.4020974040031433,-0.027588725090026855,1.6402463912963867
1684253176616826400,9.747826416015625,-0.7084237933158875,-0.10993979126214981,2.0058555603027344
1684253176626851000,9.75785107421875,-0.9903059601783752,-0.41529372334480286,2.3200063705444336
1684253176636877300,9.767877197265625,-1.2689213752746582,-0.8681309819221497,2.585933208465576
1684253176646903300,9.7779033203125,-1.5357214212417603,-1.2924920320510864,2.8130013942718506
1684253176656928300,9.78792822265625,-1.7990126609802246,-1.5688008069992065,3.0519185066223145
1684253176666954200,9.797954345703126,-2.0744667053222656,-1.6545854806900024,3.321136236190796
1684253176676980200,9.807980224609375,-2.3470098972320557,-1.556758165359497,3.620401382446289
1684253176687005200,9.818005126953125,-2.6252024173736572,-1.3334966897964478,3.8884761333465576
1684253176697031200,9.82803125,-2.826251983642578,-0.8211203813552856,4.110788822174072
1684253176707057200,9.83805712890625,-2.8202340602874756,0.2645595073699951,4.423271179199219
1684253176717082400,9.848082275390626,-2.423177480697632,1.2299202680587769,4.687907695770264
1684253176727108400,9.8581083984375,-1.4553380012512207,1.3686405420303345,4.580643653869629
1684253176737134300,9.86813427734375,-0.4608880281448364,-0.3339761197566986,3.422240972518921
1684253176747159300,9.8781591796875,0.7259887456893921,-9.106476783752441,-0.12564906477928162
1684253176757185300,9.888185302734374,0.7136529684066772,-13.59424114227295,-0.798782467842102
1684253176767211300,9.898211181640624,0.4576084613800049,-13.150866508483887,-0.44084620475769043
1684253176777236200,9.908236328125,0.4588814377784729,-10.33907413482666,0.17534375190734863
1684253176787262200,9.91826220703125,0.5168594717979431,-3.869410276412964,1.3849194049835205
1684253176797288200,9.9282880859375,0.7647137641906738,3.0196166038513184,0.6829676628112793
1684253176807313200,9.938313232421875,0.7613328099250793,6.4208550453186035,-0.9954267740249634
1684253176817339100,9.948339111328124,0.28178614377975464,7.484482765197754,-2.1171956062316895
1684253176827365000,9.958365234375,-0.3823089003562927,7.669370651245117,-2.695793867111206
1684253176837390000,9.96839013671875,-1.0221549272537231,7.426511287689209,-2.9522252082824707
1684253176847416000,9.978416015625,-1.611899495124817,6.733376502990723,-2.8267083168029785
1684253176857442000,9.988442138671875,-2.155458450317383,5.785954475402832,-2.408339500427246
1684253176867467300,9.99846728515625,-2.584615468978882,4.985538482666016,-1.9126466512680054
1684253176877493200,10.0084931640625,-2.723815679550171,4.448492527008057,-1.426362156867981
1684253176887519200,10.018519287109376,-2.500142812728882,4.238824844360352,-0.8958194255828857
1684253176897544200,10.028544189453125,-1.9082812070846558,4.219721794128418,-0.33928877115249634
1684253176907570000,10.03856982421875,-1.0666567087173462,4.132262229919434,0.13149407505989075
1684253176917596000,10.048595947265625,-0.30706652998924255,3.297394037246704,0.29795071482658386
1684253176927620900,10.058620849609374,-0.05331644043326378,-0.35958370566368103,-0.08914247155189514
1684253176937646800,10.068646728515626,0.4130011796951294,-3.4484946727752686,0.3727383315563202
1684253176947672800,10.0786728515625,0.9178914427757263,-4.751542568206787,1.1252199411392212
1684253176957698800,10.08869873046875,1.2886534929275513,-5.029108047485352,1.5655912160873413
1684253176967723800,10.098723876953125,1.4828237295150757,-4.6814727783203125,1.789170265197754
1684253176977749800,10.108749755859375,1.5031543970108032,-4.1131744384765625,1.8685795068740845
1684253176987776000,10.11877587890625,1.4424179792404175,-3.3985610008239746,1.8976247310638428
1684253176997800700,10.12880078125,1.3095906972885132,-2.5746281147003174,1.92183256149292
1684253177007827000,10.138826904296875,1.1808282136917114,-1.6526296138763428,1.970158576965332
1684253177017853000,10.14885302734375,1.0603045225143433,-0.6583793759346008,2.0928592681884766
1684253177027878100,10.158878173828125,0.9620876908302307,0.38394680619239807,2.297435998916626
1684253177037904100,10.168904052734375,0.8089428544044495,1.392987608909607,2.489746570587158
1684253177047930000,10.17893017578125,0.5711778998374939,2.2413997650146484,2.5596659183502197
1684253177057955000,10.188955078125,0.2752908170223236,2.8841166496276855,2.4801294803619385
1684253177067981000,10.19898095703125,-0.05512464791536331,3.312561273574829,2.2882843017578125
1684253177078007000,10.209007080078125,-0.34317082166671753,3.539292335510254,2.006078004837036
1684253177088032000,10.219031982421875,-0.5345632433891296,3.581657648086548,1.6849251985549927
1684253177098058000,10.22905810546875,-0.6152058839797974,3.496873617172241,1.3935823440551758
1684253177108084000,10.239083984375,-0.5881105661392212,3.166574001312256,1.1645680665969849
1684253177118109000,10.24910888671875,-0.4786365032196045,2.614635467529297,0.9796701073646545
1684253177128135000,10.259135009765625,-0.34877175092697144,1.957917332649231,0.8650000095367432
1684253177138161000,10.269160888671875,-0.21318702399730682,1.3552796840667725,0.7743175029754639
1684253177148185900,10.279185791015625,-0.08179579675197601,0.8231428861618042,0.6683493852615356
1684253177158211800,10.2892119140625,0.11513271927833557,0.268947571516037,0.5355958938598633
1684253177168237800,10.29923779296875,0.316732257604599,-0.3228168189525604,0.3811526596546173
1684253177178263000,10.309262939453125,0.42208531498908997,-0.9015390872955322,0.24850352108478546
1684253177188289000,10.3192890625,0.448718786239624,-1.4174810647964478,0.13054950535297394
1684253177198315000,10.32931494140625,0.45928382873535156,-1.9319894313812256,-0.024775104597210884
1684253177208340000,10.339340087890625,0.44658201932907104,-2.323249101638794,-0.19497326016426086
1684253177218366000,10.349365966796874,0.4230724275112152,-2.681493043899536,-0.3291720747947693
1684253177228392000,10.359391845703126,0.29768380522727966,-3.000088691711426,-0.41037288308143616
1684253177238417000,10.3694169921875,0.04931128770112991,-3.2274012565612793,-0.3757035732269287
1684253177248443000,10.37944287109375,-0.21383504569530487,-3.378281593322754,-0.3058481514453888
1684253177258468900,10.38946875,-0.3472250699996948,-3.340097665786743,-0.2051849365234375
1684253177268493800,10.399493896484374,-0.37446504831314087,-3.1954798698425293,-0.09436476975679398
1684253177278519800,10.409519775390624,-0.38731133937835693,-2.981917142868042,0.013951051980257034
1684253177288545800,10.4195458984375,-0.46992912888526917,-2.621870756149292,0.1255953162908554
1684253177298570800,10.42957080078125,-0.6015456914901733,-2.142754554748535,0.2222219854593277
1684253177308596700,10.4395966796875,-0.7207357883453369,-1.5302138328552246,0.3184414207935333
1684253177318622700,10.449622802734375,-0.752342164516449,-0.9161878228187561,0.35809242725372314
1684253177328648000,10.45964794921875,-0.7701305747032166,-0.3182009756565094,0.3488168716430664
1684253177338674000,10.469673828125,-0.827549934387207,0.22491557896137238,0.3112434148788452
1684253177348700200,10.4797001953125,-0.8889152407646179,0.5919641256332397,0.25682199001312256
1684253177358724900,10.489724853515625,-0.9378066062927246,0.6922244429588318,0.16229763627052307
1684253177368751000,10.499751220703125,-0.8359302282333374,0.35558298230171204,-0.009677152149379253
1684253177378777000,10.509777099609375,-0.5026143193244934,-0.45407044887542725,-0.1947583258152008
1684253177388802000,10.519802001953124,0.07650844007730484,-1.3994016647338867,-0.15005609393119812
1684253177398828000,10.529828125,0.7378168702125549,-2.341142177581787,0.10282489657402039
1684253177408854000,10.53985400390625,1.1972750425338745,-3.0621373653411865,0.2562921345233917
1684253177418880000,10.5498798828125,1.4821771383285522,-3.4738070964813232,0.1579674333333969
1684253177428905000,10.559905029296875,1.7129477262496948,-3.478870153427124,-0.045196641236543655
1684253177438931000,10.569930908203125,1.885079026222229,-3.1873369216918945,-0.2552494704723358
1684253177448957000,10.57995703125,1.9715596437454224,-2.6832077503204346,-0.46114012598991394
1684253177458982000,10.58998193359375,2.0375595092773438,-1.9825209379196167,-0.6912071108818054
1684253177469008000,10.6000078125,2.1759088039398193,-1.1442339420318604,-0.96434485912323
1684253177479033900,10.610033935546875,2.336311101913452,-0.19996415078639984,-1.3045765161514282
1684253177489059000,10.62005908203125,2.4022655487060547,0.9554809331893921,-1.7029457092285156
1684253177499085000,10.6300849609375,2.286850690841675,2.192328929901123,-2.066736936569214
1684253177509111000,10.640111083984374,1.770282506942749,3.2295262813568115,-2.283325672149658
1684253177519136000,10.650135986328126,0.9670131802558899,3.815408945083618,-2.2836644649505615
1684253177529162000,10.660161865234375,0.09393799304962158,3.8098490238189697,-1.9009019136428833
1684253177539188000,10.67018798828125,-0.5716136693954468,3.3854966163635254,-1.1546974182128906
1684253177549213000,10.680212890625,-1.0765081644058228,2.8457512855529785,-0.384639710187912
1684253177559239000,10.690239013671874,-1.496025800704956,2.3273770809173584,0.1763298362493515
1684253177569265000,10.700264892578126,-1.7809184789657593,1.9215047359466553,0.4737141728401184
1684253177579289900,10.710289794921875,-2.1432383060455322,1.4839324951171875,-0.514760434627533
1684253177589315800,10.72031591796875,-2.582627534866333,1.0309942960739136,-2.2122855186462402
1684253177599341800,10.730341796875,-2.938622236251831,0.752556562423706,-3.0641374588012695
1684253177609366800,10.74036669921875,-3.2068161964416504,0.6678832173347473,-3.224937915802002
1684253177619392800,10.750392822265624,-3.3496477603912354,0.5852517485618591,-3.103877305984497
1684253177629418800,10.760418701171876,-3.297309637069702,0.5064874887466431,-2.9155585765838623
1684253177639444000,10.77044384765625,-3.073249340057373,0.5513553619384766,-2.802678108215332
1684253177649470000,10.780469970703125,-2.646463632583618,0.6630226969718933,-2.687429666519165
1684253177659496000,10.790495849609375,-2.073162317276001,0.8566177487373352,-2.5652222633361816
1684253177669521000,10.80052099609375,-1.3567428588867188,1.1346189975738525,-2.4444568157196045
1684253177679547000,10.810546875,-0.5655120015144348,1.3354096412658691,-2.27902889251709
1684253177689573000,10.820572998046876,0.3065827488899231,1.3198614120483398,-1.978516697883606
1684253177699597800,10.830597900390625,1.1697560548782349,1.0004777908325195,-1.6069711446762085
1684253177709624000,10.8406240234375,1.8492953777313232,0.2778078019618988,-1.1572606563568115
1684253177719650000,10.850650146484375,2.128612518310547,-0.6717755794525146,-0.6267794370651245
1684253177729675000,10.860675048828124,2.0111186504364014,-1.599024772644043,-0.1265038400888443
1684253177739701000,10.870700927734376,1.1298081874847412,-2.257758140563965,0.3133257329463959
1684253177749727000,10.88072705078125,0.13771650195121765,-2.6332080364227295,0.5674108266830444
1684253177759752000,10.890751953125,-0.5091423988342285,-2.7147748470306396,0.5312730669975281
1684253177769778000,10.90077783203125,-0.7760043740272522,-2.5212676525115967,0.2881070673465729
1684253177779804000,10.910803955078125,-0.9258695244789124,-2.0521583557128906,-0.16032078862190247
1684253177789829000,10.9208291015625,-1.0336898565292358,-1.5013431310653687,-0.7574174404144287
1684253177799855000,10.930855224609376,-1.1004009246826172,-0.937674880027771,-1.4513825178146362
1684253177809881000,10.940881103515625,-1.162086009979248,-0.37478724122047424,-2.2033920288085938
1684253177819906000,10.950906005859375,-1.2298290729522705,0.08432310074567795,-2.9778687953948975
1684253177829932000,10.96093212890625,-1.2861019372940063,0.395919531583786,-3.740800619125366
1684253177839958000,10.9709580078125,-1.3152058124542236,0.33941417932510376,-4.307886600494385
1684253177849983000,10.98098291015625,-1.2562079429626465,-0.7740190625190735,-3.5127015113830566
1684253177860009000,10.991009033203126,-1.1145224571228027,-2.4308526515960693,-1.7099716663360596
1684253177870035000,11.001034912109375,-0.7081515192985535,-3.1414945125579834,-0.37657803297042847
1684253177880060000,11.011059814453125,-0.12459199130535126,-3.02840518951416,0.36234796047210693
1684253177890086000,11.0210859375,0.4875062108039856,-2.218194007873535,0.5871953368186951
1684253177900112000,11.03111181640625,0.9851066470146179,-1.0321781635284424,0.44113534688949585
1684253177910138000,11.04113818359375,1.2933918237686157,0.1256607472896576,0.13471165299415588
1684253177920164000,11.0511640625,1.4171631336212158,0.9897987246513367,-0.17093347012996674
1684253177930190000,11.061190185546875,1.3046138286590576,1.4790136814117432,-0.3198874592781067
1684253177940215000,11.071215087890625,1.026396632194519,1.7011125087738037,-0.07601968199014664
1684253177950241000,11.081240966796875,0.7800757884979248,1.6921100616455078,0.39499175548553467
1684253177960267000,11.09126708984375,0.6744210124015808,1.5858054161071777,0.8341336846351624
1684253177970293000,11.10129296875,0.6081345081329346,3.398418426513672,1.3058077096939087
1684253177980318000,11.11131787109375,0.8914669156074524,2.502647638320923,2.61551570892334
1684253177990344000,11.121343994140625,1.1010346412658691,1.4230871200561523,3.843018054962158
1684253178000370000,11.131369873046875,0.9626839756965637,1.0344887971878052,4.281147003173828
1684253178010395100,11.14139501953125,0.613728404045105,0.7489943504333496,4.19276237487793
1684253178020421000,11.151421142578124,0.177360400557518,0.31286710500717163,3.9073636531829834
1684253178030447000,11.161447021484374,-0.45206427574157715,0.5220343470573425,3.2585999965667725
1684253178040472000,11.17147216796875,-0.9940399527549744,-0.34235692024230957,2.5060932636260986
1684253178050498000,11.181498046875,-0.9699761867523193,-1.1849244832992554,1.092455267906189
1684253178060524000,11.19152392578125,-0.70362788438797,-1.3372961282730103,-0.25864964723587036
1684253178070549000,11.201549072265625,-0.33948326110839844,-1.4491125345230103,-1.0616122484207153
1684253178080575000,11.211574951171874,0.14322933554649353,-0.3663565218448639,-1.3712323904037476
1684253178090601000,11.22160107421875,0.7471950054168701,0.4397779703140259,-1.2095186710357666
1684253178100626000,11.2316259765625,1.187570571899414,0.8013089895248413,-0.8390313982963562
1684253178110652000,11.24165185546875,1.236788034439087,0.6928711533546448,-0.4292122721672058
1684253178120678000,11.251677978515625,1.0285288095474243,0.33451277017593384,-0.050534218549728394
1684253178130702800,11.261702880859374,1.2260496616363525,-0.08092398196458817,0.20334531366825104
1684253178140728800,11.271728759765624,1.718929648399353,-0.3309556543827057,0.26329919695854187
1684253178150755000,11.281755126953126,2.315227508544922,-0.34457698464393616,0.20963174104690552
1684253178160780000,11.291780029296875,2.932047128677368,-0.11865382641553879,0.11148414015769958
1684253178170806300,11.30180615234375,3.35011887550354,0.20497636497020721,-0.016202224418520927
1684253178180832300,11.311832275390625,3.6910035610198975,0.7078208327293396,-0.07387137413024902
1684253178190857200,11.321857177734374,4.118741035461426,1.306147813796997,0.018838567659258842
1684253178200883200,11.33188330078125,4.708124160766602,1.869807481765747,0.2634144723415375
1684253178210909200,11.3419091796875,5.1859660148620605,2.189215660095215,0.3961646258831024
1684253178220934100,11.35193408203125,5.131484508514404,1.882074236869812,0.015855107456445694
1684253178230960000,11.361960205078125,5.172943115234375,1.3154537677764893,-0.5679185390472412
1684253178240986000,11.371986083984375,5.1289167404174805,0.7416123747825623,-1.120404601097107
1684253178251011000,11.382010986328124,4.8651838302612305,0.31222251057624817,-1.5361363887786865
1684253178261037000,11.392037109375,4.6333394050598145,-0.22974567115306854,-1.8296478986740112
1684253178271063000,11.40206298828125,4.32178258895874,-0.7510762810707092,-2.0414578914642334
1684253178281088000,11.412087890625,3.849146842956543,-1.4629589319229126,-2.0794575214385986
1684253178291114000,11.422114013671875,3.1940433979034424,-1.8909461498260498,-1.9096570014953613
1684253178301140000,11.432139892578125,2.5541117191314697,-1.618212342262268,-1.2760084867477417
1684253178311165200,11.442165283203124,1.973266839981079,-1.3196756839752197,-0.2386663854122162
1684253178321191200,11.452191162109376,1.5264067649841309,-1.5167261362075806,0.851851224899292
1684253178331217200,11.462217041015625,1.1773208379745483,-2.3747122287750244,1.9659897089004517
1684253178341242000,11.4722421875,0.6242901682853699,-4.874557971954346,1.9967281818389893
1684253178351268000,11.48226806640625,0.07225339114665985,-6.705430507659912,1.2775945663452148
1684253178361294000,11.492294189453125,0.12392004579305649,-7.562464237213135,0.5804676413536072
1684253178371319000,11.502319091796876,0.5383159518241882,-7.2774457931518555,0.36643141508102417
1684253178381345000,11.512344970703126,1.3756319284439087,-5.975131034851074,0.9155728220939636
1684253178391371000,11.52237109375,2.0696675777435303,-4.564845561981201,1.8176978826522827
1684253178401396000,11.53239599609375,2.4427490234375,-2.781567096710205,2.8526692390441895
1684253178411422000,11.542421875,2.4362845420837402,-1.3299401998519897,3.6538467407226562
1684253178421448000,11.552447998046874,2.042804718017578,-1.2670495510101318,3.6251304149627686
1684253178431474000,11.562473876953124,1.3191137313842773,-1.1440249681472778,3.5629546642303467
1684253178441499000,11.572498779296875,0.5033084750175476,-1.580140471458435,3.407912254333496
1684253178451524900,11.58252490234375,-0.06161336973309517,-2.2386693954467773,3.0613772869110107
1684253178461550000,11.592550048828125,-0.37621793150901794,-3.0125200748443604,2.3635547161102295
1684253178471576000,11.602576171875,-0.2851601243019104,-4.042938709259033,1.6991889476776123
1684253178481602000,11.61260205078125,0.16023172438144684,-4.875870704650879,0.9108586311340332
1684253178491628300,11.622628173828126,0.9331874251365662,-5.273604869842529,0.19623100757598877
1684253178501653000,11.632653076171875,1.8021883964538574,-5.267047882080078,-0.4844737648963928
1684253178511679200,11.64267919921875,2.7009878158569336,-5.01593017578125,-1.087882399559021
1684253178521705200,11.652705322265625,3.5397138595581055,-4.4248948097229,-1.874577283859253
1684253178531730200,11.662730224609374,4.394130706787109,-4.169556140899658,-2.5172903537750244
1684253178541756200,11.672756103515624,5.237921714782715,-4.351136684417725,-2.9363853931427
1684253178551782100,11.6827822265625,5.990288734436035,-4.588120460510254,-3.2542011737823486
1684253178561807000,11.69280712890625,6.632425785064697,-4.616008758544922,-3.519979476928711
1684253178571833000,11.7028330078125,7.001155853271484,-4.0324015617370605,-3.3377280235290527
1684253178581859000,11.712859130859375,7.37673807144165,-4.009163856506348,-2.8824377059936523
1684253178591884000,11.722884033203124,7.647647857666016,-3.7250921726226807,-2.146935224533081
1684253178601910000,11.732909912109376,7.7725090980529785,-3.3798868656158447,-1.4628440141677856
1684253178611936000,11.74293603515625,7.634787082672119,-3.2239811420440674,-0.8382942080497742
1684253178621961200,11.752961181640625,7.184875965118408,-3.0172781944274902,-0.3376547694206238
1684253178631987200,11.7629873046875,6.605555057525635,-2.95174503326416,0.14022964239120483
1684253178642013200,11.77301318359375,5.949937343597412,-3.027564287185669,0.5056625008583069
1684253178652038100,11.7830380859375,5.199461936950684,-3.1695475578308105,0.7760690450668335
1684253178662064000,11.793064208984376,4.3683762550354,-3.4217116832733154,1.0159567594528198
1684253178672090000,11.803090087890626,3.535456895828247,-3.892733573913574,1.2619670629501343
1684253178682115000,11.813114990234375,2.6807193756103516,-4.615377426147461,1.5709874629974365
1684253178692141000,11.82314111328125,1.950530767440796,-4.9108076095581055,1.8504570722579956
1684253178702167000,11.8331669921875,1.7377524375915527,-3.1986641883850098,1.3838320970535278
1684253178712192000,11.84319189453125,2.0816118717193604,-0.7953464388847351,0.36488568782806396
1684253178722218000,11.853218017578126,1.8975892066955566,-0.5405977964401245,0.3331115245819092
1684253178732244000,11.863243896484375,1.39584219455719,-0.8213553428649902,0.5599613785743713
1684253178742269000,11.87326904296875,0.9179515242576599,-0.8622077107429504,0.5927115678787231
1684253178752295000,11.883294921875,0.5586968660354614,-0.7379781007766724,0.43400469422340393
1684253178762321000,11.89332080078125,0.2258741855621338,-0.6387718915939331,0.23144705593585968
1684253178772346000,11.90334619140625,-0.08934284001588821,-0.6405666470527649,0.117814801633358
1684253178782372000,11.9133720703125,-0.2814246714115143,-0.7914067506790161,0.11463658511638641
1684253178792398000,11.923398193359375,-0.42345911264419556,-1.148192048072815,0.256587415933609
1684253178802423000,11.933423095703125,-0.5532746315002441,-1.6987953186035156,0.5766136050224304
1684253178812449000,11.943448974609375,-0.6127473711967468,-2.391280174255371,0.9702132940292358
1684253178822475000,11.95347509765625,-0.55842125415802,-3.1197509765625,1.2551177740097046
1684253178832500000,11.9635,-0.4823608994483948,-3.4697704315185547,1.314245343208313
1684253178842526000,11.97352587890625,-0.5163758397102356,-3.0907633304595947,1.1440367698669434
1684253178852552200,11.98355224609375,-0.5616492629051208,-2.4370505809783936,0.9173314571380615
1684253178862577000,11.993576904296875,-0.5920878648757935,-1.9347647428512573,0.7878347039222717
1684253178872603100,12.00360302734375,-0.728619396686554,-1.568297028541565,0.7291440963745117
1684253178882629000,12.013629150390624,-0.8899754881858826,-1.3284883499145508,0.7993053197860718
1684253178892653800,12.02365380859375,-0.9196584820747375,-1.361801028251648,0.9748105406761169
1684253178902680000,12.03368017578125,-0.8576971292495728,-1.466687798500061,1.1635026931762695
1684253178912705800,12.043705810546875,-0.7954652309417725,-1.514766812324524,1.2689129114151
