time,seconds_elapsed,z,y,x
1684253071727785700,0.01978564453125,1.1455106735229492,4.410546779632568,0.6828590631484985
1684253071737811700,0.029811767578125,1.1020450592041016,6.112061500549316,0.8804237246513367
1684253071747837700,0.039837646484375,1.0555694103240967,7.250924110412598,1.201912522315979
1684253071757863000,0.04986279296875,1.2071799039840698,6.757049560546875,1.3750275373458862
1684253071767889000,0.059888916015625,1.340668797492981,6.348451614379883,1.3824102878570557
1684253071777915000,0.069914794921875,1.698427677154541,3.8058454990386963,0.8242453336715698
1684253071787940900,0.07994091796875,2.150808572769165,1.1597518920898438,0.2643852233886719
1684253071797965800,0.0899658203125,2.2432312965393066,-0.9219147562980652,-0.06225958466529846
1684253071807992600,0.09999267578125,1.9238933324813843,-2.2993533611297607,-0.15884870290756226
1684253071818018600,0.1100185546875,1.3228793144226074,-3.0269734859466553,-0.019388586282730103
1684253071828044500,0.12004443359375,0.6278036832809448,-3.1737916469573975,0.2563748061656952
1684253071838070500,0.130070556640625,-0.3748549520969391,-1.9033854007720947,0.7198801040649414
1684253071848095700,0.140095703125,-1.4742814302444458,-0.7176087498664856,1.3677598237991333
1684253071858121700,0.150121826171875,-1.747635841369629,0.02531328983604908,1.7746413946151733
1684253071868147700,0.160147705078125,-1.694432258605957,0.9162868857383728,2.0707664489746094
1684253071878173700,0.170173583984375,-1.7945724725723267,1.7520482540130615,2.317847967147827
1684253071888198700,0.18019873046875,-2.238772392272949,2.427781581878662,2.5961296558380127
1684253071898224600,0.190224609375,-2.815397262573242,3.0588948726654053,2.8461556434631348
1684253071908250600,0.200250732421875,-3.2683825492858887,3.51816725730896,2.993434190750122
1684253071918276900,0.21027685546875,-3.5897843837738037,3.635706663131714,2.989365339279175
1684253071928301600,0.220301513671875,-3.856642007827759,3.784546136856079,2.9277687072753906
1684253071938327800,0.230327880859375,-4.122073173522949,4.322871685028076,2.9438540935516357
1684253071948353800,0.240353759765625,-4.489169597625732,5.027214527130127,2.985300302505493
1684253071958379800,0.2503798828125,-5.656076431274414,5.175181865692139,2.5450847148895264
1684253071968404700,0.26040478515625,-6.446379661560059,5.948158264160156,2.3097152709960938
1684253071978430700,0.2704306640625,-6.477917671203613,6.135835647583008,2.053333282470703
1684253071988456700,0.280456787109375,-6.275548458099365,5.458373546600342,1.6935558319091797
1684253071998482700,0.290482666015625,-6.15592622756958,4.376051425933838,1.230722188949585
1684253072008507600,0.300507568359375,-6.122549533843994,3.2171988487243652,0.7469048500061035
1684253072018533600,0.31053369140625,-6.097026824951172,2.172149419784546,0.34541481733322144
1684253072028559600,0.3205595703125,-6.213401794433594,1.645933747291565,-0.12708987295627594
1684253072038585600,0.330585693359375,-6.384032726287842,1.829314947128296,-0.5353597402572632
1684253072048610600,0.340610595703125,-6.620505332946777,2.3825020790100098,-0.7681975364685059
1684253072058636500,0.350636474609375,-7.088881969451904,3.04728364944458,-0.7120789885520935
1684253072068662500,0.36066259765625,-7.752570629119873,3.7068328857421875,-0.30469122529029846
1684253072078688500,0.3706884765625,-8.254376411437988,4.158501148223877,0.3699997365474701
1684253072088713700,0.380713623046875,-8.432743072509766,4.426567554473877,1.1858713626861572
1684253072098739700,0.39073974609375,-8.378772735595703,4.557662010192871,2.0605876445770264
1684253072108765700,0.400765625,-8.18028450012207,4.444613456726074,2.915484666824341
1684253072118791700,0.410791748046875,-7.997217655181885,3.9890856742858887,3.627976894378662
1684253072128816600,0.420816650390625,-8.049899101257324,3.278900623321533,3.799731731414795
1684253072138842600,0.430842529296875,-7.9621124267578125,2.5824289321899414,3.5498952865600586
1684253072148868900,0.440868896484375,-7.538882732391357,1.4578744173049927,3.263292074203491
1684253072158894800,0.450894775390625,-7.090594291687012,0.09364958852529526,2.8551862239837646
1684253072168920800,0.4609208984375,-6.347165584564209,-0.7298634648323059,2.472879648208618
1684253072178945800,0.47094580078125,-5.3381853103637695,-1.2682479619979858,2.2158563137054443
1684253072188971800,0.4809716796875,-4.190677642822266,-1.8172556161880493,2.0919206142425537
1684253072198997800,0.490997802734375,-2.9648165702819824,-2.610583543777466,1.9239087104797363
1684253072209023700,0.501023681640625,-1.7424876689910889,-2.9832255840301514,1.792651653289795
1684253072219048700,0.511048583984375,-0.565413773059845,-3.2103044986724854,1.5945278406143188
1684253072229074700,0.52107470703125,0.496583491563797,-3.3739161491394043,1.269195318222046
1684253072239100700,0.5311005859375,1.3727891445159912,-3.3852012157440186,0.8349318504333496
1684253072249126700,0.541126708984375,2.068380355834961,-3.2836318016052246,0.3190416097640991
1684253072259151600,0.551151611328125,2.618083953857422,-2.952458381652832,-0.21405743062496185
1684253072269177600,0.561177490234375,3.022488594055176,-2.3741650581359863,-0.693755030632019
1684253072279203600,0.57120361328125,3.220149040222168,-1.7253700494766235,-1.076536774635315
1684253072289229600,0.5812294921875,3.233581304550171,-0.8767593502998352,-1.2610437870025635
1684253072299254500,0.591254638671875,3.1036922931671143,-0.06943638622760773,-1.1742204427719116
1684253072309280500,0.601280517578125,3.0303876399993896,0.2920241057872772,-0.8253269195556641
1684253072319306500,0.611306396484375,3.0236740112304688,0.21564683318138123,-0.4512731730937958
1684253072329332500,0.62133251953125,2.842568874359131,-0.17437736690044403,-0.5159903764724731
1684253072339357700,0.631357666015625,2.303483009338379,-0.8628962635993958,-1.1933655738830566
1684253072349383700,0.6413837890625,1.645285725593567,-1.1076992750167847,-2.2735915184020996
1684253072359409700,0.65140966796875,1.2982443571090698,-0.5467832684516907,-3.1334121227264404
1684253072369436000,0.661435791015625,1.431105136871338,-0.03753489628434181,-3.078822612762451
1684253072379460600,0.671460693359375,1.8826062679290771,0.3163171112537384,-2.3321542739868164
1684253072389486800,0.68148681640625,2.355532646179199,0.479463666677475,-1.6287791728973389
1684253072399512800,0.691512939453125,2.5512850284576416,0.7253604531288147,-1.2609093189239502
1684253072409538800,0.701538818359375,2.5336074829101562,0.7355795502662659,-1.0011045932769775
1684253072419563800,0.711563720703125,1.9675801992416382,1.1315559148788452,-0.6801386475563049
1684253072429589800,0.72158984375,1.3160730600357056,1.7978465557098389,-0.47613808512687683
1684253072439615700,0.73161572265625,0.605323314666748,2.2052948474884033,-0.12461773306131363
1684253072449641700,0.741641845703125,-0.45596984028816223,1.9391347169876099,0.33585453033447266
1684253072459666700,0.751666748046875,-1.4599816799163818,1.2554277181625366,0.7144955396652222
1684253072469692700,0.761692626953125,-2.176863193511963,0.7512441277503967,0.8015372157096863
1684253072479718700,0.77171875,-2.5471999645233154,0.3242693245410919,0.60948646068573
1684253072489744600,0.78174462890625,-2.516920804977417,-0.05018790438771248,0.29576608538627625
1684253072499770600,0.7917705078125,-2.344203472137451,-0.2391546219587326,-0.15171246230602264
1684253072509795600,0.801795654296875,-2.3305153846740723,-0.31039392948150635,-0.7021965980529785
1684253072519821600,0.811821533203125,-2.584268093109131,0.652492105960846,-1.6632843017578125
1684253072529847600,0.82184765625,-2.9089431762695312,0.7691242098808289,-2.9770560264587402
1684253072539873500,0.83187353515625,-3.122471809387207,0.8815439939498901,-4.122254371643066
1684253072549898800,0.841898681640625,-3.407057762145996,1.2025096416473389,-4.8458123207092285
1684253072559924500,0.851924560546875,-3.848696708679199,1.6778171062469482,-5.096655368804932
1684253072569950500,0.861950439453125,-4.423266887664795,2.403956890106201,-4.9902119636535645
1684253072579976700,0.871976806640625,-5.30141019821167,3.1831326484680176,-4.644384384155273
1684253072590001700,0.882001708984375,-6.254176616668701,3.9122941493988037,-4.047381401062012
1684253072600028000,0.89202783203125,-6.919813632965088,4.270393371582031,-3.1706910133361816
1684253072610054000,0.902053955078125,-6.8572893142700195,4.0985846519470215,-2.1229279041290283
1684253072620079900,0.912079833984375,-5.335777282714844,2.5889461040496826,-0.7049486637115479
1684253072630104800,0.922104736328125,-2.9919912815093994,0.4550555944442749,0.852631151676178
1684253072640130800,0.932130859375,-1.4289121627807617,0.1163405105471611,1.7702972888946533
1684253072650156800,0.94215673828125,-0.7063333988189697,0.8364076018333435,2.280459403991699
1684253072660182800,0.952182861328125,-0.8629271388053894,1.3280529975891113,2.5722715854644775
1684253072670207700,0.962207763671875,-1.010586142539978,2.179670572280884,2.858686923980713
1684253072680233700,0.972233642578125,-1.3178527355194092,2.47076416015625,2.9373626708984375
1684253072690259700,0.982259765625,-1.7309268712997437,2.1801154613494873,2.8166940212249756
1684253072700285700,0.99228564453125,-2.1144955158233643,1.663596749305725,2.617250919342041
1684253072710310700,1.002310546875,-2.3653106689453125,1.0964741706848145,2.349095582962036
1684253072720336600,1.012336669921875,-2.5226480960845947,0.41599956154823303,2.016927719116211
1684253072730362600,1.022362548828125,-2.5579609870910645,-0.011809022165834904,1.6676700115203857
1684253072740388600,1.032388671875,-2.434009075164795,0.028591930866241455,1.3625694513320923
1684253072750414600,1.04241455078125,-2.1274213790893555,0.4269494116306305,1.1168336868286133
1684253072760439600,1.052439453125,-1.686646819114685,0.7942370176315308,0.9402143359184265
1684253072770465500,1.062465576171875,-1.20268976688385,1.0330756902694702,0.8060299158096313
1684253072780491500,1.072491455078125,-0.7938823699951172,1.1003632545471191,0.6731054782867432
1684253072790517800,1.082517822265625,-0.5228782892227173,1.0892744064331055,0.5414955019950867
1684253072800542700,1.092542724609375,-0.3198453187942505,1.061146855354309,0.4110570251941681
1684253072810568400,1.102568359375,-0.1555357426404953,0.9556847214698792,0.25682058930397034
1684253072820594400,1.112594482421875,-0.0031831867527216673,0.7740058302879333,0.1163550466299057
1684253072830620400,1.122620361328125,0.11291225999593735,0.5286799669265747,0.010798531584441662
1684253072840645600,1.132645751953125,0.034707702696323395,0.10800684243440628,-0.07320015877485275
1684253072850671600,1.142671630859375,-0.6461203694343567,-0.3382795453071594,-0.18971531093120575
1684253072860697600,1.152697509765625,-1.5155476331710815,-0.5051584243774414,-0.2773750126361847
1684253072870723600,1.1627236328125,-2.048564910888672,-0.404733270406723,-0.3100099265575409
1684253072880748500,1.17274853515625,-2.286346912384033,-0.27367737889289856,-0.21822026371955872
1684253072890774500,1.1827744140625,-2.1918787956237793,-0.22191432118415833,-0.14420276880264282
1684253072900800500,1.192800537109375,-2.0309762954711914,-0.21058881282806396,0.05244294926524162
1684253072910826500,1.202826416015625,-2.0651049613952637,-0.2696412205696106,0.32448911666870117
1684253072920851500,1.2128515625,-2.539775848388672,-0.23126108944416046,0.4933443069458008
1684253072930877400,1.22287744140625,-2.735442876815796,-0.16615372896194458,0.3531392514705658
1684253072940903400,1.2329033203125,-2.3996806144714355,-0.4269906282424927,0.15597866475582123
1684253072950929400,1.242929443359375,-1.6124396324157715,-0.8904741406440735,0.03132621571421623
1684253072960954400,1.252954345703125,-0.6240265965461731,-1.2726819515228271,-0.05871126800775528
1684253072970980400,1.26298046875,0.43648940324783325,-1.560562014579773,-0.042312320321798325
1684253072981006300,1.27300634765625,1.4970389604568481,-1.679171085357666,-0.04946967959403992
1684253072991032300,1.2830322265625,2.3165149688720703,-1.5072472095489502,-0.1496484875679016
1684253073001058300,1.293058349609375,2.6793668270111084,-0.8901333212852478,-0.4470565915107727
1684253073011083300,1.303083251953125,2.5643773078918457,0.022419868037104607,-0.8702541589736938
1684253073021109200,1.313109130859375,2.111884355545044,1.0131574869155884,-1.2939016819000244
1684253073031135200,1.32313525390625,1.3661086559295654,2.1406447887420654,-1.6998592615127563
1684253073041161500,1.333161376953125,0.3991754651069641,3.11977219581604,-1.9652389287948608
1684253073051186400,1.3431865234375,-0.606067419052124,3.7966270446777344,-1.9845446348190308
1684253073061212400,1.35321240234375,-1.448657512664795,4.149872303009033,-1.7359619140625
1684253073071238400,1.36323828125,-2.0846786499023438,4.159916400909424,-1.255977988243103
1684253073081264400,1.373264404296875,-2.443507194519043,3.7284860610961914,-0.3534202575683594
1684253073091289600,1.38328955078125,-2.2653205394744873,2.4503660202026367,1.46928071975708
1684253073101315600,1.393315673828125,-1.835572361946106,0.9656254053115845,3.3010199069976807
1684253073111341600,1.403341552734375,-1.7437846660614014,0.1120026633143425,4.16212797164917
1684253073121367600,1.413367431640625,-1.8793576955795288,-0.3518177568912506,4.428797721862793
1684253073131392500,1.423392578125,-2.0311436653137207,-0.8341796398162842,4.555822849273682
1684253073141418500,1.43341845703125,-2.343977451324463,-1.6196950674057007,4.529750347137451
1684253073151444500,1.443444580078125,-2.8229291439056396,-2.465153694152832,4.366858959197998
1684253073161470500,1.453470458984375,-3.4024417400360107,-3.2557857036590576,4.2214460372924805
1684253073171495400,1.463495361328125,-3.839452028274536,-4.07498836517334,3.9026660919189453
1684253073181521400,1.473521484375,-3.9227468967437744,-4.58544921875,3.3759706020355225
1684253073191547400,1.48354736328125,-3.4501781463623047,-4.702996253967285,2.7538585662841797
1684253073201573400,1.493573486328125,-2.420055389404297,-4.55623722076416,2.139341354370117
1684253073211598300,1.503598388671875,-1.0911449193954468,-4.017237663269043,2.592837333679199
1684253073221624300,1.513624267578125,-0.2032274454832077,-2.4195597171783447,5.196591854095459
1684253073231650300,1.523650390625,0.6058070659637451,-1.1575826406478882,5.939818859100342
1684253073241676300,1.53367626953125,1.5688836574554443,-2.2269575595855713,3.9788241386413574
1684253073251702500,1.54370263671875,2.5194764137268066,-4.0264506340026855,0.18629863858222961
1684253073261727200,1.553727294921875,3.026245594024658,-3.7991390228271484,-2.3311243057250977
1684253073271753500,1.56375341796875,2.8751158714294434,-2.841571092605591,-3.5236620903015137
1684253073281779500,1.573779541015625,2.2803070545196533,-1.9953243732452393,-3.9204418659210205
1684253073291805400,1.583805419921875,1.3879417181015015,-0.8539827466011047,-3.5694363117218018
1684253073301830700,1.59383056640625,0.5455355048179626,0.7280523180961609,-2.706803560256958
1684253073311856400,1.6038564453125,-0.0033326756674796343,1.977269172668457,-2.0417115688323975
1684253073321882400,1.61388232421875,-0.33949634432792664,2.827371835708618,-1.558363914489746
1684253073331908400,1.623908447265625,-0.3324938416481018,2.7485835552215576,-1.4606826305389404
1684253073341933600,1.63393359375,0.09466785192489624,0.17499594390392303,-2.634483814239502
1684253073351959600,1.64395947265625,0.6328088641166687,-2.2103471755981445,-3.6663241386413574
1684253073361985500,1.653985595703125,1.0585654973983765,-2.9897243976593018,-4.034618377685547
1684253073372011500,1.664011474609375,1.3925397396087646,-2.6230645179748535,-3.9023022651672363
1684253073382037500,1.67403759765625,1.6641221046447754,-1.7753146886825562,-3.466726541519165
1684253073392062500,1.6840625,1.973189353942871,-0.6905021667480469,-2.96457839012146
1684253073402088400,1.69408837890625,2.197423219680786,0.5138005614280701,-2.638098955154419
1684253073412114400,1.704114501953125,2.3042235374450684,1.5664689540863037,-2.1891705989837646
1684253073422140400,1.714140380859375,2.2453548908233643,2.2774510383605957,-1.57968270778656
1684253073432165400,1.724165283203125,1.96108078956604,2.5249509811401367,-0.963231086730957
1684253073442191400,1.73419140625,1.573641061782837,2.4837629795074463,-0.33798834681510925
1684253073452217300,1.74421728515625,1.5571552515029907,1.9334086179733276,0.4433048367500305
1684253073462243600,1.75424365234375,2.060474395751953,0.5338919758796692,1.1859034299850464
1684253073472268300,1.764268310546875,2.8864195346832275,-1.4488106966018677,1.441124439239502
1684253073482294300,1.774294189453125,3.6060643196105957,-3.0796895027160645,1.2309165000915527
1684253073492320500,1.784320556640625,3.907843828201294,-3.5475828647613525,0.9054670333862305
1684253073502346500,1.794346435546875,3.5794763565063477,-3.230140209197998,0.34829527139663696
1684253073512371500,1.804371337890625,2.7872731685638428,-1.9897040128707886,-0.43207672238349915
1684253073522397400,1.8143974609375,1.8518542051315308,0.4512001574039459,-1.128417730331421
1684253073532423400,1.82442333984375,1.0698570013046265,3.5271074771881104,-1.3570146560668945
1684253073542449400,1.834449462890625,0.6367705464363098,5.901433944702148,-1.154502272605896
1684253073552474600,1.844474609375,0.5555510520935059,6.3483123779296875,-0.9839999079704285
1684253073562500400,1.854500244140625,0.6544269323348999,5.3277387619018555,-1.0536209344863892
1684253073572526300,1.8645263671875,0.791822612285614,3.5855555534362793,-1.2950985431671143
1684253073582552300,1.87455224609375,0.8362417221069336,1.9095081090927124,-1.6519826650619507
1684253073592577500,1.88457763671875,0.8787630796432495,1.0113592147827148,-2.0481646060943604
1684253073602603500,1.894603515625,1.1804381608963013,1.9766035079956055,-2.0378048419952393
1684253073612629500,1.90462939453125,1.6037510633468628,3.730478525161743,-1.6536428928375244
1684253073622655500,1.914655517578125,1.8137030601501465,3.9957833290100098,-1.4560096263885498
1684253073632681500,1.924681396484375,1.899444818496704,3.0652246475219727,-1.2066872119903564
1684253073642706400,1.93470654296875,1.9915443658828735,1.5901397466659546,-0.6920905709266663
1684253073652732400,1.944732421875,2.0639631748199463,0.4905104339122772,0.0024048578925430775
1684253073662758400,1.95475830078125,1.9994604587554932,-0.0028115403838455677,0.626819372177124
1684253073672784400,1.964784423828125,1.769836664199829,-0.12189318984746933,1.027920126914978
1684253073682809300,1.974809326171875,1.4595675468444824,-0.07926828414201736,1.1529366970062256
1684253073692835300,1.98483544921875,1.0843673944473267,-0.052819639444351196,1.1202598810195923
1684253073702861600,1.994861572265625,0.5905757546424866,-0.05995197221636772,1.0844789743423462
1684253073712887600,2.004887451171875,0.045739367604255676,0.05220466107130051,1.1697179079055786
1684253073722912500,2.01491259765625,-0.47605180740356445,0.3998391330242157,1.3868168592453003
1684253073732938500,2.0249384765625,-0.9628310203552246,0.8003705143928528,1.6518844366073608
1684253073742964500,2.034964599609375,-1.386946678161621,0.9884483218193054,1.9976726770401
1684253073752990500,2.044990478515625,-1.7728158235549927,0.9052048325538635,2.4105610847473145
1684253073763015400,2.055015380859375,-2.1231942176818848,0.7084912061691284,2.8803625106811523
1684253073773041400,2.06504150390625,-2.44388747215271,0.48999032378196716,3.3382139205932617
1684253073783067400,2.0750673828125,-2.687995433807373,0.384971022605896,3.733583688735962
1684253073793093400,2.08509326171875,-2.6721041202545166,0.07544112950563431,3.557478427886963
1684253073803119400,2.095119384765625,-0.4107690155506134,-5.1187944412231445,0.5004757642745972
1684253073813144300,2.105144287109375,3.1637120246887207,-0.060522884130477905,5.459752082824707
1684253073823170300,2.11517041015625,3.725473403930664,4.9389424324035645,9.359198570251465
1684253073833196500,2.125196533203125,1.7659448385238647,-4.787901878356934,6.445240020751953
1684253073843222500,2.135222412109375,-0.08065024018287659,-12.456131935119629,-0.3098391592502594
1684253073853247500,2.14524755859375,-0.8335487842559814,-8.563716888427734,-2.840266466140747
1684253073863273700,2.155273681640625,-0.9897153377532959,-4.608424663543701,-4.576568126678467
1684253073873299700,2.1652998046875,-0.5641320943832397,6.498470306396484,-2.872849702835083
1684253073883325700,2.17532568359375,-0.8988217115402222,8.519343376159668,-2.4405901432037354
1684253073893350700,2.1853505859375,-1.6217514276504517,5.801887035369873,-1.9709103107452393
1684253073903376600,2.195376708984375,-2.3949944972991943,0.986304521560669,-1.336920142173767
1684253073913402600,2.205402587890625,-2.728031873703003,-1.7806223630905151,-0.5650357007980347
1684253073923428600,2.2154287109375,-2.530935049057007,-2.329925775527954,0.08564728498458862
1684253073933453600,2.22545361328125,-2.056760311126709,-1.9420171976089478,0.7496532201766968
1684253073943479600,2.2354794921875,-1.5617035627365112,-1.3203181028366089,1.5332727432250977
1684253073953505500,2.245505615234375,-1.1058886051177979,-1.089669942855835,2.4573752880096436
1684253073963531500,2.255531494140625,-0.6684439182281494,-0.7147333025932312,2.7261457443237305
1684253073973557500,2.2655576171875,-0.29177170991897583,0.16610033810138702,2.3136532306671143
1684253073983582500,2.27558251953125,-0.13267643749713898,0.32489296793937683,1.7012677192687988
1684253073993608400,2.2856083984375,-0.18003728985786438,-0.3007405400276184,1.1140326261520386
1684253074003634400,2.295634521484375,-0.3523823916912079,-0.4812298119068146,0.6245801448822021
1684253074013660400,2.305660400390625,-0.6227640509605408,-0.399350643157959,0.32301199436187744
1684253074023685400,2.315685302734375,-0.992164134979248,-0.5917649269104004,0.2756226062774658
1684253074033711400,2.32571142578125,-1.3538886308670044,-0.8499405384063721,0.45220616459846497
1684253074043737300,2.3357373046875,-1.5849249362945557,-0.7189826369285583,0.6756343245506287
1684253074053763600,2.345763671875,-1.5723923444747925,-0.3455219864845276,0.8685656785964966
1684253074063788300,2.355788330078125,-1.3464428186416626,0.08125735074281693,0.9939908385276794
1684253074073814500,2.365814453125,-1.0631879568099976,0.35174208879470825,1.0340934991836548
1684253074083840500,2.375840576171875,-0.8190110325813293,0.36002904176712036,0.9893339276313782
1684253074093866500,2.385866455078125,-0.6487075090408325,0.1514662206172943,0.8560613989830017
1684253074103891700,2.3958916015625,-0.5619117021560669,-0.10973412543535233,0.6563145518302917
1684253074113917700,2.405917724609375,-0.555108368396759,-0.29027754068374634,0.4184144139289856
1684253074123943700,2.415943603515625,-0.6197221279144287,-0.37481746077537537,0.2047085464000702
1684253074133969700,2.4259697265625,-0.7482521533966064,-0.4017462730407715,0.07716044783592224
1684253074143995600,2.43599560546875,-0.9022645354270935,-0.34943887591362,0.02249300666153431
1684253074154020600,2.4460205078125,-1.0260205268859863,-0.19195018708705902,0.009725546464323997
1684253074164046600,2.456046630859375,-1.1128904819488525,-0.0028876708820462227,0.04221690446138382
1684253074174072600,2.466072509765625,-1.1431188583374023,0.15712809562683105,0.09635497629642487
1684253074184098600,2.4760986328125,-1.1502617597579956,0.26699545979499817,0.1582428365945816
1684253074194123500,2.48612353515625,-1.1291221380233765,0.3483947217464447,0.2219826728105545
1684253074204149500,2.4961494140625,-1.110342025756836,0.42383140325546265,0.2731110155582428
1684253074214175500,2.506175537109375,-1.0761164426803589,0.48330777883529663,0.3316616714000702
1684253074224201500,2.516201416015625,-1.0113197565078735,0.5111744999885559,0.37753868103027344
1684253074234226400,2.526226318359375,-0.9176127314567566,0.5818939805030823,0.41010862588882446
1684253074244252400,2.53625244140625,-0.8223617076873779,0.723815381526947,0.41190478205680847
1684253074254278400,2.5462783203125,-0.7346925735473633,0.8977853059768677,0.39010894298553467
1684253074264304600,2.5563046875,-0.6740807294845581,1.0504242181777954,0.3683245778083801
1684253074274329300,2.566329345703125,-0.6609202027320862,1.1178228855133057,0.40832072496414185
1684253074284355600,2.57635546875,-0.6899861097335815,1.0364590883255005,0.5494329929351807
1684253074294381600,2.586381591796875,-0.7457596063613892,0.835814356803894,0.8024191856384277
1684253074304407600,2.596407470703125,-0.742591917514801,0.6047347784042358,1.0864375829696655
1684253074314433500,2.60643359375,-0.6293918490409851,0.4372209310531616,1.3160814046859741
1684253074324458500,2.61645849609375,-0.4446870684623718,0.3087543249130249,1.4783037900924683
1684253074334484500,2.626484375,-0.2682643532752991,0.24094654619693756,1.5374829769134521
1684253074344510500,2.636510498046875,-0.14664176106452942,0.2660585045814514,1.481360673904419
1684253074354536400,2.646536376953125,-0.1015658974647522,0.32866570353507996,1.3475801944732666
1684253074364561700,2.656561767578125,-0.08894552290439606,0.3521963655948639,1.2172755002975464
1684253074374587600,2.666587646484375,-0.061156775802373886,0.31974175572395325,1.148716688156128
1684253074384613600,2.676613525390625,0.05301324278116226,0.30752602219581604,1.2236872911453247
1684253074394639600,2.6866396484375,0.4500862956047058,0.5555451512336731,1.871261715888977
1684253074404664600,2.69666455078125,0.9869378805160522,0.6880784034729004,3.0041706562042236
1684253074414690600,2.706690673828125,1.215516209602356,-0.006362932734191418,3.6347742080688477
1684253074424716500,2.716716552734375,1.3113913536071777,-1.0280325412750244,3.760303497314453
1684253074434742500,2.726742431640625,1.3904798030853271,-1.8738064765930176,3.3308401107788086
1684253074444768500,2.7367685546875,1.4356729984283447,-2.5943727493286133,2.577117681503296
1684253074454793500,2.74679345703125,1.4475104808807373,-3.2066752910614014,1.8388193845748901
1684253074464819500,2.7568193359375,1.387739658355713,-3.533238172531128,0.9784224629402161
1684253074474845400,2.766845458984375,1.385392665863037,-3.318384885787964,-0.2797490656375885
1684253074484871700,2.77687158203125,1.3364827632904053,-2.7254884243011475,-1.714420199394226
1684253074494896400,2.786896484375,1.1853121519088745,-2.026946783065796,-3.168693780899048
1684253074504922600,2.796922607421875,0.7947470545768738,-1.1385552883148193,-4.398383617401123
1684253074514948600,2.806948486328125,0.13684801757335663,-0.0655650943517685,-5.152505874633789
1684253074524974600,2.816974609375,-0.7316228747367859,0.7032889723777771,-5.137509346008301
1684253074534999600,2.82699951171875,-1.6118475198745728,0.3676723837852478,-3.983602285385132
1684253074545025500,2.837025634765625,-2.248051404953003,-1.5825549364089966,-1.604567289352417
1684253074555051500,2.847051513671875,-2.2457566261291504,-3.006612777709961,0.4555720388889313
1684253074565077500,2.857077392578125,-1.56573486328125,-3.3704428672790527,1.4350188970565796
1684253074575102500,2.8671025390625,-0.5091615319252014,-2.9515633583068848,1.6581822633743286
1684253074585128400,2.87712841796875,0.6224637031555176,-2.10676646232605,1.485430359840393
1684253074595154400,2.887154541015625,1.5577062368392944,-1.2199774980545044,1.1481636762619019
1684253074605180400,2.897180419921875,2.1696579456329346,-0.3364693224430084,0.7421069145202637
1684253074615206400,2.907206298828125,2.397944450378418,0.43518292903900146,0.34509700536727905
1684253074625231600,2.917231689453125,2.222818613052368,1.0637202262878418,-0.00034253112971782684
1684253074635257600,2.927257568359375,1.6953214406967163,1.5242676734924316,-0.2871873676776886
1684253074645283600,2.93728369140625,0.9598692059516907,1.7588778734207153,-0.5034192800521851
1684253074655309300,2.947309326171875,0.23141391575336456,1.749288558959961,-0.6664465069770813
1684253074665334500,2.95733447265625,-0.2800474464893341,1.6699366569519043,-0.8309109807014465
1684253074675360500,2.967360595703125,-0.5033681392669678,1.6434664726257324,-1.0239163637161255
1684253074685386500,2.977386474609375,-0.4718846380710602,1.744827151298523,-1.2422453165054321
1684253074695412700,2.987412841796875,-0.274530291557312,2.1342475414276123,-1.500630259513855
1684253074705437400,2.9974375,0.11839327961206436,3.068638324737549,-2.941502571105957
1684253074715463700,3.007463623046875,0.42995622754096985,2.54947829246521,-4.326731204986572
1684253074725489700,3.01748974609375,0.37935155630111694,1.3265478610992432,-4.787964820861816
1684253074735515600,3.027515625,0.17879317700862885,0.19946560263633728,-4.471181392669678
1684253074745540600,3.03754052734375,-0.010153807699680328,-0.6815302968025208,-3.7975199222564697
1684253074755566600,3.047566650390625,-0.1176224797964096,-1.2523185014724731,-3.0580384731292725
1684253074765592600,3.057592529296875,0.041402675211429596,-1.1031489372253418,-2.4080727100372314
1684253074775618600,3.06761865234375,0.48695671558380127,-0.6092066764831543,-1.687139630317688
1684253074785644500,3.07764453125,0.9640980362892151,-0.15119408071041107,-1.0158103704452515
1684253074795669500,3.08766943359375,1.4071226119995117,-0.35769426822662354,-0.49426281452178955
1684253074805695500,3.097695556640625,1.8728055953979492,-1.985533595085144,-0.4422643780708313
1684253074815721700,3.1077216796875,2.345207691192627,-3.7149670124053955,-0.5785998702049255
1684253074825747700,3.117747802734375,2.600830078125,-4.7363104820251465,-0.6470102667808533
1684253074835772700,3.127772705078125,2.581773519515991,-4.848178863525391,-0.5736731886863708
1684253074845798700,3.137798583984375,2.420389175415039,-3.9692611694335938,-0.3700087368488312
1684253074855824600,3.14782470703125,2.2166357040405273,-2.4763472080230713,-0.2760857045650482
1684253074865850600,3.1578505859375,1.9500236511230469,-1.1223195791244507,-0.4769493043422699
1684253074875875600,3.16787548828125,1.6636792421340942,0.04708618298172951,-0.8803337812423706
1684253074885901600,3.177901611328125,1.2853564023971558,0.8623766899108887,-1.3425930738449097
1684253074895927600,3.187927490234375,0.7845255732536316,1.0925641059875488,-1.6547331809997559
1684253074905953500,3.19795361328125,0.2855042815208435,0.9984562993049622,-1.7372493743896484
1684253074915979500,3.2079794921875,-0.11850816011428833,0.9739429950714111,-1.6591980457305908
1684253074926004700,3.218004638671875,-0.38409459590911865,1.0693309307098389,-1.4436168670654297
1684253074936030700,3.22803076171875,-0.5350276231765747,1.1730620861053467,-1.126992106437683
1684253074946056700,3.238056640625,-0.5944788455963135,1.2113388776779175,-0.8163081407546997
1684253074956082700,3.248082763671875,-0.6303321719169617,1.158333420753479,-0.48867303133010864
1684253074966107600,3.258107666015625,-0.6550331115722656,1.1232483386993408,-0.14060814678668976
1684253074976133600,3.268133544921875,-0.719793975353241,1.1696895360946655,0.24274936318397522
1684253074986159600,3.27815966796875,-0.8544217944145203,1.2170920372009277,0.6516786813735962
1684253074996185600,3.288185546875,-1.0893577337265015,1.2428704500198364,1.1253716945648193
1684253075006210600,3.29821044921875,-1.3975346088409424,1.3452248573303223,1.662429690361023
1684253075016236500,3.308236572265625,-1.7046881914138794,1.5134791135787964,2.23292875289917
1684253075026262800,3.3182626953125,-1.9963972568511963,1.5981783866882324,2.7716283798217773
1684253075036288800,3.328288818359375,-2.2241857051849365,1.3725359439849854,3.142698287963867
1684253075046313700,3.338313720703125,-2.266756296157837,0.5102041959762573,3.1343655586242676
1684253075056339700,3.348339599609375,-1.7228411436080933,-1.42063570022583,2.4924020767211914
1684253075066365700,3.35836572265625,-0.6024367809295654,-1.1415501832962036,2.6844611167907715
1684253075076391700,3.3683916015625,0.704120934009552,0.33285611867904663,3.397804021835327
1684253075086417700,3.378417724609375,0.7481218576431274,0.7249115109443665,3.4538183212280273
1684253075096442600,3.388442626953125,-0.413618803024292,-0.7426537275314331,2.813781261444092
1684253075106468600,3.398468505859375,-1.2057592868804932,-4.132134437561035,1.1670582294464111
1684253075116494600,3.40849462890625,-1.780158281326294,-9.875717163085938,-1.4544647932052612
1684253075126520600,3.4185205078125,-1.8686659336090088,-5.037182331085205,0.7184855341911316
1684253075136545500,3.428545654296875,-1.8281649351119995,0.8074745535850525,2.3324201107025146
1684253075146571500,3.438571533203125,-1.487775444984436,2.6085503101348877,1.602834701538086
1684253075156597500,3.448597412109375,-1.0338070392608643,3.068136215209961,-0.17527538537979126
1684253075166623500,3.45862353515625,-0.7649074196815491,3.7011642456054688,-1.8048087358474731
1684253075176648700,3.468648681640625,-0.7626051306724548,4.250993251800537,-2.8622958660125732
1684253075186674700,3.4786748046875,-0.965846836566925,4.39122200012207,-3.447920799255371
1684253075196700700,3.48870068359375,-1.2603330612182617,4.322561740875244,-3.6882832050323486
1684253075206726700,3.4987265625,-1.501145601272583,4.121195316314697,-3.6020567417144775
1684253075216752600,3.508752685546875,-1.6591392755508423,3.426741123199463,-2.885216474533081
1684253075226777600,3.518777587890625,-1.6229156255722046,1.916287899017334,-1.2185258865356445
1684253075236803600,3.528803466796875,-1.301438808441162,0.4448072612285614,0.39034244418144226
1684253075246829800,3.538829833984375,-0.8197370171546936,-0.2683523893356323,1.1585171222686768
1684253075256855800,3.548855712890625,-0.34466102719306946,-0.20923155546188354,1.2136626243591309
1684253075266880800,3.558880859375,-0.03137446194887161,0.1853078454732895,0.8559269309043884
1684253075276906800,3.56890673828125,0.11408340185880661,0.5890516042709351,0.33087781071662903
1684253075286932700,3.5789326171875,0.12807464599609375,0.8476402759552002,-0.20731902122497559
1684253075296958700,3.588958740234375,0.04185107722878456,0.9801200032234192,-0.6706307530403137
1684253075306983700,3.598983642578125,-0.09256491810083389,1.0242096185684204,-0.9892704486846924
1684253075317009700,3.609009765625,-0.19998325407505035,0.8084256649017334,-1.0780552625656128
1684253075327035600,3.61903564453125,-0.265543669462204,0.5610214471817017,-1.0512745380401611
1684253075337061600,3.6290615234375,-0.29129698872566223,0.41498011350631714,-0.994579553604126
1684253075347086600,3.639086669921875,-0.21857398748397827,0.2189822793006897,-0.8176384568214417
1684253075357112600,3.649112548828125,-0.055607426911592484,-0.1089164987206459,-0.4686383903026581
1684253075367138600,3.659138671875,0.1253267079591751,-0.593155026435852,0.07647471129894257
1684253075377164500,3.66916455078125,0.30663737654685974,-0.9630915522575378,0.6803334355354309
1684253075387190500,3.6791904296875,0.48031267523765564,-1.071689486503601,1.2575498819351196
1684253075397215500,3.689215576171875,0.6456060409545898,-0.9074408411979675,1.782178521156311
1684253075407241500,3.699241455078125,0.7467590570449829,-0.578871488571167,2.224804401397705
1684253075417267500,3.709267333984375,0.7747440934181213,-0.19383032619953156,2.5067291259765625
1684253075427293400,3.71929345703125,0.7294993996620178,0.13907764852046967,2.604121685028076
1684253075437318700,3.729318603515625,0.640731930732727,0.35530155897140503,2.5602221488952637
1684253075447344600,3.7393447265625,0.542686939239502,0.3782544434070587,2.462283134460449
1684253075457371000,3.749370849609375,0.46100935339927673,0.22803297638893127,2.3485121726989746
1684253075467396900,3.75939697265625,0.41423922777175903,0.013414300978183746,2.1974716186523438
1684253075477422600,3.769422607421875,0.38659054040908813,-0.15762507915496826,1.9252842664718628
1684253075487447800,3.77944775390625,0.3745734393596649,-0.2400062382221222,1.5043811798095703
1684253075497473800,3.789473876953125,0.3386157155036926,-0.2371388077735901,0.974822998046875
1684253075507499800,3.799499755859375,0.24663294851779938,-0.15970340371131897,0.4040651321411133
1684253075517525800,3.80952587890625,0.10022088140249252,-0.017011499032378197,-0.09250814467668533
1684253075527550700,3.81955078125,-0.07655376195907593,0.20008598268032074,-0.4566781520843506
1684253075537576700,3.82957666015625,-0.2398284375667572,0.4718056619167328,-0.7056381702423096
1684253075547602700,3.839602783203125,-0.37555310130119324,0.7164643406867981,-0.8757414221763611
1684253075557628700,3.849628662109375,-0.4847264587879181,0.9009287357330322,-0.984612226486206
1684253075567653600,3.859653564453125,-0.5595703721046448,1.035117745399475,-1.0847429037094116
1684253075577679600,3.8696796875,-0.5980701446533203,1.1233680248260498,-1.1576786041259766
1684253075587705600,3.87970556640625,-0.6002005338668823,1.1893419027328491,-1.1939659118652344
1684253075597731600,3.889731689453125,-0.5695832371711731,1.2197163105010986,-1.1849790811538696
1684253075607756500,3.899756591796875,-0.522490918636322,1.2250562906265259,-1.082605004310608
1684253075617782500,3.909782470703125,-0.47804173827171326,1.1677279472351074,-0.8708791136741638
1684253075627808500,3.91980859375,-0.4751248061656952,1.0160959959030151,-0.5724924206733704
1684253075637834500,3.92983447265625,-0.47635865211486816,0.7709299325942993,-0.26854264736175537
1684253075647860700,3.93986083984375,-0.43566083908081055,0.4699263870716095,-0.029334241524338722
1684253075657885400,3.949885498046875,-0.34426674246788025,0.12543345987796783,0.10950939357280731
1684253075667911400,3.959911376953125,-0.21657732129096985,-0.2300146520137787,0.12181414663791656
1684253075677937700,3.969937744140625,-0.08216653019189835,-0.5717940926551819,-0.005484680645167828
1684253075687963600,3.979963623046875,0.0029616025276482105,-0.9276842474937439,-0.20361879467964172
1684253075697988900,3.98998876953125,0.15709178149700165,-4.407711505889893,-1.6027123928070068
1684253075708014800,4.000014892578125,0.44171255826950073,-9.512959480285645,-4.291657447814941
1684253075718040800,4.010040771484375,0.6745352149009705,-10.491840362548828,-5.478015899658203
1684253075728066600,4.020066650390625,0.9462862610816956,-9.097455024719238,-5.576735496520996
1684253075738092500,4.030092529296875,1.3775652647018433,-6.648647308349609,-5.302924633026123
1684253075748117800,4.04011767578125,2.009040355682373,-3.5554351806640625,-5.023815631866455
1684253075758143700,4.050143798828125,2.693873882293701,-0.3835982382297516,-4.591922283172607
1684253075768169700,4.060169677734375,3.3785154819488525,2.628527879714966,-3.6585569381713867
1684253075778195700,4.07019580078125,3.724421501159668,4.824488639831543,-2.272157669067383
1684253075788220700,4.080220703125,3.7196178436279297,6.0880913734436035,-0.9392331838607788
1684253075798246700,4.09024658203125,3.27923321723938,5.67392635345459,0.030106840655207634
1684253075808272600,4.100272705078125,2.36588716506958,3.026625156402588,0.803886890411377
1684253075818298600,4.110298583984375,1.7835240364074707,0.23740015923976898,1.3888037204742432
1684253075828323600,4.120323486328125,2.2854788303375244,-1.5828150510787964,1.7076330184936523
1684253075838349600,4.130349609375,3.2323997020721436,-4.408597946166992,1.559520959854126
1684253075848375600,4.14037548828125,4.1150126457214355,-6.062992572784424,1.1999634504318237
1684253075858401500,4.150401611328125,4.830549716949463,-6.0184221267700195,1.0899049043655396
1684253075868426500,4.160426513671875,5.336673259735107,-5.362993240356445,1.1228408813476562
1684253075878452500,4.170452392578125,5.368646144866943,-5.182864665985107,0.8372383713722229
1684253075888478700,4.180478759765625,4.587296009063721,-3.652904987335205,0.07237976789474487
1684253075898504700,4.190504638671875,3.277855634689331,3.9808363914489746,0.1382804960012436
1684253075908530700,4.20053076171875,2.3473660945892334,7.70407772064209,-0.8958756327629089
1684253075918555600,4.2105556640625,1.6030771732330322,8.426523208618164,-1.8833283185958862
1684253075928581600,4.22058154296875,0.9432865381240845,7.149406433105469,-2.2348194122314453
1684253075938607600,4.230607666015625,0.5055803060531616,5.298016548156738,-2.148102283477783
1684253075948633600,4.240633544921875,0.16231857240200043,3.7031805515289307,-1.5293370485305786
1684253075958658800,4.250658935546875,0.10360066592693329,2.5974040031433105,-0.630167543888092
1684253075968684800,4.260684814453125,0.3680928647518158,2.326312780380249,0.1672579050064087
1684253075978710500,4.27071044921875,0.6430535912513733,1.9112858772277832,0.5808219909667969
1684253075988736500,4.280736572265625,0.9208061099052429,1.5987802743911743,0.6783249378204346
1684253075998761700,4.29076171875,1.236240267753601,1.5975717306137085,0.6333103179931641
1684253076008787700,4.30078759765625,1.4980764389038086,1.5933634042739868,0.5727342367172241
1684253076018813700,4.310813720703125,1.5921462774276733,1.4869598150253296,0.5015026330947876
1684253076028839700,4.320839599609375,1.4802312850952148,1.3400874137878418,0.5080299377441406
1684253076038865700,4.33086572265625,1.1422479152679443,1.2272818088531494,0.5870808362960815
1684253076048890600,4.340890625,0.6756319403648376,1.247920036315918,0.6398380398750305
1684253076058916600,4.35091650390625,0.22479021549224854,1.4436309337615967,0.588028609752655
1684253076068942600,4.360942626953125,-0.1679018884897232,1.7470731735229492,0.5024757385253906
1684253076078968800,4.37096875,-0.49710774421691895,1.9431777000427246,0.47465765476226807
1684253076088993500,4.38099365234375,-0.776444673538208,1.9385088682174683,0.5609495043754578
1684253076099019800,4.391019775390625,-1.0120168924331665,1.878377079963684,0.8341613411903381
1684253076109045800,4.401045654296875,-1.197986364364624,1.773741364479065,1.2889786958694458
1684253076119071700,4.41107177734375,-1.3872274160385132,1.5899347066879272,1.792701005935669
1684253076129096700,4.4210966796875,-1.5941306352615356,1.3062195777893066,2.1656622886657715
1684253076139122700,4.431122802734375,-1.8476861715316772,1.0189683437347412,2.3742616176605225
1684253076149148700,4.441148681640625,-2.1091651916503906,0.9559474587440491,2.522536516189575
1684253076159174700,4.451174560546875,-2.282127618789673,1.2726982831954956,2.7504448890686035
1684253076169200600,4.46120068359375,-2.167590379714966,1.8321601152420044,3.12359619140625
1684253076179225600,4.4712255859375,-1.7425243854522705,2.3548061847686768,3.6561777591705322
1684253076189251600,4.48125146484375,-1.0868349075317383,2.6946988105773926,4.225242614746094
1684253076199277600,4.491277587890625,-0.3130826950073242,3.385361909866333,4.729609489440918
1684253076209303600,4.501303466796875,1.0153579711914062,-5.3114142417907715,3.7606730461120605
1684253076219328800,4.511328857421875,2.3339571952819824,-20.96504783630371,1.7599700689315796
1684253076229354500,4.5213544921875,2.011810064315796,-12.643010139465332,3.2127115726470947
1684253076239380500,4.53138037109375,0.44706547260284424,0.419236421585083,5.7362260818481445
1684253076249406500,4.541406494140625,-1.2502844333648682,-1.828074336051941,3.1804723739624023
1684253076259431700,4.551431640625,-1.6722564697265625,2.755282163619995,-2.7402169704437256
1684253076269457700,4.561457763671875,-1.8664813041687012,8.302215576171875,-5.879640102386475
1684253076279483600,4.571483642578125,-2.148041009902954,8.912055015563965,-6.49745512008667
1684253076289509600,4.581509521484375,-2.3371031284332275,4.131596088409424,-6.457442283630371
1684253076299536000,4.591535888671875,-2.279555559158325,0.8118160963058472,-5.97127628326416
1684253076309560600,4.601560546875,-1.9721869230270386,-0.6587499976158142,-5.000669479370117
1684253076319586800,4.6115869140625,-1.6342955827713013,-1.396673560142517,-2.876892566680908
1684253076329612800,4.62161279296875,-1.3727623224258423,-0.18249638378620148,-0.028949042782187462
1684253076339638800,4.631638671875,-1.1086584329605103,0.9601565599441528,1.4517674446105957
1684253076349663700,4.641663818359375,-0.8596895337104797,1.5015164613723755,2.0397121906280518
1684253076359689700,4.651689697265625,-0.66554856300354,1.6650766134262085,2.293621063232422
1684253076369715700,4.6617158203125,-0.55141282081604,1.5755536556243896,2.4318623542785645
1684253076379741700,4.67174169921875,-0.5407561659812927,1.260819435119629,2.5323429107666016
1684253076389766700,4.6817666015625,-0.5543782711029053,0.6583617329597473,2.5766665935516357
1684253076399792600,4.691792724609375,-0.5169510245323181,-0.44040820002555847,2.5818302631378174
1684253076409818600,4.701818603515625,-0.4554172158241272,-1.6470037698745728,2.5136842727661133
1684253076419844600,4.7118447265625,-0.3806476294994354,-2.2663233280181885,2.2676284313201904
1684253076429870600,4.72187060546875,-0.3135858476161957,-2.347506523132324,1.960066318511963
1684253076439895600,4.7318955078125,-0.2994458079338074,-2.0953192710876465,1.7729007005691528
1684253076449921500,4.741921630859375,-0.32336464524269104,-1.450557827949524,1.7100179195404053
1684253076459947500,4.751947509765625,-0.34592828154563904,-0.4618456959724426,1.5570976734161377
1684253076469973500,4.761973388671875,-0.30445632338523865,0.5099361538887024,1.1725976467132568
1684253076479998500,4.77199853515625,-0.23252299427986145,1.2254561185836792,0.6007746458053589
1684253076490024400,4.7820244140625,-0.20526134967803955,1.64208984375,0.018519120290875435
1684253076500050400,4.792050537109375,-0.2475677877664566,1.776205062866211,-0.47029876708984375
1684253076510076700,4.80207666015625,-0.3447798192501068,1.8125381469726562,-0.8336249589920044
1684253076520101600,4.8121015625,-0.44268909096717834,1.9055283069610596,-1.0667047500610352
1684253076530128000,4.8221279296875,-0.4736013412475586,2.040695905685425,-1.177438735961914
1684253076540153900,4.83215380859375,-0.4539099335670471,2.139704465866089,-1.145681381225586
1684253076550179800,4.842179931640625,-0.42314785718917847,2.15822696685791,-1.0170557498931885
1684253076560205800,4.852205810546875,-0.39610427618026733,2.100553512573242,-0.8468453884124756
1684253076570230800,4.862230712890625,-0.355941504240036,1.9889189004898071,-0.6735226511955261
1684253076580256800,4.8722568359375,-0.293625146150589,1.8201810121536255,-0.4979569911956787
1684253076590282800,4.88228271484375,-0.24314233660697937,1.6047853231430054,-0.32701361179351807
1684253076600308700,4.892308837890625,-0.20889754593372345,1.3126325607299805,-0.15275204181671143
1684253076610333700,4.902333740234375,-0.1876516044139862,1.0219087600708008,0.0075673204846680164
1684253076620359700,4.912359619140625,-0.1719386875629425,0.7396193146705627,0.18088583648204803
1684253076630385700,4.9223857421875,-0.17312674224376678,0.4459633529186249,0.37524163722991943
1684253076640411600,4.93241162109375,-0.16968168318271637,0.1536116749048233,0.6153636574745178
1684253076650436600,4.9424365234375,-0.17225894331932068,-0.15162096917629242,0.877739667892456
1684253076660462600,4.952462646484375,-0.22457461059093475,-0.43203452229499817,1.1328240633010864
1684253076670488600,4.962488525390625,-0.30794090032577515,-0.6280451416969299,1.3334344625473022
1684253076680514600,4.9725146484375,-0.40468263626098633,-0.7029468417167664,1.4695374965667725
1684253076690540500,4.98254052734375,-0.512248694896698,-0.6444387435913086,1.5378832817077637
1684253076700565500,4.9925654296875,-0.6320043802261353,-0.49585697054862976,1.6138936281204224
1684253076710591500,5.002591552734375,-0.7422429919242859,-0.36385053396224976,1.745295524597168
1684253076720617500,5.012617431640625,-0.809106171131134,-0.265808641910553,1.9492886066436768
1684253076730643700,5.022643798828125,-0.8026973605155945,-0.2921223044395447,2.1877083778381348
1684253076740668400,5.03266845703125,-0.744006872177124,-0.5209200382232666,2.3252551555633545
1684253076750694700,5.042694580078125,-0.6631870269775391,-0.9318569302558899,2.231837511062622
1684253076760720600,5.052720703125,-0.5716059803962708,-1.3589088916778564,1.8711614608764648
1684253076770746600,5.06274658203125,-0.4780014455318451,-1.5931427478790283,1.3190964460372925
1684253076780771800,5.072771728515625,-0.329961895942688,-1.5481499433517456,0.6541280150413513
1684253076790797800,5.0827978515625,-0.12433479726314545,-1.265047311782837,-0.01935163326561451
1684253076800823800,5.09282373046875,0.11036798357963562,-0.7072742581367493,-0.5955177545547485
1684253076810849800,5.102849853515625,0.31918978691101074,0.05015894025564194,-0.966826319694519
1684253076820875500,5.11287548828125,0.45657026767730713,0.7386199235916138,-1.08405339717865
1684253076830900700,5.122900634765625,0.5375756025314331,1.136918306350708,-1.0282140970230103
1684253076840926700,5.1329267578125,0.6177439093589783,1.280674934387207,-0.9573551416397095
1684253076850952700,5.14295263671875,0.7547928690910339,1.252642035484314,-0.9901508092880249
1684253076860978700,5.152978759765625,0.9266634583473206,1.1640812158584595,-1.2331242561340332
1684253076871003600,5.163003662109375,1.103403925895691,1.1432604789733887,-1.6579583883285522
1684253076881029600,5.173029541015625,1.3215229511260986,1.2641876935958862,-2.1690802574157715
1684253076891055600,5.1830556640625,1.5258965492248535,1.321972131729126,-2.603236675262451
1684253076901081900,5.193081787109375,1.683308720588684,1.277280569076538,-2.9095816612243652
1684253076911107800,5.20310791015625,1.7377243041992188,1.2443333864212036,-3.1201133728027344
1684253076921132800,5.2131328125,1.709633231163025,1.3695697784423828,-3.2145917415618896
1684253076931158800,5.22315869140625,1.6932605504989624,1.6977473497390747,-3.0290791988372803
1684253076941184800,5.233184814453125,1.7648355960845947,2.2317326068878174,-2.526207685470581
1684253076951210800,5.243210693359375,1.8346625566482544,2.6527462005615234,-1.727251648902893
1684253076961235700,5.253235595703125,1.914859652519226,2.818725347518921,-0.740484356880188
1684253076971261700,5.26326171875,1.8084248304367065,2.5056703090667725,0.0063460771925747395
1684253076981287700,5.27328759765625,1.5563111305236816,1.316902995109558,0.27235883474349976
1684253076991313700,5.283313720703125,1.174456238746643,-0.8021115660667419,-0.4038054943084717
1684253077001338600,5.293338623046875,0.9087477326393127,-2.313789129257202,-1.1936274766921997
1684253077011364600,5.303364501953125,0.8886929154396057,-2.947883367538452,-1.6585721969604492
1684253077021390600,5.313390625,1.0061074495315552,-3.312498092651367,-1.7925320863723755
1684253077031416600,5.32341650390625,1.188607931137085,-3.5375072956085205,-1.8189256191253662
1684253077041442600,5.333442626953125,1.2934752702713013,-3.1856439113616943,-1.858242154121399
1684253077051467800,5.3434677734375,1.2672784328460693,-2.031099319458008,-1.854391098022461
1684253077061493800,5.35349365234375,1.0860822200775146,-0.14663495123386383,-1.6832294464111328
1684253077071519500,5.36351953125,0.8123986124992371,1.9348758459091187,-1.4048672914505005
1684253077081545500,5.37354541015625,0.6127744317054749,3.526271104812622,-1.1381226778030396
1684253077091570700,5.38357080078125,0.5334343910217285,4.527029514312744,-0.9487056136131287
1684253077101596700,5.3935966796875,0.5445975661277771,5.105501174926758,-0.7711849212646484
1684253077111622700,5.40362255859375,0.6039392352104187,5.302494525909424,-0.608332097530365
1684253077121649000,5.41364892578125,0.6803083419799805,4.9253010749816895,-0.6310233473777771
1684253077131673600,5.423673583984375,0.8264619708061218,3.4984512329101562,-1.0126546621322632
1684253077141699800,5.433699951171875,0.9012885093688965,1.8582558631896973,-1.277688980102539
1684253077151725800,5.443725830078125,0.8087804913520813,0.8130366802215576,-1.195186972618103
1684253077161751800,5.453751708984375,0.647413432598114,0.506815493106842,-0.8475611805915833
1684253077171777800,5.46377783203125,0.5360560417175293,0.7498860359191895,-0.35295000672340393
1684253077181802800,5.473802734375,0.5209169983863831,1.3025643825531006,0.16563937067985535
1684253077191828700,5.483828857421875,0.5569353699684143,1.8696142435073853,0.5732778906822205
1684253077201854700,5.493854736328125,0.5642103552818298,2.248258590698242,0.7957583665847778
1684253077211880700,5.503880615234375,0.5121417045593262,2.423001527786255,0.8444635272026062
1684253077221905700,5.51390576171875,0.4136929214000702,2.4929778575897217,0.7667942643165588
1684253077231931600,5.523931640625,0.2946241497993469,2.5242419242858887,0.619801938533783
1684253077241957600,5.53395751953125,0.1483348309993744,2.542747735977173,0.44141680002212524
1684253077251983600,5.543983642578125,-0.000531521625816822,2.5610601902008057,0.23554882407188416
1684253077262008600,5.554008544921875,-0.1341649442911148,2.6190547943115234,0.012893375009298325
1684253077272034600,5.56403466796875,-0.23515592515468597,2.7787399291992188,-0.20534464716911316
1684253077282060500,5.574060546875,-0.2810685634613037,3.0883543491363525,-0.3876420259475708
1684253077292086500,5.58408642578125,-0.31874358654022217,3.588491439819336,-0.5000847578048706
1684253077302112500,5.594112548828125,-0.3688272535800934,4.259683609008789,-0.5538172125816345
1684253077312137700,5.6041376953125,-0.41580528020858765,4.965807914733887,-0.877215564250946
1684253077322163500,5.61416357421875,-0.4518953859806061,5.326801300048828,-1.2890706062316895
1684253077332189700,5.624189697265625,-0.4440893828868866,5.136113166809082,-1.464706540107727
1684253077342215700,5.634215576171875,-0.4670194387435913,4.5442070960998535,-1.4669686555862427
1684253077352241000,5.644240966796875,-0.4981933534145355,3.995537281036377,-1.359635829925537
1684253077362267000,5.654266845703125,-0.48418939113616943,3.7111997604370117,-1.0842338800430298
1684253077372292900,5.66429296875,-0.34318628907203674,3.599484443664551,-0.6129997372627258
1684253077382318800,5.67431884765625,-0.09394502639770508,3.6201698780059814,0.06085222586989403
1684253077392344800,5.6843447265625,0.12835748493671417,3.6436872482299805,0.6132795810699463
1684253077402369800,5.694369873046875,0.2176239788532257,3.3033804893493652,0.9185298085212708
1684253077412395800,5.704395751953125,0.15054850280284882,2.554337978363037,0.96224045753479
1684253077422421800,5.714421875,0.01737898960709572,1.544822096824646,0.8405774235725403
1684253077432447700,5.72444775390625,-0.04207834228873253,0.5807520747184753,0.595668375492096
1684253077442472700,5.73447265625,0.04392178729176521,-0.0727442055940628,0.2695850431919098
1684253077452498700,5.744498779296875,0.15514887869358063,-0.38422298431396484,-0.021839449182152748
1684253077462524700,5.754524658203125,0.2093583196401596,-0.3861396610736847,-0.1338714361190796
1684253077472550700,5.764550537109375,0.12774351239204407,0.24678228795528412,0.14569304883480072
1684253077482575600,5.77457568359375,-0.046182211488485336,1.641043782234192,0.7602896690368652
1684253077492601600,5.7846015625,-0.10375399887561798,2.674644947052002,0.9681790471076965
1684253077502627600,5.794627685546875,0.010437826626002789,3.0210986137390137,0.5526689291000366
1684253077512653600,5.804653564453125,0.1440027505159378,3.0725717544555664,-0.15304780006408691
1684253077522679800,5.8146796875,0.16655652225017548,3.2029082775115967,-0.8263100981712341
1684253077532704500,5.82470458984375,0.06868092715740204,3.462512254714966,-1.4201605319976807
1684253077542730500,5.83473046875,-0.09630456566810608,3.6987216472625732,-1.8708797693252563
1684253077552756700,5.8447568359375,-0.26959100365638733,3.8491291999816895,-2.058943510055542
1684253077562782700,5.85478271484375,-0.3858771324157715,3.871166944503784,-1.870474100112915
1684253077572807700,5.8648076171875,-0.4063059985637665,3.601030111312866,-1.36741042137146
1684253077582833700,5.874833740234375,-0.293997585773468,3.1313040256500244,-0.7648939490318298
1684253077592859600,5.884859619140625,-0.05682159587740898,2.7600245475769043,-0.3447352945804596
1684253077602885600,5.8948857421875,0.23555514216423035,2.6433568000793457,-0.22129005193710327
1684253077612910800,5.904910888671875,0.502653181552887,2.7662596702575684,-0.35167017579078674
1684253077622936800,5.914936767578125,0.6819550395011902,2.9872026443481445,-0.6329410076141357
1684253077632962800,5.924962890625,0.7557346820831299,3.178849935531616,-0.9429686069488525
1684253077642988800,5.93498876953125,0.7277421951293945,3.2336249351501465,-1.2082847356796265
1684253077653014800,5.945014892578125,0.5992167592048645,3.0976476669311523,-1.3843821287155151
1684253077663039700,5.955039794921875,0.4112588167190552,2.866849660873413,-1.463457703590393
1684253077673065700,5.965065673828125,0.2108123004436493,2.593742609024048,-1.4561188220977783
1684253077683091700,5.975091796875,0.06596378237009048,2.304731607437134,-1.3681586980819702
1684253077693117700,5.98511767578125,0.011601638048887253,2.075887441635132,-1.2101762294769287
1684253077703142700,5.995142578125,0.07307405024766922,1.9488136768341064,-0.9963958263397217
1684253077713168600,6.005168701171875,0.2103901207447052,1.9012006521224976,-0.7462754845619202
1684253077723194600,6.015194580078125,0.3843286335468292,1.8952692747116089,-0.4752194583415985
1684253077733220600,6.025220703125,0.5266075730323792,1.9063071012496948,-0.21001912653446198
1684253077743246800,6.035246826171875,0.6167038679122925,1.8875672817230225,0.01243286021053791
1684253077753271600,6.045271484375,0.6169695854187012,1.812269926071167,0.1745174080133438
1684253077763297800,6.0552978515625,0.5456207990646362,1.7031139135360718,0.24530743062496185
1684253077773323800,6.06532373046875,0.4338866174221039,1.5960637331008911,0.2117004543542862
1684253077783349800,6.075349853515625,0.3078421354293823,1.567160964012146,0.08956361562013626
1684253077793374700,6.085374755859375,0.19780462980270386,1.7281324863433838,-0.1262955218553543
1684253077803400700,6.095400634765625,0.07880580425262451,2.1223132610321045,-0.40718764066696167
1684253077813426400,6.105426513671875,-0.048547226935625076,2.6153905391693115,-0.6805195212364197
1684253077823452400,6.115452392578125,-0.18116652965545654,3.1067709922790527,-0.8929076790809631
1684253077833477400,6.125477294921875,-0.2841077446937561,3.5572378635406494,-1.0158275365829468
1684253077843503400,6.13550341796875,-0.34781989455223083,3.917968511581421,-1.0474096536636353
1684253077853529300,6.145529296875,-0.3642211854457855,4.165236949920654,-1.0010782480239868
1684253077863555300,6.155555419921875,-0.3454493582248688,4.307137489318848,-0.9153627753257751
1684253077873581300,6.165581298828125,-0.3074731230735779,4.332310676574707,-0.8145452737808228
1684253077883606500,6.1756064453125,-0.2625359892845154,4.24833869934082,-0.7144900560379028
1684253077893632500,6.185632568359375,-0.2286345660686493,4.040411472320557,-0.6071949601173401
1684253077903658800,6.19565869140625,-0.20029932260513306,3.7183640003204346,-0.5022400617599487
1684253077913684500,6.2056845703125,-0.17333336174488068,3.322190046310425,-0.4146308898925781
1684253077923709700,6.215709716796875,-0.145141139626503,2.8931825160980225,-0.3523576557636261
1684253077933735700,6.225735595703125,-0.10494422167539597,2.4599266052246094,-0.3041224479675293
1684253077943761700,6.23576171875,-0.046757884323596954,2.060053825378418,-0.27350914478302
1684253077953787600,6.24578759765625,0.04082496091723442,1.7417939901351929,-0.23722659051418304
1684253077963813600,6.255813720703125,0.1360289752483368,1.5160130262374878,-0.19236165285110474
1684253077973838600,6.265838623046875,0.20409081876277924,1.3839049339294434,-0.14278408885002136
1684253077983864600,6.275864501953125,0.2455005794763565,1.3044655323028564,-0.09634442627429962
1684253077993890600,6.285890625,0.26268914341926575,1.270246148109436,-0.0704461932182312
1684253078003916500,6.29591650390625,0.26193681359291077,1.2628060579299927,-0.08104344457387924
1684253078013941500,6.30594140625,0.2388814240694046,1.2332854270935059,-0.1823326051235199
1684253078023967500,6.315967529296875,0.1813451647758484,1.000515341758728,-0.5678960084915161
1684253078033993500,6.325993408203125,0.1020396500825882,0.5066131949424744,-1.2640185356140137
1684253078044019500,6.33601953125,0.041256729513406754,-0.07061415910720825,-2.003504514694214
1684253078054044400,6.34604443359375,-0.019551163539290428,-0.6043519973754883,-2.619079828262329
1684253078064070400,6.3560703125,-0.05513232573866844,-1.0537649393081665,-3.0315239429473877
1684253078074096400,6.366096435546875,-0.07072077691555023,-1.3539988994598389,-3.2358803749084473
1684253078084122400,6.376122314453125,-0.07192878425121307,-1.478779673576355,-3.2773590087890625
1684253078094148600,6.386148681640625,-0.043909184634685516,-1.399901270866394,-3.1895482540130615
1684253078104173300,6.39617333984375,0.03750285133719444,-1.0655145645141602,-2.986645460128784
1684253078114199600,6.406199462890625,0.16201886534690857,-0.44356247782707214,-2.736318349838257
1684253078124225500,6.4162255859375,0.3150070905685425,0.37784135341644287,-2.519036293029785
1684253078134251500,6.42625146484375,0.5248671770095825,1.1534351110458374,-2.376542329788208
1684253078144276700,6.43627685546875,0.7350108623504639,1.4591675996780396,-2.3956985473632812
1684253078154302700,6.446302734375,0.9870020151138306,1.1387150287628174,-2.431670904159546
1684253078164328400,6.456328369140625,1.2321176528930664,0.3556889593601227,-2.267723321914673
1684253078174354400,6.4663544921875,1.4202594757080078,-0.47992566227912903,-1.9208804368972778
1684253078184379600,6.476379638671875,1.469456672668457,-1.048283338546753,-1.4855711460113525
1684253078194405600,6.486405517578125,1.4278981685638428,-1.2218880653381348,-1.0085972547531128
1684253078204431600,6.496431640625,1.346590518951416,-0.9418569803237915,-0.6053667068481445
1684253078214457600,6.50645751953125,1.2483735084533691,-0.4093349277973175,-0.3837744891643524
1684253078224483600,6.516483642578125,1.1409804821014404,0.2752958834171295,-0.37104058265686035
1684253078234508500,6.526508544921875,1.0108875036239624,0.8960821628570557,-0.5593709945678711
1684253078244534500,6.536534423828125,0.8917791843414307,1.4195821285247803,-0.8098900318145752
1684253078254560500,6.546560546875,0.8554317355155945,1.9307383298873901,-1.0339152812957764
1684253078264586500,6.55658642578125,0.9086773991584778,2.165860652923584,-1.2101163864135742
1684253078274611500,6.566611572265625,0.9620347023010254,1.7937906980514526,-1.38588547706604
1684253078284637400,6.576637451171875,1.002272129058838,1.0049290657043457,-1.5760397911071777
1684253078294663400,6.586663330078125,1.0913500785827637,0.3468822240829468,-1.7298723459243774
1684253078304689400,6.596689453125,1.2176589965820312,0.19324098527431488,-1.7923405170440674
1684253078314715600,6.606715576171875,1.326293706893921,0.6013852953910828,-1.6835038661956787
1684253078324740400,6.616740234375,1.3926469087600708,1.1040047407150269,-1.4639555215835571
1684253078334766600,6.6267666015625,1.4287277460098267,1.386657476425171,-1.1945856809616089
1684253078344792600,6.63679248046875,1.4294108152389526,1.2884409427642822,-0.9608778357505798
1684253078354818600,6.646818603515625,1.369943380355835,0.8732764720916748,-0.8071370124816895
1684253078364843500,6.656843505859375,1.3176618814468384,0.4896547496318817,-0.6782264113426208
1684253078374869500,6.666869384765625,1.3128732442855835,0.2974887192249298,-0.5880429744720459
1684253078384895500,6.6768955078125,1.3790009021759033,0.30410560965538025,-0.519744873046875
1684253078394921500,6.68692138671875,1.4774614572525024,0.3374263048171997,-0.4202355444431305
1684253078404946700,6.69694677734375,1.5525343418121338,0.24441967904567719,-0.26204538345336914
1684253078414972400,6.706972412109375,1.653141736984253,0.0879729613661766,-0.036337971687316895
1684253078424998400,6.716998291015625,1.8160291910171509,0.02518494985997677,0.2226153016090393
1684253078435024400,6.7270244140625,2.0872538089752197,0.062275480479002,0.4865955114364624
1684253078445050400,6.73705029296875,2.4186809062957764,0.17599138617515564,0.6969745755195618
1684253078455075600,6.74707568359375,2.7107865810394287,0.41100239753723145,0.8150573968887329
1684253078465101600,6.7571015625,2.878127336502075,0.7988814115524292,0.8376133441925049
1684253078475127600,6.76712744140625,2.8264358043670654,1.1851171255111694,0.742741584777832
1684253078485153500,6.777153564453125,2.5726239681243896,1.4996497631072998,0.5258255004882812
1684253078495178500,6.787178466796875,2.201303720474243,1.7086178064346313,0.2372971773147583
1684253078505204500,6.79720458984375,1.7089723348617554,1.8260844945907593,-0.03988035395741463
1684253078515230500,6.80723046875,1.166597843170166,1.952426552772522,-0.2455657720565796
1684253078525256700,6.817256591796875,0.7150679230690002,2.05649733543396,-0.3303877115249634
1684253078535282700,6.82728271484375,0.3690028190612793,2.09511137008667,-0.24351803958415985
1684253078545307600,6.8373076171875,0.12584024667739868,2.006685733795166,-0.005462072789669037
1684253078555333600,6.847333740234375,-0.06165630742907524,1.7837632894515991,0.2682654559612274
1684253078565359600,6.857359619140625,-0.1960868090391159,1.521679162979126,0.4912729561328888
1684253078575385600,6.867385498046875,-0.29597964882850647,1.295026183128357,0.6424243450164795
1684253078585410600,6.87741064453125,-0.3652585744857788,1.1195489168167114,0.7858626842498779
1684253078595436500,6.8874365234375,-0.41163504123687744,0.9595769643783569,0.9647966027259827
1684253078605462500,6.897462646484375,-0.44789451360702515,0.7451749444007874,1.208514928817749
1684253078615488500,6.907488525390625,-0.5011240839958191,0.5244226455688477,1.505441665649414
1684253078625514500,6.917514404296875,-0.6017042398452759,0.2928961515426636,1.824353814125061
1684253078635539500,6.92753955078125,-0.7457072138786316,0.07624424993991852,2.1725285053253174
1684253078645565400,6.9375654296875,-0.9095377326011658,-0.11287294328212738,2.535787582397461
1684253078655591400,6.94759130859375,-1.0901143550872803,-0.30298498272895813,2.86909818649292
1684253078665617400,6.957617431640625,-1.2752535343170166,-0.4648095667362213,3.1898698806762695
1684253078675642400,6.967642333984375,-1.4452611207962036,-0.5727373361587524,3.513119697570801
1684253078685668400,6.97766845703125,-1.5570228099822998,-0.6002773642539978,3.8396620750427246
1684253078695694300,6.9876943359375,-1.573844313621521,-0.5699254870414734,4.1739912033081055
1684253078705720300,6.99772021484375,-1.4762921333312988,-0.40311121940612793,4.526389122009277
1684253078715745500,7.00774560546875,-1.2655718326568604,-0.23700286448001862,4.816524505615234
1684253078725771500,7.017771484375,-1.035627841949463,-0.2705610990524292,4.9954514503479
1684253078735797500,7.027797607421875,-0.8357186317443848,-0.532162070274353,5.098136901855469
1684253078745823700,7.03782373046875,-0.8361170291900635,-1.8954582214355469,4.770446300506592
1684253078755849500,7.047849365234375,-0.537596583366394,-9.608154296875,0.263755202293396
1684253078765874700,7.057874755859375,-0.4166581630706787,-11.260035514831543,-1.4034273624420166
1684253078775900700,7.067900634765625,-1.0339607000350952,-6.073704719543457,0.4147503972053528
1684253078785926700,7.0779267578125,-1.251054048538208,-1.4292128086090088,0.9749313592910767
1684253078795952600,7.08795263671875,-1.1979433298110962,1.4922670125961304,-0.43940606713294983
1684253078805977600,7.0979775390625,-0.9675295352935791,3.3911917209625244,-2.523794412612915
1684253078816003000,7.108003173828125,-0.8484541773796082,4.089574813842773,-3.4164481163024902
1684253078826029000,7.118029052734375,-0.8971551656723022,3.644690752029419,-3.311173915863037
1684253078836055000,7.128054931640625,-1.0623226165771484,2.9534735679626465,-2.898031234741211
1684253078846081000,7.1380810546875,-1.3157706260681152,2.2456185817718506,-2.4460315704345703
1684253078856106000,7.14810595703125,-1.686484932899475,1.1950554847717285,-1.947464942932129
1684253078866132000,7.158132080078125,-2.077117443084717,-0.07731692492961884,-1.373865008354187
1684253078876158000,7.168157958984375,-2.3864855766296387,-1.3335410356521606,-0.7989866137504578
1684253078886184000,7.178183837890625,-2.535975933074951,-2.282766819000244,-0.3279370367527008
1684253078896209000,7.188208984375,-2.3680825233459473,-2.54799747467041,0.14099641144275665
1684253078906235000,7.19823486328125,-1.9256494045257568,-0.8890718817710876,1.4672250747680664
1684253078916260900,7.2082607421875,-1.2888312339782715,1.3296971321105957,3.0226449966430664
1684253078926286800,7.218286865234375,-0.5800449848175049,2.4720981121063232,3.9420619010925293
1684253078936312000,7.22831201171875,-0.012086722999811172,2.7853870391845703,4.427495956420898
1684253078946338000,7.238338134765625,0.39273983240127563,1.57387375831604,4.4635114669799805
1684253078956364000,7.248364013671875,0.7476828098297119,-1.6415477991104126,3.669997215270996
1684253078966390000,7.25839013671875,0.9995709657669067,-3.929288625717163,2.6444218158721924
1684253078976416000,7.268416015625,1.016204833984375,-4.388768672943115,1.823789358139038
1684253078986441200,7.278441162109375,0.8367343544960022,-3.9558298587799072,1.2482962608337402
1684253078996467200,7.28846728515625,0.509432315826416,-3.426767587661743,0.9655123353004456
1684253079006493200,7.2984931640625,0.08052806556224823,-2.9346392154693604,0.9017192125320435
1684253079016519200,7.308519287109375,-0.31058773398399353,-2.402106285095215,0.9913772344589233
1684253079026544000,7.318544189453125,-0.6244404315948486,-1.8995728492736816,1.1606868505477905
1684253079036570000,7.328570068359375,-0.817863404750824,-1.4559214115142822,1.3660478591918945
1684253079046596000,7.33859619140625,-0.8716464638710022,-1.0727882385253906,1.5836049318313599
1684253079056622000,7.3486220703125,-0.7878468632698059,-0.6992464661598206,1.8407824039459229
1684253079066648000,7.35864794921875,-0.5907412767410278,-0.40764787793159485,2.1426546573638916
1684253079076673000,7.368673095703125,-0.30618026852607727,-0.3565170168876648,2.4037232398986816
1684253079086699000,7.378698974609375,0.08139409124851227,-0.587754487991333,2.4613077640533447
1684253079096725000,7.38872509765625,0.4943224787712097,-0.9387714862823486,2.27781081199646
1684253079106751000,7.3987509765625,0.8074729442596436,-1.2453266382217407,1.9406013488769531
1684253079116776000,7.40877587890625,0.9168322086334229,-1.4111108779907227,1.5393460988998413
1684253079126802000,7.418802001953125,0.7922300696372986,-1.4571657180786133,1.112587332725525
1684253079136828000,7.428827880859375,0.4991641342639923,-1.402746558189392,0.6751570701599121
1684253079146854000,7.43885400390625,0.13371479511260986,-1.258204460144043,0.23884817957878113
1684253079156878800,7.44887890625,-0.21736380457878113,-1.0278187990188599,-0.20967356860637665
1684253079166904800,7.45890478515625,-0.49262094497680664,-0.7081204652786255,-0.6295526027679443
1684253079176930800,7.468930908203125,-0.6758170127868652,-0.33064016699790955,-0.9405968189239502
1684253079186957000,7.47895703125,-0.8061054944992065,0.11358470469713211,-1.0845720767974854
1684253079196983000,7.488983154296875,-0.9170873165130615,0.6683979034423828,-0.995815634727478
1684253079207008000,7.499008056640625,-1.0316849946975708,1.3183887004852295,-0.6754464507102966
1684253079217034000,7.509033935546875,-1.0728555917739868,1.9320237636566162,-0.2936980724334717
1684253079227060000,7.51906005859375,-0.9895338416099548,2.3914334774017334,-0.003930187318474054
1684253079237086000,7.5290859375,-0.8019554615020752,2.6791319847106934,0.15563029050827026
1684253079247111200,7.539111083984375,-0.5604680180549622,2.7720417976379395,0.24529758095741272
1684253079257137200,7.54913720703125,-0.31176385283470154,2.5896294116973877,0.33941739797592163
1684253079267163100,7.5591630859375,-0.12629784643650055,2.036745071411133,0.4885357618331909
1684253079277189000,7.569189208984375,-0.00543887447565794,1.2873907089233398,0.6515646576881409
1684253079287215000,7.579215087890625,0.0389898419380188,0.38571277260780334,0.8287503123283386
1684253079297240000,7.589239990234375,0.04690852388739586,-0.45924636721611023,0.9538267850875854
1684253079307266000,7.59926611328125,0.06285153329372406,-1.060555338859558,0.9995737075805664
1684253079317292000,7.6092919921875,0.10870136320590973,-1.4505149126052856,1.0723929405212402
1684253079327318000,7.619318115234375,0.20085152983665466,-1.6542856693267822,1.2739849090576172
1684253079337343000,7.629343017578125,0.32454079389572144,-1.6789031028747559,1.6626665592193604
1684253079347369000,7.639368896484375,0.4637511372566223,-1.5802639722824097,2.154550313949585
1684253079357395000,7.64939501953125,0.5764090418815613,-1.468743920326233,2.585674524307251
1684253079367421000,7.6594208984375,0.6271433234214783,-1.3959537744522095,2.9162256717681885
1684253079377446000,7.66944580078125,0.6868302226066589,-1.3113383054733276,3.2097835540771484
1684253079387472000,7.679471923828125,0.8111668229103088,-1.2534253597259521,3.223381996154785
1684253079397498000,7.689498046875,1.020716905593872,-1.5237232446670532,2.5078377723693848
1684253079407524000,7.699524169921875,1.2660415172576904,-2.0472514629364014,1.176102876663208
1684253079417550000,7.709550048828125,1.3904908895492554,-2.460665225982666,-0.36389246582984924
1684253079427575000,7.719574951171875,1.3491383790969849,-2.689516544342041,-1.8853185176849365
1684253079437601000,7.72960107421875,1.1636872291564941,-2.7774972915649414,-3.2491602897644043
1684253079447627000,7.739626953125,0.8698740005493164,-2.646746873855591,-4.33643913269043
1684253079457653000,7.749653076171875,0.5273457169532776,-2.3146321773529053,-5.041377544403076
1684253079467678000,7.759677978515625,0.1588716059923172,-1.9699695110321045,-5.229214191436768
1684253079477704000,7.769703857421875,-0.3346143364906311,-1.4541093111038208,-4.650155544281006
1684253079487730000,7.77972998046875,-0.6206969618797302,-0.888615608215332,-3.979795455932617
1684253079497756000,7.789755859375,-0.40946531295776367,-0.4363659620285034,-3.7163782119750977
1684253079507782000,7.799781982421875,0.07105150818824768,-0.001383897615596652,-3.717482328414917
1684253079517807000,7.80980712890625,0.5614471435546875,0.37404847145080566,-3.7605953216552734
1684253079527833000,7.8198330078125,1.0075769424438477,0.5865743160247803,-3.6002087593078613
1684253079537859000,7.829859130859375,1.3911281824111938,0.14449861645698547,-2.974047899246216
1684253079547885000,7.839885009765625,1.6762688159942627,-1.4123605489730835,-2.3108253479003906
1684253079557910000,7.849909912109375,1.6186765432357788,-2.5686182975769043,-1.8898019790649414
1684253079567936000,7.85993603515625,1.2819222211837769,-2.952410936355591,-1.5738277435302734
1684253079577962000,7.8699619140625,0.9592648148536682,-2.493100881576538,-1.4140856266021729
1684253079587988200,7.87998828125,0.9250282645225525,-1.5363205671310425,-1.3050984144210815
1684253079598014200,7.89001416015625,1.2008650302886963,-0.8095042109489441,-1.1781517267227173
1684253079608039200,7.9000390625,1.600342869758606,-0.5521698594093323,-1.0402237176895142
1684253079618065200,7.910065185546875,1.9853419065475464,-0.6259433627128601,-0.9106271266937256
1684253079628091100,7.920091064453125,2.2301549911499023,-0.6221054792404175,-0.8281503319740295
1684253079638117000,7.9301171875,2.25659441947937,-0.39248552918434143,-0.7972993850708008
1684253079648142000,7.94014208984375,2.0610878467559814,-0.19317452609539032,-0.7441306710243225
1684253079658168000,7.95016796875,1.8081183433532715,-0.14049333333969116,-0.6524855494499207
1684253079668194000,7.960194091796875,1.5601998567581177,-0.3304731249809265,-0.572808027267456
1684253079678220000,7.970219970703125,1.3167864084243774,-0.6976029276847839,-0.5879366397857666
1684253079688245000,7.980244873046875,1.1097270250320435,-0.8120442628860474,-0.68817138671875
1684253079698271000,7.99027099609375,0.9184967279434204,-0.30159348249435425,-0.7877510786056519
1684253079708297000,8.000296875,0.6564025282859802,0.5534942746162415,-0.9023831486701965
1684253079718323000,8.010322998046876,0.33811309933662415,1.247427225112915,-1.0686842203140259
1684253079728349000,8.020348876953125,-0.007980660535395145,1.6296030282974243,-1.2562668323516846
1684253079738374000,8.030373779296875,-0.3342541456222534,1.768287181854248,-1.3772289752960205
1684253079748399900,8.04039990234375,-0.5862738490104675,1.7644858360290527,-1.345352292060852
1684253079758425900,8.05042578125,-0.7772128582000732,1.6264592409133911,-1.1589088439941406
1684253079768451800,8.060451904296874,-0.9160812497138977,1.3822031021118164,-0.8312729001045227
1684253079778477000,8.07047705078125,-1.0187865495681763,1.0544583797454834,-0.43084976077079773
1684253079788503000,8.0805029296875,-1.0643924474716187,0.7788866758346558,-0.0021367338486015797
1684253079798529000,8.090529052734375,-1.0793875455856323,0.6186948418617249,0.423332542181015
1684253079808555000,8.100554931640625,-1.0729515552520752,0.5713398456573486,0.8436776399612427
1684253079818580200,8.110580322265625,-1.0843509435653687,0.6287362575531006,1.2787988185882568
1684253079828606200,8.120606201171874,-1.1268144845962524,0.7718036770820618,1.7017143964767456
1684253079838632200,8.130632080078126,-1.2574790716171265,0.938900351524353,2.079590320587158
1684253079848658200,8.140658203125,-1.457676887512207,1.1418167352676392,2.410524606704712
1684253079858684400,8.150684326171875,-1.6329139471054077,1.4252917766571045,2.668377161026001
1684253079868709000,8.160709228515625,-1.7588857412338257,1.7852967977523804,2.8061511516571045
1684253079878735400,8.1707353515625,-1.7946678400039673,2.1874048709869385,2.7681806087493896
1684253079888761300,8.18076123046875,-1.5944000482559204,2.623863935470581,2.5288426876068115
1684253079898787300,8.190787353515624,-1.3537037372589111,2.778005361557007,1.963094711303711
1684253079908812300,8.200812255859375,-1.2156193256378174,1.9325886964797974,1.4935247898101807
1684253079918838300,8.21083837890625,-1.109270453453064,0.919208824634552,1.0150483846664429
1684253079928864300,8.2208642578125,-0.829452633857727,0.43296194076538086,0.545633852481842
1684253079938890200,8.23089013671875,-0.44008874893188477,0.09713136404752731,0.09097680449485779
1684253079948916200,8.240916259765624,-0.18766126036643982,-0.057356737554073334,-0.5619325637817383
1684253079958941200,8.250941162109376,-0.4746766686439514,-1.999990463256836,-0.4287314713001251
1684253079968967200,8.26096728515625,-0.12162646651268005,-7.8480095863342285,2.4135706424713135
1684253079978993200,8.2709931640625,0.19653932750225067,-9.40134048461914,4.999523162841797
1684253079989019100,8.28101904296875,0.5343943238258362,-7.744410991668701,6.555888652801514
1684253079999044000,8.291044189453125,0.8528999090194702,-5.056534290313721,5.7982892990112305
1684253080009070000,8.301070068359374,1.1323702335357666,-2.1794605255126953,2.389803409576416
1684253080019096000,8.311095947265626,1.2616573572158813,0.5309844613075256,-1.4687954187393188
1684253080029122000,8.3211220703125,1.2821197509765625,2.5021510124206543,-3.9567389488220215
1684253080039148000,8.33114794921875,1.206491231918335,3.609485387802124,-5.147265911102295
1684253080049173000,8.341173095703125,0.9082065224647522,3.8388009071350098,-5.704040050506592
1684253080059199000,8.351198974609375,0.5469383001327515,3.5861551761627197,-5.885449409484863
1684253080069225000,8.361224853515624,0.28069040179252625,3.2534921169281006,-5.877803325653076
1684253080079251200,8.371251220703124,0.034554384648799896,2.7473526000976562,-5.533816814422607
1684253080089276200,8.381276123046876,-0.28239214420318604,1.0202882289886475,-4.238417148590088
1684253080099302400,8.391302490234375,-0.7466519474983215,-1.9256912469863892,-1.9763901233673096
1684253080109328400,8.401328369140625,-1.0883619785308838,-4.004147529602051,0.15811510384082794
1684253080119354400,8.411354248046875,-0.9573532342910767,-3.8348240852355957,1.4805113077163696
1684253080129380400,8.42138037109375,-0.4764997363090515,-2.3254761695861816,2.134678840637207
1684253080139405300,8.4314052734375,0.0617455430328846,-0.7289113998413086,2.251986503601074
1684253080149431300,8.441431396484376,0.40335002541542053,0.45766907930374146,1.9742109775543213
1684253080159457300,8.451457275390625,0.49515500664711,1.3726463317871094,1.471360206604004
1684253080169483300,8.461483154296875,0.4069175720214844,2.069390058517456,0.944154679775238
1684253080179508200,8.47150830078125,0.18099045753479004,2.5276150703430176,0.5035181641578674
1684253080189534200,8.4815341796875,-0.13731880486011505,2.85180401802063,0.21873731911182404
1684253080199560200,8.491560302734374,-0.466434121131897,3.188222646713257,0.0881996676325798
1684253080209586200,8.501586181640626,-0.6558602452278137,3.7750210762023926,0.2638987898826599
1684253080219611100,8.511611083984375,-0.4790712594985962,5.360888957977295,1.3312069177627563
1684253080229637000,8.52163720703125,-0.0009866971522569656,7.167774677276611,2.897895097732544
1684253080239663000,8.5316630859375,0.24434804916381836,7.730273723602295,3.930560827255249
1684253080249689000,8.541689208984375,0.216356098651886,5.5775861740112305,4.187576770782471
1684253080259715000,8.551715087890624,-0.253371924161911,-0.038327258080244064,2.3237392902374268
1684253080269740000,8.561739990234376,-0.7114162445068359,-2.841157913208008,0.7940210700035095
1684253080279766000,8.57176611328125,-0.88203364610672,-3.727276563644409,-0.3090209364891052
1684253080289792300,8.581792236328125,-0.8025007247924805,-3.597153902053833,-0.9344627261161804
1684253080299818200,8.591818359375,-0.7400515675544739,-2.7772438526153564,-1.1124556064605713
1684253080309843200,8.60184326171875,-0.7078632712364197,-1.1819156408309937,-1.1087902784347534
1684253080319869200,8.611869140625,-0.6305825710296631,0.6643036603927612,-1.1257463693618774
1684253080329895200,8.621895263671876,-0.47085893154144287,2.1870388984680176,-1.3177006244659424
1684253080339921200,8.631921142578125,-0.12957081198692322,2.664207935333252,-1.5082805156707764
1684253080349947100,8.641947021484375,0.421414852142334,1.6187325716018677,-1.658418893814087
1684253080359972400,8.651972412109375,1.1179322004318237,-0.6627814173698425,-1.8310099840164185
1684253080369998300,8.661998291015625,1.746040940284729,-2.3988070487976074,-2.0147573947906494
1684253080380024300,8.6720244140625,2.329897403717041,-2.913961887359619,-2.1799709796905518
1684253080390050000,8.682050048828126,2.857511520385742,-2.8049633502960205,-2.300693988800049
1684253080400075300,8.6920751953125,3.19179105758667,-2.6562671661376953,-2.411550998687744
1684253080410101200,8.702101318359375,3.4541783332824707,-3.7564640045166016,-2.4892797470092773
1684253080420127200,8.712127197265625,3.8660998344421387,-7.393385410308838,-2.690225124359131
1684253080430153200,8.7221533203125,4.329217433929443,-9.22828197479248,-2.3083720207214355
1684253080440178200,8.73217822265625,4.83317232131958,-6.799305438995361,-1.020488977432251
1684253080450204200,8.7422041015625,5.416356563568115,-1.7171629667282104,0.28800007700920105
1684253080460230100,8.752230224609375,5.807249069213867,2.71793532371521,0.8873612284660339
1684253080470256000,8.762256103515625,5.731903553009033,5.250682830810547,0.8716408610343933
1684253080480282400,8.772282470703125,5.045164585113525,5.764219760894775,0.7337830066680908
1684253080490307000,8.78230712890625,3.9309182167053223,4.852421760559082,0.9683220386505127
1684253080500333000,8.7923330078125,2.8188014030456543,3.37330961227417,1.445434331893921
1684253080510359300,8.802359375,1.9983962774276733,1.245528221130371,1.8352465629577637
1684253080520385300,8.81238525390625,1.7407890558242798,-1.2289034128189087,1.4226597547531128
1684253080530410200,8.82241015625,1.9525232315063477,-2.8945603370666504,0.47086042165756226
1684253080540436200,8.832436279296875,2.364408493041992,-3.1872177124023438,-0.633374035358429
1684253080550462200,8.842462158203125,2.707948923110962,-2.3746421337127686,-1.769913911819458
1684253080560488200,8.85248828125,2.79512619972229,0.6548227667808533,-2.3691720962524414
1684253080570514200,8.86251416015625,2.536378860473633,5.778831958770752,-1.5140379667282104
1684253080580539100,8.8725390625,1.7678478956222534,6.2608795166015625,-1.391115665435791
1684253080590565000,8.882565185546875,1.0182236433029175,4.962791919708252,-1.249056339263916
1684253080600591000,8.892591064453125,0.5804780125617981,3.6353228092193604,-0.9940162301063538
1684253080610617000,8.9026171875,0.31993618607521057,2.827338695526123,-0.6402408480644226
1684253080620642300,8.912642333984374,0.12107069790363312,2.3643124103546143,-0.33620867133140564
1684253080630668300,8.922668212890626,-0.09086605906486511,1.9395053386688232,-0.018531911075115204
1684253080640694000,8.932694091796876,-0.3302047848701477,1.4921269416809082,0.2977585196495056
1684253080650720000,8.942719970703125,-0.6229101419448853,1.0218092203140259,0.5779625177383423
1684253080660746000,8.95274609375,-0.874828040599823,0.5740963220596313,0.8556267023086548
1684253080670771200,8.962771240234375,-1.052575707435608,0.29606926441192627,1.128480076789856
1684253080680797200,8.972797119140624,-1.1943830251693726,0.1674192249774933,1.4222990274429321
1684253080690823200,8.9828232421875,-1.4053058624267578,0.17684601247310638,1.7559152841567993
1684253080700849400,8.992849365234376,-1.7259739637374878,0.2909630835056305,2.0632920265197754
1684253080710874000,9.0028740234375,-2.166166067123413,0.4226393699645996,2.3588860034942627
1684253080720900400,9.012900390625,-2.725959062576294,0.5385288596153259,2.6515512466430664
1684253080730926300,9.02292626953125,-3.3310961723327637,0.6268123984336853,2.9531047344207764
1684253080740952300,9.032952392578125,-3.9145612716674805,0.6645796298980713,3.242832660675049
1684253080750977300,9.042977294921876,-4.415971755981445,0.7098693251609802,3.5440495014190674
1684253080761003300,9.053003173828126,-4.648199081420898,0.9652522206306458,3.89398193359375
1684253080771029200,9.063029296875,-4.51186466217041,1.31184720993042,4.328831195831299
1684253080781055200,9.07305517578125,-2.8308658599853516,-5.622176647186279,3.019263505935669
1684253080791081200,9.083081298828125,-0.33700475096702576,-10.851166725158691,3.621173620223999
1684253080801106200,9.093106201171874,0.48478183150291443,-8.183011054992676,3.7741005420684814
1684253080811132200,9.103132080078124,0.14727410674095154,-1.8735910654067993,2.6826326847076416
1684253080821159000,9.113158935546876,-0.927737832069397,-5.099474906921387,2.330601215362549
1684253080831185000,9.123184814453126,-1.4322121143341064,-3.0617377758026123,0.9059157371520996
1684253080841209900,9.1332099609375,-1.1593644618988037,4.0159592628479,-1.7692817449569702
1684253080851235800,9.14323583984375,-1.2055362462997437,7.773637294769287,-3.483189821243286
1684253080861261800,9.15326171875,-1.5623456239700317,4.45550012588501,-4.545474052429199
1684253080871287800,9.163287841796874,-1.7915745973587036,0.06900859624147415,-5.000476360321045
1684253080881313800,9.173313720703124,-1.9185023307800293,-1.1051737070083618,-4.539036273956299
1684253080891338800,9.1833388671875,-1.9028195142745972,-1.4902966022491455,-3.2328693866729736
1684253080901364700,9.19336474609375,-1.7239893674850464,-0.5944681167602539,-1.156719446182251
1684253080911390700,9.203390625,-1.50734281539917,0.7233020663261414,0.449704110622406
1684253080921417000,9.2134169921875,-1.2157000303268433,1.4785208702087402,1.13368821144104
1684253080931441700,9.223441650390624,-0.9680625200271606,1.869884729385376,1.5006110668182373
1684253080941468000,9.233468017578126,-0.8870481848716736,1.7700058221817017,1.843005895614624
1684253080951494000,9.243493896484376,-0.9424834251403809,0.9202528595924377,2.212578058242798
1684253080961519900,9.253519775390625,-0.973848819732666,-0.25537076592445374,2.4472641944885254
1684253080971545900,9.2635458984375,-0.8999085426330566,-0.7486051917076111,2.3337950706481934
1684253080981571000,9.273571044921875,-0.799309253692627,-0.5118093490600586,1.9126979112625122
1684253080991597000,9.28359716796875,-0.7454548478126526,-0.10525567084550858,1.3990978002548218
1684253081001623000,9.293623046875,-0.7875584959983826,0.04056442156434059,0.9944209456443787
1684253081011648800,9.303648681640626,-0.9403173923492432,0.05626695230603218,0.7678431868553162
1684253081021674000,9.313674072265625,-1.227158784866333,0.1712668240070343,0.7077112197875977
1684253081031700000,9.323699951171875,-1.498815894126892,0.5215606689453125,0.6988493204116821
1684253081041726000,9.333725830078125,-1.574130892753601,1.0876317024230957,0.5041929483413696
1684253081051752000,9.343751953125,-1.3674449920654297,1.6292182207107544,0.16436530649662018
1684253081061777000,9.35377685546875,-0.9164350628852844,1.8789643049240112,-0.22509212791919708
1684253081071803000,9.363802978515626,-0.3423219919204712,1.7565337419509888,-0.5139979720115662
1684253081081828900,9.373828857421875,0.20862022042274475,1.6423356533050537,-0.6568049788475037
1684253081091854800,9.383854736328125,0.4733802378177643,1.571786642074585,-0.5890754461288452
1684253081101880800,9.393880859375,0.46548789739608765,1.5972846746444702,-0.39865970611572266
1684253081111905800,9.40390576171875,0.3572397232055664,1.613345980644226,-0.15084217488765717
1684253081121931800,9.413931884765624,0.2653956711292267,1.5582680702209473,0.12291210144758224
1684253081131958000,9.4239580078125,0.2304459661245346,1.4006829261779785,0.3889341950416565
1684253081141984000,9.43398388671875,0.23471061885356903,1.1791605949401855,0.6265856623649597
1684253081152009000,9.444009033203125,0.25180599093437195,0.9205441474914551,0.7988572716712952
1684253081162035000,9.454034912109375,0.27357202768325806,0.6552603840827942,0.9222922921180725
1684253081172061000,9.46406103515625,0.31034523248672485,0.41224032640457153,1.0359700918197632
1684253081182087000,9.4740869140625,0.3763906955718994,0.18869459629058838,1.158765435218811
1684253081192113000,9.48411279296875,0.44726061820983887,0.006918403785675764,1.3320159912109375
1684253081202137900,9.494137939453125,0.5117357969284058,-0.1263008564710617,1.5473445653915405
1684253081212163800,9.504163818359375,0.562228262424469,-0.2686249911785126,1.7617652416229248
1684253081222189800,9.51418994140625,0.5678680539131165,-0.4259847402572632,1.9057891368865967
1684253081232215800,9.5242158203125,0.5135217308998108,-0.5791863203048706,1.961819052696228
1684253081242241000,9.534240966796874,0.4052892327308655,-0.7345041036605835,1.9635587930679321
1684253081252267000,9.54426708984375,0.2635779082775116,-0.8175622224807739,1.9545847177505493
1684253081262292700,9.554292724609375,0.1282249391078949,-0.6917976140975952,1.98028564453125
1684253081272318700,9.564318603515625,-0.014575345441699028,-0.5757306218147278,2.046154260635376
1684253081282344700,9.5743447265625,-0.1952907294034958,-0.9311944246292114,1.895060658454895
1684253081292370000,9.584369873046874,-0.291528582572937,-1.4546217918395996,1.3347831964492798
1684253081302396000,9.59439599609375,-0.2116827815771103,-1.7771999835968018,0.5130263566970825
1684253081312422000,9.604421875,-0.013994213193655014,-1.6309839487075806,-0.28163352608680725
1684253081322448100,9.6144482421875,0.14249245822429657,-1.2386478185653687,-0.7895851731300354
1684253081332472800,9.624472900390625,0.25293320417404175,-0.8695669770240784,-0.9748075008392334
1684253081342498800,9.634498779296875,0.30833539366722107,-0.6351796984672546,-0.9101061820983887
1684253081352525000,9.644525146484375,0.3371715843677521,-0.4643224775791168,-0.6358658671379089
1684253081362551000,9.654551025390624,0.40321773290634155,-0.23027391731739044,-0.2168412059545517
1684253081372576000,9.664575927734376,0.5976303219795227,0.07388223707675934,0.22147943079471588
1684253081382602000,9.67460205078125,0.8627959489822388,0.36261752247810364,0.5684925317764282
1684253081392628000,9.6846279296875,1.0902637243270874,0.5470619797706604,0.8008202910423279
1684253081402654000,9.694654052734375,1.2046244144439697,0.5970609784126282,0.9584619998931885
1684253081412680000,9.704679931640625,1.2204724550247192,0.5584219694137573,1.0041992664337158
1684253081422705000,9.714704833984374,1.1422537565231323,0.5173643827438354,0.8328640460968018
1684253081432731000,9.72473095703125,0.9859528541564941,0.42695188522338867,0.42649996280670166
1684253081442756900,9.7347568359375,0.7787727117538452,0.19785377383232117,-0.11403672397136688
1684253081452782800,9.744782958984375,0.5901796221733093,-0.2902964651584625,-0.6968676447868347
1684253081462807800,9.754807861328125,0.5061644911766052,-1.1976215839385986,-1.3480374813079834
1684253081472833800,9.764833740234375,0.6583234071731567,-2.318932294845581,-2.0708115100860596
1684253081482859800,9.77485986328125,1.0291286706924438,-3.0688252449035645,-2.737215757369995
1684253081492885800,9.7848857421875,1.4838725328445435,-3.2614905834198,-3.298809051513672
1684253081502911700,9.794911865234376,1.9842156171798706,-3.1023664474487305,-3.704538345336914
1684253081512936700,9.804936767578125,2.388552188873291,-2.972604274749756,-3.8774824142456055
1684253081522962700,9.814962646484375,2.584932565689087,-3.050762891769409,-3.7718594074249268
1684253081532988700,9.82498876953125,2.548516273498535,-3.128322124481201,-3.4907548427581787
1684253081543015000,9.835014892578124,2.2809011936187744,-2.9112441539764404,-3.030526638031006
1684253081553040000,9.845039794921876,1.8224122524261475,-2.5325045585632324,-2.3954362869262695
1684253081563066000,9.855066162109376,1.2316235303878784,-2.385047435760498,-1.7317142486572266
1684253081573092000,9.865092041015625,0.6139770150184631,-2.806947946548462,-1.071255087852478
1684253081583118000,9.8751181640625,0.26350948214530945,-3.4103403091430664,-0.45854055881500244
1684253081593144000,9.88514404296875,0.33006054162979126,-3.260241985321045,-0.04178379103541374
1684253081603169000,9.8951689453125,0.6245590448379517,-2.358751058578491,0.2192772477865219
1684253081613195000,9.905195068359374,0.9941517114639282,-0.9366753101348877,0.3606325089931488
1684253081623221000,9.915220947265626,1.2704535722732544,0.33151909708976746,0.3436453640460968
1684253081633247000,9.9252470703125,1.5785105228424072,-0.08845794200897217,-0.031023558229207993
1684253081643272000,9.93527197265625,1.9970353841781616,-1.536835789680481,-0.6595554351806641
1684253081653298000,9.9452978515625,2.4002091884613037,-2.2792410850524902,-0.970380961894989
1684253081663324000,9.955323974609374,2.5488829612731934,-2.017279624938965,-0.8810590505599976
1684253081673350000,9.965349853515624,2.36698055267334,-1.1989303827285767,-0.6204476952552795
1684253081683375900,9.9753759765625,1.8809069395065308,-0.2175024151802063,-0.3974143862724304
1684253081693400800,9.98540087890625,1.2792400121688843,0.4954979717731476,-0.3526439666748047
1684253081703426800,9.9954267578125,0.7473267316818237,0.82561194896698,-0.5125560164451599
1684253081713452800,10.005452880859375,0.35212433338165283,0.855499804019928,-0.8156775236129761
1684253081723478800,10.015478759765625,0.05690087005496025,0.8024483919143677,-1.1683475971221924
1684253081733503700,10.025503662109376,-0.11877748370170593,0.7260284423828125,-1.543826699256897
1684253081743529700,10.03552978515625,-0.15386292338371277,0.5400663018226624,-1.921044111251831
1684253081753556000,10.045555908203125,-0.08209340274333954,0.47500079870224,-2.099153757095337
1684253081763582000,10.05558203125,-0.004605005495250225,1.303547739982605,-1.7161991596221924
1684253081773607000,10.06560693359375,-0.207677960395813,2.0983376502990723,-1.0079903602600098
1684253081783633000,10.0756328125,-0.6837195158004761,1.999961018562317,-0.4302939474582672
1684253081793659000,10.085658935546874,-1.1905372142791748,1.5766371488571167,0.09060011804103851
1684253081803684900,10.095684814453126,-1.5782384872436523,1.1748729944229126,0.5794702768325806
1684253081813710800,10.1057109375,-1.8334412574768066,0.8466013669967651,1.0041102170944214
1684253081823735300,10.1157353515625,-1.9925938844680786,0.6335040926933289,1.3764055967330933
1684253081833761300,10.12576123046875,-2.1182680130004883,0.49515289068222046,1.7004417181015015
1684253081843787500,10.13578759765625,-2.274291753768921,0.37014827132225037,1.953428030014038
1684253081853813500,10.1458134765625,-2.485562324523926,0.24214927852153778,2.1261539459228516
1684253081863838200,10.155838134765625,-2.7031936645507812,0.13818413019180298,2.230945587158203
1684253081873864400,10.165864501953125,-2.778350591659546,0.10737694799900055,2.3313839435577393
1684253081883890400,10.175890380859375,-2.6582424640655518,-0.08089115470647812,2.357816219329834
1684253081893916400,10.18591650390625,-2.3348491191864014,-0.2741684913635254,1.8981436491012573
1684253081903942400,10.1959423828125,-2.000128984451294,-0.5216741561889648,0.6654113531112671
1684253081913967400,10.20596728515625,-1.7646968364715576,-0.560600757598877,-0.6523755788803101
1684253081923993300,10.215993408203126,-1.5528862476348877,0.5247443318367004,-0.9394804835319519
1684253081934019300,10.226019287109375,-1.2073957920074463,1.860792875289917,-0.5830416679382324
1684253081944045300,10.23604541015625,-0.8425542712211609,2.8519344329833984,-0.22285106778144836
1684253081954070300,10.2460703125,-0.5676113963127136,3.4654316902160645,-0.1445581316947937
1684253081964096300,10.25609619140625,-0.5902978181838989,3.766277551651001,-0.35354968905448914
1684253081974122200,10.266122314453124,-0.9963169693946838,3.4041554927825928,-0.5469764471054077
1684253081984148200,10.276148193359376,-1.8897461891174316,1.724971055984497,-0.5521180033683777
1684253081994174200,10.28617431640625,-3.475903034210205,-0.3177834451198578,0.029977109283208847
1684253082004199200,10.29619921875,-4.125101566314697,-2.6603777408599854,0.6166111826896667
1684253082014225200,10.30622509765625,-3.5675742626190186,-6.2462358474731445,0.9681867957115173
1684253082024251100,10.316251220703125,-2.2523608207702637,-7.482690811157227,2.197599411010742
1684253082034277000,10.326277099609374,-0.6720451712608337,-5.692111492156982,3.193601608276367
1684253082044302300,10.33630224609375,0.6205743551254272,-3.947766065597534,2.943897247314453
1684253082054328300,10.346328369140625,1.385837197303772,-2.909996747970581,1.9800153970718384
1684253082064354300,10.356354248046875,1.743196964263916,-2.270643711090088,0.9191064834594727
1684253082074380300,10.36638037109375,1.761177659034729,-1.491796851158142,0.14140619337558746
1684253082084405500,10.376405517578124,1.7905124425888062,-0.28318488597869873,-0.3731306195259094
1684253082094431500,10.386431396484374,1.529693603515625,0.6137121319770813,-0.9089239835739136
1684253082104457500,10.39645751953125,0.9493858814239502,1.3535559177398682,-1.3512252569198608
1684253082114483500,10.4064833984375,0.33115246891975403,2.047664165496826,-1.8022067546844482
1684253082124509400,10.416509521484375,-0.19104179739952087,2.871919631958008,-2.2952630519866943
1684253082134534400,10.426534423828125,-0.5187123417854309,3.4288721084594727,-2.725212574005127
1684253082144560400,10.436560302734375,-0.6181215047836304,3.3286635875701904,-2.8994860649108887
1684253082154586400,10.44658642578125,-0.5327858328819275,2.7224318981170654,-2.891555070877075
1684253082164612400,10.4566123046875,-0.28096598386764526,1.985862135887146,-2.769916534423828
1684253082174637300,10.46663720703125,-0.05089390650391579,1.02675199508667,-2.370783567428589
1684253082184663300,10.476663330078125,0.16874223947525024,0.30546027421951294,-1.7989672422409058
1684253082194689300,10.486689208984375,0.3282725214958191,0.2724407911300659,-1.3289629220962524
1684253082204715300,10.49671533203125,0.36338818073272705,0.4605037569999695,-0.8686227798461914
1684253082214741200,10.5067412109375,0.2629028558731079,0.7571120262145996,-0.24570085108280182
1684253082224766200,10.51676611328125,0.03379148989915848,0.650404155254364,0.4227965474128723
1684253082234792200,10.526792236328125,-0.24055831134319305,0.09813937544822693,1.0030285120010376
1684253082244818200,10.536818115234375,-0.4816923141479492,-0.5430464744567871,1.4447263479232788
1684253082254844400,10.546844482421875,-0.498968243598938,-0.9460315108299255,1.6316344738006592
1684253082264869000,10.556869140625,-0.0805552676320076,-1.0432738065719604,1.5879913568496704
1684253082274895400,10.566895263671874,0.6867752075195312,-0.6910214424133301,1.303065538406372
1684253082284921300,10.57692138671875,1.3852087259292603,-0.12633121013641357,0.9099555611610413
1684253082294947300,10.586947265625,1.6666755676269531,0.5756879448890686,0.5431445837020874
1684253082304973300,10.596973388671875,1.3805303573608398,1.3525512218475342,0.23416034877300262
1684253082314998300,10.606998291015625,0.5899646282196045,2.1859846115112305,-0.053617384284734726
1684253082325024300,10.617024169921875,-0.3810769319534302,3.1683125495910645,-0.396825909614563
1684253082335050200,10.62705029296875,-1.4115526676177979,4.351273536682129,-0.8819452524185181
1684253082345076200,10.637076171875,-1.900532603263855,5.1844635009765625,-1.3546675443649292
1684253082355101400,10.647101318359375,-1.8245062828063965,5.1152801513671875,-1.617824912071228
1684253082365127400,10.65712744140625,-1.360112190246582,4.589907169342041,-1.735234022140503
1684253082375153400,10.6671533203125,-0.5463603734970093,3.5938053131103516,-1.5207065343856812
1684253082385179400,10.677179443359375,0.3729064464569092,2.6406350135803223,-0.5620133280754089
1684253082395205400,10.687205322265624,0.9843469858169556,2.4277431964874268,1.4047255516052246
1684253082405230300,10.697230224609376,1.4303622245788574,1.7436938285827637,3.1511127948760986
1684253082415256300,10.70725634765625,1.705209493637085,0.6503671407699585,4.012890815734863
1684253082425282300,10.7172822265625,1.5921775102615356,0.029613114893436432,4.017935752868652
1684253082435308300,10.727308349609375,1.1008332967758179,-0.082784004509449,3.531524658203125
1684253082445333200,10.737333251953125,0.46341344714164734,-0.007069651503115892,2.819901943206787
1684253082455359200,10.747359130859374,-0.20670869946479797,0.1931164264678955,2.0073397159576416
1684253082465385200,10.75738525390625,-0.8200356364250183,0.5183704495429993,1.1839944124221802
1684253082475411500,10.767411376953126,-1.3520870208740234,1.080474853515625,0.3045675456523895
1684253082485436200,10.777436279296875,-1.7008377313613892,1.799665927886963,-0.6593506932258606
1684253082495462400,10.78746240234375,-1.8643994331359863,2.5836305618286133,-1.6686474084854126
1684253082505488400,10.79748828125,-1.815987467765808,3.1768271923065186,-2.5128707885742188
1684253082515514400,10.807514404296874,-1.5396605730056763,3.448674201965332,-3.0961928367614746
1684253082525540400,10.817540283203124,-1.2160553932189941,3.4373936653137207,-3.412782907485962
1684253082535565300,10.8275654296875,-0.9084256887435913,3.1677916049957275,-3.4042670726776123
1684253082545591300,10.83759130859375,-0.7505544424057007,2.0925991535186768,-2.694049119949341
1684253082555617300,10.8476171875,-0.9106956124305725,0.17011834681034088,-1.0615592002868652
1684253082565643300,10.857643310546875,-3.5206565856933594,-0.413062185049057,0.20851066708564758
1684253082575668200,10.867668212890624,-3.8143534660339355,-1.1471060514450073,1.1133103370666504
1684253082585694200,10.877694091796876,-1.7664815187454224,-2.3602054119110107,1.2847111225128174
1684253082595720200,10.88772021484375,-0.5828522443771362,-2.1247658729553223,0.6345571279525757
1684253082605746200,10.89774609375,-0.06825584173202515,-1.9323992729187012,0.21121901273727417
1684253082615772200,10.907772216796875,-0.1476428061723709,-1.0422803163528442,0.5185863971710205
1684253082625797400,10.91779736328125,-0.3650859296321869,0.64939945936203,1.48814058303833
1684253082635823400,10.9278232421875,-0.5394039154052734,2.184011697769165,2.257728099822998
1684253082645849300,10.937849365234374,-0.48468849062919617,2.7241673469543457,2.6587488651275635
1684253082655875300,10.947875244140626,-0.09277317672967911,2.6126956939697266,2.7913758754730225
1684253082665900300,10.957900390625,0.43061044812202454,2.4810290336608887,2.692328453063965
1684253082675926300,10.96792626953125,0.8393020629882812,0.3705458641052246,2.133382797241211
1684253082685952500,10.977952392578125,0.7971695065498352,-1.5753964185714722,0.5551246404647827
1684253082695978500,10.987978515625,0.55128014087677,-1.6840280294418335,-0.9256266951560974
1684253082706004500,10.99800439453125,0.3661181926727295,-0.46456897258758545,-1.7516300678253174
1684253082716029400,11.008029541015626,0.3767426311969757,0.7342601418495178,-2.048659563064575
1684253082726055400,11.018055419921875,0.32000961899757385,1.007426142692566,-1.9716558456420898
1684253082736081400,11.028081298828125,-0.04602907970547676,0.6370446085929871,-1.7102841138839722
1684253082746107400,11.038107421875,-0.475553959608078,0.10467033088207245,-1.4181627035140991
1684253082756132400,11.04813232421875,-0.7295427918434143,-0.1537175476551056,-0.975106954574585
1684253082766158300,11.058158447265624,-0.8293867111206055,0.018566787242889404,-0.25565704703330994
1684253082776184300,11.068184326171876,-0.8331814408302307,0.48711028695106506,0.6688278913497925
1684253082786210300,11.078210205078125,-0.8084926009178162,0.8131828904151917,1.7337427139282227
1684253082796236300,11.088236328125,-0.7912337183952332,0.22353902459144592,2.8575594425201416
1684253082806261200,11.09826123046875,-0.8623453378677368,-1.549991488456726,3.6372666358947754
1684253082816287200,11.108287353515625,-1.0866633653640747,-3.865053653717041,3.993393898010254
1684253082826313500,11.1183134765625,-1.2397286891937256,-6.359407901763916,4.127542972564697
1684253082836339500,11.12833935546875,-1.153891921043396,-7.969721794128418,4.154246807098389
1684253082846364400,11.138364501953125,-1.1500070095062256,-7.382253170013428,4.161487102508545
1684253082856390400,11.148390380859375,-1.0503575801849365,-5.03734016418457,3.670353651046753
1684253082866416400,11.15841650390625,-0.7201679944992065,-3.1366095542907715,2.8578059673309326
1684253082876442400,11.1684423828125,-0.25125375390052795,-2.1469528675079346,2.0121676921844482
1684253082886467600,11.178467529296874,0.10900704562664032,-1.9162710905075073,1.453299641609192
1684253082896493300,11.188493408203126,0.16982725262641907,-2.311473846435547,1.4384616613388062
1684253082906519300,11.198519287109375,0.043931107968091965,-3.034842014312744,1.805124044418335
1684253082916545500,11.208545654296875,-0.071027971804142,-3.6958167552948,2.2407779693603516
1684253082926571500,11.218571533203125,-0.1528826653957367,-4.270594120025635,2.6691086292266846
1684253082936596700,11.2285966796875,-0.2598631680011749,-4.675724029541016,3.0090487003326416
1684253082946622700,11.238622802734374,-0.5723978877067566,-4.732080459594727,2.93623685836792
1684253082956648700,11.248648681640624,-2.1311206817626953,-3.583606243133545,0.7480126023292542
1684253082966674700,11.2586748046875,-1.6393665075302124,-2.1521997451782227,0.042565878480672836
1684253082976699600,11.26869970703125,-1.1248315572738647,-1.1155421733856201,-0.17059007287025452
1684253082986725600,11.2787255859375,-0.903495192527771,-0.5024932622909546,-0.44830095767974854
1684253082996751600,11.288751708984375,-0.6326173543930054,-0.4438674747943878,-0.5664268136024475
1684253083006777600,11.298777587890624,-0.3352334797382355,-0.5961998701095581,-0.8568898439407349
1684253083016803600,11.308803466796874,0.018084626644849777,-0.5223056674003601,-1.210339903831482
1684253083026828500,11.31882861328125,0.3533414900302887,-0.3479755222797394,-1.3019211292266846
1684253083036854500,11.3288544921875,0.7241296172142029,-0.23128242790699005,-1.2136480808258057
1684253083046880500,11.338880615234375,1.170283317565918,-0.30527737736701965,-1.1367087364196777
1684253083056906500,11.348906494140625,1.5762622356414795,-0.49793684482574463,-0.9546740651130676
1684253083066931500,11.358931396484374,1.9324777126312256,-0.8089390397071838,-0.7622253894805908
1684253083076957400,11.36895751953125,2.3490548133850098,-1.2705305814743042,-0.6673380136489868
1684253083086983400,11.3789833984375,2.923922061920166,-2.0078630447387695,-0.6784006357192993
1684253083097009400,11.389009521484375,3.790388584136963,-2.798366069793701,-0.8652656078338623
1684253083107035600,11.39903564453125,4.946883678436279,-3.0798699855804443,-1.1015689373016357
1684253083117060400,11.409060302734375,6.176543712615967,-2.5047645568847656,-1.2523547410964966
1684253083127086600,11.419086669921874,7.151401519775391,-1.590002179145813,-1.2998127937316895
1684253083137112600,11.429112548828124,7.690573215484619,-0.9955917000770569,-1.1675399541854858
1684253083147138600,11.439138671875,7.889517307281494,-1.039214015007019,-0.6374847292900085
1684253083157163500,11.44916357421875,7.573256492614746,-1.7641786336898804,0.5702463388442993
1684253083167189500,11.459189453125,6.714814186096191,-2.7472634315490723,1.438034176826477
1684253083177215500,11.469215576171875,6.118038177490234,-3.3556809425354004,1.584509015083313
1684253083187241500,11.479241455078125,5.734341621398926,-3.3275632858276367,1.5590689182281494
1684253083197266700,11.4892666015625,5.368515968322754,-2.382488250732422,1.6439656019210815
1684253083207292700,11.499292724609376,5.108714580535889,-0.9089986085891724,1.769532561302185
1684253083217318700,11.509318603515625,4.843100547790527,0.567162811756134,1.990403652191162
1684253083227344600,11.5193447265625,4.76315450668335,1.6443159580230713,2.3185274600982666
1684253083237370400,11.529370361328125,4.749115467071533,2.2486319541931152,2.646397590637207
1684253083247395600,11.5393955078125,4.704807281494141,2.499696969985962,2.9398272037506104
1684253083257421600,11.549421630859374,4.49800443649292,2.3360755443573,2.965691566467285
1684253083267447600,11.559447509765626,4.5948357582092285,2.178192138671875,2.809793710708618
1684253083277473500,11.5694736328125,4.522377967834473,1.9901682138442993,2.6003494262695312
1684253083287498500,11.57949853515625,4.414490222930908,1.882676362991333,2.3852365016937256
1684253083297524500,11.5895244140625,4.195155143737793,1.6450246572494507,2.2013473510742188
1684253083307550500,11.599550537109375,3.985321283340454,1.08207368850708,2.087177038192749
1684253083317576400,11.609576416015624,3.560070037841797,0.8656588196754456,1.5005390644073486
1684253083327602700,11.619602783203124,2.8852570056915283,0.9977102279663086,0.5098288655281067
1684253083337627400,11.62962744140625,2.182602643966675,0.4780164361000061,-0.23245562613010406
1684253083347653600,11.639653564453125,1.7112352848052979,-0.6452674269676208,-0.40606874227523804
1684253083357679600,11.6496796875,1.2944761514663696,-1.8689512014389038,0.36004945635795593
1684253083367705600,11.65970556640625,0.8761302828788757,-2.5725209712982178,1.3886709213256836
1684253083377730600,11.66973046875,0.675338089466095,-2.8540217876434326,1.8622446060180664
1684253083387756500,11.679756591796876,0.6481863856315613,-2.7740378379821777,1.9330381155014038
1684253083397782500,11.689782470703125,0.4334980547428131,-2.664780616760254,1.9382400512695312
1684253083407808500,11.69980859375,0.3604147732257843,-2.5088813304901123,2.1490797996520996
1684253083417833500,11.70983349609375,0.5103089213371277,-2.337428092956543,2.3497509956359863
1684253083427859500,11.719859375,0.6978874206542969,-2.5215535163879395,2.3022072315216064
1684253083437885400,11.729885498046874,0.5059656500816345,-3.2619471549987793,1.9382858276367188
1684253083447911400,11.739911376953126,0.4036693871021271,-3.6293022632598877,1.608090877532959
1684253083457937400,11.7499375,0.5999736785888672,-3.4150426387786865,1.0102604627609253
1684253083467962600,11.759962646484375,0.9129490852355957,-3.027161121368408,0.3378266990184784
1684253083477988600,11.769988525390625,1.250856876373291,-2.7436234951019287,-0.09001733362674713
1684253083488014300,11.780014404296875,1.5885612964630127,-2.7745299339294434,-0.21617525815963745
1684253083498040300,11.790040283203124,1.9390474557876587,-2.9327187538146973,-0.35759496688842773
1684253083508065500,11.8000654296875,2.3108391761779785,-2.951035499572754,-0.5253881216049194
1684253083518091500,11.810091552734375,2.7532455921173096,-2.6910455226898193,-0.834393322467804
1684253083528117500,11.820117431640625,3.20261287689209,-2.3281326293945312,-1.2001444101333618
1684253083538143700,11.830143798828125,3.654338836669922,-1.9099290370941162,-1.4629096984863281
1684253083548169700,11.840169677734375,3.972865343093872,-1.535078525543213,-1.6258647441864014
1684253083558194700,11.850194580078124,4.272798538208008,-1.3826285600662231,-1.7377614974975586
1684253083568220700,11.860220703125,4.659234523773193,-1.3194917440414429,-1.9300849437713623
1684253083578246700,11.87024658203125,5.362130165100098,-1.15460205078125,-2.2502098083496094
1684253083588272600,11.880272705078125,6.029987812042236,-0.678946316242218,-2.6236846446990967
1684253083598297600,11.890297607421875,6.617742538452148,0.11182504892349243,-2.9719347953796387
1684253083608323600,11.900323486328125,7.166057586669922,0.7610596418380737,-3.2036657333374023
1684253083618349600,11.910349609375,7.332823276519775,1.141411304473877,-3.3659780025482178
1684253083628375600,11.92037548828125,7.321671009063721,0.8324174880981445,-3.218883514404297
1684253083638401500,11.930401611328126,7.289211750030518,0.0022627871949225664,-3.022305488586426
1684253083648426500,11.940426513671875,7.197222709655762,-0.6661505699157715,-2.933600902557373
1684253083658452500,11.950452392578125,7.097239017486572,-1.1964061260223389,-2.9245777130126953
1684253083668478500,11.960478515625,6.934183120727539,-1.621867299079895,-2.8909664154052734
1684253083678504400,11.97050439453125,6.787625312805176,-1.9116601943969727,-2.8217475414276123
1684253083688529400,11.980529296875,6.603369235992432,-2.131070375442505,-2.738776922225952
1684253083698555400,11.990555419921876,6.457746505737305,-2.142875909805298,-2.6388299465179443
1684253083708581400,12.000581298828125,6.318019866943359,-1.8419318199157715,-2.489315986633301
1684253083718607400,12.010607421875,6.12723445892334,-1.6003111600875854,-2.2901833057403564
1684253083728633300,12.02063330078125,5.903082847595215,-1.5654361248016357,-2.0836305618286133
1684253083738658300,12.030658203125,5.694958686828613,-1.8992353677749634,-1.8982948064804077
1684253083748684300,12.040684326171874,5.543905735015869,-2.5985970497131348,-1.8267521858215332
1684253083758710500,12.05071044921875,5.406422138214111,-3.46791672706604,-1.9716957807540894
1684253083768736500,12.060736572265625,5.298794746398926,-4.705649375915527,-2.2548530101776123
1684253083778761700,12.07076171875,4.961727619171143,-6.504897117614746,-2.4196090698242188
1684253083788787700,12.08078759765625,4.47817850112915,-8.260927200317383,-2.469752311706543
1684253083798813700,12.090813720703125,3.792945384979248,-8.427450180053711,-3.1446492671966553
1684253083808839700,12.100839599609374,2.9296884536743164,-7.395476341247559,-4.2354302406311035
1684253083818863900,12.11086376953125,2.53204607963562,-8.082559585571289,-4.383373260498047
1684253083828889900,12.120889892578125,2.376786708831787,-8.90864086151123,-4.242353916168213
1684253083838915800,12.130915771484375,2.112213373184204,-8.40074634552002,-4.105530738830566
1684253083848941800,12.14094189453125,1.7433120012283325,-7.498103618621826,-3.7151334285736084
1684253083858967800,12.1509677734375,1.3469438552856445,-6.316246509552002,-3.0014100074768066
1684253083868992800,12.16099267578125,0.9092496037483215,-4.837485313415527,-2.11686110496521
1684253083879018800,12.171018798828126,0.5035169720649719,-3.3528735637664795,-1.2240186929702759
1684253083889045000,12.181044921875,0.20695355534553528,-2.3226659297943115,-0.40505269169807434
1684253083899071000,12.191071044921875,0.05116075649857521,-1.916312336921692,0.3533964157104492
1684253083909096000,12.201095947265625,-0.029925066977739334,-1.6070361137390137,1.028469443321228
1684253083919122000,12.211121826171874,-0.01968041993677616,-0.9614009261131287,1.4882328510284424
1684253083929148000,12.22114794921875,0.11359477043151855,-0.06658723950386047,1.680376410484314
1684253083939174000,12.231173828125,0.26966238021850586,0.7010945081710815,1.6843194961547852
1684253083949200000,12.241199951171875,0.36555713415145874,1.2413089275360107,1.5622923374176025
1684253083959224800,12.251224853515625,0.3879125118255615,1.7761363983154297,1.3558305501937866
1684253083969250800,12.261250732421875,0.34721580147743225,2.1933345794677734,1.14768385887146
1684253083979276800,12.27127685546875,0.26872044801712036,2.0346930027008057,1.0109318494796753
1684253083989302800,12.281302734375,0.2136719524860382,1.4467196464538574,0.9139844179153442
1684253083999328000,12.291327880859376,0.15106874704360962,0.7318518757820129,0.8757967948913574
1684253084009354000,12.30135400390625,0.0573432520031929,0.13102233409881592,0.878053605556488
1684253084019380000,12.3113798828125,-0.11510813981294632,0.021572010591626167,0.9430861473083496
1684253084029406000,12.321406005859375,-0.3651399314403534,0.37782055139541626,1.0636297464370728
1684253084039432000,12.331431884765625,-0.6329652667045593,0.8295416831970215,1.2443181276321411
1684253084049457000,12.341456787109376,-0.8353552222251892,1.0110137462615967,1.4218854904174805
1684253084059483000,12.35148291015625,-0.923093318939209,0.8632348775863647,1.486682653427124
1684253084069508900,12.3615087890625,-0.882900059223175,0.49540266394615173,1.326474666595459
1684253084079535000,12.37153515625,-0.7885943055152893,0.2622855007648468,0.9704980254173279
1684253084089559800,12.381559814453125,-0.7067249417304993,0.34201228618621826,0.5474421977996826
1684253084099586000,12.3915859375,-0.7028300762176514,0.642022430896759,0.2583046555519104
1684253084109612000,12.401612060546874,-0.8058744668960571,0.8674861788749695,0.23192335665225983
1684253084119638000,12.411637939453126,-0.9409606456756592,0.9508780241012573,0.3881840407848358
1684253084129664000,12.4216640625,-1.0724501609802246,0.9807083010673523,0.5839579701423645
1684253084139689000,12.43168896484375,-1.1287586688995361,0.8485939502716064,0.6991021633148193
1684253084149715000,12.44171484375,-1.0970321893692017,0.578716516494751,0.7022430300712585
1684253084159741000,12.451740966796875,-1.0185770988464355,0.3280360996723175,0.6616023778915405
1684253084169767000,12.461766845703124,-0.9225460886955261,0.18810053169727325,0.6453420519828796
1684253084179792000,12.4717919921875,-0.7818949818611145,0.028601422905921936,0.563200056552887
1684253084189817900,12.48181787109375,-0.5978754162788391,-0.04150581732392311,0.27387797832489014
1684253084199843800,12.49184375,-0.5654165744781494,0.0838097557425499,-0.017394866794347763
1684253084209869800,12.501869873046875,-0.5596373677253723,0.2329685091972351,-0.20650197565555573
1684253084219894800,12.511894775390624,-0.524541437625885,0.2801314890384674,-0.30247431993484497
1684253084229920800,12.521920654296874,-0.5097839832305908,0.07609330117702484,-0.3561456799507141
1684253084239946800,12.53194677734375,-0.5306093692779541,-0.2939651906490326,-0.28639429807662964
1684253084249972700,12.54197265625,-0.560553789138794,-0.7482419013977051,-0.129129558801651
1684253084259998700,12.551998779296875,-0.5453700423240662,-1.226906657218933,0.0694756731390953
1684253084270024000,12.56202392578125,-0.4890161156654358,-1.6194427013397217,0.3121296167373657
1684253084280050000,12.5720498046875,-0.36881381273269653,-1.884056568145752,0.5856168866157532
1684253084290076000,12.582075927734374,-0.21628884971141815,-1.8299670219421387,0.8162453770637512
1684253084300102000,12.592101806640626,-0.09919153153896332,-1.409440040588379,0.9019874334335327
1684253084310126800,12.602126953125,-0.04789981245994568,-0.8421308398246765,0.9083942174911499
1684253084320153000,12.612153076171875,-0.01890864223241806,-0.47139108180999756,0.8771390914916992
1684253084330179000,12.622178955078125,0.02117772214114666,-0.3436017334461212,0.7986395359039307
1684253084340205000,12.632205078125,0.07647053897380829,-0.3293924331665039,0.6875849366188049
