time,seconds_elapsed,z,y,x
1684252579211681500,0.024681640625,-0.665084719657898,-2.306701183319092,0.19296394288539886
1684252579221707500,0.03470751953125,-0.4807412624359131,-2.550241708755493,0.39083439111709595
1684252579231733800,0.044733642578125,-0.09589190781116486,-2.5738437175750732,0.6250607967376709
1684252579241759700,0.054759765625,0.45383352041244507,-2.1301026344299316,0.8858140707015991
1684252579251785700,0.06478564453125,0.7615314722061157,-1.357068657875061,1.2046616077423096
1684252579261811700,0.074811767578125,0.7746009230613708,-0.10032513737678528,1.4613120555877686
1684252579271837700,0.084837646484375,0.7127054333686829,1.6269179582595825,1.3982195854187012
1684252579281862700,0.094862548828125,0.8797431588172913,2.9860897064208984,1.355126976966858
1684252579291888600,0.104888671875,1.2161155939102173,4.197575092315674,1.4130672216415405
1684252579301914600,0.11491455078125,1.4891153573989868,5.282983779907227,1.509177803993225
1684252579311940600,0.124940673828125,1.6975436210632324,6.0758256912231445,1.522627830505371
1684252579321966600,0.134966552734375,1.8507277965545654,6.249767303466797,1.4436233043670654
1684252579331992600,0.14499267578125,1.9990545511245728,5.961580753326416,1.2441420555114746
1684252579342018600,0.1550185546875,2.5020997524261475,4.304435729980469,0.6868135929107666
1684252579352045300,0.16504541015625,2.9636404514312744,2.8264236450195312,0.3105925917625427
1684252579362071300,0.1750712890625,3.253337860107422,0.8197243213653564,0.025353142991662025
1684252579372097300,0.18509716796875,3.2541115283966064,-2.5359416007995605,0.10992014408111572
1684252579382123300,0.195123291015625,2.9322128295898438,-4.6031270027160645,0.14933466911315918
1684252579392149200,0.205149169921875,2.1818387508392334,-4.990571022033691,-0.23296114802360535
1684252579402175200,0.21517529296875,0.15361946821212769,-0.8114600777626038,-0.6767305731773376
1684252579412200200,0.2252001953125,-1.3715959787368774,1.4334548711776733,-0.5903294086456299
1684252579422226200,0.23522607421875,-2.0662624835968018,2.8389391899108887,-0.38244515657424927
1684252579432252200,0.245252197265625,-2.843055248260498,3.837722063064575,-0.11089831590652466
1684252579442278400,0.2552783203125,-3.609679937362671,4.245701789855957,0.37319886684417725
1684252579452304400,0.265304443359375,-3.7393746376037598,3.929260015487671,0.7603145241737366
1684252579462330400,0.275330322265625,-3.4205873012542725,4.068192005157471,1.1480673551559448
1684252579472356400,0.2853564453125,-2.9420790672302246,4.332376480102539,1.3387703895568848
1684252579482382300,0.29538232421875,-2.633084774017334,4.716668128967285,1.5206453800201416
1684252579492408300,0.305408203125,-2.474489688873291,5.218924045562744,1.722184419631958
1684252579502434300,0.315434326171875,-2.4470131397247314,5.65928316116333,1.855342149734497
1684252579512460300,0.325460205078125,-2.6493241786956787,6.702181339263916,2.082401990890503
1684252579522486300,0.335486328125,-2.862177848815918,7.377375602722168,2.3961234092712402
1684252579532512300,0.34551220703125,-3.3035378456115723,7.7516279220581055,2.836843490600586
1684252579542537200,0.355537109375,-4.0196146965026855,7.865668773651123,3.3519113063812256
1684252579552563200,0.365563232421875,-4.807376384735107,7.805016994476318,3.956942558288574
1684252579562589200,0.375589111328125,-5.472175121307373,7.520773887634277,4.565049171447754
1684252579572615400,0.385615478515625,-6.103470325469971,7.033156394958496,5.037302494049072
1684252579582641400,0.395641357421875,-6.76393985748291,6.4242777824401855,5.339059829711914
1684252579592667400,0.40566748046875,-7.225554466247559,5.726030349731445,5.385716915130615
1684252579602693400,0.415693359375,-7.314480304718018,5.135082721710205,5.100477695465088
1684252579612719400,0.42571923828125,-7.166545867919922,4.798815727233887,4.588165760040283
1684252579622745300,0.435745361328125,-7.157668590545654,4.4107842445373535,4.032156944274902
1684252579632771300,0.445771240234375,-7.3889241218566895,3.8210785388946533,3.572293758392334
1684252579642797300,0.45579736328125,-7.74893856048584,3.0372376441955566,3.2576191425323486
1684252579652823300,0.4658232421875,-8.228493690490723,2.0313615798950195,3.0665831565856934
1684252579662848300,0.47584814453125,-8.589346885681152,0.993114709854126,2.9538087844848633
1684252579672874200,0.485874267578125,-8.651712417602539,0.16263645887374878,2.8867130279541016
1684252579682900200,0.495900146484375,-8.354826927185059,0.01468641310930252,2.9907639026641846
1684252579692926200,0.50592626953125,-7.643928050994873,0.3408110737800598,3.305009126663208
1684252579702952400,0.515952392578125,-6.7047929763793945,0.7439606785774231,3.6985270977020264
1684252579712978400,0.525978515625,-5.665704727172852,0.863620936870575,4.0013346672058105
1684252579723004400,0.53600439453125,-4.648663520812988,0.4979550540447235,4.0550456047058105
1684252579733030400,0.546030517578125,-3.7559385299682617,-0.12316261976957321,3.787015676498413
1684252579743056400,0.556056396484375,-3.0668957233428955,-0.7714266180992126,3.2442336082458496
1684252579753082400,0.566082275390625,-2.424454927444458,-1.4043631553649902,2.6409518718719482
1684252579763108400,0.5761083984375,-1.6638606786727905,-1.9339032173156738,2.0779166221618652
1684252579773134300,0.58613427734375,-0.8802428841590881,-2.260385513305664,1.60463285446167
1684252579783159300,0.5961591796875,-0.15524175763130188,-2.4133341312408447,1.1441805362701416
1684252579793185300,0.606185302734375,0.5827438235282898,-2.369936943054199,0.6552949547767639
1684252579803211300,0.616211181640625,1.3875577449798584,-2.1918866634368896,0.19519127905368805
1684252579813237200,0.6262373046875,2.186255931854248,-2.000494956970215,-0.25077319145202637
1684252579823263200,0.63626318359375,2.868600845336914,-1.7488718032836914,-0.6470634937286377
1684252579833289500,0.64628955078125,3.416995048522949,-1.426615595817566,-0.9682930111885071
1684252579843315500,0.6563154296875,3.6410470008850098,-1.1507298946380615,-1.3047142028808594
1684252579853341400,0.666341552734375,3.4856953620910645,-0.940902829170227,-1.934222936630249
1684252579863367400,0.676367431640625,3.0397896766662598,-0.40189260244369507,-2.7624285221099854
1684252579873393400,0.686393310546875,2.229381799697876,0.42815741896629333,-2.8780267238616943
1684252579883419400,0.69641943359375,1.7707968950271606,0.9155467748641968,-2.853482961654663
1684252579893445400,0.7064453125,1.912237286567688,1.5855292081832886,-2.436919927597046
1684252579903471000,0.71647119140625,2.5182077884674072,2.2138068675994873,-1.6943038702011108
1684252579913496300,0.726496337890625,3.187638759613037,2.630589723587036,-0.8870980739593506
1684252579923522300,0.736522216796875,3.3901867866516113,2.592186689376831,-0.1342538595199585
1684252579933548300,0.74654833984375,2.8958992958068848,2.0772061347961426,0.3081143796443939
1684252579943574300,0.75657421875,1.9613873958587646,1.5155551433563232,0.3000601828098297
1684252579953600300,0.766600341796875,0.9592412710189819,1.1179734468460083,0.030035536736249924
1684252579963626500,0.77662646484375,0.2415185570716858,0.5943974852561951,-0.25247126817703247
1684252579973652500,0.786652587890625,-0.31226658821105957,0.9163448810577393,-0.4018856883049011
1684252579983678500,0.796678466796875,-1.062923789024353,1.5018384456634521,-0.19621719419956207
1684252579993704200,0.8067041015625,-1.87436044216156,1.9035166501998901,0.33200451731681824
1684252580003730200,0.816730224609375,-2.7343332767486572,2.006490707397461,0.8192372918128967
1684252580013756200,0.826756103515625,-3.5165884494781494,1.509876012802124,0.7869468927383423
1684252580023782100,0.8367822265625,-3.894989490509033,0.6059991717338562,0.0682731419801712
1684252580033808100,0.84680810546875,-4.063145637512207,-0.5613441467285156,-1.198625087738037
1684252580043834000,0.856834228515625,-3.9937751293182373,-1.119568109512329,-2.229947566986084
1684252580053859300,0.866859375,-3.6863603591918945,-1.166096568107605,-2.3757596015930176
1684252580063885300,0.87688525390625,-3.414829730987549,-1.24911367893219,-1.95039963722229
1684252580073911300,0.886911376953125,-3.317840099334717,-1.7960491180419922,-1.8652321100234985
1684252580083937300,0.896937255859375,-3.4481635093688965,-2.616103410720825,-2.066722869873047
1684252580093963300,0.90696337890625,-4.105047225952148,-3.4521031379699707,-2.4904747009277344
1684252580103989200,0.9169892578125,-4.814283847808838,-3.579699754714966,-2.962656021118164
1684252580114015200,0.92701513671875,-5.362175941467285,-3.0762887001037598,-3.234647750854492
1684252580124041200,0.937041259765625,-5.74606466293335,-2.1744062900543213,-3.308887481689453
1684252580134067200,0.947067138671875,-6.013680458068848,-0.9641554951667786,-3.098728895187378
1684252580144093200,0.95709326171875,-6.180835247039795,0.12799622118473053,-2.6463234424591064
1684252580154119200,0.967119140625,-6.2146782875061035,0.8606143593788147,-2.030043125152588
1684252580164145200,0.977145263671875,-6.060060501098633,1.4190452098846436,-1.2480714321136475
1684252580174171100,0.987171142578125,-5.4489521980285645,1.912765622138977,-0.37892261147499084
1684252580184196400,0.9971962890625,-4.457178115844727,2.1615285873413086,0.5202995538711548
1684252580194222300,1.007222412109375,-3.63584041595459,2.0283493995666504,1.341172218322754
1684252580204248000,1.017248046875,-3.2803244590759277,1.5850989818572998,1.9274194240570068
1684252580214274000,1.027274169921875,-3.117093324661255,1.2912323474884033,2.319709539413452
1684252580224300300,1.03730029296875,-2.9645016193389893,1.176498532295227,2.5639755725860596
1684252580234326300,1.047326171875,-2.907860040664673,1.0643396377563477,2.5748753547668457
1684252580244352300,1.057352294921875,-3.1048052310943604,0.9114037156105042,2.4681055545806885
1684252580254378200,1.067378173828125,-3.2796590328216553,0.5709342956542969,2.313143253326416
1684252580264404200,1.077404296875,-3.717817544937134,0.2917857766151428,2.3698678016662598
1684252580274430200,1.08743017578125,-4.006708145141602,0.763561487197876,2.118499279022217
1684252580284456200,1.097456298828125,-4.0135908126831055,1.2361340522766113,2.0869638919830322
1684252580294482200,1.107482177734375,-4.013993263244629,1.737200379371643,1.968176007270813
1684252580304508200,1.117508056640625,-3.9383885860443115,2.078130006790161,1.7753831148147583
1684252580314533000,1.127533203125,-3.796330690383911,2.233936071395874,1.4893428087234497
1684252580324559000,1.13755908203125,-3.628053665161133,2.1609675884246826,1.1320207118988037
1684252580334585000,1.147585205078125,-3.4609220027923584,1.8757048845291138,0.7787975668907166
1684252580344611000,1.157611083984375,-3.2506520748138428,1.411151647567749,0.4454939067363739
1684252580354636500,1.167636474609375,-2.966461181640625,0.8905530571937561,0.1430313140153885
1684252580364662500,1.17766259765625,-2.466715097427368,0.4671727418899536,-0.17229841649532318
1684252580374688500,1.1876884765625,-1.6814091205596924,-0.020750366151332855,-0.5049667358398438
1684252580384714500,1.197714599609375,-0.5882052779197693,-0.5204960107803345,-0.9172791838645935
1684252580394740500,1.207740478515625,0.49678799510002136,-0.9065958857536316,-1.3888835906982422
1684252580404766500,1.217766357421875,1.1835936307907104,-1.1676312685012817,-1.8036770820617676
1684252580414792400,1.22779248046875,1.4771836996078491,-1.3651119470596313,-2.1186959743499756
1684252580424818700,1.237818603515625,1.4447962045669556,-1.483522653579712,-2.362731456756592
1684252580434844700,1.2478447265625,1.335964560508728,-1.5476387739181519,-2.541356086730957
1684252580444869600,1.25786962890625,1.1373600959777832,-1.7105648517608643,-2.6125199794769287
1684252580454895600,1.2678955078125,0.8894866704940796,-1.9163987636566162,-2.6260244846343994
1684252580464921600,1.277921630859375,0.6839694380760193,-2.084089994430542,-2.6237473487854004
1684252580474947600,1.287947509765625,0.5533524751663208,-2.049804210662842,-2.488330364227295
1684252580484973600,1.2979736328125,0.40189772844314575,-1.8326690196990967,-2.2762210369110107
1684252580494999600,1.30799951171875,0.47681623697280884,-1.6733661890029907,-1.9765485525131226
1684252580505025500,1.318025634765625,0.4145989418029785,-1.2876733541488647,-1.6798851490020752
1684252580515051500,1.328051513671875,0.29456982016563416,-0.5400614738464355,-1.4463980197906494
1684252580525077500,1.338077392578125,0.25125694274902344,2.4534971714019775,-0.33157482743263245
1684252580535103500,1.348103515625,0.21616192162036896,5.939154148101807,0.9829768538475037
1684252580545129500,1.35812939453125,0.5299640893936157,7.80097770690918,1.5902364253997803
1684252580555155700,1.36815576171875,0.9978740811347961,8.244351387023926,1.5386549234390259
1684252580565181700,1.378181640625,1.3732961416244507,6.84921932220459,0.7298522591590881
1684252580575207700,1.388207763671875,1.592883586883545,1.9954397678375244,-1.1855738162994385
1684252580585232600,1.398232666015625,1.6261882781982422,-1.3783421516418457,-1.764051079750061
1684252580595258600,1.408258544921875,1.4845075607299805,-2.85972261428833,-1.5157665014266968
1684252580605284600,1.41828466796875,1.2704153060913086,-2.5471582412719727,-0.7225155234336853
1684252580615310600,1.428310546875,1.0418049097061157,-1.385932207107544,0.15600934624671936
1684252580625336600,1.438336669921875,0.9224774837493896,-0.37179243564605713,0.5860227346420288
1684252580635362600,1.448362548828125,0.884544312953949,-0.06269955635070801,0.4702339768409729
1684252580645388500,1.458388427734375,0.897703230381012,-0.24225786328315735,0.07811813056468964
1684252580655414500,1.46841455078125,0.9371845126152039,-0.33704397082328796,-0.32467591762542725
1684252580665440500,1.4784404296875,0.928881824016571,-0.2726591229438782,-0.6106640100479126
1684252580675466500,1.488466552734375,0.855329155921936,-0.15277887880802155,-0.7719281911849976
1684252580685492700,1.49849267578125,0.7167752385139465,-0.050417616963386536,-0.8233668804168701
1684252580695518700,1.508518798828125,0.5440099239349365,0.006194202229380608,-0.7765892744064331
1684252580705544700,1.518544677734375,0.35688185691833496,-0.052492544054985046,-0.6657978296279907
1684252580715569700,1.528569580078125,0.1922447234392166,-0.08175832778215408,-0.5204463601112366
1684252580725595600,1.538595703125,0.04818049073219299,-0.05299405753612518,-0.35113853216171265
1684252580735621600,1.54862158203125,-0.08999014645814896,0.020155763253569603,-0.187943696975708
1684252580745647600,1.558647705078125,-0.21849432587623596,0.12393329292535782,-0.04352474585175514
1684252580755673600,1.568673583984375,-0.34517979621887207,0.2247203290462494,0.06950316578149796
1684252580765699600,1.578699462890625,-0.4614315927028656,0.371232807636261,0.17741498351097107
1684252580775725600,1.5887255859375,-0.5638038516044617,0.508666455745697,0.3027171790599823
1684252580785751600,1.59875146484375,-0.6876808404922485,0.5765656232833862,0.4308847188949585
1684252580795777500,1.608777587890625,-0.8184508085250854,0.5963858366012573,0.5417678356170654
1684252580805803500,1.618803466796875,-0.970384418964386,0.5717191100120544,0.6255463361740112
1684252580815829800,1.628829833984375,-1.1365303993225098,0.5246269702911377,0.6671192049980164
1684252580825855700,1.638855712890625,-1.30422043800354,0.5000899434089661,0.6858497262001038
1684252580835881700,1.6488818359375,-1.4453961849212646,0.5840036869049072,0.6883686780929565
1684252580845906700,1.65890673828125,-1.556410551071167,0.7632453441619873,0.7044722437858582
1684252580855932700,1.6689326171875,-1.6138837337493896,1.0555577278137207,0.7468088865280151
1684252580865958700,1.678958740234375,-1.593308448791504,1.4662176370620728,0.8112821578979492
1684252580875984600,1.688984619140625,-1.5143040418624878,1.9099012613296509,0.8863623142242432
1684252580886010600,1.6990107421875,-1.4058741331100464,2.2507331371307373,0.9563933610916138
1684252580896036600,1.70903662109375,-1.2794361114501953,2.4175806045532227,1.0435600280761719
1684252580906062600,1.7190625,-1.1384401321411133,2.340515613555908,1.2171704769134521
1684252580916088600,1.729088623046875,-0.9462071657180786,1.9762452840805054,1.5291955471038818
1684252580926114600,1.739114501953125,-0.6342135667800903,1.3107415437698364,1.9524375200271606
1684252580936140500,1.749140625,-0.24931560456752777,0.4578673243522644,2.388091802597046
1684252580946166800,1.759166748046875,0.12176018953323364,-0.40321972966194153,2.665426254272461
1684252580956192800,1.76919287109375,0.4019829034805298,-1.2779033184051514,2.6747214794158936
1684252580966218800,1.77921875,0.6037200093269348,-2.1810173988342285,2.4407222270965576
1684252580976244700,1.78924462890625,0.7695518732070923,-2.752859354019165,2.1291496753692627
1684252580986269700,1.799269775390625,0.9247198700904846,-2.4844627380371094,1.9305355548858643
1684252580996295700,1.809295654296875,0.9730304479598999,-1.5002342462539673,1.824959397315979
1684252581006321700,1.81932177734375,0.8948754668235779,-0.27564537525177,1.6356078386306763
1684252581016347600,1.82934765625,0.7228425741195679,0.8010968565940857,1.3636127710342407
1684252581026373600,1.83937353515625,0.41767656803131104,1.3634086847305298,1.027368426322937
1684252581036399600,1.849399658203125,0.038337886333465576,1.4351242780685425,0.6581552028656006
1684252581046425600,1.859425537109375,-0.3152824938297272,1.350664734840393,0.2554745674133301
1684252581056451600,1.86945166015625,-0.5893303751945496,1.2592880725860596,-0.14276449382305145
1684252581066477600,1.8794775390625,-0.7496654391288757,1.1405521631240845,-0.4517532289028168
1684252581076503800,1.88950390625,-0.8197216987609863,0.9912184476852417,-0.6812750697135925
1684252581086529800,1.89952978515625,-0.8163301348686218,0.8243732452392578,-0.8393994569778442
1684252581096555800,1.9095556640625,-0.7538769245147705,0.6205500960350037,-0.8884667158126831
1684252581106580700,1.919580810546875,-0.6612234115600586,0.39108121395111084,-0.7973975539207458
1684252581116606700,1.929606689453125,-0.5134228467941284,0.42102962732315063,-0.40955623984336853
1684252581126632700,1.9396328125,-0.2973254323005676,0.8294727802276611,0.27352914214134216
1684252581136658700,1.94965869140625,-0.08787789195775986,1.0732451677322388,0.8177459836006165
1684252581146684700,1.9596845703125,0.05618234723806381,0.9097635746002197,1.1258704662322998
1684252581156710700,1.969710693359375,0.17292273044586182,0.3967040777206421,1.358277678489685
1684252581166736600,1.979736572265625,0.28217652440071106,-0.2935766279697418,1.5474300384521484
1684252581176762600,1.9897626953125,0.39469626545906067,-1.0053539276123047,1.6747382879257202
1684252581186788600,1.99978857421875,0.529424250125885,-1.6466578245162964,1.768582820892334
1684252581196814600,2.009814697265625,0.7188011407852173,-2.0264291763305664,1.8750213384628296
1684252581206840800,2.0198408203125,0.9616993069648743,-1.7397481203079224,2.121230363845825
1684252581216866800,2.02986669921875,1.2083197832107544,-0.6388600468635559,2.5105788707733154
1684252581226892800,2.039892822265625,1.3168848752975464,0.3324914872646332,2.7109782695770264
1684252581236918800,2.049918701171875,1.265013575553894,0.5967070460319519,2.606051445007324
1684252581246943700,2.05994384765625,1.1074812412261963,0.17671296000480652,2.277784585952759
1684252581256969700,2.0699697265625,0.8791791796684265,-0.7065151929855347,1.8365135192871094
1684252581266995700,2.07999560546875,0.6212813258171082,-1.649120569229126,1.362246036529541
1684252581277021700,2.090021728515625,0.36003804206848145,-2.371814012527466,0.9415059685707092
1684252581287047700,2.100047607421875,0.10558284819126129,-2.850337028503418,0.6020083427429199
1684252581297073700,2.11007373046875,-0.1121048852801323,-3.0986247062683105,0.3605298697948456
1684252581307099600,2.120099609375,-0.2667677104473114,-3.1497695446014404,0.2112320065498352
1684252581317125600,2.130125732421875,-0.37218090891838074,-3.0531110763549805,0.13503554463386536
1684252581327151600,2.140151611328125,-0.43944329023361206,-2.7895450592041016,0.12528730928897858
1684252581337177900,2.150177734375,-0.4933919906616211,-2.2795159816741943,0.2204909324645996
1684252581347203800,2.160203857421875,-0.5606054067611694,-1.4181859493255615,0.4726451337337494
1684252581357229800,2.170229736328125,-0.6222203969955444,-0.29822441935539246,0.8282210230827332
1684252581367255800,2.180255859375,-0.6143845319747925,0.7489352822303772,1.1245077848434448
1684252581377281800,2.19028173828125,-0.545282244682312,1.4633921384811401,1.2684029340744019
1684252581387306800,2.200306640625,-0.44456493854522705,1.8335717916488647,1.3113934993743896
1684252581397332700,2.210332763671875,-0.322877436876297,2.006357431411743,1.3593484163284302
1684252581407359000,2.22035888671875,-0.15767277777194977,2.018378496170044,1.4206293821334839
1684252581417385000,2.230385009765625,0.03609585016965866,1.4685968160629272,1.3366053104400635
1684252581427411000,2.240410888671875,0.16492174565792084,-0.11576022207736969,0.8783984184265137
1684252581437437000,2.25043701171875,0.1505630910396576,-2.3633763790130615,0.09486037492752075
1684252581447463000,2.260462890625,0.06206411495804787,-4.202937602996826,-0.6768187880516052
1684252581457489000,2.270489013671875,0.02413913793861866,-4.988546848297119,-1.2082644701004028
1684252581467515000,2.280514892578125,0.10599751770496368,-5.09557580947876,-1.616288185119629
1684252581477540600,2.29054052734375,0.2978638708591461,-5.180201530456543,-2.0302858352661133
1684252581487566600,2.300566650390625,0.5347264409065247,-5.174690246582031,-2.6818645000457764
1684252581497592600,2.310592529296875,0.8958513736724854,-4.682652473449707,-3.7471706867218018
1684252581507618600,2.32061865234375,1.300297737121582,-3.9342145919799805,-5.067932605743408
1684252581517644800,2.330644775390625,1.312942385673523,-3.325558662414551,-6.15638542175293
1684252581527669800,2.340669677734375,0.6414836049079895,-3.05875301361084,-6.745296478271484
1684252581537696000,2.350696044921875,-0.4542964994907379,-3.0099480152130127,-6.906388759613037
1684252581547722000,2.360721923828125,-1.7531014680862427,-0.5213468670845032,-5.247820854187012
1684252581557748000,2.370748046875,-2.5428426265716553,2.3270390033721924,-3.4575912952423096
1684252581567773700,2.380773681640625,-2.4737672805786133,3.5423569679260254,-2.807460308074951
1684252581577799700,2.390799560546875,-1.808838129043579,2.689591646194458,-3.019383668899536
1684252581587825700,2.40082568359375,-0.8317566514015198,0.1615687757730484,-3.6982665061950684
1684252581597851600,2.4108515625,0.061350204050540924,-1.8192726373672485,-4.149896144866943
1684252581607877600,2.420877685546875,0.7100158333778381,-3.468785524368286,-4.156769752502441
1684252581617903600,2.430903564453125,1.1650750637054443,-4.631970405578613,-3.7038941383361816
1684252581627929600,2.4409296875,1.399253487586975,-4.924506187438965,-2.8156628608703613
1684252581637955600,2.45095556640625,1.3604872226715088,-3.5432164669036865,-1.3494383096694946
1684252581647981800,2.46098193359375,1.325717806816101,-1.3212686777114868,-0.06749223917722702
1684252581658007800,2.4710078125,1.5726556777954102,0.5952318906784058,0.6522880792617798
1684252581668032800,2.48103271484375,1.8748387098312378,1.7087082862854004,1.064858078956604
1684252581678058800,2.491058837890625,2.1233487129211426,1.7842143774032593,1.2945150136947632
1684252581688084700,2.501084716796875,2.3747527599334717,0.8035955429077148,1.3126002550125122
1684252581698110700,2.51111083984375,2.5251657962799072,-0.674723744392395,1.132070779800415
1684252581708136700,2.52113671875,2.5049569606781006,-1.7329901456832886,0.8604989647865295
1684252581718162700,2.53116259765625,2.3611671924591064,-1.7220563888549805,0.736804723739624
1684252581728188700,2.541188720703125,2.1096603870391846,-0.5523581504821777,0.7850905060768127
1684252581738214700,2.551214599609375,1.6193674802780151,1.0406367778778076,0.5248345732688904
1684252581748240600,2.56124072265625,1.1236858367919922,2.465014696121216,-0.07459133118391037
1684252581758266600,2.5712666015625,0.8213560581207275,3.076591968536377,-0.8666152358055115
1684252581768292600,2.581292724609375,0.705664873123169,3.0768611431121826,-1.5827165842056274
1684252581778318800,2.59131884765625,0.6887456178665161,2.841557025909424,-1.9643319845199585
1684252581788344800,2.6013447265625,0.722297191619873,2.5017151832580566,-2.0284371376037598
1684252581798370800,2.611370849609375,0.7898372411727905,2.303694009780884,-1.8795137405395508
1684252581808395800,2.621395751953125,0.8283971548080444,2.2976036071777344,-1.5969265699386597
1684252581818421800,2.631421875,0.8374544978141785,2.275676965713501,-1.2972749471664429
1684252581828447700,2.64144775390625,0.8404609560966492,2.1126019954681396,-1.033065676689148
1684252581838473700,2.6514736328125,0.8614177107810974,1.9408715963363647,-0.7905910015106201
1684252581848499700,2.661499755859375,0.9274649024009705,1.7785577774047852,-0.5168707966804504
1684252581858525700,2.671525634765625,1.045660376548767,1.636984944343567,-0.19438236951828003
1684252581868551700,2.6815517578125,1.1963255405426025,1.5398190021514893,0.1574305295944214
1684252581878577700,2.69157763671875,1.3270306587219238,1.4774439334869385,0.49230504035949707
1684252581888603600,2.701603759765625,1.374170184135437,1.5128225088119507,0.7427734732627869
1684252581898629600,2.711629638671875,1.2986173629760742,1.6964632272720337,0.8771979212760925
1684252581908655900,2.72165576171875,1.0680184364318848,1.9118974208831787,0.9060692191123962
1684252581918681900,2.731681884765625,0.6955039501190186,2.0374507904052734,0.8886692523956299
1684252581928707800,2.741707763671875,0.2521701753139496,2.1443402767181396,0.8895035982131958
1684252581938732800,2.75173291015625,-0.20639578998088837,2.259676456451416,0.9121077060699463
1684252581948758800,2.7617587890625,-0.6376574635505676,2.3590948581695557,0.9742307662963867
1684252581958784800,2.77178466796875,-1.0088179111480713,2.4270851612091064,1.0636634826660156
1684252581968810800,2.781810791015625,-1.309706687927246,2.536055564880371,1.169215440750122
1684252581978836700,2.791836669921875,-1.5118756294250488,2.728170394897461,1.2782169580459595
1684252581988862700,2.80186279296875,-1.626047968864441,3.0921072959899902,1.3736937046051025
1684252581998888700,2.811888671875,-1.6522084474563599,3.6902894973754883,1.5026164054870605
1684252582008914700,2.821914794921875,-1.6370203495025635,4.482137203216553,1.686554193496704
1684252582018940700,2.831940673828125,-1.4443097114562988,5.053048133850098,2.055630683898926
1684252582028966700,2.841966552734375,0.28017258644104004,-6.721562385559082,4.183586597442627
1684252582038993000,2.851992919921875,1.1322808265686035,-10.701897621154785,5.1498823165893555
1684252582049019000,2.862018798828125,0.8431277275085449,-7.496257305145264,2.7077383995056152
1684252582059044900,2.872044921875,0.73313969373703,-3.2117326259613037,0.2894402742385864
1684252582069070800,2.88207080078125,0.7579648494720459,5.494115829467773,1.7271661758422852
1684252582079096800,2.892096923828125,0.8389078378677368,7.664587020874023,1.619046926498413
1684252582089121800,2.902121826171875,0.4135880172252655,4.840400695800781,-0.7742866277694702
1684252582099147800,2.912147705078125,0.006046753376722336,4.0073466300964355,-2.600045680999756
1684252582109173800,2.922173828125,-0.5212647318840027,3.7152445316314697,-3.633729934692383
1684252582119199700,2.93219970703125,-1.2494834661483765,3.239349842071533,-4.098548412322998
1684252582129225700,2.942225830078125,-1.935409665107727,2.59962797164917,-4.224301338195801
1684252582139251700,2.952251708984375,-2.3889670372009277,1.9069918394088745,-4.180681228637695
1684252582149277700,2.962277587890625,-2.5120773315429688,1.1966149806976318,-4.059305667877197
1684252582159303700,2.9723037109375,-2.284351348876953,0.5680506229400635,-3.9020237922668457
1684252582169330000,2.982329833984375,-1.7750366926193237,0.10139555484056473,-3.7068779468536377
1684252582179356000,2.99235595703125,-0.8690764904022217,1.424905776977539,-2.530258893966675
1684252582189382000,3.0023818359375,0.14770323038101196,3.5454249382019043,-0.7800209522247314
1684252582199407900,3.012407958984375,0.6253573894500732,4.197340488433838,0.27790865302085876
1684252582209433900,3.022433837890625,0.5933427214622498,3.7967936992645264,0.8447220325469971
1684252582219459800,3.0324599609375,0.4065895080566406,2.886841058731079,1.2837035655975342
1684252582229484800,3.04248486328125,0.2704545855522156,1.9027775526046753,1.622267246246338
1684252582239510800,3.0525107421875,0.26426634192466736,1.073992133140564,1.8081260919570923
1684252582249536800,3.062536865234375,0.3875081241130829,0.4200335443019867,1.8599933385849
1684252582259562800,3.072562744140625,0.5796524286270142,0.010565703734755516,1.8229652643203735
1684252582269588700,3.082588623046875,0.7239786982536316,-0.04815566539764404,1.8447719812393188
1684252582279614700,3.09261474609375,0.7560275793075562,0.2832774817943573,2.0909106731414795
1684252582289640700,3.102640625,0.6557742357254028,0.9301249384880066,2.514615535736084
1684252582299667000,3.1126669921875,0.5855922102928162,1.5187920331954956,2.8089842796325684
1684252582309693000,3.12269287109375,0.6369986534118652,1.869096279144287,2.8203001022338867
1684252582319719000,3.132718994140625,0.7560732364654541,2.043609142303467,2.673053741455078
1684252582329745000,3.142744873046875,0.8657978773117065,2.0303456783294678,2.4334287643432617
1684252582339771000,3.15277099609375,0.8960574269294739,1.8060786724090576,2.128237009048462
1684252582349796900,3.162796875,0.8234902620315552,1.418800950050354,1.7590080499649048
1684252582359822800,3.17282275390625,0.558771014213562,0.7346422672271729,1.0994285345077515
1684252582369848800,3.182848876953125,0.24116292595863342,0.23205745220184326,0.36037343740463257
1684252582379873800,3.192873779296875,0.09871277213096619,0.3379344046115875,-0.009717038832604885
1684252582389899800,3.202899658203125,0.05964286997914314,0.7133191823959351,-0.10690910369157791
1684252582399925800,3.21292578125,0.04169529303908348,1.0208964347839355,-0.06371316313743591
1684252582409951700,3.22295166015625,0.0012951412936672568,1.0338114500045776,0.06088043004274368
1684252582419977700,3.232977783203125,-0.07599607110023499,0.7982063293457031,0.23355840146541595
1684252582430003700,3.243003662109375,-0.15418221056461334,0.4889134168624878,0.3858321011066437
1684252582440029700,3.25302978515625,-0.16100507974624634,0.2671566307544708,0.46788036823272705
1684252582450055700,3.2630556640625,-0.10732907056808472,0.2356162816286087,0.4323745667934418
1684252582460081700,3.27308154296875,-0.033570628613233566,0.3211441934108734,0.30234068632125854
1684252582470107600,3.283107666015625,0.031130071729421616,0.39089369773864746,0.10994142293930054
1684252582480134000,3.2931337890625,0.06188023090362549,0.40152719616889954,-0.08075997978448868
1684252582490159900,3.303159912109375,0.05803249776363373,0.3253285586833954,-0.2617438733577728
1684252582500185900,3.313185791015625,0.031342774629592896,0.20276302099227905,-0.39945128560066223
1684252582510211600,3.323211669921875,0.008148503489792347,0.07060552388429642,-0.49157801270484924
1684252582520237600,3.333237548828125,0.026828397065401077,-0.05454462394118309,-0.5426185131072998
1684252582530262800,3.3432626953125,0.10492479801177979,-0.2414117157459259,-0.5757940411567688
1684252582540288800,3.353288818359375,0.2360711544752121,-0.5569225549697876,-0.6322782039642334
1684252582550314800,3.363314697265625,0.39341095089912415,-0.996223509311676,-0.7396930456161499
1684252582560340700,3.3733408203125,0.5259246230125427,-1.4375513792037964,-0.8809517025947571
1684252582570366700,3.38336669921875,0.6542141437530518,-1.7017778158187866,-1.0078920125961304
1684252582580392700,3.393392822265625,0.796413004398346,-1.7212581634521484,-1.1739763021469116
1684252582590418700,3.403418701171875,0.9454448223114014,-1.4434888362884521,-1.4796499013900757
1684252582600444700,3.413444580078125,1.0602474212646484,-1.0008708238601685,-1.9298925399780273
1684252582610470700,3.423470703125,1.127671241760254,-0.49622341990470886,-2.5535762310028076
1684252582620496600,3.43349658203125,1.1101807355880737,-0.04983105883002281,-3.4769768714904785
1684252582630522600,3.443522705078125,0.8439162373542786,0.40581291913986206,-4.634444236755371
1684252582640548600,3.453548583984375,0.3208753764629364,1.147234559059143,-5.048810005187988
1684252582650574600,3.46357470703125,-0.2869349718093872,1.5172549486160278,-4.375672817230225
1684252582660600600,3.4736005859375,-0.5396947860717773,1.3121434450149536,-3.173222064971924
1684252582670625800,3.483625732421875,-0.356765478849411,0.5271612405776978,-1.9945207834243774
1684252582680651800,3.49365185546875,0.20524628460407257,-0.9537366628646851,-1.0298746824264526
1684252582690677800,3.503677734375,1.0721616744995117,-2.4091267585754395,-0.3439863622188568
1684252582700703700,3.513703857421875,1.8459534645080566,-3.2836294174194336,0.08614140003919601
1684252582710729500,3.5237294921875,2.2323765754699707,-3.6168863773345947,0.43202877044677734
1684252582720755500,3.53375537109375,2.218097448348999,-3.646738052368164,0.7081764340400696
1684252582730781400,3.543781494140625,1.9298896789550781,-3.593169927597046,0.8292493224143982
1684252582740807700,3.5538076171875,1.4888708591461182,-3.5692331790924072,0.7580841779708862
1684252582750833700,3.563833740234375,0.9346702694892883,-3.382707118988037,0.39903387427330017
1684252582760859600,3.573859619140625,0.23971638083457947,-2.918294906616211,-0.3026075065135956
1684252582770885600,3.5838857421875,-0.5053788423538208,-2.37044358253479,-1.0339118242263794
1684252582780911600,3.59391162109375,-1.1823910474777222,-1.9880869388580322,-1.5911571979522705
1684252582790937600,3.6039375,-1.765494465827942,-1.6008907556533813,-1.9767671823501587
1684252582800963600,3.613963623046875,-2.2588274478912354,-0.7658013701438904,-2.341331958770752
1684252582810988500,3.623988525390625,-2.529104471206665,0.45125097036361694,-2.6174535751342773
1684252582821014500,3.6340146484375,-2.4828686714172363,1.925142765045166,-2.7773776054382324
1684252582831040500,3.64404052734375,-2.1999754905700684,3.250514030456543,-2.7711758613586426
1684252582841066500,3.65406640625,-1.8145248889923096,4.0172343254089355,-2.626453399658203
1684252582851092500,3.664092529296875,-1.4524319171905518,3.96101713180542,-2.415587902069092
1684252582861118500,3.674118408203125,-1.1267857551574707,3.2013821601867676,-1.9809125661849976
1684252582871144700,3.684144775390625,-0.9068623781204224,1.9145562648773193,-1.275870442390442
1684252582881170700,3.694170654296875,-0.7384361028671265,0.6351396441459656,-0.3574557304382324
1684252582891196700,3.70419677734375,-0.5700446963310242,-0.4563705325126648,0.597042977809906
1684252582901222700,3.71422265625,-0.40056052803993225,-1.358393907546997,1.414764165878296
1684252582911248600,3.72424853515625,-0.25136810541152954,-2.026132345199585,2.0220727920532227
1684252582921274600,3.734274658203125,-0.14863894879817963,-2.413539171218872,2.451205253601074
1684252582931300600,3.744300537109375,-0.0723566934466362,-2.502595901489258,2.7307631969451904
1684252582941326600,3.75432666015625,0.014525842852890491,-2.296732187271118,2.8718833923339844
1684252582951352600,3.7643525390625,0.1099596843123436,-1.8882603645324707,2.8982222080230713
1684252582961377500,3.77437744140625,0.18848079442977905,-1.3865045309066772,2.852083921432495
1684252582971403500,3.784403564453125,0.25169917941093445,-0.9582988023757935,2.7937369346618652
1684252582981429500,3.794429443359375,0.3056861162185669,-0.7440383434295654,2.739866018295288
1684252582991455500,3.80445556640625,0.35787367820739746,-0.6763110160827637,2.6808273792266846
1684252583001481700,3.814481689453125,0.4197712540626526,-0.6866127252578735,2.6281309127807617
1684252583011507700,3.8245078125,0.49285557866096497,-0.6648206114768982,2.588606595993042
1684252583021533700,3.83453369140625,0.5566286444664001,-0.6476050615310669,2.5530877113342285
1684252583031559700,3.8445595703125,0.6415496468544006,-0.7267848253250122,2.4339380264282227
1684252583041585700,3.854585693359375,0.7271835207939148,-0.9218964576721191,2.2034432888031006
1684252583051611600,3.864611572265625,0.7756471633911133,-0.9457591772079468,2.0343785285949707
1684252583061637600,3.8746376953125,0.7386453151702881,-0.7810821533203125,1.9042643308639526
1684252583071663600,3.88466357421875,0.6951420307159424,-0.604718804359436,1.3991564512252808
1684252583081689600,3.894689697265625,0.741502046585083,0.1543385237455368,-0.3618411421775818
1684252583091715600,3.904715576171875,0.22088311612606049,2.976066827774048,-1.3404247760772705
1684252583101741600,3.914741455078125,-0.9752792119979858,4.9714674949646,-0.3366854190826416
1684252583111766500,3.9247666015625,-2.2400918006896973,2.571681261062622,0.8167248964309692
1684252583121792500,3.93479248046875,-3.104475975036621,-1.585698127746582,1.5697205066680908
1684252583131818800,3.94481884765625,-2.58158278465271,-4.5567426681518555,1.5559426546096802
1684252583141844700,3.9548447265625,-0.8304764628410339,-5.920443534851074,1.0678125619888306
1684252583151870700,3.96487060546875,1.041500449180603,-6.174041748046875,0.7083842158317566
1684252583161896700,3.974896728515625,2.41690731048584,-2.7846171855926514,0.8199377059936523
1684252583171922700,3.984922607421875,2.5127763748168945,0.16122502088546753,1.253172516822815
1684252583181948700,3.99494873046875,1.5138130187988281,0.949844479560852,1.7907713651657104
1684252583191974700,4.004974609375,0.2157815545797348,0.7677407264709473,2.4386017322540283
1684252583202000600,4.015000732421875,-0.6121547818183899,0.3357888162136078,2.9872305393218994
1684252583212026600,4.025026611328125,-0.7587698101997375,-0.06095348298549652,3.345723867416382
1684252583222052600,4.035052490234375,-0.4665158987045288,-0.3839160203933716,3.5613186359405518
1684252583232078600,4.04507861328125,-0.10987576842308044,-0.5763466954231262,3.7178099155426025
1684252583242104800,4.055104736328125,0.06580857932567596,-0.5654875636100769,3.8845748901367188
1684252583252130800,4.065130859375,0.17550604045391083,-0.4787537157535553,4.042949676513672
1684252583262155800,4.07515576171875,0.3621697425842285,-0.5502386689186096,4.134424686431885
1684252583272181800,4.085181640625,0.5962115526199341,-0.735281229019165,4.192275524139404
1684252583282207700,4.095207763671875,0.744715690612793,-0.899860143661499,4.228484630584717
1684252583292233700,4.105233642578125,0.7544711232185364,-1.2059741020202637,4.17286491394043
1684252583302259700,4.115259765625,0.5699447393417358,-1.6675405502319336,4.007266044616699
1684252583312285700,4.12528564453125,0.24581855535507202,-2.207345724105835,3.699716806411743
1684252583322311700,4.135311767578125,-0.095132015645504,-2.775017261505127,3.3185181617736816
1684252583332337700,4.145337646484375,-0.37490132451057434,-2.7251579761505127,3.0064897537231445
1684252583342363600,4.15536376953125,-0.5757842063903809,0.40242448449134827,3.1682636737823486
1684252583352389600,4.1653896484375,-0.031347788870334625,0.3057301640510559,2.8954739570617676
1684252583362416400,4.17541650390625,0.8446990251541138,-2.2701354026794434,2.346010446548462
1684252583372442400,4.1854423828125,1.589297890663147,-5.133988380432129,1.712853193283081
1684252583382468000,4.195468017578125,2.0193052291870117,-7.423482894897461,1.0818692445755005
1684252583392494000,4.205494140625,2.1309776306152344,-8.820348739624023,0.5332050323486328
1684252583402520000,4.21552001953125,1.9168788194656372,-9.358912467956543,0.1824013590812683
1684252583412546300,4.22554638671875,1.4279704093933105,-8.956066131591797,0.2358589917421341
1684252583422571300,4.2355712890625,0.81175696849823,-3.075922727584839,1.824535846710205
1684252583432597200,4.24559716796875,0.49969685077667236,1.3066167831420898,2.9819376468658447
1684252583442623500,4.25562353515625,0.30800488591194153,2.1791296005249023,3.214817762374878
1684252583452649500,4.2656494140625,0.14220072329044342,2.063164710998535,3.0165913105010986
1684252583462675500,4.275675537109375,-0.018847845494747162,1.7146048545837402,2.5067367553710938
1684252583472701200,4.285701171875,-0.2348315417766571,1.6707276105880737,1.8409799337387085
1684252583482727200,4.29572705078125,-0.45366689562797546,2.4561729431152344,1.2277463674545288
1684252583492753200,4.305753173828125,-0.602884829044342,2.504758596420288,-0.13703015446662903
1684252583502779100,4.315779052734375,-0.6604259014129639,0.3953671455383301,-1.5598360300064087
1684252583512805000,4.32580517578125,-0.610947847366333,-1.3088756799697876,-1.7377568483352661
1684252583522831000,4.3358310546875,-0.42055103182792664,-2.260762929916382,-1.5161831378936768
1684252583532857000,4.345857177734375,-0.11278893798589706,-3.033994197845459,-1.5433100461959839
1684252583542883300,4.35588330078125,0.20734591782093048,-3.773637056350708,-1.9889429807662964
1684252583552909300,4.365909423828125,0.5419833064079285,-4.234069347381592,-2.81716251373291
1684252583562935300,4.375935302734375,0.9724975228309631,-4.380433559417725,-4.08555793762207
1684252583572961300,4.385961181640625,1.5421385765075684,-4.558000087738037,-5.553449630737305
1684252583582986200,4.395986328125,1.8649449348449707,-4.9483208656311035,-6.811361312866211
1684252583593012200,4.40601220703125,1.7770651578903198,-5.433541297912598,-7.570771217346191
1684252583603038200,4.4160380859375,1.3515288829803467,-5.607183933258057,-7.698115348815918
1684252583613064200,4.426064208984375,0.43880683183670044,-1.4006696939468384,-5.948673248291016
1684252583623090200,4.436090087890625,-0.5054385662078857,3.5938656330108643,-3.808655023574829
1684252583633116200,4.4461162109375,-1.0325980186462402,4.743905544281006,-3.239579439163208
1684252583643142100,4.45614208984375,-1.3550580739974976,4.584839820861816,-3.4018733501434326
1684252583653168000,4.466168212890625,-1.3673511743545532,3.5796451568603516,-3.7627484798431396
1684252583663194000,4.476194091796875,-1.0954344272613525,1.6517539024353027,-4.129432678222656
1684252583673220400,4.486220458984375,-0.6011946201324463,-1.5351486206054688,-4.655108451843262
1684252583683246300,4.496246337890625,-0.026616089046001434,-3.4400055408477783,-4.338854789733887
1684252583693272300,4.506272216796875,0.4675459861755371,-4.000103950500488,-3.318815231323242
1684252583703298300,4.51629833984375,0.7377219796180725,-3.5907342433929443,-2.109675645828247
1684252583713324300,4.52632421875,1.0114545822143555,-2.6410393714904785,-1.1507484912872314
1684252583723350300,4.536350341796875,1.4361387491226196,-1.5737849473953247,-0.5512772798538208
1684252583733375200,4.546375244140625,1.9554303884506226,-0.8610732555389404,-0.3312828540802002
1684252583743401200,4.556401123046875,2.4244234561920166,-0.49075672030448914,-0.4196629226207733
1684252583753427200,4.56642724609375,2.5558032989501953,-0.2996024787425995,-0.559730589389801
1684252583763453200,4.576453125,2.3096249103546143,-0.020746316760778427,-0.6130077242851257
1684252583773479200,4.586479248046875,1.9996079206466675,0.4333042800426483,-0.6637292504310608
1684252583783505200,4.596505126953125,1.7223073244094849,0.784371554851532,-0.7852165102958679
1684252583793531100,4.60653125,1.5076498985290527,0.7293935418128967,-0.9884556531906128
1684252583803557400,4.616557373046875,1.356575608253479,0.2517649829387665,-1.3720399141311646
1684252583813583400,4.626583251953125,1.2761127948760986,0.12796342372894287,-1.8630263805389404
1684252583823609300,4.636609375,1.333625078201294,2.2001633644104004,-1.8493156433105469
1684252583833635300,4.64663525390625,1.2143949270248413,3.529384136199951,-1.5851904153823853
1684252583843661300,4.656661376953125,0.9156109690666199,3.6148290634155273,-1.279466986656189
1684252583853687300,4.666687255859375,0.6153997182846069,2.945674419403076,-1.0531805753707886
1684252583863713300,4.67671337890625,0.43713995814323425,2.222964286804199,-0.9561815857887268
1684252583873739300,4.6867392578125,0.39182600378990173,1.8367503881454468,-0.9736639261245728
1684252583883765200,4.69676513671875,0.4287318289279938,1.6861157417297363,-1.047081708908081
1684252583893790200,4.706790283203125,0.4815620183944702,1.7161403894424438,-1.0394059419631958
1684252583903816200,4.716816162109375,0.44864311814308167,1.7888588905334473,-0.9073023200035095
1684252583913842200,4.72684228515625,0.2994421720504761,1.7676689624786377,-0.6708269715309143
1684252583923868200,4.7368681640625,0.10424032062292099,1.6488388776779175,-0.3757370412349701
1684252583933894400,4.746894287109375,-0.0709645226597786,1.4976186752319336,-0.08679232746362686
1684252583943920400,4.75692041015625,-0.09866192936897278,1.412802815437317,0.13921470940113068
1684252583953946400,4.7669462890625,0.002676938660442829,1.3665403127670288,0.3074282109737396
1684252583963972400,4.776972412109375,0.18376265466213226,1.2798625230789185,0.4211012125015259
1684252583973998300,4.786998291015625,0.3848361074924469,1.1511828899383545,0.5175121426582336
1684252583984024300,4.7970244140625,0.5534371137619019,1.076206922531128,0.6366968154907227
1684252583994050300,4.80705029296875,0.6510099768638611,1.0999910831451416,0.8014844655990601
1684252584004076300,4.817076171875,0.6422557234764099,1.2447021007537842,1.0216747522354126
1684252584014102300,4.827102294921875,0.5379974842071533,1.572728157043457,1.2768687009811401
1684252584024128300,4.837128173828125,0.3657310903072357,2.1260948181152344,1.5397050380706787
1684252584034154200,4.847154296875,0.12816831469535828,2.8991165161132812,1.8139081001281738
1684252584044180500,4.857180419921875,-0.15218542516231537,3.7981910705566406,2.0915141105651855
1684252584054205200,4.867205078125,-0.43068841099739075,4.769624710083008,2.3610033988952637
1684252584064231400,4.8772314453125,-0.7108164429664612,5.755978584289551,2.6123175621032715
1684252584074257400,4.88725732421875,-0.9237486720085144,6.611159324645996,2.802755832672119
1684252584084283400,4.897283447265625,-1.0663663148880005,6.706644058227539,2.9712159633636475
1684252584094309400,4.907309326171875,-1.1108973026275635,4.917911529541016,2.998795986175537
1684252584104335400,4.91733544921875,-1.033860445022583,2.4571547508239746,2.7569098472595215
1684252584114361300,4.927361328125,-0.7572857737541199,0.04180585592985153,2.302710771560669
1684252584124387300,4.93738720703125,-0.48276662826538086,-3.294752359390259,1.440864086151123
1684252584134413300,4.947413330078125,-0.36198747158050537,-6.356325149536133,0.8972793221473694
1684252584144439300,4.957439208984375,-0.5255419015884399,-4.1992316246032715,1.731989860534668
1684252584154465300,4.96746533203125,-0.8825410008430481,-0.8594350218772888,2.100633144378662
1684252584164491300,4.9774912109375,-0.8636634945869446,0.2125624567270279,1.4489305019378662
1684252584174517500,4.987517578125,-0.6445415019989014,-0.1303110122680664,0.2919662892818451
1684252584184543500,4.99754345703125,-0.41385459899902344,-0.8661545515060425,-0.7665383219718933
1684252584194569500,5.007569580078125,-0.19252142310142517,-1.4691319465637207,-1.532808542251587
1684252584204595200,5.01759521484375,-0.013426212593913078,-1.8421138525009155,-2.0183465480804443
1684252584214620400,5.027620361328125,0.05791774392127991,-1.862553596496582,-2.351902961730957
1684252584224646400,5.037646484375,-0.007400479167699814,-1.4985980987548828,-2.643355131149292
1684252584234672400,5.04767236328125,-0.08899707347154617,-0.9583263397216797,-2.8646225929260254
1684252584244698400,5.057698486328125,-0.09292993694543839,-0.48227280378341675,-2.936328172683716
1684252584254724400,5.067724365234375,-0.03440536931157112,-0.28106966614723206,-2.6087281703948975
1684252584264750300,5.077750244140625,0.24178077280521393,-0.7804840803146362,-1.7672107219696045
1684252584274776300,5.0877763671875,0.6467900276184082,-1.6125091314315796,-0.655668318271637
1684252584284802300,5.09780224609375,1.077887773513794,-1.8786181211471558,0.20313559472560883
1684252584294828300,5.107828369140625,1.4077644348144531,-1.4174984693527222,0.6454057097434998
1684252584304854300,5.117854248046875,1.4432324171066284,-0.7928028702735901,0.7744389176368713
1684252584314880300,5.12788037109375,1.1085861921310425,-0.26813432574272156,0.7491183876991272
1684252584324906200,5.13790625,0.5561767220497131,0.32660937309265137,0.7498064041137695
1684252584334932200,5.14793212890625,0.10122648626565933,1.3165618181228638,1.0398153066635132
1684252584344958200,5.157958251953125,0.005754443816840649,3.0089786052703857,1.8598353862762451
1684252584354984400,5.167984375,0.1654636710882187,4.4646830558776855,2.600411891937256
1684252584365010400,5.178010498046875,0.22846919298171997,5.0059990882873535,2.8515167236328125
1684252584375036400,5.188036376953125,0.1409824937582016,4.9583258628845215,2.7597758769989014
1684252584385061400,5.198061279296875,0.012460866011679173,4.685054302215576,2.529317617416382
1684252584395087400,5.20808740234375,-0.09571460634469986,4.367445945739746,2.270007610321045
1684252584405113300,5.21811328125,-0.1283254474401474,4.189881801605225,2.0898234844207764
1684252584415139300,5.228139404296875,-0.06269904226064682,4.373807907104492,2.0659050941467285
1684252584425165300,5.238165283203125,-0.17463825643062592,3.7421910762786865,0.9233995079994202
1684252584435191300,5.24819140625,-0.5572543144226074,2.000807046890259,-0.7321460247039795
1684252584445217300,5.25821728515625,-0.8058682680130005,0.9379501938819885,-1.3534717559814453
1684252584455243300,5.2682431640625,-0.7253382802009583,0.37081485986709595,-1.0214868783950806
1684252584465269200,5.278269287109375,-0.4795208275318146,0.18776416778564453,-0.336535781621933
1684252584475295200,5.288295166015625,-0.2040298581123352,0.22622527182102203,0.3362966775894165
1684252584485321500,5.298321533203125,0.01561061479151249,0.11851213127374649,0.8362973928451538
1684252584495347500,5.308347412109375,0.09228302538394928,-0.13683681190013885,1.1252458095550537
1684252584505373400,5.31837353515625,0.061912357807159424,-0.3780460059642792,1.2494909763336182
1684252584515399400,5.3283994140625,-0.011085155420005322,-0.5609412789344788,1.124806523323059
1684252584525425400,5.33842529296875,-0.075447678565979,-0.9289658069610596,0.5477384924888611
1684252584535451400,5.348451416015625,-0.1404743492603302,-1.2728326320648193,-0.15532507002353668
1684252584545476400,5.358476318359375,-0.2352464199066162,-1.3229652643203735,-0.6673183441162109
1684252584555502300,5.36850244140625,-0.34130334854125977,-1.1592503786087036,-0.9825998544692993
1684252584565528300,5.3785283203125,-0.41131699085235596,-0.929810643196106,-1.2182419300079346
1684252584575554300,5.38855419921875,-0.39871224761009216,-0.6960998773574829,-1.415096402168274
1684252584585580300,5.398580322265625,-0.2948243319988251,-0.48694196343421936,-1.6034787893295288
1684252584595606300,5.408606201171875,-0.12803402543067932,-0.3949774205684662,-1.8067541122436523
1684252584605632300,5.41863232421875,0.060540735721588135,-0.5302005410194397,-2.0683906078338623
1684252584615658500,5.428658447265625,0.2323942631483078,-0.828904390335083,-2.389716625213623
1684252584625684500,5.4386845703125,0.37516894936561584,-1.1197327375411987,-2.7720632553100586
1684252584635710500,5.44871044921875,0.4080406129360199,-1.280429482460022,-3.210256338119507
1684252584645736400,5.458736328125,0.348651647567749,-1.243182897567749,-3.7281126976013184
1684252584655762400,5.468762451171875,0.2937905490398407,-0.9261764287948608,-4.345546245574951
1684252584665788400,5.478788330078125,0.23989370465278625,-0.27956804633140564,-4.965961456298828
1684252584675814400,5.488814453125,0.13594572246074677,0.5025890469551086,-5.489609718322754
1684252584685840400,5.49884033203125,-0.07951737195253372,1.3490277528762817,-5.831186294555664
1684252584695866400,5.508866455078125,-0.3743777871131897,1.9919472932815552,-5.777021884918213
1684252584705892400,5.518892333984375,-0.7034357190132141,1.523356556892395,-5.133080959320068
1684252584715917300,5.528917236328125,-0.8350368738174438,-0.38588786125183105,-3.9347994327545166
1684252584725943300,5.538943359375,-0.6039180755615234,-2.587503671646118,-2.4450249671936035
1684252584735969300,5.54896923828125,-0.013545585796236992,-3.9270436763763428,-1.10798180103302
1684252584745995500,5.55899560546875,0.782081663608551,-4.28917932510376,-0.18473127484321594
1684252584756021500,5.569021484375,1.5195338726043701,-3.745401620864868,0.21590349078178406
1684252584766047500,5.579047607421875,2.1498525142669678,-2.5579769611358643,0.299487829208374
1684252584776073500,5.589073486328125,2.596742630004883,-1.0469621419906616,0.07500680536031723
1684252584786099500,5.599099365234375,2.9284420013427734,0.3802887201309204,-0.211415097117424
1684252584796125400,5.60912548828125,3.215721368789673,1.3903111219406128,-0.5358526110649109
1684252584806151400,5.6191513671875,3.447309970855713,1.556843638420105,-1.1391421556472778
1684252584816177400,5.629177490234375,3.529554605484009,1.4073196649551392,-1.6342791318893433
1684252584826203400,5.639203369140625,3.413459062576294,1.6029655933380127,-1.6344407796859741
1684252584836229400,5.6492294921875,3.1202006340026855,2.061370849609375,-1.2553397417068481
1684252584846255400,5.65925537109375,2.832277536392212,2.5983731746673584,-0.8437442779541016
1684252584856281600,5.669281494140625,2.5715627670288086,2.9621493816375732,-0.6207913756370544
1684252584866307600,5.6793076171875,2.3287861347198486,3.1027305126190186,-0.6349906921386719
1684252584876333600,5.68933349609375,2.110002279281616,3.116521120071411,-0.8307516574859619
1684252584886358500,5.699358642578125,1.917694330215454,3.023726224899292,-1.1284106969833374
1684252584896384500,5.709384521484375,1.733864665031433,2.889676809310913,-1.412686824798584
1684252584906410500,5.719410400390625,1.5852761268615723,2.7982900142669678,-1.6110416650772095
1684252584916436500,5.7294365234375,1.5186175107955933,2.7751071453094482,-1.693142056465149
1684252584926462500,5.73946240234375,1.5247491598129272,2.8758246898651123,-1.643121600151062
1684252584936488400,5.749488525390625,1.570129156112671,3.1307504177093506,-1.4177297353744507
1684252584946514400,5.759514404296875,1.6280661821365356,3.3971314430236816,-1.0371265411376953
1684252584956540400,5.76954052734375,1.642284631729126,3.5148215293884277,-0.5958364605903625
1684252584966566400,5.77956640625,1.5914990901947021,3.4436566829681396,-0.14093700051307678
1684252584976592400,5.78959228515625,1.5125247240066528,3.2702836990356445,0.283621221780777
1684252584986618600,5.79961865234375,1.4017235040664673,3.0769758224487305,0.7018490433692932
1684252584996644600,5.80964453125,1.2916691303253174,2.9243059158325195,1.1274932622909546
1684252585006670600,5.819670654296875,1.1626187562942505,2.7596654891967773,1.5407859086990356
1684252585016696600,5.829696533203125,0.9818191528320312,2.580538511276245,1.9485009908676147
1684252585026722300,5.839722412109375,0.7575682401657104,2.405076742172241,2.3483121395111084
1684252585036748300,5.849748291015625,0.5186091661453247,2.3001742362976074,2.730541706085205
1684252585046774300,5.859774169921875,0.26484018564224243,2.3817737102508545,3.054931163787842
1684252585056799500,5.869799560546875,0.007117029279470444,2.6665573120117188,3.2511918544769287
1684252585066825500,5.879825439453125,-0.21903397142887115,2.899048089981079,3.1084699630737305
1684252585076851500,5.8898515625,-0.3539462387561798,2.4015560150146484,2.427738904953003
1684252585086877400,5.89987744140625,-0.4629872441291809,0.24737675487995148,0.8442670702934265
1684252585096903400,5.9099033203125,-0.9572816491127014,-3.252431631088257,-2.6893696784973145
1684252585106929400,5.919929443359375,-2.5574543476104736,0.1296049803495407,-3.308397054672241
1684252585116955400,5.929955322265625,-3.982686758041382,1.004773736000061,-1.9927881956100464
1684252585126981400,5.9399814453125,-3.597372531890869,-0.2726520001888275,-1.568413496017456
1684252585137007400,5.95000732421875,-1.7079240083694458,0.6099118590354919,-1.499150037765503
1684252585147033300,5.960033447265625,-0.1287355124950409,1.0561190843582153,-1.5857290029525757
1684252585157059300,5.970059326171875,0.5670406222343445,0.9156299233436584,-1.6105930805206299
1684252585167085300,5.980085205078125,0.6876196265220642,0.70774906873703,-1.6051510572433472
1684252585177111300,5.990111328125,0.5712919235229492,0.4784654974937439,-1.5449633598327637
1684252585187137300,6.00013720703125,0.37815502285957336,0.19789135456085205,-1.3747355937957764
1684252585197163300,6.010163330078125,0.052850961685180664,-0.12106772512197495,-1.0733892917633057
1684252585207189200,6.020189208984375,-0.33382654190063477,-0.5104803442955017,-0.6874502897262573
1684252585217215200,6.03021533203125,-0.6918179988861084,-0.9103963375091553,-0.2612379789352417
1684252585227241500,6.040241455078125,-0.8799279928207397,-1.075182318687439,0.2078515887260437
1684252585237266200,6.05026611328125,-0.7448234558105469,0.6602727174758911,1.2501158714294434
1684252585247292400,6.06029248046875,-0.3127547800540924,3.3068108558654785,2.626533031463623
1684252585257318400,6.070318359375,0.2645556926727295,4.550207138061523,3.580228567123413
1684252585267344400,6.080344482421875,0.7821663618087769,4.53202486038208,4.039432048797607
1684252585277370400,6.090370361328125,1.1116247177124023,3.786951780319214,4.137796401977539
1684252585287396400,6.100396240234375,1.2573111057281494,0.9967167973518372,3.5564441680908203
1684252585297422300,6.11042236328125,1.1840158700942993,-2.2519872188568115,2.591822385787964
1684252585307448300,6.1204482421875,0.9831670522689819,-3.733208179473877,1.998443603515625
1684252585317474300,6.130474365234375,0.7548595666885376,-3.960615634918213,1.7889769077301025
1684252585327500300,6.140500244140625,0.5474733114242554,-3.6475932598114014,1.7069132328033447
1684252585337526300,6.1505263671875,0.3912333548069,-3.0665481090545654,1.684300422668457
1684252585347552300,6.16055224609375,0.2839287519454956,-2.178004264831543,1.7009326219558716
1684252585357578200,6.170578125,0.21852044761180878,-1.2056092023849487,1.7304133176803589
1684252585367604200,6.180604248046875,0.2220177948474884,-0.3817543685436249,1.6787506341934204
1684252585377630200,6.190630126953125,0.2815849781036377,0.19331717491149902,1.5595086812973022
1684252585387656200,6.20065625,0.39621928334236145,0.5556944012641907,1.417348027229309
1684252585397682200,6.21068212890625,0.5491361618041992,0.7735399603843689,1.2930684089660645
1684252585407707100,6.22070703125,0.688499391078949,0.8926780223846436,1.227012038230896
1684252585417733000,6.230733154296875,0.7480244636535645,0.9990140795707703,1.239559531211853
1684252585427759000,6.240759033203125,0.704082727432251,1.1755032539367676,1.323198914527893
1684252585437785300,6.250785400390625,0.5528037548065186,1.5103046894073486,1.3999464511871338
1684252585447811300,6.260811279296875,0.28656119108200073,1.7745429277420044,1.2876800298690796
1684252585457837300,6.27083740234375,-0.03796309605240822,1.4526735544204712,0.8748838901519775
1684252585467863300,6.28086328125,-0.3173489272594452,0.4309975504875183,0.34047338366508484
1684252585477889300,6.29088916015625,-0.5040263533592224,-0.8878357410430908,-0.04702560976147652
1684252585487915300,6.300915283203125,-0.6001697778701782,-1.9915229082107544,-0.16157178580760956
1684252585497941200,6.310941162109375,-0.6079214215278625,-2.5918877124786377,0.001139623811468482
1684252585507967200,6.32096728515625,-0.5415332317352295,-2.6453330516815186,0.32926785945892334
1684252585517993200,6.3309931640625,-0.4237714409828186,-2.32380747795105,0.693166196346283
1684252585528019200,6.341019287109375,-0.2893093228340149,-1.9848389625549316,0.925555944442749
1684252585538045200,6.351045166015625,-0.17314837872982025,-1.832614779472351,0.9556981325149536
1684252585548071400,6.361071533203125,-0.09378373622894287,-1.818112850189209,0.7774882912635803
1684252585558097400,6.371097412109375,-0.08748482167720795,-1.8304067850112915,0.44133564829826355
1684252585568123400,6.381123291015625,-0.16820433735847473,-1.799401879310608,0.03806605190038681
1684252585578149400,6.3911494140625,-0.3023618757724762,-1.7601414918899536,-0.28396445512771606
1684252585588174300,6.40117431640625,-0.45685097575187683,-1.8271722793579102,-0.4576411843299866
1684252585598200300,6.411200439453125,-0.5947326421737671,-2.0636231899261475,-0.47899627685546875
1684252585608226300,6.421226318359375,-0.666401743888855,-2.432891368865967,-0.38161563873291016
1684252585618252300,6.431252197265625,-0.6856369376182556,-2.791614532470703,-0.2782154977321625
1684252585628278300,6.4412783203125,-0.6814811825752258,-3.0749313831329346,-0.22823107242584229
1684252585638304300,6.45130419921875,-0.7177475690841675,-3.244576930999756,-0.30336281657218933
1684252585648330200,6.461330322265625,-0.7637852430343628,-3.3788862228393555,-0.49046143889427185
1684252585658356200,6.471356201171875,-0.7309548854827881,-3.2610504627227783,-0.8052681088447571
1684252585668382200,6.48138232421875,-0.5844921469688416,-2.780564069747925,-1.1162538528442383
1684252585678408400,6.491408447265625,-0.41638222336769104,-1.9179712533950806,-1.2045687437057495
1684252585688434400,6.501434326171875,-0.2829344868659973,-0.8389827013015747,-0.9376652240753174
1684252585698460400,6.51146044921875,-0.21583561599254608,0.3139508366584778,-0.3605198860168457
1684252585708486400,6.521486328125,-0.20888595283031464,1.1504576206207275,0.24045807123184204
1684252585718512400,6.531512451171875,-0.22751502692699432,1.5393975973129272,0.7414764165878296
1684252585728538400,6.541538330078125,-0.2921661138534546,1.64654541015625,1.1432400941848755
1684252585738564400,6.551564453125,-0.34958571195602417,1.6761914491653442,1.5041918754577637
1684252585748590300,6.56159033203125,-0.26806002855300903,1.857198715209961,1.8646762371063232
1684252585758616300,6.5716162109375,-0.016164952889084816,1.2664395570755005,1.6268469095230103
1684252585768642300,6.581642333984375,0.2620636224746704,-0.9123707413673401,0.8968545794487
1684252585778667300,6.591667236328125,0.5120292901992798,-2.9848554134368896,0.5785056352615356
1684252585788693200,6.601693359375,0.6205099821090698,-4.107085227966309,0.6812663078308105
1684252585798719200,6.61171923828125,0.5403056740760803,-4.463127613067627,0.9945797920227051
1684252585808745500,6.621745361328125,0.2609331011772156,-4.604693412780762,1.3735499382019043
1684252585818771500,6.631771484375,-0.19732023775577545,-4.72445821762085,1.6729830503463745
1684252585828797400,6.64179736328125,-0.6676636934280396,-4.612143516540527,1.7742242813110352
1684252585838823400,6.651823486328125,-1.091433048248291,-4.209811687469482,1.5739665031433105
1684252585848849400,6.661849365234375,-1.5093613862991333,-3.85233998298645,1.1691012382507324
1684252585858875400,6.67187548828125,-1.8212974071502686,-3.742767810821533,0.755446195602417
1684252585868901400,6.6819013671875,-1.9473133087158203,-3.697380304336548,0.49623963236808777
1684252585878927000,6.691927001953125,-1.9917058944702148,-3.5759453773498535,0.4150116443634033
1684252585888953000,6.701953125,-2.063999891281128,-3.214885711669922,0.4355297386646271
1684252585898979000,6.71197900390625,-2.1387624740600586,-2.763363838195801,0.5139625072479248
1684252585909005000,6.722005126953125,-2.1145060062408447,-2.485769271850586,0.6773024797439575
1684252585919031300,6.73203125,-1.9450507164001465,-2.4077320098876953,0.8428144454956055
1684252585929057300,6.742057373046875,-1.6409611701965332,-2.64318585395813,1.0243399143218994
1684252585939083300,6.752083251953125,-1.2504624128341675,-3.148472309112549,1.2712266445159912
1684252585949109200,6.762109130859375,-0.8634783029556274,-3.658491373062134,1.54412841796875
1684252585959134500,6.772134521484375,-0.558133065700531,-3.9722862243652344,1.7490168809890747
1684252585969160200,6.78216015625,-0.38526269793510437,-4.018096446990967,1.8141252994537354
1684252585979186200,6.792186279296875,-0.38943055272102356,-3.7842135429382324,1.6833585500717163
1684252585989212200,6.802212158203125,-0.5891095399856567,-3.270177125930786,1.3135714530944824
1684252585999238100,6.812238037109375,-0.9256518483161926,-2.554367780685425,0.7867361903190613
1684252586009264000,6.82226416015625,-1.29073965549469,-1.6937341690063477,0.23081794381141663
1684252586019290000,6.8322900390625,-1.5451791286468506,-0.9239007830619812,-0.19956405460834503
1684252586029316000,6.842316162109375,-1.666156530380249,-0.49796155095100403,-0.40006062388420105
1684252586039342000,6.852342041015625,-1.6633809804916382,-0.3422422707080841,-0.3984992206096649
1684252586049368300,6.862368408203125,-1.5843076705932617,-0.3545437455177307,-0.2433604896068573
1684252586059394300,6.872394287109375,-1.4639892578125,-0.3457965850830078,-0.010856670327484608
1684252586069420300,6.882420166015625,-1.3498905897140503,-0.31400418281555176,0.26829954981803894
1684252586079446300,6.8924462890625,-1.22007155418396,-0.32877033948898315,0.5570892691612244
1684252586089472300,6.90247216796875,-1.1022683382034302,-0.4588763117790222,0.8259191513061523
1684252586099498200,6.912498291015625,-0.9603574872016907,-0.724215567111969,1.0523589849472046
1684252586109524200,6.922524169921875,-0.7678400874137878,-1.0155121088027954,1.2542927265167236
1684252586119550200,6.93255029296875,-0.5494230389595032,-1.2821558713912964,1.4312779903411865
1684252586129576200,6.942576171875,-0.3432181179523468,-1.5111868381500244,1.6044495105743408
1684252586139602200,6.952602294921875,-0.18935056030750275,-1.670716404914856,1.7534416913986206
1684252586149627100,6.962627197265625,-0.12207671254873276,-1.7959728240966797,1.850211501121521
1684252586159653000,6.972653076171875,-0.13116368651390076,-1.8563765287399292,1.877573013305664
1684252586169679000,6.98267919921875,-0.1954774260520935,-1.811800241470337,1.8583869934082031
1684252586179705300,6.992705322265625,-0.2941933274269104,-1.64472496509552,1.8325426578521729
1684252586189731300,7.0027314453125,-0.38448452949523926,-1.2462712526321411,1.8256765604019165
1684252586199757300,7.01275732421875,-0.4153878390789032,-0.579460084438324,1.897886872291565
1684252586209783300,7.022783203125,-0.41504451632499695,0.33410578966140747,2.095355272293091
1684252586219809300,7.032809326171875,-0.3785642683506012,1.302776575088501,2.363051176071167
1684252586229835300,7.042835205078125,-0.2675258219242096,2.0209927558898926,2.5666446685791016
1684252586239861200,7.052861328125,0.034787148237228394,1.327209711074829,2.2766244411468506
1684252586249887200,7.06288720703125,0.4590213894844055,-2.5704152584075928,1.0506067276000977
1684252586259913200,7.072913330078125,0.1494920402765274,-3.9789984226226807,0.6697701215744019
1684252586269939200,7.082939208984375,-0.4899320900440216,-3.239750862121582,1.3011071681976318
1684252586279965200,7.092965087890625,-0.7133907675743103,-2.9413862228393555,1.850507140159607
1684252586289991400,7.102991455078125,-0.38396450877189636,-2.903761863708496,1.9832512140274048
1684252586300017400,7.113017333984375,0.2324422299861908,-2.7885100841522217,2.008331298828125
1684252586310043400,7.12304345703125,0.9351227879524231,-2.2676305770874023,2.124760389328003
1684252586320069400,7.1330693359375,1.5000354051589966,-1.2304936647415161,2.3359994888305664
1684252586330094300,7.14309423828125,1.7285926342010498,-0.471161812543869,2.531803607940674
1684252586340120300,7.153120361328125,1.585790753364563,-0.32981348037719727,2.6815099716186523
1684252586350146300,7.163146240234375,1.1653201580047607,-0.6569492816925049,2.785426139831543
1684252586360171800,7.173171875,0.6752564907073975,-1.313022255897522,2.835721254348755
1684252586370197800,7.18319775390625,0.26192551851272583,-2.146137237548828,2.827646017074585
1684252586380223700,7.1932236328125,0.01388511247932911,-2.998887777328491,2.710486888885498
1684252586390249700,7.203249755859375,-0.10788457840681076,-3.7543118000030518,2.5113260746002197
1684252586400275700,7.213275634765625,-0.22381730377674103,-4.0036797523498535,2.231720447540283
1684252586410302000,7.223302001953125,-0.39432865381240845,-3.492628812789917,1.903491497039795
1684252586420328000,7.233327880859375,-0.5919972658157349,-3.080319404602051,1.6308003664016724
1684252586430354000,7.24335400390625,-0.7549191117286682,-3.090745687484741,1.4242572784423828
1684252586440380000,7.2533798828125,-0.8468167781829834,-3.181382179260254,1.2405582666397095
1684252586450406000,7.263406005859375,-0.8744029998779297,-3.1625423431396484,1.0780766010284424
1684252586460432000,7.273431884765625,-0.8430983424186707,-3.0825934410095215,0.9313849210739136
1684252586470457900,7.283457763671875,-0.7577386498451233,-2.9479503631591797,0.83266681432724
1684252586480483800,7.29348388671875,-0.6597740054130554,-2.792046070098877,0.799575686454773
1684252586490509800,7.303509765625,-0.5706810355186462,-2.6288156509399414,0.8234249353408813
1684252586500535800,7.313535888671875,-0.49211356043815613,-2.531222343444824,0.8902838230133057
1684252586510561800,7.323561767578125,-0.4245537221431732,-2.491899013519287,0.9729939699172974
1684252586520588000,7.333588134765625,-0.376377135515213,-2.4645493030548096,1.049600601196289
1684252586530612700,7.34361279296875,-0.3694209158420563,-2.445497989654541,1.1091792583465576
1684252586540639000,7.353638916015625,-0.414943128824234,-2.435119867324829,1.136270523071289
1684252586550665000,7.3636650390625,-0.5072365999221802,-2.3998727798461914,1.1243795156478882
1684252586560691000,7.37369091796875,-0.6269677877426147,-2.311250925064087,1.0747603178024292
1684252586570717000,7.383717041015625,-0.7505952715873718,-2.1760849952697754,1.0142215490341187
1684252586580743000,7.393742919921875,-0.8499093055725098,-1.9981229305267334,0.9678773880004883
1684252586590769000,7.403768798828125,-0.9250430464744568,-1.7342288494110107,0.9750410914421082
1684252586600795000,7.413794921875,-0.9513183236122131,-1.3846708536148071,1.0529707670211792
1684252586610820900,7.42382080078125,-0.9160082936286926,-1.005854606628418,1.1828902959823608
1684252586620846800,7.433846923828125,-0.8277884125709534,-0.6564704775810242,1.3328475952148438
1684252586630872800,7.443872802734375,-0.7141555547714233,-0.36094382405281067,1.487363576889038
1684252586640898800,7.45389892578125,-0.5998018383979797,-0.16195401549339294,1.6418514251708984
1684252586650924800,7.4639248046875,-0.4904460608959198,-0.09142392128705978,1.7852284908294678
1684252586660950800,7.47395068359375,-0.3726496398448944,-0.11755379289388657,1.9112319946289062
1684252586670976800,7.483976806640625,-0.30304789543151855,-0.19421450793743134,2.0230813026428223
1684252586681002800,7.494002685546875,-0.28126564621925354,-0.24113595485687256,2.156505823135376
1684252586691028700,7.50402880859375,-0.25256866216659546,-0.24651746451854706,2.3012607097625732
1684252586701054700,7.5140546875,-0.17871707677841187,-0.24384231865406036,2.4218997955322266
1684252586711080700,7.524080810546875,-0.07019860297441483,-0.2506416141986847,2.497682571411133
1684252586721106700,7.534106689453125,0.04999971017241478,-0.2655681073665619,2.5200557708740234
1684252586731132000,7.5441318359375,0.12937971949577332,-0.2975582182407379,2.4875848293304443
1684252586741158000,7.554157958984375,0.13437233865261078,-0.6464632153511047,2.182065486907959
1684252586751184000,7.564183837890625,0.007954876869916916,-1.663623332977295,1.4219774007797241
1684252586761209600,7.574209716796875,-0.17268334329128265,-2.6344783306121826,0.6554250121116638
1684252586771235600,7.584235595703125,-0.33190926909446716,-3.060701370239258,0.1511656939983368
1684252586781261800,7.59426171875,-0.4256477653980255,-3.018608808517456,-0.1722765564918518
1684252586791287800,7.604287841796875,-0.4756280481815338,-2.780839681625366,-0.40504640340805054
1684252586801313800,7.614313720703125,-0.4929572343826294,-2.5189552307128906,-0.6043235659599304
1684252586811339800,7.62433984375,-0.43877094984054565,-2.2934062480926514,-0.782374382019043
1684252586821365800,7.63436572265625,-0.34687140583992004,-2.1078498363494873,-0.858949601650238
1684252586831391700,7.644391845703125,-0.2722981572151184,-1.9382660388946533,-0.7793130874633789
1684252586841417700,7.654417724609375,-0.2072799950838089,-1.793468713760376,-0.5051811337471008
1684252586851443700,7.664443603515625,-0.06981411576271057,-1.6187784671783447,-0.09040297567844391
1684252586861469700,7.6744697265625,0.11963917315006256,-1.3533161878585815,0.3242589235305786
1684252586871495700,7.68449560546875,0.36352381110191345,-0.9789307117462158,0.6437905430793762
1684252586881521700,7.694521728515625,0.6510903239250183,-0.6702746152877808,0.8933574557304382
1684252586891548000,7.7045478515625,0.8772201538085938,-0.6034753322601318,0.9083465337753296
1684252586901574000,7.714573974609375,0.7556353807449341,-1.44111168384552,0.13165932893753052
1684252586911599900,7.724599853515625,0.33531394600868225,-2.5642716884613037,-0.8527992367744446
1684252586921625900,7.7346259765625,-0.16198107600212097,-3.0597035884857178,-1.4087973833084106
1684252586931650800,7.74465087890625,-0.6182751655578613,-3.0023488998413086,-1.4215805530548096
1684252586941676800,7.7546767578125,-0.9421107769012451,-2.77600359916687,-1.2291616201400757
1684252586951702800,7.764702880859375,-1.1272354125976562,-2.735590934753418,-0.9244043827056885
1684252586961728800,7.774728759765625,-1.1812927722930908,-2.9572877883911133,-0.540250837802887
1684252586971754800,7.784754638671875,-1.0886452198028564,-3.269946336746216,-0.151422917842865
1684252586981780700,7.79478076171875,-0.8349103927612305,-3.394469738006592,0.15877756476402283
1684252586991806700,7.804806640625,-0.5042253136634827,-3.3179068565368652,0.43017512559890747
1684252587001832700,7.814832763671875,-0.24193590879440308,-3.2108511924743652,0.7640422582626343
1684252587011858700,7.824858642578125,-0.17039956152439117,-3.3435254096984863,1.245471477508545
1684252587021885000,7.834885009765625,-0.1924598664045334,-3.60336971282959,1.7208869457244873
1684252587031911000,7.844910888671875,-0.24287426471710205,-3.803488254547119,2.024226188659668
1684252587041937000,7.85493701171875,-0.2589922547340393,-3.8412277698516846,2.139465093612671
1684252587051963000,7.864962890625,-0.22847211360931396,-3.724637508392334,2.059889554977417
1684252587061988900,7.87498876953125,-0.2220672070980072,-3.345055103302002,1.8166738748550415
1684252587072014800,7.885014892578125,-0.26134607195854187,-2.649066209793091,1.4898231029510498
1684252587082040800,7.895040771484375,-0.3644564747810364,-1.7560949325561523,1.1366384029388428
1684252587092066800,7.90506689453125,-0.5240079164505005,-0.8609215021133423,0.8239269852638245
1684252587102092800,7.9150927734375,-0.6550551652908325,-0.1759500652551651,0.5994731187820435
1684252587112118800,7.925118896484375,-0.7073073387145996,0.23527514934539795,0.4678057134151459
1684252587122145000,7.93514501953125,-0.6943901777267456,0.333151638507843,0.4199223220348358
1684252587132169700,7.945169677734375,-0.6176741123199463,0.25099343061447144,0.44185107946395874
1684252587142195700,7.95519580078125,-0.4927481412887573,0.1183038279414177,0.5301881432533264
1684252587152222000,7.965221923828125,-0.3731008470058441,0.03409678861498833,0.6743166446685791
1684252587162248000,7.975248046875,-0.28966614603996277,0.0730186179280281,0.8545143604278564
1684252587172274000,7.98527392578125,-0.23249249160289764,0.2743827700614929,1.0607095956802368
1684252587182300000,7.9952998046875,-0.20207440853118896,0.6306700706481934,1.2653602361679077
1684252587192326000,8.005325927734376,-0.1881663054227829,0.9951241612434387,1.4455411434173584
1684252587202351900,8.015351806640625,-0.1610630601644516,1.231940746307373,1.5774059295654297
1684252587212377900,8.0253779296875,-0.11152615398168564,1.3305217027664185,1.6836599111557007
1684252587222403800,8.03540380859375,-0.03443962335586548,1.400870680809021,1.7933666706085205
1684252587232429800,8.045429931640625,0.07225962728261948,1.4424583911895752,1.9576736688613892
1684252587242455800,8.055455810546874,0.2208629548549652,1.4433521032333374,2.185410976409912
1684252587252482000,8.06548193359375,0.4061775207519531,1.3754611015319824,2.447469711303711
1684252587262508000,8.075508056640626,0.6047971844673157,1.1561484336853027,2.7020187377929688
1684252587272534000,8.085533935546875,0.7682589292526245,0.7574203014373779,2.9078404903411865
1684252587282559700,8.095559814453125,0.8613292574882507,0.18243268132209778,3.032579183578491
1684252587292585700,8.105585693359375,0.8714391589164734,-0.5622055530548096,3.0159523487091064
1684252587302611700,8.11561181640625,0.8299121856689453,-1.259320616722107,2.843440294265747
1684252587312637700,8.1256376953125,0.7364052534103394,-1.5452265739440918,2.6035664081573486
1684252587322663700,8.13566357421875,0.579159140586853,-1.3988584280014038,2.3515548706054688
1684252587332689700,8.145689697265626,0.3863668441772461,-1.2338320016860962,2.0610692501068115
1684252587342715000,8.15571484375,0.25755375623703003,-1.2755619287490845,1.6800270080566406
1684252587352740900,8.165740966796875,0.2580629885196686,-1.29825758934021,1.2349860668182373
1684252587362766800,8.175766845703125,0.38540735840797424,-1.1564069986343384,0.8281192183494568
1684252587372792800,8.185792724609374,0.5522503852844238,-0.9499086737632751,0.5633129477500916
1684252587382818800,8.19581884765625,0.7068442106246948,-0.734811007976532,0.4522133469581604
1684252587392844800,8.2058447265625,0.8163349628448486,-0.5072944164276123,0.4273086190223694
1684252587402870800,8.215870849609376,0.856204628944397,-0.30075913667678833,0.4246763586997986
1684252587412896800,8.225896728515625,0.8074395060539246,-0.19753238558769226,0.38821864128112793
1684252587422922800,8.2359228515625,0.686447024345398,-0.2933201789855957,0.30668142437934875
1684252587432948700,8.24594873046875,0.530489444732666,-0.583577573299408,0.19466610252857208
1684252587442974700,8.255974609375,0.38944175839424133,-0.9646154642105103,0.07585157454013824
1684252587453000700,8.266000732421874,0.30940893292427063,-1.3680191040039062,-0.017539970576763153
1684252587463026700,8.276026611328126,0.27368101477622986,-1.7466942071914673,-0.08461301773786545
1684252587473052700,8.286052734375,0.2277015894651413,-2.060330629348755,-0.13334034383296967
1684252587483078700,8.29607861328125,0.13749313354492188,-2.299891233444214,-0.16809432208538055
1684252587493104600,8.306104736328125,-0.013392142951488495,-2.468524694442749,-0.1893281787633896
1684252587503130600,8.316130615234375,-0.2192520946264267,-2.5179898738861084,-0.20748241245746613
1684252587513156900,8.326156982421875,-0.47702860832214355,-2.340920925140381,-0.20943228900432587
1684252587523182800,8.336182861328124,-0.7459655404090881,-1.89508855342865,-0.1830880343914032
1684252587533208800,8.346208740234376,-0.9551095366477966,-1.2140350341796875,-0.12567797303199768
1684252587543234800,8.35623486328125,-1.0331788063049316,-0.44600945711135864,-0.0468960776925087
1684252587553259800,8.366259765625,-0.89911288022995,0.2195347249507904,0.08269058912992477
1684252587563285800,8.37628564453125,-0.6105718612670898,0.6994832158088684,0.2719185948371887
1684252587573311700,8.386311767578125,-0.33054396510124207,1.0446845293045044,0.43918702006340027
1684252587583337700,8.396337646484374,-0.0687355101108551,1.2737302780151367,0.6144152879714966
1684252587593363700,8.40636376953125,0.1651526838541031,1.375280499458313,0.8028655052185059
1684252587603389700,8.4163896484375,0.39334723353385925,1.3248229026794434,0.9841746091842651
1684252587613415700,8.426415771484375,0.5908042192459106,1.1752034425735474,1.1445074081420898
1684252587623441700,8.436441650390625,0.7175619006156921,0.9386021494865417,1.2603189945220947
1684252587633467600,8.446467529296875,0.7550290822982788,0.59978848695755,1.30898118019104
1684252587643494000,8.456493896484375,0.7310553193092346,0.20762917399406433,1.2874929904937744
1684252587653520000,8.466519775390625,0.6605424880981445,-0.19315016269683838,1.2124662399291992
1684252587663545900,8.4765458984375,0.5500836372375488,-0.5854958891868591,1.0990768671035767
1684252587673571800,8.48657177734375,0.40943214297294617,-0.9612743854522705,0.9508174061775208
1684252587683597800,8.496597900390626,0.27571535110473633,-1.3286370038986206,0.7924501299858093
1684252587693623800,8.506623779296875,0.20785923302173615,-1.5506558418273926,0.6665070056915283
1684252587703649800,8.51664990234375,0.229648157954216,-1.4264721870422363,0.6401257514953613
1684252587713675800,8.52667578125,0.2957400679588318,-1.033990502357483,0.6927301287651062
1684252587723701800,8.53670166015625,0.3432711064815521,-0.6753333210945129,0.7462807297706604
1684252587733727700,8.546727783203124,0.36488139629364014,-0.5955429673194885,0.7475762367248535
1684252587743753700,8.556753662109376,0.36859676241874695,-0.7563244104385376,0.723628044128418
1684252587753780000,8.566780029296876,0.36517855525016785,-1.0025721788406372,0.7182915806770325
1684252587763804700,8.5768046875,0.3604072332382202,-1.1931520700454712,0.7572025060653687
1684252587773831000,8.586830810546875,0.3299706280231476,-1.2439961433410645,0.818209171295166
1684252587783857000,8.59685693359375,0.27695536613464355,-1.1310325860977173,0.8756373524665833
1684252587793883000,8.6068828125,0.21472014486789703,-0.8922889232635498,0.9142305850982666
1684252587803908900,8.616908935546874,0.15399394929409027,-0.6015351414680481,0.9226392507553101
1684252587813934800,8.626934814453126,0.08032472431659698,-0.3649243712425232,0.8845214247703552
1684252587823960800,8.6369609375,-0.024188369512557983,-0.21950781345367432,0.7741727828979492
1684252587833986800,8.64698681640625,-0.16404609382152557,-0.08958928287029266,0.6171490550041199
1684252587844012800,8.6570126953125,-0.32654231786727905,0.1444392055273056,0.44937631487846375
1684252587854038800,8.667038818359375,-0.4888872802257538,0.5452592968940735,0.3067006468772888
1684252587864064800,8.677064697265624,-0.6255370378494263,1.0919746160507202,0.21252194046974182
1684252587874090800,8.6870908203125,-0.6979781985282898,1.6694732904434204,0.1594610959291458
1684252587884117000,8.697116943359376,-0.7066211700439453,2.1628053188323975,0.14500917494297028
1684252587894143000,8.70714306640625,-0.6659138202667236,2.4645142555236816,0.14437364041805267
1684252587904169000,8.7171689453125,-0.6011454463005066,2.5185110569000244,0.13721665740013123
1684252587914195000,8.72719482421875,-0.5355544090270996,2.531266689300537,-0.06353297084569931
1684252587924221000,8.737220947265625,-0.5278053879737854,2.256666898727417,-0.8756447434425354
1684252587934246700,8.74724658203125,-0.6427983641624451,1.2910971641540527,-1.8408476114273071
1684252587944272600,8.757272705078124,-0.8286145925521851,0.018360739573836327,-2.3666675090789795
1684252587954298600,8.767298583984376,-1.0499696731567383,-1.1937083005905151,-2.5382039546966553
1684252587964324600,8.77732470703125,-1.326874852180481,-2.2066149711608887,-2.755432605743408
1684252587974349800,8.787349853515625,-1.5879346132278442,-3.2093300819396973,-3.2942826747894287
1684252587984375800,8.797375732421875,-1.8160719871520996,-4.025123596191406,-4.375757694244385
1684252587994401800,8.80740185546875,-2.0327858924865723,-3.9105236530303955,-5.941937446594238
1684252588004427800,8.817427734375,-2.26265549659729,-1.7721997499465942,-7.2601799964904785
1684252588014453800,8.827453857421874,-2.444222927093506,1.3263275623321533,-7.730825901031494
1684252588024479700,8.837479736328126,-2.4027256965637207,3.5025017261505127,-7.403000354766846
1684252588034505700,8.847505615234375,-2.1222281455993652,3.990342855453491,-6.62705135345459
1684252588044531700,8.85753173828125,-1.9037857055664062,2.5740036964416504,-5.5943169593811035
1684252588054557700,8.8675576171875,-1.6661320924758911,0.11220195144414902,-4.364454746246338
1684252588064583700,8.877583740234375,-1.412857174873352,-2.3975043296813965,-3.041600465774536
1684252588074609700,8.887609619140624,-1.1180391311645508,-4.079799652099609,-2.0361745357513428
1684252588084635600,8.8976357421875,-0.6890552639961243,-4.7270097732543945,-1.525073528289795
1684252588094661600,8.90766162109375,-0.14111916720867157,-4.658458232879639,-1.4099210500717163
1684252588104687600,8.9176875,0.35851141810417175,-4.040698528289795,-1.5842760801315308
1684252588114713600,8.927713623046875,0.836952269077301,-3.0160882472991943,-1.9344944953918457
1684252588124739800,8.93773974609375,1.263108491897583,-1.899010181427002,-2.1674835681915283
1684252588134765800,8.947765869140625,1.7471615076065063,-0.3817211389541626,-2.0780551433563232
1684252588144791800,8.957791748046875,2.4489758014678955,1.2931853532791138,-1.653004765510559
1684252588154817800,8.96781787109375,3.0844340324401855,1.5027881860733032,-1.3009202480316162
1684252588164843800,8.97784375,3.49358868598938,0.48918387293815613,-1.0745421648025513
1684252588174869800,8.987869873046876,3.5888755321502686,-0.057459961622953415,-0.7388123273849487
1684252588184895700,8.997895751953125,3.326598882675171,0.012184364721179008,-0.4243808388710022
1684252588194920700,9.007920654296875,2.87962007522583,0.41486555337905884,-0.3188679814338684
1684252588204946700,9.01794677734375,2.3521013259887695,0.8019036054611206,-0.6318754553794861
1684252588214972700,9.02797265625,1.747971773147583,1.2281906604766846,-1.463455080986023
1684252588224998700,9.03799853515625,1.0462921857833862,1.6352226734161377,-2.4922826290130615
1684252588235024600,9.048024658203126,0.37034210562705994,1.7940119504928589,-3.3895342350006104
1684252588245050600,9.058050537109375,-0.1722588688135147,1.6576266288757324,-3.9928207397460938
1684252588255076900,9.068076904296875,-0.36897918581962585,1.5384937524795532,-4.330832481384277
1684252588265102800,9.078102783203125,0.05601951479911804,1.6352269649505615,-4.435955047607422
1684252588275128800,9.08812890625,1.219187617301941,1.790633201599121,-4.305381774902344
1684252588285154800,9.09815478515625,2.4544458389282227,1.9106134176254272,-3.86236834526062
1684252588295180800,9.108180908203124,3.156992197036743,1.7863086462020874,-3.192255973815918
1684252588305206800,9.118206787109376,3.299947738647461,1.5528396368026733,-2.4188742637634277
1684252588315232800,9.128232666015625,3.0982117652893066,1.3099430799484253,-1.6312211751937866
1684252588325258800,9.1382587890625,2.6733739376068115,1.2737302780151367,-0.9636021256446838
1684252588335284700,9.14828466796875,2.1517841815948486,1.25961434841156,-0.33382925391197205
1684252588345310700,9.158310791015625,1.6338982582092285,1.228314757347107,0.2895067632198334
1684252588355336700,9.168336669921874,1.176293134689331,1.20976722240448,0.8541685342788696
1684252588365362700,9.17836279296875,0.8709896802902222,1.259609580039978,1.3591907024383545
1684252588375388700,9.188388671875,0.7000167369842529,1.316575050354004,1.8098293542861938
1684252588385414700,9.19841455078125,0.6055030226707458,1.3011119365692139,2.230165481567383
1684252588395440600,9.208440673828125,0.5635556578636169,1.1333744525909424,2.5980186462402344
1684252588405466600,9.218466552734375,0.5768190026283264,0.9362587332725525,2.9067461490631104
1684252588415491600,9.22849169921875,0.661652147769928,1.0479719638824463,3.247905969619751
1684252588425517600,9.238517578125,0.8406088352203369,2.0800771713256836,3.654222011566162
1684252588435543600,9.24854345703125,1.1893415451049805,4.564903259277344,3.841350793838501
1684252588445569800,9.25856982421875,1.7875205278396606,4.771233081817627,2.476579427719116
1684252588455595800,9.268595703125,3.313321828842163,-6.403212070465088,-2.7318007946014404
1684252588465621800,9.278621826171875,1.470776081085205,-3.4842324256896973,-0.8108081221580505
1684252588475647700,9.288647705078125,-1.3691766262054443,-1.9990750551223755,3.49849796295166
1684252588485673700,9.298673828125,-4.886021614074707,-3.442018508911133,6.2705230712890625
1684252588495699700,9.30869970703125,-6.009563446044922,-1.3744497299194336,6.570847988128662
1684252588505725700,9.3187255859375,-3.3351023197174072,0.5553534626960754,1.6698936223983765
1684252588515751700,9.328751708984376,0.8189482092857361,0.5032056570053101,-3.26861310005188
1684252588525777700,9.338777587890625,2.931016683578491,-0.02809656597673893,-3.789109230041504
1684252588535803600,9.3488037109375,2.7614903450012207,-0.2859649658203125,-2.7899816036224365
1684252588545829600,9.35882958984375,1.1430524587631226,3.0915558338165283,-1.5061686038970947
1684252588555856000,9.36885595703125,-1.4111689329147339,3.6178061962127686,-0.07781504094600677
1684252588565881900,9.3788818359375,-3.4095375537872314,0.5933019518852234,0.7029563784599304
1684252588575907600,9.388907470703124,-4.248964786529541,-1.0289969444274902,1.3968037366867065
1684252588585933600,9.39893359375,-4.046173095703125,-1.0658422708511353,2.028809070587158
1684252588595959600,9.40895947265625,-2.9301223754882812,-0.32698437571525574,2.445814847946167
1684252588605985500,9.418985595703125,-1.3008489608764648,0.769097089767456,2.5922982692718506
1684252588616011500,9.429011474609375,0.23111380636692047,1.27634859085083,2.5641231536865234
1684252588626037500,9.43903759765625,1.2800437211990356,0.3578587770462036,2.4119927883148193
1684252588636063500,9.4490634765625,1.6668980121612549,-0.8419759273529053,2.4106435775756836
1684252588646088700,9.459088623046876,1.4186588525772095,-0.6492539048194885,2.7379510402679443
1684252588656114700,9.46911474609375,0.9292665719985962,0.14695261418819427,3.1080660820007324
1684252588666140700,9.479140625,0.5328747630119324,0.4803886413574219,3.2113475799560547
1684252588676166700,9.489166748046875,0.3128873109817505,0.25573843717575073,3.0113511085510254
1684252588686192600,9.499192626953125,0.2566424310207367,-0.17624890804290771,2.623744249343872
1684252588696218600,9.509218505859375,0.2815229296684265,-0.33643561601638794,2.1939809322357178
1684252588706244600,9.51924462890625,0.3254259526729584,-0.022614846006035805,1.8088552951812744
1684252588716270600,9.5292705078125,0.3774210810661316,0.5166535973548889,1.4987276792526245
1684252588726296600,9.539296630859376,0.46065419912338257,1.0498528480529785,1.2731521129608154
1684252588736322600,9.549322509765625,0.5538333654403687,1.4515539407730103,1.1546438932418823
1684252588746348500,9.5593486328125,0.6292687654495239,1.6665163040161133,1.1205272674560547
1684252588756374500,9.56937451171875,0.6556695699691772,1.6998279094696045,1.1398028135299683
1684252588766400500,9.579400390625,0.6111763715744019,1.606872320175171,1.182508945465088
1684252588776426500,9.589426513671874,0.4911053478717804,1.5150600671768188,1.284182071685791
1684252588786452700,9.59945263671875,0.39493808150291443,1.530577540397644,1.4619214534759521
1684252588796478700,9.609478759765626,0.35038211941719055,1.5541672706604004,1.6934335231781006
1684252588806504700,9.619504638671875,0.36884206533432007,1.5109659433364868,1.9120492935180664
1684252588816530700,9.62953076171875,0.4483562707901001,1.3768556118011475,2.1036062240600586
1684252588826556700,9.639556640625,0.5326389074325562,1.136988639831543,2.267739772796631
1684252588836582700,9.649582763671875,0.6014929413795471,0.8521789312362671,2.392249584197998
1684252588846608600,9.659608642578124,0.6620106101036072,0.5037384033203125,2.4432125091552734
1684252588856634600,9.669634521484374,0.7344880700111389,0.020525701344013214,2.386137008666992
1684252588866660600,9.67966064453125,0.8163619041442871,-0.5576359033584595,2.250406265258789
1684252588876685600,9.689685546875,0.8594865202903748,-1.10740327835083,2.109530210494995
1684252588886711600,9.699711669921875,0.8643068075180054,-1.5275278091430664,2.0172133445739746
1684252588896737500,9.709737548828125,0.8411076068878174,-1.6926885843276978,2.010113477706909
1684252588906763500,9.719763427734375,0.7932772636413574,-1.4454479217529297,2.112305164337158
1684252588916789800,9.729789794921874,0.7904285788536072,-0.6300238966941833,2.245443105697632
1684252588926815700,9.739815673828126,0.7306296825408936,0.30995556712150574,1.9553354978561401
1684252588936841700,9.749841796875,0.5175349116325378,0.8194130659103394,1.1152839660644531
1684252588946867700,9.75986767578125,0.2730676233768463,0.8869526982307434,0.08927587419748306
1684252588956893700,9.769893798828125,0.09127257019281387,0.8263431191444397,-0.781444787979126
1684252588966919700,9.779919677734375,-0.004061141051352024,0.7818641066551208,-1.3681257963180542
1684252588976945700,9.789945556640625,-0.05428345128893852,0.6204119920730591,-1.6465805768966675
1684252588986971600,9.7999716796875,-0.06936066597700119,0.21240614354610443,-1.6344269514083862
1684252588996997600,9.80999755859375,0.008801523596048355,-0.4033564329147339,-1.4650853872299194
1684252589007023600,9.820023681640626,0.1956840455532074,-1.116746187210083,-1.224745750427246
1684252589017049600,9.830049560546875,0.477523535490036,-1.8453693389892578,-0.9958946108818054
1684252589027075800,9.840075927734375,0.8537173867225647,-2.688436508178711,-0.8762581944465637
1684252589037101800,9.850101806640625,1.2793093919754028,-3.517284870147705,-0.9057573676109314
1684252589047127800,9.8601279296875,1.6278964281082153,-4.2278337478637695,-0.9719502329826355
1684252589057153800,9.87015380859375,1.83858060836792,-4.757012367248535,-0.9777019619941711
1684252589067179800,9.8801796875,1.9852781295776367,-4.892868995666504,-0.8980982303619385
1684252589077205800,9.890205810546876,2.148505449295044,-3.8605496883392334,-0.6774260997772217
1684252589087231700,9.900231689453125,2.093302011489868,-1.9251453876495361,-1.0721497535705566
1684252589097257700,9.9102578125,1.7750219106674194,-1.0672390460968018,-2.456721544265747
1684252589107282700,9.92028271484375,1.4313782453536987,-0.9960090517997742,-4.08295202255249
1684252589117308700,9.93030859375,1.119076132774353,-1.2390570640563965,-5.335174083709717
1684252589127334700,9.940334716796874,0.7605699300765991,-1.3529751300811768,-5.86676549911499
1684252589137360600,9.950360595703126,0.34889477491378784,-1.1413979530334473,-5.642651081085205
1684252589147386600,9.96038671875,0.04540225863456726,-0.6509482264518738,-4.6940016746521
1684252589157412900,9.970412841796875,-0.11651144921779633,-0.44581860303878784,-3.280331611633301
1684252589167438800,9.98043896484375,-0.18385720252990723,-0.73347008228302,-1.9173798561096191
1684252589177464800,9.99046484375,-0.1514766663312912,-1.3321950435638428,-0.8557779788970947
1684252589187490800,10.00049072265625,-0.04926056042313576,-1.6989521980285645,-0.16552551090717316
1684252589197516800,10.010516845703124,-0.04430431127548218,-1.4223748445510864,0.16037096083164215
1684252589207542800,10.020542724609374,-0.24100539088249207,-0.7608528137207031,0.05523388832807541
1684252589217568500,10.030568603515626,-0.5595580339431763,-0.27154219150543213,-0.666002631187439
1684252589227594500,10.040594482421875,-0.8442297577857971,-0.3840559422969818,-1.560725450515747
1684252589237620500,10.050620361328125,-1.1016241312026978,-0.8574169278144836,-2.2045202255249023
1684252589247646500,10.060646484375,-1.3652534484863281,-1.2794415950775146,-2.541996717453003
1684252589257672400,10.07067236328125,-1.594080924987793,-1.3886958360671997,-2.683732271194458
1684252589267698700,10.08069873046875,-1.7228189706802368,-1.2059316635131836,-2.7075159549713135
1684252589277724700,10.090724609375,-1.7677478790283203,-0.6890808939933777,-2.6514835357666016
1684252589287750700,10.100750732421876,-1.7865368127822876,0.10425616055727005,-2.500138759613037
1684252589297776600,10.110776611328125,-1.8063292503356934,0.7928547263145447,-2.277961015701294
1684252589307802600,10.120802734375,-1.8140758275985718,0.8676847219467163,-2.0631020069122314
1684252589317828600,10.13082861328125,-1.764345407485962,0.3082886040210724,-1.9349397420883179
1684252589327854600,10.1408544921875,-1.6516941785812378,-0.544026792049408,-1.8081988096237183
1684252589337879600,10.150879638671874,-1.515600323677063,-1.2290773391723633,-1.5132560729980469
1684252589347905500,10.160905517578126,-1.360282063484192,-1.7514222860336304,-0.9497392177581787
1684252589357931500,10.170931640625,-1.227976679801941,-2.1041836738586426,-0.21118183434009552
1684252589367957500,10.18095751953125,-1.1375466585159302,-2.3353137969970703,0.5132153034210205
1684252589377983500,10.1909833984375,-1.0215015411376953,-2.4396331310272217,1.113990068435669
1684252589388009500,10.201009521484375,-0.8222561478614807,-2.3327748775482178,1.508408784866333
1684252589398035500,10.211035400390625,-0.541835606098175,-1.9518561363220215,1.6931859254837036
1684252589408061400,10.2210615234375,-0.19442515075206757,-1.443189263343811,1.6963177919387817
1684252589418087400,10.23108740234375,0.18115480244159698,-1.059906244277954,1.5772186517715454
1684252589428113400,10.241113525390626,0.5559254884719849,-0.8671415448188782,1.4012457132339478
1684252589438139400,10.251139404296875,0.8312695026397705,-0.817351758480072,1.2963577508926392
1684252589448165400,10.261165283203125,0.8938258290290833,-0.5645133852958679,1.389609456062317
1684252589458191600,10.271191650390625,0.7943627238273621,-0.035692766308784485,1.6728441715240479
1684252589468217600,10.281217529296875,0.6373563408851624,0.664325475692749,2.0729029178619385
1684252589478243600,10.29124365234375,0.44705379009246826,1.2085480690002441,2.502246379852295
1684252589488269600,10.30126953125,0.25525158643722534,1.3177248239517212,2.9145092964172363
1684252589498295600,10.311295654296876,0.09983021765947342,1.0592349767684937,3.2215588092803955
1684252589508321500,10.321321533203125,0.11193747818470001,0.15778018534183502,2.1947600841522217
1684252589518347500,10.331347412109375,-0.29614120721817017,-1.500891089439392,-7.672415733337402
1684252589528373500,10.34137353515625,-2.5416200160980225,9.462014198303223,-5.439243793487549
1684252589538399500,10.3513994140625,-4.240688800811768,5.624247074127197,-0.19940465688705444
1684252589548425500,10.361425537109374,-5.46580696105957,0.12226244807243347,3.5439844131469727
1684252589558451500,10.371451416015624,-5.414968967437744,-2.5426485538482666,5.5380659103393555
1684252589568477700,10.381477783203126,-3.082334041595459,-2.4680428504943848,6.13674259185791
1684252589578502400,10.39150244140625,0.6799944639205933,-1.5089164972305298,5.967509746551514
1684252589588528600,10.401528564453125,3.7698464393615723,-1.0961241722106934,5.382231712341309
1684252589598554600,10.4115546875,4.988822937011719,-4.521775245666504,4.458127498626709
1684252589608580600,10.42158056640625,4.523972988128662,-7.06583309173584,4.151318073272705
1684252589618606600,10.431606689453124,2.719538927078247,-4.7977094650268555,4.542849063873291
1684252589628632600,10.441632568359376,0.6141341924667358,-1.6490336656570435,4.734504699707031
1684252589638658600,10.451658447265626,-0.9173965454101562,-0.6060063242912292,4.315082550048828
1684252589648684500,10.4616845703125,-1.660568118095398,-0.6496763229370117,3.3928802013397217
1684252589658710500,10.47171044921875,-1.9583516120910645,-0.8927654027938843,2.518693447113037
1684252589668736500,10.481736572265625,-2.0529143810272217,-0.8840233087539673,1.9347569942474365
1684252589678762500,10.491762451171875,-2.035466432571411,-0.6355066895484924,1.4705383777618408
1684252589688788500,10.50178857421875,-1.9439421892166138,-0.033936191350221634,1.123666763305664
1684252589698814700,10.511814697265624,-1.848358154296875,0.9311812520027161,0.9980546832084656
1684252589708840700,10.5218408203125,-1.7867016792297363,1.975868821144104,1.1113120317459106
1684252589718866700,10.53186669921875,-1.7208834886550903,2.9423701763153076,1.4284303188323975
1684252589728892700,10.541892578125,-1.607407569885254,3.3676974773406982,1.697206974029541
1684252589738918700,10.551918701171875,-1.4684526920318604,2.881056547164917,1.7554476261138916
1684252589748944600,10.561944580078125,-1.30322265625,1.7706809043884277,1.6627651453018188
1684252589758970600,10.571970703125,-1.2027418613433838,0.8494410514831543,1.6765203475952148
1684252589768996400,10.581996337890626,-1.18697988986969,0.4153226613998413,1.9037259817123413
1684252589779022300,10.592022216796876,-1.145786166191101,0.28190794587135315,2.254765272140503
1684252589789048300,10.60204833984375,-0.9878178238868713,0.21575073897838593,2.5801496505737305
1684252589799074300,10.61207421875,-0.6994442343711853,0.0643179640173912,2.7663016319274902
1684252589809100500,10.6221005859375,-0.3195298910140991,-0.25166183710098267,2.8175363540649414
1684252589819126500,10.63212646484375,0.05790013074874878,-0.6873636841773987,2.814854860305786
1684252589829152500,10.642152587890624,0.34158483147621155,-1.1840968132019043,2.8215839862823486
1684252589839178500,10.652178466796874,0.4617130756378174,-1.6246439218521118,2.9369518756866455
1684252589849203700,10.66220361328125,0.45243942737579346,-2.5567073822021484,3.3356051445007324
1684252589859229400,10.6722294921875,0.45607155561447144,-4.2821245193481445,3.633410930633545
1684252589869255400,10.68225537109375,0.45751896500587463,-4.915356636047363,3.681088924407959
1684252589879281400,10.692281494140625,0.5259174108505249,-4.2372002601623535,3.42803955078125
1684252589889307400,10.702307373046875,0.7222312688827515,-2.9365358352661133,2.7223763465881348
1684252589899333400,10.71233349609375,1.0018725395202637,-1.4589300155639648,1.5227301120758057
1684252589909359400,10.722359375,1.2132972478866577,-0.1095670536160469,0.09491405636072159
1684252589919385300,10.73238525390625,1.2206807136535645,0.8467497229576111,-1.291344165802002
1684252589929411300,10.742411376953125,1.0001273155212402,1.372473955154419,-2.481443166732788
1684252589939437600,10.7524375,0.6613179445266724,1.3814619779586792,-3.443986415863037
1684252589949463600,10.762463623046875,0.274671733379364,1.0246164798736572,-4.111608982086182
1684252589959489500,10.772489501953125,-0.0983906090259552,0.5940643548965454,-4.526168346405029
1684252589969515500,10.782515625,-0.37945985794067383,0.3961782157421112,-4.741099834442139
1684252589979541500,10.79254150390625,-0.5639019012451172,0.3398479223251343,-4.739491939544678
1684252589989567500,10.8025673828125,-0.6694813370704651,0.1712666153907776,-4.684497356414795
1684252589999593500,10.812593505859375,-0.6762197017669678,-0.3243066370487213,-4.8007683753967285
1684252590009619500,10.822619384765625,-0.6170016527175903,-0.9491865038871765,-5.164987564086914
1684252590019645400,10.8326455078125,-0.47154363989830017,-1.4115837812423706,-6.039253234863281
1684252590029671400,10.84267138671875,-0.22076602280139923,-1.8645259141921997,-6.904819488525391
1684252590039697700,10.85269775390625,-0.48680007457733154,-3.018732786178589,-6.937912940979004
1684252590049723600,10.8627236328125,-1.1774275302886963,-3.8031070232391357,-6.216936111450195
1684252590059749600,10.87274951171875,-1.1743887662887573,5.102051734924316,-3.2140822410583496
1684252590069775600,10.882775634765625,-1.1635220050811768,6.866922378540039,-2.448272466659546
1684252590079800600,10.892800537109375,-1.023512840270996,2.5816829204559326,-3.5722815990448
1684252590089826600,10.90282666015625,-0.5803543329238892,-1.4845727682113647,-4.289851665496826
1684252590099852500,10.9128525390625,-0.19395755231380463,-4.26011848449707,-4.1442389488220215
1684252590109878500,10.92287841796875,0.09760931879281998,-5.411798000335693,-3.2894127368927
1684252590119904500,10.932904541015626,0.6954497694969177,-4.408555030822754,-1.899355411529541
1684252590129930500,10.942930419921876,1.6787219047546387,-1.04080069065094,-0.3109443783760071
1684252590139956500,10.95295654296875,2.741180658340454,3.308466672897339,0.7619439959526062
1684252590149982500,10.962982421875,3.4054479598999023,5.484697341918945,1.309914231300354
1684252590160008400,10.973008544921875,3.8778271675109863,2.4810030460357666,0.6929118037223816
1684252590170034700,10.98303466796875,4.055140018463135,-0.9243618845939636,-0.19734914600849152
1684252590180060700,10.993060791015624,3.870192766189575,-2.558380603790283,-0.9507372975349426
1684252590190086700,11.003086669921874,3.44795823097229,-2.377354145050049,-1.5474408864974976
1684252590200112600,11.013112548828126,2.784237861633301,-0.46580415964126587,-1.8039002418518066
1684252590210138600,11.023138671875,2.0409953594207764,2.158519983291626,-1.766739845275879
1684252590220164600,11.03316455078125,1.3035056591033936,3.980344533920288,-1.5959075689315796
1684252590230190600,11.043190673828125,0.5248713493347168,4.2836174964904785,-1.4687833786010742
1684252590240216600,11.053216552734375,-0.1669410616159439,3.065396308898926,-1.5472869873046875
1684252590250242600,11.06324267578125,-0.6109294891357422,1.5491383075714111,-1.606823205947876
1684252590260268500,11.0732685546875,-0.7767780423164368,0.755073606967926,-1.6139200925827026
1684252590270294500,11.08329443359375,-0.7037626504898071,0.6908075213432312,-1.5661935806274414
1684252590280320800,11.09332080078125,-0.4597303867340088,1.0784659385681152,-1.498619794845581
1684252590290346500,11.103346435546875,-0.10382712632417679,1.3488579988479614,-1.4192631244659424
1684252590300372500,11.11337255859375,0.2534221410751343,1.1610698699951172,-1.2651315927505493
1684252590310398500,11.1233984375,0.5930180549621582,0.6933913826942444,-1.0644112825393677
1684252590320424400,11.133424560546874,0.8864206075668335,0.3711859881877899,-0.8977230191230774
1684252590330450400,11.143450439453124,1.015213131904602,0.33310171961784363,-0.7929172515869141
1684252590340475600,11.1534755859375,0.9440955519676208,0.4903419613838196,-0.7450798749923706
1684252590350501600,11.163501708984375,0.7575770616531372,0.7034182548522949,-0.7184005975723267
1684252590360528000,11.17352783203125,0.533764660358429,0.8660838007926941,-0.6797456741333008
1684252590370553900,11.183553955078125,0.3197878897190094,0.9336497783660889,-0.5656981468200684
1684252590380579800,11.193579833984375,0.13487428426742554,0.8997745513916016,-0.36919379234313965
1684252590390605800,11.203605712890624,-0.0070165363140404224,0.7917143702507019,-0.09457290917634964
1684252590400632000,11.213632080078124,-0.10747459530830383,0.6576265692710876,0.2390352040529251
1684252590410658000,11.223657958984376,-0.16308674216270447,0.525278627872467,0.6108183860778809
1684252590420684000,11.23368408203125,-0.19313707947731018,0.4808978736400604,0.9906220436096191
1684252590430710000,11.2437099609375,-0.1975022703409195,0.5727311372756958,1.3738940954208374
1684252590440736000,11.253736083984375,-0.21043182909488678,0.7348120808601379,1.738454818725586
1684252590450762000,11.263761962890625,-0.2398485690355301,0.954174816608429,2.0857045650482178
1684252590460788000,11.2737880859375,-0.317082017660141,1.2929000854492188,2.408437728881836
1684252590470814000,11.28381396484375,-0.4611278474330902,1.743371844291687,2.712902307510376
1684252590480840000,11.29383984375,-0.6221424341201782,2.3076696395874023,2.9923291206359863
1684252590490866000,11.303865966796875,-0.7250805497169495,3.000983476638794,3.2486257553100586
1684252590500892000,11.313891845703125,-0.7269229888916016,3.9620676040649414,3.489760160446167
1684252590510918100,11.323918212890625,-0.6970905065536499,5.098586559295654,3.69685959815979
1684252590520944000,11.333944091796875,-0.4785749018192291,4.282693862915039,3.5593676567077637
1684252590530970000,11.34397021484375,0.19682350754737854,-5.1385040283203125,2.413987874984741
1684252590540996000,11.35399609375,0.8794113397598267,-10.196965217590332,2.4747672080993652
1684252590551022000,11.36402197265625,0.5755763649940491,-4.462655544281006,2.972837448120117
1684252590561048000,11.374048095703126,0.6316530108451843,-1.7593929767608643,0.80536288022995
1684252590571074000,11.384073974609375,0.6691921353340149,0.21226850152015686,-1.5914764404296875
1684252590581100000,11.39410009765625,0.4356648623943329,1.1737029552459717,-2.975799560546875
1684252590591126000,11.4041259765625,0.05569140985608101,0.7113492488861084,-3.437359571456909
1684252590601151000,11.41415087890625,-0.2487562596797943,0.016499966382980347,-3.4996843338012695
1684252590611177000,11.424177001953124,-0.47301945090293884,-0.42376211285591125,-3.4641823768615723
1684252590621203000,11.434202880859376,-0.6143635511398315,-0.6509875059127808,-3.3809471130371094
1684252590631229000,11.44422900390625,-0.7329157590866089,-0.7569456100463867,-3.1767592430114746
1684252590641255200,11.454255126953125,-0.9270565509796143,-0.894325852394104,-2.796523094177246
1684252590651281200,11.46428125,-1.0759165287017822,-0.9755038022994995,-2.3529253005981445
1684252590661307100,11.47430712890625,-0.9911742210388184,-0.9065579771995544,-1.823882818222046
1684252590671333000,11.4843330078125,-0.6180900931358337,-0.7687447667121887,-1.124428629875183
1684252590681359000,11.494359130859374,-0.0042856838554143906,-0.46329230070114136,-0.23711900413036346
1684252590691385000,11.504385009765626,0.6972758769989014,0.041640639305114746,0.7238336801528931
1684252590701411000,11.5144111328125,1.2592201232910156,0.8374531865119934,1.6042399406433105
1684252590711437000,11.52443701171875,1.416243076324463,1.8008276224136353,2.3066163063049316
1684252590721463000,11.534463134765625,1.2286843061447144,2.802659034729004,2.8359344005584717
1684252590731489000,11.544489013671875,0.8913872838020325,3.7271127700805664,3.23573637008667
1684252590741515000,11.554514892578124,0.6014791131019592,4.404417037963867,3.4777495861053467
1684252590751541200,11.564541259765624,0.4566929042339325,4.786390781402588,3.547335147857666
1684252590761567200,11.574567138671876,0.4394042491912842,4.899888515472412,3.488304853439331
1684252590771593200,11.58459326171875,0.5040351152420044,4.885340690612793,3.310136318206787
1684252590781619000,11.594618896484375,0.5891086459159851,4.771493434906006,3.0087671279907227
1684252590791645000,11.60464501953125,0.6534165740013123,4.629648208618164,2.631368398666382
1684252590801671000,11.6146708984375,0.6519033312797546,4.598808765411377,2.2726974487304688
1684252590811697000,11.62469677734375,0.6219808459281921,5.056423187255859,1.9817708730697632
1684252590821723000,11.634722900390624,0.4670350253582001,6.181014060974121,0.7932058572769165
1684252590831748900,11.644748779296876,-0.02983599342405796,5.274494171142578,-1.1737761497497559
1684252590841774800,11.65477490234375,-0.4328145980834961,3.875054121017456,-2.3321094512939453
1684252590851800800,11.66480078125,-0.3868524432182312,2.5243327617645264,-2.44041109085083
1684252590861826000,11.674825927734375,0.030913211405277252,0.9346446990966797,-1.62913179397583
1684252590871852000,11.68485205078125,0.5024902820587158,-0.6867663264274597,-0.2863580882549286
1684252590881878000,11.6948779296875,0.7247474193572998,-1.7974579334259033,1.0737489461898804
1684252590891904000,11.704904052734374,0.6414394974708557,-2.1578731536865234,1.9305610656738281
1684252590901930000,11.714929931640626,0.39682039618492126,-2.357755661010742,2.339838981628418
1684252590911956000,11.7249560546875,0.20887552201747894,-2.535712480545044,2.341209888458252
1684252590921982000,11.73498193359375,0.07483836263418198,-2.7779195308685303,2.0164949893951416
1684252590932008000,11.745008056640625,0.0006541503826156259,-3.0149967670440674,1.5516259670257568
1684252590942034000,11.755033935546875,-0.009266522713005543,-3.1615664958953857,1.0679965019226074
1684252590952060000,11.765059814453124,-0.0003750270698219538,-3.094442129135132,0.6254116296768188
1684252590962086000,11.7750859375,-0.019042739644646645,-2.6359996795654297,0.26606205105781555
1684252590972112000,11.78511181640625,-0.11842259019613266,-1.7972286939620972,0.0449935644865036
1684252590982137900,11.795137939453125,-0.2815515398979187,-0.8549838066101074,-0.02990829199552536
1684252590992164000,11.8051640625,-0.4257361590862274,0.08970124274492264,0.033975884318351746
1684252591002190000,11.815190185546875,-0.4777909815311432,1.0216323137283325,0.16829144954681396
1684252591012216000,11.825216064453125,-0.40169328451156616,1.9349881410598755,0.3047310411930084
1684252591022242000,11.835241943359375,-0.22485966980457306,2.7751450538635254,0.40793806314468384
1684252591032268000,11.84526806640625,-0.01766813173890114,3.6456713676452637,0.4221164584159851
1684252591042294000,11.8552939453125,0.12384549528360367,4.5073771476745605,0.20312455296516418
1684252591052320000,11.865320068359376,0.10041047632694244,4.888627529144287,-0.48626798391342163
1684252591062346000,11.875345947265625,-0.1295543909072876,4.076436996459961,-1.470228910446167
1684252591072372000,11.8853720703125,-0.4491496980190277,2.4138827323913574,-2.197756290435791
1684252591082398000,11.89539794921875,-0.7291696667671204,0.7021602988243103,-2.4442639350891113
1684252591092424000,11.905423828125,-0.9115447998046875,-1.0916272401809692,-2.308382034301758
1684252591102450200,11.9154501953125,-0.889792263507843,-2.8722734451293945,-2.0445382595062256
1684252591112476200,11.92547607421875,-0.651520311832428,-4.346573352813721,-1.8063147068023682
1684252591122502100,11.935502197265626,-0.35424262285232544,-4.55034065246582,-1.9932446479797363
1684252591132527000,11.945527099609375,0.13676011562347412,-3.0133047103881836,-2.582256317138672
1684252591142553000,11.955552978515625,0.8692272305488586,-0.692764937877655,-3.245429515838623
1684252591152579000,11.9655791015625,1.7588361501693726,1.1546999216079712,-3.837355375289917
1684252591162605000,11.97560498046875,2.506199359893799,2.078554630279541,-4.229249954223633
1684252591172631000,11.985631103515624,2.8315188884735107,2.188330888748169,-4.305357456207275
1684252591182657000,11.995656982421876,2.799405813217163,1.8582251071929932,-4.076976776123047
1684252591192683000,12.00568310546875,2.592900514602661,1.4993036985397339,-3.609053134918213
1684252591202709000,12.015708984375,2.2921292781829834,1.2579939365386963,-2.9745993614196777
1684252591212735000,12.02573486328125,1.8475959300994873,0.6510679721832275,-2.2154104709625244
1684252591222761000,12.035760986328125,1.3927079439163208,-0.7194423079490662,-1.4775727987289429
1684252591232787200,12.045787109375,0.9589505791664124,-2.358393907546997,-0.8073158264160156
1684252591242813200,12.055813232421874,0.612377941608429,-3.5552334785461426,-0.3073626160621643
1684252591252839200,12.065839111328126,0.5650658011436462,-4.212985992431641,-0.053038980811834335
1684252591262865200,12.075865234375,0.7565786242485046,-4.1477580070495605,0.03719494119286537
1684252591272891100,12.08589111328125,1.034140944480896,-1.0437828302383423,-0.6287356615066528
1684252591282917000,12.095917236328125,1.0661866664886475,2.4373090267181396,-1.7435851097106934
1684252591292943000,12.105943115234375,0.6700734496116638,3.903526544570923,-2.548950433731079
1684252591302969000,12.115968994140625,-0.004862261936068535,3.456477165222168,-2.919973134994507
1684252591312995000,12.1259951171875,-0.6100735664367676,1.9233146905899048,-3.238860607147217
1684252591323021000,12.13602099609375,-1.048715353012085,0.08785725384950638,-4.106673717498779
1684252591333047000,12.146047119140626,-1.395248532295227,-1.9653128385543823,-5.05629301071167
1684252591343073000,12.156072998046875,-1.782220482826233,-3.5140416622161865,-5.21184778213501
1684252591353099000,12.16609912109375,-2.182616710662842,-3.4355359077453613,-4.6881585121154785
1684252591363124700,12.176124755859375,-2.5460259914398193,-1.1994708776474,-4.373193740844727
1684252591373151000,12.18615087890625,-2.8433215618133545,1.0138612985610962,-4.360419750213623
1684252591383177000,12.196177001953124,-3.0562446117401123,0.9275648593902588,-4.1937689781188965
1684252591393203000,12.206202880859376,-3.1139140129089355,-0.4785255789756775,-3.518239974975586
1684252591403228200,12.216228271484376,-3.0511112213134766,-0.9980190992355347,-2.5548501014709473
1684252591413254100,12.226254150390625,-2.8623225688934326,-0.9324832558631897,-1.7311103343963623
1684252591423280000,12.236280029296875,-2.4964263439178467,-1.198074460029602,-1.0969984531402588
1684252591433305900,12.246305908203125,-1.929687738418579,-1.3745131492614746,-0.6779149770736694
1684252591443331800,12.256331787109374,-1.2368152141571045,-0.9091180562973022,-0.42331311106681824
1684252591453357800,12.26635791015625,-0.5905680060386658,0.022439448162913322,-0.14982537925243378
1684252591463383800,12.2763837890625,-0.1124550849199295,0.9301205277442932,0.16609767079353333
1684252591473409800,12.286409912109375,0.2632727026939392,1.5185011625289917,0.560584545135498
1684252591483435800,12.296435791015625,0.5993772745132446,1.9630621671676636,1.0603770017623901
1684252591493461800,12.306461669921875,0.9381457567214966,2.131683826446533,1.7059723138809204
1684252591503488000,12.316488037109375,1.3205891847610474,2.0936174392700195,2.334566116333008
1684252591513514000,12.326513916015625,1.7534606456756592,2.0454981327056885,2.8608880043029785
1684252591523540000,12.3365400390625,2.1426949501037598,2.101500988006592,3.3268632888793945
1684252591533566000,12.34656591796875,2.445073127746582,2.251532554626465,3.719383955001831
1684252591543592000,12.356592041015626,2.652448892593384,2.5165939331054688,3.9691452980041504
1684252591553618000,12.366617919921875,2.9870970249176025,2.4959704875946045,3.018542528152466
1684252591563644000,12.376643798828125,1.9990183115005493,2.001298666000366,-2.8507394790649414
1684252591573670000,12.386669921875,-0.26705262064933777,4.878474235534668,-4.13295316696167
1684252591583696000,12.39669580078125,-2.180860757827759,4.111920356750488,-0.8682059049606323
1684252591593721900,12.406721923828124,-4.908349514007568,1.911655306816101,2.4703893661499023
1684252591603747800,12.416747802734376,-6.230299949645996,-1.1988965272903442,5.328940391540527
1684252591613774000,12.426774169921876,-4.067454814910889,-5.517659664154053,5.068912506103516
1684252591623800000,12.436800048828125,0.6257908940315247,-6.873624324798584,2.9388914108276367
1684252591633826000,12.446825927734375,4.938899993896484,-0.9019328355789185,-0.17803946137428284
1684252591643852000,12.45685205078125,6.143840312957764,2.852903366088867,-0.7055333256721497
1684252591653878000,12.4668779296875,4.567751407623291,1.8727959394454956,0.6517744064331055
1684252591663904000,12.476904052734374,2.334298849105835,0.6551752090454102,1.9210046529769897
1684252591673930000,12.486929931640624,0.757591962814331,0.5829800963401794,1.9015206098556519
1684252591683955000,12.496954833984375,0.026064274832606316,-0.00762755423784256,0.9316385984420776
1684252591693981000,12.50698095703125,-0.4039270281791687,-0.2501373887062073,0.8175833821296692
1684252591704007000,12.5170068359375,-0.6724783778190613,0.29931211471557617,1.3523203134536743
1684252591714033000,12.527032958984375,-0.7255815267562866,0.5448107719421387,1.5789841413497925
1684252591724059000,12.537058837890624,-0.7871211171150208,0.19777970016002655,1.3841204643249512
1684252591734084900,12.5470849609375,-0.8909340500831604,-0.08306021243333817,1.3100649118423462
1684252591744111000,12.557111083984376,-0.7842535972595215,0.03200582414865494,1.405395746231079
1684252591754137000,12.56713720703125,-0.4090762138366699,0.15461643040180206,1.4717044830322266
1684252591764163000,12.5771630859375,0.025990787893533707,0.14814810454845428,1.350643515586853
1684252591774189000,12.58718896484375,0.2958536744117737,0.14858752489089966,1.1796571016311646
1684252591784215000,12.597215087890625,0.4067803621292114,0.38163238763809204,1.1061590909957886
1684252591794241000,12.607240966796875,0.49801865220069885,0.7352887392044067,1.1165637969970703
1684252591804267000,12.61726708984375,0.6428105235099792,0.8795560598373413,1.1321513652801514
1684252591814293000,12.62729296875,0.7787622809410095,0.670519232749939,1.2001521587371826
1684252591824319000,12.637319091796876,0.7998850345611572,0.30569103360176086,1.3705036640167236
