time,seconds_elapsed,z,y,x
1684252440656605400,0.01160546875,3.9881160259246826,1.6240863800048828,2.7240114212036133
1684252440666631400,0.02163134765625,4.738110542297363,2.125950574874878,2.9725804328918457
1684252440676658700,0.03165869140625,5.287785530090332,2.349112033843994,3.103963613510132
1684252440686684700,0.0416845703125,5.666086196899414,2.3941540718078613,3.2155275344848633
1684252440696710700,0.051710693359375,5.710461616516113,3.0466432571411133,3.171971082687378
1684252440706736600,0.061736572265625,5.218740463256836,4.757060527801514,2.1734228134155273
1684252440716763400,0.071763427734375,5.098087787628174,4.069122791290283,1.0888707637786865
1684252440726789400,0.081789306640625,5.0914788246154785,1.9185909032821655,0.39959269762039185
1684252440736815400,0.0918154296875,4.035741806030273,-0.3310993015766144,0.22482936084270477
1684252440746842600,0.101842529296875,0.8150083422660828,-0.6365399360656738,0.8854120969772339
1684252440756868600,0.11186865234375,-1.1598107814788818,-1.1529752016067505,1.1599317789077759
1684252440766894600,0.12189453125,-2.398314952850342,-1.129421353340149,1.2570335865020752
1684252440776920600,0.131920654296875,-3.2118544578552246,-0.03022187575697899,1.1989201307296753
1684252440786947600,0.141947509765625,-3.8304800987243652,1.6836141347885132,1.2641981840133667
1684252440796973600,0.1519736328125,-4.4996747970581055,2.991788387298584,1.3178905248641968
1684252440806999600,0.16199951171875,-5.092187404632568,4.096473217010498,1.3890269994735718
1684252440817026600,0.172026611328125,-5.485257625579834,4.531011581420898,1.402170181274414
1684252440827052500,0.182052490234375,-5.595969200134277,4.513463497161865,1.3633753061294556
1684252440837078500,0.19207861328125,-5.422135829925537,4.175297260284424,1.1673109531402588
1684252440847104500,0.2021044921875,-5.234879493713379,4.282077312469482,0.808797299861908
1684252440857131500,0.212131591796875,-4.63694429397583,4.977758407592773,0.41057267785072327
1684252440867157500,0.222157470703125,-3.808152198791504,5.678340435028076,0.0295379888266325
1684252440877183700,0.232183837890625,-3.1960268020629883,6.535904884338379,-0.22121848165988922
1684252440887210500,0.24221044921875,-3.1294972896575928,7.448246479034424,-0.33678343892097473
1684252440897236500,0.252236572265625,-3.541569709777832,8.487377166748047,-0.24762141704559326
1684252440907262500,0.262262451171875,-4.309973239898682,9.087604522705078,-0.04381130635738373
1684252440917288400,0.272288330078125,-5.248692035675049,9.200113296508789,0.32830679416656494
1684252440927315500,0.2823154296875,-5.963715553283691,8.79250431060791,0.9701815843582153
1684252440937341400,0.292341552734375,-6.272924900054932,8.144134521484375,1.8617531061172485
1684252440947367700,0.30236767578125,-6.595074653625488,7.376708030700684,2.5589139461517334
1684252440957394700,0.312394775390625,-6.7671799659729,6.784508228302002,3.1203596591949463
1684252440967420700,0.322420654296875,-6.592937469482422,6.454507350921631,3.5443403720855713
1684252440977446700,0.33244677734375,-6.294452667236328,6.046684265136719,3.64652419090271
1684252440987472600,0.34247265625,-6.29423713684082,5.628257751464844,3.4788548946380615
1684252440997499400,0.35249951171875,-6.621826171875,5.263125419616699,3.2516820430755615
1684252441007525400,0.362525390625,-7.087576866149902,4.686992645263672,3.086477756500244
1684252441017551600,0.372551513671875,-7.426382541656494,4.069085121154785,2.9835901260375977
1684252441027578600,0.38257861328125,-7.460982322692871,3.5994160175323486,2.9655303955078125
1684252441037604600,0.3926044921875,-7.238430023193359,3.228221893310547,3.0318307876586914
1684252441047630600,0.402630615234375,-6.795256614685059,2.809565782546997,3.150676727294922
1684252441057656600,0.412656494140625,-6.09824800491333,2.2259178161621094,3.4858617782592773
1684252441067683600,0.42268359375,-5.505822658538818,1.3256458044052124,3.9518892765045166
1684252441077709600,0.43270947265625,-5.005494594573975,0.5590004920959473,4.313381195068359
1684252441087735600,0.442735595703125,-4.245972156524658,-0.054164666682481766,4.33595609664917
1684252441097762600,0.452762451171875,-3.194934606552124,-0.8084720373153687,3.989785671234131
1684252441107788500,0.46278857421875,-2.1510674953460693,-1.5142160654067993,3.345871686935425
1684252441117814500,0.472814453125,-1.239410161972046,-2.1133358478546143,2.5605719089508057
1684252441127841500,0.482841552734375,-0.45154619216918945,-2.5710196495056152,1.7676485776901245
1684252441137867500,0.492867431640625,0.2876906991004944,-2.921936511993408,1.0831198692321777
1684252441147893800,0.502893798828125,1.0891308784484863,-3.0671277046203613,0.603422224521637
1684252441157919700,0.512919677734375,1.923631191253662,-3.012212038040161,0.32643625140190125
1684252441167946500,0.522946533203125,2.648221015930176,-2.8358535766601562,0.2242845743894577
1684252441177972500,0.532972412109375,3.182068347930908,-2.540286064147949,0.19771708548069
1684252441187998500,0.54299853515625,3.520718812942505,-2.164668560028076,0.1868726909160614
1684252441198024400,0.5530244140625,3.6488261222839355,-1.6672364473342896,0.08121022582054138
1684252441208051000,0.563051025390625,3.59385347366333,-0.9532634615898132,-0.12045258283615112
1684252441218077000,0.573076904296875,3.4136455059051514,-0.496585875749588,-0.593216061592102
1684252441228103200,0.583103271484375,2.288745880126953,-0.6623782515525818,-2.3428103923797607
1684252441238130200,0.593130126953125,1.1264904737472534,-0.1326230764389038,-4.041388988494873
1684252441248156200,0.60315625,0.8868007659912109,0.3751423954963684,-4.214432239532471
1684252441258182100,0.61318212890625,1.4868627786636353,0.1213599368929863,-3.2430942058563232
1684252441268208000,0.6232080078125,2.355563163757324,0.16530075669288635,-1.686802625656128
1684252441278235000,0.63323486328125,2.970867872238159,0.4540465474128723,-0.5043087005615234
1684252441288261000,0.64326123046875,3.3481366634368896,0.5738674998283386,-0.13449473679065704
1684252441298287000,0.653287109375,3.057857036590576,1.1131794452667236,-0.2385542243719101
1684252441308314000,0.663314208984375,2.519873857498169,1.2971179485321045,-0.3547181189060211
1684252441318340000,0.673340087890625,1.8661514520645142,1.695805311203003,-0.4339640438556671
1684252441328366000,0.683365966796875,1.4189252853393555,2.4272422790527344,-0.49875104427337646
1684252441338393000,0.69339306640625,0.6762345433235168,2.7922515869140625,-0.31709611415863037
1684252441348419000,0.703419189453125,-0.15789975225925446,2.788172483444214,-0.24624192714691162
1684252441358445000,0.713445068359375,-0.8182024359703064,2.7415308952331543,-0.22987744212150574
1684252441368471000,0.723470947265625,-1.342499852180481,2.4595513343811035,-0.18005210161209106
1684252441378498000,0.733498046875,-1.7600207328796387,2.0358104705810547,0.048157766461372375
1684252441388524000,0.74352392578125,-2.166189432144165,1.5861791372299194,0.37952372431755066
1684252441398550000,0.753550048828125,-2.6299238204956055,1.0920721292495728,0.8561545014381409
1684252441408577000,0.763576904296875,-2.850476026535034,0.5522686243057251,1.4813920259475708
1684252441418603000,0.77360302734375,-2.590813398361206,0.6263590455055237,2.09584903717041
1684252441428629200,0.783629150390625,-2.105365514755249,0.7993478775024414,2.35298228263855
1684252441438655200,0.7936552734375,-1.785823106765747,0.5725657343864441,2.1605453491210938
1684252441448682000,0.803681884765625,-1.6628029346466064,0.22986429929733276,1.8142995834350586
1684252441458708000,0.8137080078125,-1.7348604202270508,0.0016572308959439397,1.3688609600067139
1684252441468734000,0.82373388671875,-1.834421157836914,-0.06744087487459183,0.8167886734008789
1684252441478761000,0.833760986328125,-1.9831163883209229,-0.016956757754087448,0.2382507473230362
1684252441488787200,0.843787109375,-2.4146976470947266,0.31939515471458435,-0.19570522010326385
1684252441498813200,0.853813232421875,-3.098480463027954,1.0789124965667725,-0.4802229106426239
1684252441508839200,0.863839111328125,-3.6902902126312256,1.7274528741836548,-0.6913135647773743
1684252441518866200,0.8738662109375,-3.9230847358703613,1.8947763442993164,-0.9637382626533508
1684252441528892200,0.88389208984375,-3.859083652496338,1.673345923423767,-1.3695954084396362
1684252441538918100,0.893918212890625,-3.4966728687286377,1.5508352518081665,-1.8342947959899902
1684252441548945000,0.90394482421875,-2.72587513923645,1.423197865486145,-2.1456875801086426
1684252441558971100,0.91397119140625,-1.7984546422958374,0.5029387474060059,-1.791119933128357
1684252441568997000,0.9239970703125,-1.0736950635910034,-1.6786895990371704,-0.45701655745506287
1684252441579023000,0.934023193359375,-0.8729342222213745,-2.086092948913574,-0.20176580548286438
1684252441589050000,0.944050048828125,-0.8700971603393555,-1.551288366317749,-0.4676227867603302
1684252441599076000,0.954076171875,-1.0119895935058594,-0.5647644996643066,-0.5768212080001831
1684252441609102000,0.96410205078125,-1.2475507259368896,0.6949040293693542,-0.46533194184303284
1684252441619128800,0.97412890625,-1.1490371227264404,2.0341451168060303,-0.13749435544013977
1684252441629155000,0.984155029296875,-0.49983933568000793,3.062016010284424,0.28095269203186035
1684252441639181000,0.99418115234375,-1.1734755039215088,1.6342939138412476,0.09525857865810394
1684252441649207000,1.00420703125,-1.321252703666687,1.9759057760238647,0.46384382247924805
1684252441659234000,1.014234130859375,-1.5413480997085571,2.6433448791503906,0.9100199341773987
1684252441669260000,1.024260009765625,-1.9405889511108398,2.830888271331787,1.2455174922943115
1684252441679286000,1.0342861328125,-2.433271646499634,2.4609339237213135,1.4854423999786377
1684252441689313300,1.044313232421875,-2.9120452404022217,1.569492220878601,1.866459846496582
1684252441699339300,1.05433935546875,-3.283141851425171,0.4547406733036041,2.3808884620666504
1684252441709365200,1.064365234375,-3.4590556621551514,-0.30980440974235535,2.7484140396118164
1684252441719391200,1.07439111328125,-3.429892063140869,-0.682832658290863,2.8177478313446045
1684252441729418000,1.08441796875,-3.199227809906006,-0.865814745426178,2.631495714187622
1684252441739444000,1.09444384765625,-2.8185999393463135,-0.9713779091835022,2.267712116241455
1684252441749470000,1.104469970703125,-2.3873236179351807,-0.8586042523384094,1.7887747287750244
1684252441759497200,1.114497314453125,-2.026620388031006,-0.5829104781150818,1.280203104019165
1684252441769523200,1.124523193359375,-1.7266640663146973,-0.041377678513526917,0.7902552485466003
1684252441779549200,1.134549072265625,-1.6673623323440552,0.6051884293556213,0.45814046263694763
1684252441789576000,1.144575927734375,-1.7548471689224243,1.2535138130187988,0.31931042671203613
1684252441799602000,1.154601806640625,-1.790781021118164,1.747791051864624,0.3723318874835968
1684252441809628000,1.1646279296875,-1.5724601745605469,1.7645604610443115,0.5284464359283447
1684252441819654000,1.17465380859375,-1.0920491218566895,1.3123177289962769,0.6423729062080383
1684252441829681200,1.18468115234375,-0.5602512955665588,0.4637991189956665,0.6096346378326416
1684252441839707100,1.19470703125,-0.20418080687522888,-0.6592311263084412,0.42967095971107483
1684252441849733000,1.204733154296875,-0.12485536187887192,-1.701737880706787,0.21544362604618073
1684252441859760000,1.214760009765625,0.049304939806461334,-2.1042211055755615,-0.11209577322006226
1684252441869786000,1.2247861328125,0.05433804541826248,-2.3296422958374023,-0.457008957862854
1684252441879812000,1.23481201171875,0.003663931507617235,-2.3476781845092773,-0.6629912257194519
1684252441889838000,1.244838134765625,0.1242995336651802,-2.1751749515533447,-0.6460042595863342
1684252441899865000,1.254864990234375,0.3462883532047272,-2.015207052230835,-0.48856469988822937
1684252441909891000,1.26489111328125,0.35775697231292725,-2.051055669784546,-0.3281380236148834
1684252441919917000,1.2749169921875,0.2964152693748474,-1.9178465604782104,-0.1528242528438568
1684252441929944000,1.284944091796875,0.2745392620563507,-1.6739863157272339,0.01512826792895794
1684252441939970000,1.294969970703125,0.07193982601165771,-1.514309048652649,0.13512824475765228
1684252441949996000,1.30499609375,-0.34573039412498474,-1.205345630645752,0.25792232155799866
1684252441960022000,1.31502197265625,-0.6481229662895203,-0.6222139000892639,0.43726733326911926
1684252441970049000,1.325049072265625,-0.7805894017219543,-0.02262423001229763,0.5918446779251099
1684252441980075000,1.335074951171875,-0.7159659266471863,0.47171729803085327,0.7130330204963684
1684252441990101000,1.34510107421875,-0.22843410074710846,1.0148499011993408,0.9555354118347168
1684252442000128000,1.3551279296875,0.45264458656311035,1.513149619102478,1.2714824676513672
1684252442010154000,1.365154052734375,1.0882234573364258,2.029014825820923,1.401806116104126
1684252442020180000,1.375179931640625,1.6624350547790527,2.487030029296875,1.4545384645462036
1684252442030206000,1.3852060546875,2.1380810737609863,3.0262837409973145,1.3519665002822876
1684252442040233200,1.395233154296875,2.4210753440856934,3.4578189849853516,1.1916215419769287
1684252442050259200,1.40525927734375,2.4364099502563477,3.2830941677093506,1.3666926622390747
1684252442060285200,1.41528515625,2.3676905632019043,3.4922964572906494,1.226805329322815
1684252442070312000,1.42531201171875,2.4055964946746826,3.4221246242523193,1.2950611114501953
1684252442080338000,1.435337890625,2.3601698875427246,2.6981678009033203,1.0900331735610962
1684252442090364000,1.445364013671875,2.1706700325012207,1.137514591217041,0.6175969243049622
1684252442100390000,1.455389892578125,2.256533622741699,-0.6063910722732544,0.34492117166519165
1684252442110417200,1.465417236328125,2.324730634689331,-2.2141995429992676,0.051537252962589264
1684252442120443100,1.475443115234375,1.5924172401428223,-3.5870935916900635,-0.48074832558631897
1684252442130469000,1.48546923828125,0.7270904779434204,-4.448335647583008,-0.7403410077095032
1684252442140496100,1.49549609375,0.37416526675224304,-4.916987895965576,-0.7964437007904053
1684252442150522000,1.505522216796875,0.6653994917869568,-4.854949951171875,-0.5823021531105042
1684252442160548000,1.515548095703125,1.0847331285476685,-4.704436779022217,-0.2818123400211334
1684252442170575000,1.5255751953125,1.3554083108901978,-4.772569179534912,0.0366026796400547
1684252442180601000,1.53560107421875,1.446771502494812,-5.153689861297607,0.45436418056488037
1684252442190627000,1.545626953125,1.5435118675231934,-6.18252420425415,2.3161377906799316
1684252442200653000,1.555653076171875,1.4422311782836914,-2.1073577404022217,5.6276397705078125
1684252442210680600,1.5656806640625,0.9194103479385376,4.060756206512451,5.663462162017822
1684252442220706600,1.57570654296875,-0.016366582363843918,6.88541316986084,4.63352632522583
1684252442230732800,1.58573291015625,-1.0283890962600708,6.318779945373535,3.2969319820404053
1684252442240759600,1.595759521484375,-1.8338948488235474,4.012731552124023,2.0615954399108887
1684252442250785500,1.60578564453125,-2.342095136642456,1.651495337486267,1.022969365119934
1684252442260811500,1.6158115234375,-2.403104782104492,-0.11884414404630661,0.15409861505031586
1684252442270837500,1.62583740234375,-2.0818965435028076,-1.199135184288025,-0.575727105140686
1684252442280864500,1.635864501953125,-1.5429469347000122,-1.6295500993728638,-1.1334563493728638
1684252442290890500,1.645890380859375,-0.9087905287742615,-1.7110449075698853,-1.5834064483642578
1684252442300916700,1.655916748046875,-0.22963622212409973,-1.658726453781128,-1.9958683252334595
1684252442310943500,1.665943603515625,0.4265914261341095,-1.5023475885391235,-2.43977952003479
1684252442320969500,1.675969482421875,0.8580045104026794,-1.2219445705413818,-2.871594190597534
1684252442330995500,1.685995361328125,1.0493873357772827,-0.9813722372055054,-3.331815004348755
1684252442341021400,1.696021484375,1.030588984489441,-0.7155287265777588,-3.7987356185913086
1684252442351048400,1.70604833984375,0.8993116021156311,-0.3473659157752991,-4.158691883087158
1684252442361074400,1.716074462890625,0.8131434917449951,0.03343646600842476,-4.355952739715576
1684252442371100700,1.7261005859375,0.8518298864364624,0.27308711409568787,-4.487180709838867
1684252442381127700,1.736127685546875,1.204578161239624,-0.16921135783195496,-5.330047130584717
1684252442391153700,1.746153564453125,1.5346895456314087,-1.4714301824569702,-5.808788299560547
1684252442401179600,1.7561796875,1.7207077741622925,-2.1264607906341553,-5.686578750610352
1684252442411205600,1.76620556640625,1.7308919429779053,-1.7760595083236694,-4.825222492218018
1684252442421232400,1.776232421875,1.697379231452942,-0.43774348497390747,-3.2923171520233154
1684252442431258600,1.786258544921875,1.6988511085510254,0.8198727965354919,-1.8836323022842407
1684252442441284600,1.79628466796875,1.6552385091781616,1.8528633117675781,-0.8420354127883911
1684252442451311600,1.8063115234375,1.5699905157089233,2.746415376663208,0.04117319732904434
1684252442461337600,1.816337646484375,1.3903640508651733,3.2060117721557617,0.6417959928512573
1684252442471363600,1.826363525390625,1.0228960514068604,3.2562339305877686,0.9295250177383423
1684252442481390600,1.836390625,0.5159698724746704,2.6898767948150635,0.9663794636726379
1684252442491416600,1.84641650390625,0.004525996744632721,1.13066828250885,0.4782736897468567
1684252442501442600,1.856442626953125,-0.11196767538785934,-0.7928740382194519,-0.6516753435134888
1684252442511468500,1.866468505859375,0.41154801845550537,-1.7046786546707153,-1.7232104539871216
1684252442521495600,1.87649560546875,1.4262748956680298,-1.213542103767395,-2.497253894805908
1684252442531521500,1.886521484375,2.4438183307647705,-0.16615015268325806,-2.7469732761383057
1684252442541547500,1.896547607421875,2.977818727493286,0.40257659554481506,-2.253948211669922
1684252442551574500,1.906574462890625,2.8435051441192627,0.3593393564224243,-1.386807918548584
1684252442561600500,1.9166005859375,2.3206052780151367,0.331266850233078,-0.6274687647819519
1684252442571626800,1.926626708984375,1.671893835067749,0.3926766812801361,-0.11752830445766449
1684252442581652700,1.93665283203125,1.0580449104309082,0.5673025250434875,0.18473775684833527
1684252442591679500,1.946679443359375,0.5369795560836792,0.8552128672599792,0.3401004672050476
1684252442601705500,1.95670556640625,0.17573855817317963,1.2980225086212158,0.3644472062587738
1684252442611731500,1.9667314453125,-0.03263329714536667,1.621284008026123,0.2408035844564438
1684252442621758500,1.976758544921875,-0.08792111277580261,1.5831935405731201,0.11935830861330032
1684252442631784700,1.98678466796875,-0.012918505817651749,0.9839982986450195,0.05790426954627037
1684252442641810700,1.996810791015625,0.15186139941215515,0.03249672055244446,-0.016486579552292824
1684252442651836700,2.006836669921875,0.34656643867492676,-0.6341979503631592,-0.12511558830738068
1684252442661863700,2.01686376953125,0.45630377531051636,-0.7407087087631226,-0.27370068430900574
1684252442671889700,2.0268896484375,0.44746819138526917,-0.6280964016914368,-0.38886404037475586
1684252442681915600,2.03691552734375,0.39194080233573914,-0.6418575644493103,-0.40475285053253174
1684252442691942400,2.0469423828125,0.269479364156723,-0.7773399949073792,-0.3190477788448334
1684252442701968600,2.05696875,0.07378336042165756,-0.912471354007721,-0.18940381705760956
1684252442711994600,2.06699462890625,-0.16400256752967834,-0.9611659646034241,-0.02984878420829773
1684252442722021600,2.077021728515625,-0.3909287750720978,-0.9703325629234314,0.14868132770061493
1684252442732047600,2.087047607421875,-0.5611814260482788,-1.0097278356552124,0.33667972683906555
1684252442742073600,2.097073486328125,-0.6460842490196228,-1.0862905979156494,0.5142549276351929
1684252442752099600,2.107099609375,-0.6622514724731445,-1.1783407926559448,0.6775040626525879
1684252442762126300,2.117126220703125,-0.677912175655365,-1.3343145847320557,0.8487769365310669
1684252442772152600,2.127152587890625,-0.7724989056587219,-1.5847049951553345,1.0721173286437988
1684252442782178600,2.137178466796875,-0.9753726720809937,-1.9319450855255127,1.3371000289916992
1684252442792205600,2.14720556640625,-1.296256422996521,-2.253140449523926,1.7236202955245972
1684252442802231600,2.1572314453125,-1.6967048645019531,-2.3720219135284424,2.1480324268341064
1684252442812257500,2.167257568359375,-2.1215627193450928,-2.4621777534484863,2.37701153755188
1684252442822283500,2.177283447265625,-2.5066795349121094,-2.728868246078491,2.329512357711792
1684252442832310800,2.187310791015625,-2.842787027359009,-2.910684823989868,2.129169225692749
1684252442842336800,2.197336669921875,-2.072997570037842,-0.5954181551933289,-1.0997263193130493
1684252442852362800,2.20736279296875,-0.8833644390106201,0.6690834760665894,-5.187137126922607
1684252442862389500,2.217389404296875,-0.43701398372650146,-1.7975265979766846,-3.232544183731079
1684252442872415500,2.22741552734375,0.5071128606796265,-4.572456359863281,0.38791489601135254
1684252442882441500,2.23744140625,0.5343802571296692,-7.500722885131836,0.3475845456123352
1684252442892467500,2.247467529296875,-0.3217040002346039,-3.3725764751434326,-0.25322437286376953
1684252442902494700,2.25749462890625,-0.6404540538787842,-0.2255733460187912,0.5623934268951416
1684252442912520700,2.267520751953125,-0.8549493551254272,0.7660005688667297,0.8236654996871948
1684252442922546700,2.277546630859375,-0.7223504185676575,-0.1210620254278183,-0.27497005462646484
1684252442932573400,2.287573486328125,-0.33875373005867004,-1.8939636945724487,-1.0321972370147705
1684252442942599400,2.297599365234375,0.14092931151390076,-2.6541545391082764,-1.0499404668807983
1684252442952625400,2.30762548828125,0.6649616956710815,-3.1277108192443848,-1.4895639419555664
1684252442962651400,2.3176513671875,0.7540042400360107,-3.8832826614379883,-2.071575880050659
1684252442972678700,2.3276787109375,0.3441258668899536,-4.0774455070495605,-1.8544082641601562
1684252442982704600,2.33770458984375,-0.35971876978874207,-3.4560933113098145,-1.409489393234253
1684252442992730600,2.347730712890625,-1.0690269470214844,-2.075152635574341,-1.0216777324676514
1684252443002757600,2.357757568359375,-1.487251877784729,-0.6026008129119873,-0.310207724571228
1684252443012783600,2.36778369140625,-1.5753371715545654,0.3307415544986725,0.409986674785614
1684252443022809600,2.3778095703125,-1.5208768844604492,0.7264933586120605,0.7354663014411926
1684252443032836600,2.387836669921875,-1.4697130918502808,0.6483399271965027,0.7122328877449036
1684252443042862600,2.397862548828125,-1.390366554260254,0.3809467554092407,0.5505964756011963
1684252443052888600,2.407888671875,-1.2577933073043823,0.08090038597583771,0.34403449296951294
1684252443062914600,2.41791455078125,-1.1255027055740356,-0.2801494300365448,0.10767354816198349
1684252443072941600,2.427941650390625,-1.0383143424987793,-0.6444426774978638,-0.048344019800424576
1684252443082967600,2.437967529296875,-1.0090152025222778,-0.8283877968788147,-0.09953150898218155
1684252443092993500,2.44799365234375,-1.0067616701126099,-0.8628125786781311,-0.1723085194826126
1684252443103020500,2.4580205078125,-0.9902151823043823,-0.9148854613304138,-0.23663493990898132
1684252443113046500,2.468046630859375,-0.9504570960998535,-0.9801299571990967,-0.19419267773628235
1684252443123072500,2.478072509765625,-0.8887181878089905,-0.8543078899383545,-0.09365971386432648
1684252443133098500,2.488098388671875,-0.820009708404541,-0.5396916270256042,-0.013611220754683018
1684252443143125500,2.49812548828125,-0.7062203884124756,-0.18019920587539673,0.07563961297273636
1684252443153151500,2.5081513671875,-0.555122435092926,0.15324293076992035,0.19785499572753906
1684252443163177500,2.518177490234375,-0.38313737511634827,0.5058620572090149,0.31035107374191284
1684252443173204700,2.528204833984375,-0.22058548033237457,0.8302795886993408,0.38693931698799133
1684252443183230700,2.538230712890625,-0.08843971788883209,0.9746218919754028,0.4153681993484497
1684252443193256700,2.548256591796875,0.0056289928033947945,0.8763456344604492,0.3980267643928528
1684252443203283500,2.558283447265625,0.07382074743509293,0.7038117051124573,0.35258403420448303
1684252443213309000,2.568308837890625,0.11879674345254898,0.5233772397041321,0.28640154004096985
1684252443223335000,2.5783349609375,0.142484650015831,0.3446063995361328,0.2224944531917572
1684252443233361000,2.58836083984375,0.12925246357917786,0.22082188725471497,0.1772468090057373
1684252443243388000,2.598387939453125,0.07229357212781906,0.21579048037528992,0.15979820489883423
1684252443253414000,2.608413818359375,-0.022813769057393074,0.21100372076034546,0.1817900538444519
1684252443263440100,2.618440185546875,-0.1422642022371292,0.1458418369293213,0.23405198752880096
1684252443273467100,2.628467041015625,-0.2852003276348114,0.12097829580307007,0.28636711835861206
1684252443283493000,2.6384931640625,-0.43193745613098145,0.20232313871383667,0.3068775236606598
1684252443293519000,2.64851904296875,-0.565421462059021,0.35624024271965027,0.3215334117412567
1684252443303545000,2.658545166015625,-0.6749936938285828,0.5232605934143066,0.33867037296295166
1684252443313571800,2.66857177734375,-0.7445620894432068,0.6782011985778809,0.36703330278396606
1684252443323597800,2.678597900390625,-0.7888169884681702,0.8069317936897278,0.4081057012081146
1684252443333624000,2.6886240234375,-0.815728485584259,0.8604147434234619,0.47028493881225586
1684252443343651000,2.698651123046875,-0.850034773349762,0.8079627752304077,0.5441272854804993
1684252443353677000,2.708677001953125,-0.9210343956947327,0.655730664730072,0.59248948097229
1684252443363703000,2.718703125,-1.0172464847564697,0.4498704969882965,0.550920307636261
1684252443373729000,2.72872900390625,-1.115647554397583,0.23088571429252625,0.3772241175174713
1684252443383756000,2.738756103515625,-1.1735776662826538,-0.005668505560606718,0.11135425418615341
1684252443393782000,2.748781982421875,-1.1499415636062622,-0.27567654848098755,-0.22757773101329803
1684252443403808000,2.75880810546875,-1.034529447555542,-0.5480555295944214,-0.6270413994789124
1684252443413835000,2.7688349609375,-0.8183311223983765,-0.8147782683372498,-1.1797759532928467
1684252443423861000,2.778861083984375,-0.4996107220649719,-1.0205780267715454,-1.9329615831375122
1684252443433887000,2.788886962890625,-0.18638728559017181,-1.462580680847168,-2.793978214263916
1684252443443913000,2.798912841796875,0.03252360224723816,-2.293743371963501,-3.4935436248779297
1684252443453940000,2.80893994140625,0.24010582268238068,-2.921769380569458,-3.820002555847168
1684252443463966200,2.81896630859375,0.5611915588378906,-2.8767969608306885,-3.7171006202697754
1684252443473992200,2.8289921875,0.8500680923461914,-2.3128228187561035,-3.4060442447662354
1684252443484019000,2.83901904296875,1.0381487607955933,-1.4374911785125732,-3.252425193786621
1684252443494045000,2.849044921875,1.1181594133377075,-0.44155338406562805,-3.3564774990081787
1684252443504071000,2.85907080078125,1.347857117652893,1.0872172117233276,-3.5773069858551025
1684252443514098000,2.869097900390625,1.6762897968292236,3.921640396118164,-3.8049733638763428
1684252443524124000,2.8791240234375,1.9817514419555664,7.267212867736816,-3.841688632965088
1684252443534150100,2.889150146484375,1.9866881370544434,9.617286682128906,-3.1670639514923096
1684252443544176000,2.899176025390625,1.8045380115509033,9.441147804260254,-2.206221103668213
1684252443554203100,2.909203125,1.5359337329864502,3.4998819828033447,0.08936707675457001
1684252443564229000,2.91922900390625,1.5939489603042603,-2.6043312549591064,2.087449312210083
1684252443574255000,2.929255126953125,1.5411936044692993,-5.540842533111572,2.8347837924957275
1684252443584281900,2.93928173828125,1.0464385747909546,-7.378602027893066,2.572894811630249
1684252443594308000,2.94930810546875,0.5849509239196777,-8.64101505279541,1.1083108186721802
1684252443604334000,2.959333984375,0.7858892679214478,-8.032386779785156,-0.37076112627983093
1684252443614361000,2.969361083984375,1.4636653661727905,-5.867476463317871,-0.7889282703399658
1684252443624387000,2.979386962890625,2.2234926223754883,-3.020012378692627,-0.3601886034011841
1684252443634413000,2.9894130859375,2.790678024291992,-0.08152394741773605,0.2227315455675125
1684252443644439000,2.99943896484375,2.847032308578491,2.372476577758789,0.575934648513794
1684252443654465800,3.0094658203125,2.2949798107147217,3.6662039756774902,0.8289149403572083
1684252443664492000,3.019491943359375,1.325377106666565,3.5588881969451904,1.3163005113601685
1684252443674518000,3.02951806640625,0.3843153715133667,2.7533605098724365,1.9665690660476685
1684252443684545000,3.039544921875,-0.22016578912734985,2.0806334018707275,2.4154977798461914
1684252443694571000,3.049571044921875,-0.5019248127937317,1.6667166948318481,2.5295369625091553
1684252443704597000,3.059596923828125,-0.5563126802444458,1.4860725402832031,2.4033701419830322
1684252443714623000,3.069623046875,-0.46408897638320923,1.5349751710891724,2.253131151199341
1684252443724650000,3.07964990234375,-0.33809995651245117,1.8160260915756226,2.1715004444122314
1684252443734676200,3.08967626953125,-0.2501530647277832,2.257524013519287,2.105724811553955
1684252443744702200,3.0997021484375,-0.2052089422941208,2.754443883895874,2.007309913635254
1684252443754729000,3.10972900390625,-0.18713513016700745,3.257847547531128,1.900111436843872
1684252443764755000,3.1197548828125,-0.1400137096643448,3.711475133895874,1.8528568744659424
1684252443774781000,3.129781005859375,-0.016653962433338165,3.974764585494995,1.8415477275848389
1684252443784807000,3.139806884765625,0.13849547505378723,3.999648094177246,1.8553149700164795
1684252443794834200,3.149834228515625,0.33793026208877563,3.6178014278411865,1.7626252174377441
1684252443804860200,3.159860107421875,0.7098582983016968,2.4072327613830566,1.0667840242385864
1684252443814886100,3.16988623046875,1.1366479396820068,1.0797678232192993,0.26598936319351196
1684252443824913200,3.1799130859375,1.3852874040603638,0.48323115706443787,-0.02771788090467453
1684252443834939000,3.18993896484375,1.3884775638580322,0.26869621872901917,-0.03801392763853073
1684252443844964900,3.19996484375,1.252698302268982,0.04925919324159622,0.015684660524129868
1684252443854992000,3.209991943359375,1.1141105890274048,-0.16667576134204865,0.134739950299263
1684252443865018000,3.22001806640625,1.03278648853302,-0.29987409710884094,0.2915003299713135
1684252443875044000,3.230044189453125,1.0003262758255005,-0.34011712670326233,0.3957388401031494
1684252443885070000,3.240070068359375,0.9930199384689331,-0.28533467650413513,0.44961684942245483
1684252443895097000,3.25009716796875,0.97877037525177,-0.12534235417842865,0.45281821489334106
1684252443905123000,3.260123046875,0.9355372190475464,0.0972527265548706,0.40801677107810974
1684252443915149000,3.270149169921875,0.8631439805030823,0.29214978218078613,0.32543718814849854
1684252443925175800,3.28017578125,0.7819337248802185,0.38787204027175903,0.2315967082977295
1684252443935202000,3.2902021484375,0.72414231300354,0.36469027400016785,0.16783131659030914
1684252443945228000,3.30022802734375,0.6646085977554321,0.23186567425727844,0.16863170266151428
1684252443955254000,3.31025390625,0.5669387578964233,0.05510847270488739,0.2096899300813675
1684252443965281000,3.320281005859375,0.41994065046310425,-0.08777154237031937,0.2738442122936249
1684252443975307000,3.33030712890625,0.22253009676933289,-0.15227675437927246,0.34618473052978516
1684252443985333000,3.3403330078125,0.01697741262614727,-0.12446217983961105,0.4236184358596802
1684252443995360300,3.3503603515625,-0.18652032315731049,-0.04355694353580475,0.5098728537559509
1684252444005386200,3.36038623046875,-0.39729660749435425,0.07239176332950592,0.6067522764205933
1684252444015412000,3.370411865234375,-0.6299053430557251,0.2134609967470169,0.6886500716209412
1684252444025438000,3.38043798828125,-0.8776999711990356,0.3727131485939026,0.7445027232170105
1684252444035465000,3.39046484375,-1.1446936130523682,0.48163431882858276,0.7887114882469177
1684252444045491000,3.400490966796875,-1.4166244268417358,0.5091893076896667,0.8245329260826111
1684252444055517000,3.410516845703125,-1.6704844236373901,0.4362408220767975,0.8808217644691467
1684252444065544200,3.420544189453125,-1.902016520500183,0.1852765828371048,1.0005004405975342
1684252444075570200,3.430570068359375,-2.108473300933838,-0.010373867116868496,1.1370737552642822
1684252444085596200,3.44059619140625,-2.2732458114624023,0.007354441564530134,1.2430890798568726
1684252444095623000,3.450622802734375,-2.377490520477295,0.18153104186058044,1.3249861001968384
1684252444105649000,3.46064892578125,-2.405564308166504,0.45765626430511475,1.4060053825378418
1684252444115675000,3.4706748046875,-2.3295693397521973,0.8802306652069092,1.5193010568618774
1684252444125700900,3.480700927734375,-2.1947638988494873,1.3018392324447632,1.6867889165878296
1684252444135728000,3.49072802734375,-2.058661460876465,1.5886476039886475,1.912712574005127
1684252444145754000,3.500754150390625,-1.8548574447631836,2.0433335304260254,2.097405195236206
1684252444155780000,3.510780029296875,-1.4475713968276978,2.9659781455993652,2.1510353088378906
1684252444165807000,3.52080712890625,-0.45964568853378296,-2.642024040222168,0.4298373758792877
1684252444175833000,3.5308330078125,0.172712042927742,-7.336507797241211,-0.8157861828804016
1684252444185859000,3.540859130859375,0.4359622299671173,-6.659796237945557,-1.4629377126693726
1684252444195885000,3.550885009765625,0.9311109185218811,-3.799962282180786,-1.5473932027816772
1684252444205911800,3.560911865234375,1.2943271398544312,-1.6836317777633667,-1.3084558248519897
1684252444215937800,3.570937744140625,1.252051830291748,-4.29804801940918,0.6715490221977234
1684252444225963800,3.5809638671875,0.7094259262084961,-5.333880424499512,0.8313883543014526
1684252444235991000,3.590990966796875,0.15278533101081848,-3.9062204360961914,0.2590843737125397
1684252444246017000,3.60101708984375,-0.22901350259780884,-1.3745460510253906,-0.15746553242206573
1684252444256043000,3.61104296875,-0.43650224804878235,1.0503438711166382,-0.5531438589096069
1684252444266070000,3.621070068359375,-0.5227277278900146,3.043649673461914,-0.8040416836738586
1684252444276095700,3.631095703125,-0.5195700526237488,4.550644874572754,-0.8557533621788025
1684252444286121700,3.641121826171875,-0.5133280754089355,5.637779235839844,-0.7619779109954834
1684252444296147700,3.651147705078125,-0.5464959144592285,6.355559349060059,-0.5628485679626465
1684252444306175000,3.661175048828125,-0.5664384365081787,6.720518589019775,-0.2519340515136719
1684252444316201000,3.671200927734375,-0.47403815388679504,6.661746501922607,0.2617753744125366
1684252444326227000,3.68122705078125,0.08279664814472198,5.384735107421875,1.5973230600357056
1684252444336254000,3.69125390625,0.5678650736808777,3.9334280490875244,2.831512451171875
1684252444346280000,3.701280029296875,0.4734111726284027,3.187270164489746,3.3061656951904297
1684252444356306000,3.711305908203125,0.09477493166923523,3.0048253536224365,3.3014602661132812
1684252444366332000,3.721331787109375,-0.2584250271320343,2.9695017337799072,3.1217586994171143
1684252444376359000,3.73135888671875,-0.567734956741333,2.90478515625,2.861982822418213
1684252444386385000,3.741385009765625,-0.8276836276054382,2.639472246170044,2.5440833568573
1684252444396411000,3.751410888671875,-1.0098973512649536,2.0401575565338135,2.202118396759033
1684252444406438000,3.76143798828125,-1.1055223941802979,1.0491539239883423,1.758244276046753
1684252444416464000,3.7714638671875,-1.1835952997207642,0.07684306055307388,1.3387969732284546
1684252444426489900,3.78148974609375,-1.1948214769363403,-0.6617777347564697,0.9936527013778687
1684252444436517000,3.79151708984375,-1.1573907136917114,-1.1963037252426147,0.7103160619735718
1684252444446543000,3.801543212890625,-1.1141611337661743,-1.468115210533142,0.5230895280838013
1684252444456568800,3.81156884765625,-1.0699234008789062,-1.482376217842102,0.42205101251602173
1684252444466594800,3.8215947265625,-1.0497220754623413,-1.3512026071548462,0.360085129737854
1684252444476621800,3.831621826171875,-1.0594159364700317,-1.0884263515472412,0.3274075984954834
1684252444486647800,3.841647705078125,-1.073842167854309,-0.708252489566803,0.31306132674217224
1684252444496673800,3.851673828125,-1.0975327491760254,-0.24362727999687195,0.38145291805267334
1684252444506701000,3.861701171875,-1.071865439414978,0.08615089952945709,1.1644272804260254
1684252444516727000,3.87172705078125,-0.9839007258415222,0.1894245445728302,2.712998390197754
1684252444526753000,3.8817529296875,-0.9365779161453247,0.5329306721687317,3.736625909805298
1684252444536779000,3.891779052734375,-0.8548939824104309,1.3849552869796753,4.036915302276611
1684252444546805800,3.9018056640625,-0.6273759603500366,2.9929137229919434,3.2941246032714844
1684252444556831700,3.911831787109375,-0.3677007257938385,4.447152614593506,1.9070491790771484
1684252444566857700,3.921857666015625,-0.31015482544898987,4.95352840423584,0.674598217010498
1684252444576885000,3.931885009765625,-0.5460139513015747,4.5834245681762695,-0.09928548336029053
1684252444586911000,3.941910888671875,-0.9177522659301758,3.6288928985595703,-0.4789336025714874
1684252444596937000,3.95193701171875,-1.2548956871032715,2.421560287475586,-0.6485561728477478
1684252444606964000,3.9619638671875,-1.4274775981903076,1.4110654592514038,-0.7652536630630493
1684252444616990000,3.971989990234375,-1.4104206562042236,0.8092271089553833,-0.915911853313446
1684252444627016000,3.982015869140625,-1.3611549139022827,0.45631858706474304,-1.1018823385238647
1684252444637042000,3.9920419921875,-1.3224011659622192,0.16161715984344482,-1.282908320426941
1684252444647069000,4.00206884765625,-1.272660255432129,-0.19324062764644623,-1.4140416383743286
1684252444657095000,4.012094970703125,-1.1852854490280151,-0.6232373118400574,-1.532423973083496
1684252444667121000,4.022120849609375,-1.112844705581665,-1.0147784948349,-1.6865911483764648
1684252444677148000,4.03214794921875,-1.1114990711212158,-1.349133849143982,-1.8929762840270996
1684252444687174000,4.042173828125,-1.1898441314697266,-1.7274012565612793,-2.0836992263793945
1684252444697199900,4.052199951171875,-1.3298259973526,-2.1943209171295166,-2.434736490249634
1684252444707225900,4.062225830078125,-1.383399248123169,-2.6512928009033203,-3.4389231204986572
1684252444717252900,4.0722529296875,-1.320767879486084,-2.942359209060669,-4.735904216766357
1684252444727278800,4.08227880859375,-1.2209455966949463,-2.577406406402588,-5.692154407501221
1684252444737304800,4.092304931640625,-0.7092881202697754,-1.1263102293014526,-5.427727222442627
1684252444747331800,4.102331787109375,-0.006957617588341236,0.2880614697933197,-4.6415019035339355
1684252444757357800,4.11235791015625,0.4259487986564636,1.1059645414352417,-4.179821014404297
1684252444767383800,4.1223837890625,0.657864511013031,1.7073251008987427,-3.841698408126831
1684252444777411000,4.1324111328125,0.6466675400733948,1.7548938989639282,-3.7528626918792725
1684252444787437000,4.14243701171875,0.5895513296127319,1.5037896633148193,-3.6471147537231445
1684252444797463000,4.152463134765625,0.6423175930976868,1.0823966264724731,-3.3633131980895996
1684252444807489000,4.162489013671875,0.8343810439109802,0.33085671067237854,-2.9200592041015625
1684252444817515800,4.172515869140625,1.0853549242019653,-0.7422438263893127,-2.431755542755127
1684252444827541800,4.182541748046875,1.3140486478805542,-1.9318640232086182,-1.75685715675354
1684252444837567700,4.192567626953125,1.4633351564407349,-2.7134737968444824,-0.9915865659713745
1684252444847595000,4.202594970703125,1.5620750188827515,-2.6683225631713867,-0.5782880783081055
1684252444857621000,4.21262109375,1.6581411361694336,-1.8228493928909302,-0.5456811785697937
1684252444867647000,4.22264697265625,1.7403802871704102,-0.3706529438495636,-0.7095633745193481
1684252444877674000,4.232674072265625,1.7552361488342285,1.288974404335022,-0.835545539855957
1684252444887700000,4.242699951171875,1.6255139112472534,2.577206611633301,-0.7903384566307068
1684252444897725700,4.2527255859375,1.39205801486969,3.010658025741577,-0.5772903561592102
1684252444907751700,4.262751708984375,1.1107195615768433,2.4268455505371094,-0.3018990457057953
1684252444917779000,4.272779052734375,0.7609237432479858,1.032720923423767,-0.043506380170583725
1684252444927805000,4.282804931640625,0.38728785514831543,-0.30562084913253784,0.09524037688970566
1684252444937831000,4.292830810546875,0.10276291519403458,-0.6016258597373962,0.09716344624757767
1684252444947858000,4.30285791015625,-0.08517379313707352,0.15060631930828094,0.04710405692458153
1684252444957884000,4.3128837890625,-0.12460961937904358,1.3685814142227173,-0.03014332987368107
1684252444967910000,4.322909912109375,0.012249959632754326,2.3891966342926025,-0.10450305044651031
1684252444977936000,4.332935791015625,0.2984848916530609,2.7524850368499756,-0.1961357593536377
1684252444987963000,4.342962890625,0.6930209994316101,2.290116548538208,-0.3867643475532532
1684252444997988900,4.35298876953125,1.1269176006317139,1.3052325248718262,-0.6739053130149841
1684252445008014800,4.363014892578125,1.5333693027496338,0.23437879979610443,-0.8580527901649475
1684252445018041900,4.373041748046875,1.8281950950622559,-0.589169979095459,-0.7236156463623047
1684252445028067800,4.38306787109375,1.938265323638916,-0.9899534583091736,-0.28331616520881653
1684252445038093800,4.39309375,1.90613853931427,-0.8705487847328186,0.19752931594848633
1684252445048121000,4.40312109375,1.809636116027832,-0.20353230834007263,0.42991724610328674
1684252445058147000,4.41314697265625,1.7181251049041748,0.5971459746360779,0.4442559778690338
1684252445068173000,4.423173095703125,1.6728994846343994,1.044693112373352,0.40831100940704346
1684252445078198800,4.43319873046875,1.6453763246536255,0.9562715888023376,0.41158589720726013
1684252445088225800,4.443225830078125,1.6071093082427979,0.5040685534477234,0.5190510749816895
1684252445098251800,4.453251708984375,1.5128884315490723,-0.12593740224838257,0.719624936580658
1684252445108277800,4.46327783203125,1.3527541160583496,-0.764200747013092,0.9849551916122437
1684252445118305000,4.473304931640625,1.1721187829971313,-1.1934778690338135,1.3204210996627808
1684252445128331000,4.4833310546875,1.0034313201904297,-1.2783485651016235,1.7405451536178589
1684252445138357000,4.49335693359375,0.8450837731361389,-1.1022968292236328,2.1385812759399414
1684252445148383000,4.503383056640625,0.6784456372261047,-0.8675670623779297,2.4356236457824707
1684252445158409700,4.51340966796875,0.48932790756225586,-0.5938324332237244,2.6390368938446045
1684252445168435700,4.523435791015625,0.2979642450809479,-0.29386353492736816,2.8076703548431396
1684252445178461700,4.533461669921875,0.08577584475278854,-0.02694663032889366,2.972710609436035
1684252445188489000,4.543489013671875,-0.1416693776845932,0.1578969806432724,3.1409223079681396
1684252445198515000,4.553514892578125,-0.3669211268424988,0.23925495147705078,3.3025107383728027
1684252445208541000,4.563541015625,-0.6041321158409119,0.23610417544841766,3.4642889499664307
1684252445218568000,4.57356787109375,-0.8779814839363098,0.19795411825180054,3.609431505203247
1684252445228594000,4.583593994140625,-1.1952728033065796,0.11953539401292801,3.7407774925231934
1684252445238620200,4.5936201171875,-1.532822608947754,-0.024120837450027466,3.826402187347412
1684252445248646100,4.603646240234375,-1.854341745376587,-0.290029913187027,3.8602490425109863
1684252445258673000,4.6136728515625,-2.1063151359558105,-0.6274428367614746,3.8307273387908936
1684252445268699000,4.623698974609375,-2.246248245239258,-0.9999061822891235,3.806084394454956
1684252445278724900,4.633724853515625,-2.125087022781372,-1.0373374223709106,3.724881649017334
1684252445288751900,4.643751953125,-1.5971075296401978,-0.9641883373260498,3.6454288959503174
1684252445298777900,4.65377783203125,-0.8282046914100647,0.06241174414753914,3.206922769546509
1684252445308804000,4.66380419921875,1.1083917617797852,-8.78178882598877,-1.4135583639144897
1684252445318830000,4.673830078125,2.2464005947113037,-11.395421981811523,0.20949499309062958
1684252445328856800,4.68385693359375,2.9472548961639404,-7.2204084396362305,0.4293249249458313
1684252445338882800,4.6938828125,1.456774115562439,-1.1262128353118896,-4.036822319030762
1684252445348908800,4.70390869140625,0.5503814816474915,6.21095085144043,-3.7659502029418945
1684252445358935800,4.713935791015625,0.4141615927219391,8.338619232177734,-2.166541337966919
1684252445368962000,4.723962158203125,0.029294660314917564,8.553454399108887,-2.478485107421875
1684252445378988000,4.733988037109375,-0.455962598323822,8.010161399841309,-3.1554391384124756
1684252445389015000,4.74401513671875,-1.0334159135818481,6.4116291999816895,-3.521911382675171
1684252445399041000,4.754041015625,-1.8110699653625488,3.618591547012329,-3.630686044692993
1684252445409067000,4.76406689453125,-2.509943723678589,0.6536848545074463,-3.5551421642303467
1684252445419093000,4.774093017578125,-2.8629589080810547,-1.4101272821426392,-3.24179744720459
1684252445429119700,4.78411962890625,-2.8214123249053955,-2.354182720184326,-2.57415771484375
1684252445439146000,4.79414599609375,-2.430288791656494,-2.310563087463379,-1.6645503044128418
1684252445449172000,4.804171875,-1.8214975595474243,-1.451741337776184,-0.3728775084018707
1684252445459199000,4.814198974609375,-1.1454716920852661,-0.6814371943473816,0.8839589953422546
1684252445469225000,4.824224853515625,-0.5375899076461792,-0.0589689202606678,1.8912454843521118
1684252445479251000,4.8342509765625,-0.0890725627541542,0.4702001214027405,2.582242012023926
1684252445489277000,4.84427685546875,0.25561317801475525,1.118630051612854,3.008326530456543
1684252445499304000,4.854303955078125,0.5164391398429871,1.938576579093933,3.2076363563537598
1684252445509330000,4.864329833984375,0.7178966403007507,2.7448480129241943,3.2810778617858887
1684252445519356000,4.87435595703125,0.825624942779541,3.302133321762085,3.3534891605377197
1684252445529383000,4.8843828125,0.834255576133728,3.456667423248291,3.545036554336548
1684252445539409000,4.894408935546875,0.5369150042533875,1.6302396059036255,4.65194845199585
1684252445549435000,4.904434814453125,0.03367982432246208,-1.7380762100219727,6.231445789337158
1684252445559462000,4.9144619140625,-0.1319701224565506,-3.373164415359497,6.798227310180664
1684252445569488100,4.924488037109375,-0.15127705037593842,-3.8672714233398438,6.62491512298584
1684252445579514000,4.93451416015625,-0.35519957542419434,-5.240121841430664,5.408008098602295
1684252445589540000,4.9445400390625,-0.7766172885894775,-6.376725673675537,2.663086175918579
1684252445599566800,4.95456689453125,-0.9222168326377869,-5.581809043884277,0.026890451088547707
1684252445609592800,4.9645927734375,-0.5482246279716492,-3.9336965084075928,-1.7824281454086304
1684252445619618800,4.974618896484375,0.19920514523983002,-2.3945982456207275,-2.482858180999756
1684252445629645800,4.984645751953125,1.0395140647888184,-1.4373525381088257,-2.1866185665130615
1684252445639672000,4.994672119140625,1.7447364330291748,-0.8081264495849609,-1.4264163970947266
1684252445649698000,5.004697998046875,2.1618998050689697,-0.38156524300575256,-0.6428818106651306
1684252445659725000,5.01472509765625,2.2131903171539307,-0.14214707911014557,-0.02173786424100399
1684252445669751000,5.0247509765625,1.9886888265609741,0.032896287739276886,0.3563007712364197
1684252445679777000,5.034777099609375,1.6050180196762085,0.1616169810295105,0.5631484389305115
1684252445689803000,5.044802978515625,1.1591904163360596,0.21733279526233673,0.6898170113563538
1684252445699829800,5.054829833984375,0.7238895893096924,0.13588933646678925,0.785304605960846
1684252445709856000,5.06485595703125,0.36879634857177734,-0.03125056251883507,0.8753575086593628
1684252445719882000,5.074882080078125,0.13688401877880096,-0.2176222950220108,0.9578837752342224
1684252445729909000,5.084908935546875,0.02398018166422844,-0.3457413911819458,1.0548067092895508
1684252445739935000,5.09493505859375,-0.0068895816802978516,-0.3566012382507324,1.1674007177352905
1684252445749961000,5.1049609375,0.008514469489455223,-0.25577566027641296,1.303903341293335
1684252445759987000,5.114987060546875,0.04249374195933342,0.013244644738733768,1.4457066059112549
1684252445770014000,5.125013916015625,0.04404871538281441,0.49657028913497925,1.4923138618469238
1684252445780040000,5.1350400390625,-0.03122207149863243,0.935326874256134,1.423482894897461
1684252445790066000,5.14506591796875,-0.16292405128479004,1.085242748260498,1.3487093448638916
1684252445800093000,5.155093017578125,-0.3045634925365448,0.9306619763374329,1.319307804107666
1684252445810119000,5.165118896484375,-0.4156019389629364,0.502531886100769,1.3449153900146484
1684252445820145000,5.175144775390625,-0.509951651096344,-0.03609698638319969,1.3794571161270142
1684252445830172000,5.185171875,-0.555726170539856,-0.4350440204143524,1.3515797853469849
1684252445840198100,5.1951982421875,-0.5519279837608337,-0.6214780807495117,1.2577412128448486
1684252445850224000,5.20522412109375,-0.5313690900802612,-0.641810953617096,1.1457428932189941
1684252445860250000,5.21525,-0.5132111310958862,-0.5450761914253235,1.0642848014831543
1684252445870276900,5.22527685546875,-0.4982122778892517,-0.3688744008541107,0.9994001388549805
1684252445880302800,5.235302734375,-0.502464771270752,-0.18304835259914398,0.8755399584770203
1684252445890328800,5.245328857421875,-0.513856828212738,-0.07367347925901413,0.6111153364181519
1684252445900356000,5.255356201171875,-0.45292291045188904,-0.14970433712005615,0.19079795479774475
1684252445910382000,5.265382080078125,-0.26304036378860474,-0.33342453837394714,-0.2933600842952728
1684252445920408000,5.275407958984375,-0.015533366240561008,-0.5460907220840454,-0.7291778922080994
1684252445930434000,5.28543408203125,0.2371419370174408,-0.8551792502403259,-1.0036107301712036
1684252445940460800,5.295460693359375,0.44651806354522705,-1.4042778015136719,-0.9974397420883179
1684252445950486800,5.30548681640625,0.5996919274330139,-2.117230176925659,-0.7731887698173523
1684252445960512800,5.3155126953125,0.7095987200737,-2.4143030643463135,-0.7071298360824585
1684252445970540000,5.3255400390625,0.8635991215705872,-2.0490009784698486,-0.9288288950920105
1684252445980566000,5.33556591796875,1.1092305183410645,-1.1639817953109741,-1.3614625930786133
1684252445990592000,5.345592041015625,1.4077240228652954,-0.13022258877754211,-1.8306283950805664
1684252446000619000,5.355618896484375,1.7295430898666382,0.7926878929138184,-2.0992543697357178
1684252446010645000,5.36564501953125,1.9604520797729492,1.3025577068328857,-2.0173661708831787
1684252446020671000,5.3756708984375,2.052098035812378,1.1378859281539917,-1.6060301065444946
1684252446030697000,5.385697021484375,2.1003077030181885,0.600074291229248,-1.1708711385726929
1684252446040724000,5.395723876953125,2.1320528984069824,0.11294913291931152,-0.9028719067573547
1684252446050750000,5.40575,2.174022912979126,-0.24399584531784058,-0.7862783074378967
1684252446060776000,5.41577587890625,2.2565293312072754,-0.581079363822937,-0.6253842711448669
1684252446070803000,5.425802978515625,2.2214887142181396,-1.0519534349441528,-0.7166976928710938
1684252446080829000,5.435828857421875,1.4793479442596436,0.3309602737426758,-2.5925445556640625
1684252446090855000,5.44585498046875,0.8043767809867859,1.3306938409805298,-3.5513079166412354
1684252446100882200,5.455882080078125,0.38243192434310913,1.2218091487884521,-3.4303829669952393
1684252446110908000,5.465907958984375,0.05682177096605301,0.30781832337379456,-3.050374984741211
1684252446120934000,5.475933837890625,-0.12414748221635818,-0.560302197933197,-2.809180736541748
1684252446130960000,5.4859599609375,-0.11957290768623352,-1.2359824180603027,-2.621384620666504
1684252446140987000,5.49598681640625,0.09179393202066422,-1.62308669090271,-2.491729259490967
1684252446151012900,5.506012939453125,0.32847508788108826,-1.79514479637146,-2.358116865158081
1684252446161038800,5.516038818359375,0.39251452684402466,-1.7910020351409912,-2.177027463912964
1684252446171066000,5.526066162109375,0.31508868932724,-1.4706125259399414,-2.0431416034698486
1684252446181092000,5.536092041015625,0.04780746251344681,-0.15042337775230408,-2.1121065616607666
1684252446191118000,5.5461181640625,-0.5041297674179077,3.335057020187378,-2.729630470275879
1684252446201144000,5.55614404296875,-1.0037510395050049,5.325800895690918,-2.9681642055511475
1684252446211171300,5.56617138671875,-1.4132529497146606,5.675848960876465,-2.8203353881835938
1684252446221197300,5.576197265625,-1.7106153964996338,5.663816452026367,-2.716594934463501
1684252446231223300,5.586223388671875,-1.8453463315963745,5.699949741363525,-2.889031171798706
1684252446241250300,5.596250244140625,-1.7809937000274658,5.109009742736816,-3.354800224304199
1684252446251276500,5.606276611328125,-1.4556539058685303,3.2473206520080566,-3.5181543827056885
1684252446261302500,5.616302490234375,-0.8582698702812195,0.36364874243736267,-3.1443569660186768
1684252446271329300,5.626329345703125,-0.09586024284362793,-2.3696088790893555,-2.5025577545166016
1684252446281355300,5.636355224609375,0.5899681448936462,-3.9587113857269287,-1.7803460359573364
1684252446291381200,5.64638134765625,1.1577062606811523,-4.445831298828125,-1.1039321422576904
1684252446301407200,5.6564072265625,1.5907140970230103,-4.132369518280029,-0.6000645160675049
1684252446311434500,5.6664345703125,1.940847635269165,-3.3586957454681396,-0.14514975249767303
1684252446321460500,5.67646044921875,2.1730844974517822,-2.4048783779144287,0.26021692156791687
1684252446331486500,5.686486572265625,2.2989649772644043,-1.5283161401748657,0.42530572414398193
1684252446341513500,5.696513427734375,2.3650057315826416,-0.8014769554138184,0.3389900028705597
1684252446351539500,5.70653955078125,2.4142820835113525,-0.1772727519273758,0.09343385696411133
1684252446361565400,5.7165654296875,2.412912130355835,0.3291662037372589,-0.19694525003433228
1684252446371592200,5.72659228515625,2.327397584915161,0.713094174861908,-0.45868945121765137
1684252446381618400,5.736618408203125,2.137415647506714,0.9936770796775818,-0.6950660943984985
1684252446391644400,5.74664453125,1.8761111497879028,1.0932854413986206,-0.8739715814590454
1684252446401670400,5.75667041015625,1.5627673864364624,1.0459121465682983,-1.0176421403884888
1684252446411697400,5.766697509765625,1.2470641136169434,0.8575037121772766,-1.1112669706344604
1684252446421723400,5.776723388671875,0.9569143056869507,0.5733801126480103,-1.1382511854171753
1684252446431749400,5.786749267578125,0.70954829454422,0.2003270834684372,-1.105512022972107
1684252446441776400,5.7967763671875,0.47998300194740295,-0.3389057517051697,-0.9771808981895447
1684252446451802400,5.80680224609375,0.202180877327919,-1.2674345970153809,-0.5471172332763672
1684252446461828400,5.816828369140625,-0.18076065182685852,-2.7172062397003174,0.3619368374347687
1684252446471854300,5.826854248046875,-0.6665077805519104,-3.9450254440307617,1.3571007251739502
1684252446481881300,5.83688134765625,-1.1948754787445068,-4.684638023376465,2.108091354370117
1684252446491907300,5.8469072265625,-1.7301291227340698,-4.893411159515381,2.530304431915283
1684252446501933300,5.856933349609375,-2.216907024383545,-4.711497783660889,2.629082441329956
1684252446511960600,5.866960693359375,-2.6187996864318848,-4.062201023101807,2.18656587600708
1684252446521986600,5.876986572265625,-2.7523090839385986,-2.183850049972534,0.620169460773468
1684252446532012500,5.887012451171875,-2.7921714782714844,2.9134252071380615,-3.3716607093811035
1684252446542039300,5.897039306640625,-2.882803201675415,4.4217071533203125,-5.658614158630371
1684252446552065300,5.907065185546875,-1.8513983488082886,-2.4541542530059814,-1.2351762056350708
1684252446562091300,5.91709130859375,-1.0113215446472168,-1.692254900932312,1.2260292768478394
1684252446572117200,5.9271171875,-1.1123437881469727,1.835662841796875,2.4202282428741455
1684252446582144500,5.93714453125,-1.4650534391403198,4.004780292510986,2.7911949157714844
1684252446592170500,5.94717041015625,-1.7604639530181885,4.285027503967285,2.3090195655822754
1684252446602196500,5.957196533203125,-1.9762465953826904,4.001132488250732,1.5711700916290283
1684252446612223500,5.967223388671875,-2.047996997833252,3.910886764526367,0.943691611289978
1684252446622249500,5.97724951171875,-1.9472991228103638,3.8251969814300537,0.4665535092353821
1684252446632275500,5.987275390625,-1.7466397285461426,3.6624765396118164,0.1566535085439682
1684252446642302500,5.997302490234375,-1.5166946649551392,1.7302926778793335,-0.00842225831001997
1684252446652328400,6.007328369140625,-1.1603764295578003,-2.6042134761810303,-0.1108349859714508
1684252446662354400,6.0173544921875,-0.5872740149497986,-4.119609832763672,-0.1648193895816803
1684252446672380400,6.02738037109375,-0.0015912679955363274,-3.4856607913970947,-0.139961376786232
1684252446682407400,6.037407470703125,0.4686627984046936,-2.5650734901428223,-0.1005396693944931
1684252446692433400,6.047433349609375,0.7420037984848022,-2.3541817665100098,0.04484783113002777
1684252446702459400,6.05745947265625,0.721386194229126,-3.484499931335449,0.5061057209968567
1684252446712486400,6.067486328125,0.4471646249294281,-4.678330421447754,1.0729072093963623
1684252446722512400,6.077512451171875,0.09614669531583786,-5.172970294952393,1.5148178339004517
1684252446732538400,6.087538330078125,-0.25833919644355774,-5.0301408767700195,1.7706729173660278
1684252446742564400,6.097564453125,-0.5185913443565369,-4.213573455810547,1.7536388635635376
1684252446752591400,6.10759130859375,-0.6592647433280945,-2.514930486679077,1.4110381603240967
1684252446762617300,6.117617431640625,-0.6790173649787903,-0.12702111899852753,0.7885515093803406
1684252446772643300,6.127643310546875,-0.6338740587234497,2.2961931228637695,0.18081128597259521
1684252446782670600,6.137670654296875,-0.569290280342102,4.064011573791504,-0.09191903471946716
1684252446792696600,6.147696533203125,-0.5046500563621521,5.065483093261719,0.005244173109531403
1684252446802722600,6.15772265625,-0.474882572889328,5.501750469207764,0.3502734899520874
1684252446812749300,6.167749267578125,-0.46328994631767273,5.498330116271973,0.8365167379379272
1684252446822775300,6.177775390625,-0.43296825885772705,5.220745086669922,1.3350138664245605
1684252446832801300,6.18780126953125,-0.357494056224823,4.794839859008789,1.7667782306671143
1684252446842827300,6.1978271484375,-0.2464974820613861,4.324683666229248,2.0866470336914062
1684252446852854500,6.2078544921875,-0.1362057477235794,3.8765881061553955,2.2548561096191406
1684252446862880500,6.217880615234375,-0.06460559368133545,3.404125452041626,2.2683041095733643
1684252446872906500,6.227906494140625,-0.057079583406448364,2.942763328552246,2.1628310680389404
1684252446882933500,6.23793359375,-0.08738768100738525,2.4726412296295166,1.9708369970321655
1684252446892959200,6.247959228515625,-0.15315477550029755,2.039642095565796,1.7110850811004639
1684252446902985200,6.257985107421875,-0.21777451038360596,1.7074062824249268,1.4351835250854492
1684252446913011200,6.26801123046875,-0.2328680157661438,1.4258571863174438,1.1916440725326538
1684252446923038500,6.27803857421875,-0.18717749416828156,1.257237195968628,0.9902293682098389
1684252446933064400,6.288064453125,-0.1113649234175682,1.1763477325439453,0.8576720952987671
1684252446943090400,6.29809033203125,-0.022485917434096336,1.155712604522705,0.7711849212646484
1684252446953117400,6.308117431640625,0.04576237499713898,1.2285441160202026,0.6905611753463745
1684252446963143400,6.318143310546875,0.10011616349220276,1.3921482563018799,0.5885785818099976
1684252446973169400,6.32816943359375,0.16851405799388885,1.604105830192566,0.4668053388595581
1684252446983196400,6.338196533203125,0.26054492592811584,1.8373483419418335,0.3437012732028961
1684252446993222400,6.348222412109375,0.3506576120853424,2.031026601791382,0.2320142537355423
1684252447003248400,6.358248291015625,0.41374924778938293,2.1744253635406494,0.13414308428764343
1684252447013274400,6.3682744140625,0.4410743713378906,2.295900821685791,0.037620484828948975
1684252447023301400,6.37830126953125,0.4438512325286865,2.444387197494507,-0.09079314768314362
1684252447033327400,6.388327392578125,0.43414759635925293,2.682229518890381,-0.24713577330112457
1684252447043353300,6.398353271484375,0.40806886553764343,3.003577709197998,-0.43958964943885803
1684252447053380600,6.408380615234375,0.4223502576351166,3.4009199142456055,-0.6410610675811768
1684252447063406600,6.418406494140625,0.5313308238983154,3.8009915351867676,-0.8103254437446594
1684252447073432300,6.428432373046875,0.6972305178642273,4.062807559967041,-0.9023788571357727
1684252447083458300,6.438458251953125,0.8812256455421448,4.07711935043335,-0.9073576331138611
1684252447093485300,6.4484853515625,1.0519157648086548,3.876723527908325,-0.8541922569274902
1684252447103511300,6.45851123046875,1.196109652519226,3.5967864990234375,-0.807961106300354
1684252447113537300,6.468537353515625,1.3120614290237427,3.358386278152466,-0.8074162602424622
1684252447123564500,6.478564453125,1.3967111110687256,3.183274984359741,-0.8410331010818481
1684252447133590500,6.488590576171875,1.4442503452301025,2.9849605560302734,-0.8990055322647095
1684252447143616500,6.498616455078125,1.4481306076049805,2.697112560272217,-0.9268947243690491
1684252447153643300,6.508643310546875,1.4098107814788818,2.3580873012542725,-0.9030634760856628
1684252447163669200,6.518669189453125,1.3471649885177612,1.9843964576721191,-0.8038777709007263
1684252447173695200,6.5286953125,1.3171753883361816,1.6481611728668213,-0.6259469389915466
1684252447183722500,6.538722412109375,1.3179333209991455,1.3862580060958862,-0.33640700578689575
1684252447193748500,6.54874853515625,1.3276640176773071,1.1514328718185425,0.06601409614086151
1684252447203774500,6.5587744140625,1.3349642753601074,0.9979214072227478,0.5093801021575928
1684252447213800400,6.568800537109375,1.3222984075546265,0.9718460440635681,0.9227967858314514
1684252447223827500,6.578827392578125,1.2952539920806885,1.3985273838043213,0.896837592124939
1684252447233853400,6.588853515625,1.3026751279830933,2.253894329071045,0.37780842185020447
1684252447243879400,6.59887939453125,1.3352229595184326,2.9791529178619385,-0.21482641994953156
1684252447253906400,6.608906494140625,1.3286638259887695,3.3975095748901367,-0.6455183029174805
1684252447263932400,6.618932373046875,1.3249460458755493,3.575035572052002,-0.8247719407081604
1684252447273958400,6.62895849609375,1.3570835590362549,3.5594558715820312,-0.7200352549552917
1684252447283984400,6.638984375,1.4259731769561768,3.354790449142456,-0.33874061703681946
1684252447294011400,6.649011474609375,1.5135571956634521,3.137526035308838,0.21116425096988678
1684252447304037400,6.659037353515625,1.6160911321640015,2.995009183883667,0.7845274209976196
1684252447314063400,6.6690634765625,1.6664626598358154,2.967909574508667,1.2692407369613647
1684252447324090400,6.67909033203125,1.6774204969406128,3.12504506111145,1.617121696472168
1684252447334116400,6.689116455078125,1.6631815433502197,3.46285343170166,1.865639567375183
1684252447344142300,6.699142333984375,1.5963726043701172,3.7548928260803223,2.026733875274658
1684252447354169300,6.70916943359375,1.4803096055984497,3.854044198989868,2.1368327140808105
1684252447364195300,6.7191953125,1.329061508178711,3.7050857543945312,2.2571587562561035
1684252447374221300,6.72922119140625,1.1892014741897583,3.3973498344421387,2.4000558853149414
1684252447384247300,6.739247314453125,1.1005901098251343,3.0779080390930176,2.5408129692077637
1684252447394274600,6.749274658203125,1.0618760585784912,2.9044721126556396,2.6246304512023926
1684252447404300500,6.759300537109375,1.0697497129440308,2.9308834075927734,2.642658233642578
1684252447414326500,6.769326416015625,1.062040090560913,3.135622501373291,2.596623659133911
1684252447424353300,6.779353271484375,1.011601209640503,3.4084529876708984,2.498246431350708
1684252447434379300,6.789379150390625,0.9395427703857422,3.6556429862976074,2.3821141719818115
1684252447444405200,6.7994052734375,0.8732103705406189,3.8441877365112305,2.272854804992676
1684252447454432500,6.8094326171875,0.8231508135795593,3.9557628631591797,2.205535411834717
1684252447464458500,6.81945849609375,0.8050251007080078,4.013578414916992,2.1702847480773926
1684252447474484500,6.829484375,0.8288031816482544,4.045587062835693,2.1552648544311523
1684252447484510500,6.839510498046875,0.8777430057525635,4.075916290283203,2.1632602214813232
1684252447494537500,6.849537353515625,0.9390579462051392,3.998859405517578,2.198554515838623
1684252447504563500,6.8595634765625,0.9913550019264221,3.7856202125549316,2.2321393489837646
1684252447514589200,6.869589111328125,1.0039472579956055,3.4711012840270996,2.252636194229126
1684252447524616400,6.879616455078125,0.9509835839271545,3.1091108322143555,2.2583770751953125
1684252447534642400,6.889642333984375,0.8310893177986145,2.720902442932129,2.2656683921813965
1684252447544668400,6.89966845703125,0.6356537342071533,2.1446149349212646,2.3822758197784424
1684252447554694400,6.9096943359375,0.32263991236686707,1.3992124795913696,2.6120755672454834
1684252447564721400,6.919721435546875,-0.10892880707979202,0.6183443069458008,2.906419277191162
1684252447574747400,6.929747314453125,-0.604499101638794,-0.05578671023249626,3.1404800415039062
1684252447584773400,6.9397734375,-1.1239835023880005,-0.49233314394950867,3.20224666595459
1684252447594800400,6.94980029296875,-1.6158647537231445,-0.5746740102767944,3.0973563194274902
1684252447604826400,6.959826416015625,-1.851623773574829,3.0033984184265137,3.624185800552368
1684252447614852400,6.969852294921875,-1.8838963508605957,6.103703498840332,3.9058611392974854
1684252447624879400,6.97987939453125,-1.8053584098815918,6.799920082092285,3.540168285369873
1684252447634905300,6.9899052734375,-1.7434988021850586,6.094005107879639,2.862492561340332
1684252447644931300,6.999931396484375,-1.6291359663009644,5.158143043518066,2.1495862007141113
1684252447654957300,7.009957275390625,-1.4107987880706787,4.424675464630127,1.5142996311187744
1684252447664984600,7.019984619140625,-1.1429191827774048,3.981107234954834,1.0087933540344238
1684252447675010600,7.030010498046875,-0.8883945941925049,3.7272047996520996,0.6394274234771729
1684252447685036500,7.04003662109375,-0.6686843037605286,3.563081741333008,0.39729493856430054
1684252447695063300,7.050063232421875,-0.5327385067939758,3.5680339336395264,0.5501613020896912
1684252447705089300,7.06008935546875,-0.5587146878242493,3.9298529624938965,1.6314321756362915
1684252447715115300,7.070115234375,-0.6012328863143921,4.050230503082275,3.0317530632019043
1684252447725141200,7.080141357421875,-0.46593576669692993,3.7750723361968994,3.7027719020843506
1684252447735168500,7.09016845703125,-0.23041850328445435,3.3990349769592285,3.710721731185913
1684252447745194500,7.100194580078125,-0.03482610359787941,3.049142360687256,3.2659435272216797
1684252447755220500,7.110220458984375,0.07371686398983002,2.8194103240966797,2.4970016479492188
1684252447765247200,7.120247314453125,0.08106105774641037,2.7420260906219482,1.5723663568496704
1684252447775273200,7.130273193359375,-0.026606379076838493,2.743957042694092,0.7071949243545532
1684252447785299200,7.14029931640625,-0.19404757022857666,2.687295436859131,0.13640496134757996
1684252447795326500,7.150326416015625,-0.3964405655860901,2.427683115005493,-0.07255789637565613
1684252447805352400,7.1603525390625,-0.5725570321083069,1.9994099140167236,0.025489043444395065
1684252447815378400,7.17037841796875,-0.6316482424736023,1.6905152797698975,0.21737529337406158
1684252447825404400,7.180404296875,-0.6088545322418213,1.5566248893737793,0.30746734142303467
1684252447835431400,7.190431396484375,-0.6569432020187378,1.4034898281097412,0.19069904088974
1684252447845457400,7.20045751953125,-0.7572128772735596,1.1825321912765503,-0.08753683418035507
1684252447855483400,7.2104833984375,-0.7478501200675964,1.005671739578247,-0.45798298716545105
1684252447865510400,7.220510498046875,-0.5861451029777527,0.922807514667511,-0.8467565178871155
1684252447875536400,7.230536376953125,-0.32691651582717896,0.96943598985672,-1.195870280265808
1684252447885562400,7.240562255859375,-0.025267979130148888,1.0540473461151123,-1.4741489887237549
1684252447895589400,7.25058935546875,0.2544604539871216,1.0470528602600098,-1.6500070095062256
1684252447905615400,7.260615478515625,0.47144922614097595,0.852105438709259,-1.6989893913269043
1684252447915641300,7.270641357421875,0.6277717351913452,0.5227729678153992,-1.605563759803772
1684252447925667300,7.280667236328125,0.7233733534812927,0.07588654011487961,-1.3767590522766113
1684252447935694300,7.2906943359375,0.7440462708473206,-0.4108539819717407,-1.0053040981292725
1684252447945720300,7.30072021484375,0.7274206876754761,-0.7975210547447205,-0.5688687562942505
1684252447955746300,7.310746337890625,0.6879740953445435,-1.0046565532684326,-0.13304269313812256
1684252447965773300,7.320773193359375,0.6377740502357483,-0.9932952523231506,0.250481516122818
1684252447975799300,7.33079931640625,0.5822489857673645,-0.7756669521331787,0.5708807706832886
1684252447985825300,7.3408251953125,0.5352423191070557,-0.36538591980934143,0.842827558517456
1684252447995851300,7.350851318359375,0.4946097731590271,0.20560182631015778,1.0734447240829468
1684252448005878500,7.36087841796875,0.468060702085495,0.8771607875823975,1.2709261178970337
1684252448015904500,7.370904541015625,0.4373838007450104,1.5778523683547974,1.4329619407653809
1684252448025930500,7.380930419921875,0.40519362688064575,2.481354236602783,1.5324113368988037
1684252448035957200,7.390957275390625,0.33874523639678955,4.107604026794434,1.3624966144561768
1684252448045983200,7.400983154296875,0.241390198469162,5.469607830047607,0.8137887120246887
1684252448056009200,7.41100927734375,0.06617724895477295,6.090700626373291,0.0675274059176445
1684252448066036500,7.421036376953125,-0.17015990614891052,5.9938483238220215,-0.7736490964889526
1684252448076062500,7.4310625,-0.4094967842102051,5.306953430175781,-1.616613507270813
1684252448086088400,7.44108837890625,-0.5989271998405457,4.128082275390625,-2.317823886871338
1684252448096114400,7.451114501953125,-0.7152280211448669,2.6748766899108887,-2.7421889305114746
1684252448106141400,7.461141357421875,-0.7320592403411865,1.2120383977890015,-2.8696744441986084
1684252448116167400,7.47116748046875,-0.63620525598526,0.021766580641269684,-2.7820472717285156
1684252448126193400,7.481193359375,-0.4754728674888611,-0.7545456886291504,-2.6240603923797607
1684252448136220400,7.491220458984375,-0.3020147681236267,-0.9435648918151855,-2.5741891860961914
1684252448146246400,7.501246337890625,-0.17332205176353455,-0.4115443825721741,-2.771221399307251
1684252448156272400,7.5112724609375,-0.13036097586154938,0.4361151456832886,-3.1057331562042236
1684252448166299400,7.52129931640625,-0.21898138523101807,0.9670937657356262,-3.3000073432922363
1684252448176325400,7.531325439453125,-0.3839721381664276,1.0029408931732178,-3.239455223083496
1684252448186351400,7.541351318359375,-0.5243556499481201,0.6161839962005615,-2.9400901794433594
1684252448196377300,7.55137744140625,-0.5937454700469971,-0.03367847949266434,-2.507977247238159
1684252448206404400,7.561404296875,-0.5154328346252441,-0.4870148003101349,-1.9199488162994385
1684252448216430300,7.571430419921875,-0.35483935475349426,-0.5696657299995422,-1.1926403045654297
1684252448226456300,7.581456298828125,-0.15201488137245178,-0.32620036602020264,-0.4222273528575897
1684252448236483600,7.591483642578125,0.05952014401555061,0.10180211067199707,0.13987389206886292
1684252448246509600,7.601509521484375,0.38261350989341736,0.6139319539070129,0.06018359214067459
1684252448256535600,7.61153564453125,0.8149152398109436,1.0651723146438599,-0.5798002481460571
1684252448266562600,7.6215625,1.272679090499878,1.2760859727859497,-1.3428409099578857
1684252448276588500,7.631588623046875,1.689298391342163,1.193044900894165,-1.9135361909866333
1684252448286614500,7.641614501953125,1.9259471893310547,0.8323495388031006,-2.1588168144226074
1684252448296640500,7.651640625,1.914584994316101,0.450992614030838,-2.098600387573242
1684252448306667500,7.66166748046875,1.67241370677948,0.28543561697006226,-1.8537726402282715
1684252448316693500,7.671693603515625,1.337118148803711,0.4200219213962555,-1.4897754192352295
1684252448326719500,7.681719482421875,0.9972982406616211,0.7212331295013428,-0.9970093965530396
1684252448336746500,7.69174658203125,0.7053200006484985,0.9044999480247498,-0.4734821617603302
1684252448346772500,7.7017724609375,0.5139654874801636,0.8503201007843018,-0.026460181921720505
1684252448356798500,7.711798583984375,0.3959278166294098,0.5885807871818542,0.29628288745880127
1684252448366824700,7.72182470703125,0.3409167528152466,0.22063370048999786,0.49499064683914185
1684252448376851500,7.7318515625,0.3364331126213074,-0.14651013910770416,0.6388000249862671
1684252448386877400,7.74187744140625,0.3599136769771576,-0.4705526530742645,0.753049373626709
1684252448396903400,7.7519033203125,0.389161080121994,-0.7192177176475525,0.8675198554992676
1684252448406930400,7.761930419921875,0.398099422454834,-0.8842735290527344,1.0091955661773682
1684252448416956400,7.771956298828125,0.35534438490867615,-1.0017445087432861,1.1940778493881226
1684252448426982400,7.781982421875,0.2291044294834137,-1.160203218460083,1.405031681060791
1684252448437009700,7.792009765625,0.03897213935852051,-1.3520433902740479,1.624497890472412
1684252448447035600,7.80203564453125,-0.20964886248111725,-1.5545858144760132,1.8387316465377808
1684252448457061600,7.8120615234375,-0.513008713722229,-1.7354830503463745,2.04131817817688
1684252448467087600,7.822087646484375,-0.8676717281341553,-1.8858832120895386,2.2881555557250977
1684252448477114400,7.8321142578125,-1.2675063610076904,-1.9838128089904785,2.601461887359619
1684252448487140400,7.842140380859375,-1.7053388357162476,-1.9690916538238525,2.958469867706299
1684252448497166600,7.85216650390625,-2.1715571880340576,-1.8667609691619873,3.3094542026519775
1684252448507193600,7.862193603515625,-2.563222646713257,-1.6217317581176758,3.558110237121582
1684252448517219600,7.872219482421875,-2.770885467529297,-1.3824948072433472,3.6157071590423584
1684252448527245600,7.88224560546875,-2.7029378414154053,-1.0836039781570435,3.464242458343506
1684252448537271600,7.892271484375,-2.3133299350738525,-0.642566442489624,3.1194210052490234
1684252448547298300,7.90229833984375,-1.5679290294647217,-0.5786833167076111,2.4700562953948975
1684252448557324300,7.91232421875,-0.6673418283462524,-1.3516777753829956,1.3879138231277466
1684252448567350500,7.9223505859375,0.5050629377365112,-2.4595916271209717,-0.17832550406455994
1684252448577377500,7.93237744140625,1.314679503440857,-3.516310930252075,-0.6549461483955383
1684252448587403500,7.942403564453125,1.59043550491333,-3.917151927947998,-0.7044069170951843
1684252448597429500,7.952429443359375,1.5279368162155151,-3.1475229263305664,-0.7012781500816345
1684252448607456500,7.96245654296875,1.0596375465393066,-2.2280125617980957,-0.7495394349098206
1684252448617482500,7.972482421875,0.5003347992897034,-1.7386146783828735,-0.7877172231674194
1684252448627508500,7.982508544921875,0.04235363379120827,-1.4777580499649048,-0.16698341071605682
1684252448637534700,7.99253466796875,-0.25881507992744446,-0.731855571269989,0.5926238894462585
1684252448647561500,8.0025615234375,-0.4922794997692108,0.026000473648309708,0.8899855613708496
1684252448657587500,8.01258740234375,-0.7316524982452393,0.585995078086853,0.8242286443710327
1684252448667613400,8.022613525390625,-1.030592918395996,1.0559684038162231,0.5324028730392456
1684252448677640400,8.032640380859375,-1.3617397546768188,1.512386679649353,0.17391738295555115
1684252448687666400,8.04266650390625,-1.6240079402923584,2.000857353210449,-0.13942162692546844
1684252448697692700,8.052692626953124,-1.762040615081787,2.4815473556518555,-0.3352946639060974
1684252448707719700,8.0627197265625,-1.7561966180801392,2.9215333461761475,-0.417141318321228
1684252448717745700,8.07274560546875,-1.5851808786392212,3.2649037837982178,-0.4128536880016327
1684252448727771600,8.082771728515626,-1.2805848121643066,3.47170090675354,-0.3196755647659302
1684252448737797400,8.09279736328125,-0.8943803906440735,3.5222082138061523,-0.002043255139142275
1684252448747824400,8.102824462890625,-0.360228568315506,3.1046295166015625,0.796215295791626
1684252448757850400,8.112850341796875,0.28286492824554443,1.988450050354004,1.8963849544525146
1684252448767876600,8.122876708984375,0.7095723152160645,0.9030840396881104,2.5730135440826416
1684252448777903600,8.132903564453125,0.8516663908958435,0.07772012799978256,2.7964534759521484
1684252448787929600,8.1429296875,0.8027920722961426,-0.534923255443573,2.71366810798645
1684252448797955600,8.15295556640625,0.669554591178894,-1.0288317203521729,2.4423885345458984
1684252448807981600,8.162981689453124,0.5309296250343323,-1.4862303733825684,2.0880343914031982
1684252448818008300,8.17300830078125,0.4424510598182678,-1.9649657011032104,1.7796348333358765
1684252448828034300,8.183034423828126,0.4428819715976715,-2.8472187519073486,1.4434012174606323
1684252448838060500,8.193060546875,0.5298656821250916,-3.907681465148926,0.5984021425247192
1684252448848087600,8.203087646484375,0.7226353883743286,-4.2581586837768555,-0.4089931845664978
1684252448858113500,8.213113525390625,0.938658595085144,-4.0390520095825195,-1.0824401378631592
1684252448868139500,8.223139404296875,1.0658612251281738,-3.6101627349853516,-1.3753294944763184
1684252448878166500,8.23316650390625,1.0750069618225098,-3.0803823471069336,-1.3761426210403442
1684252448888192500,8.243192626953125,0.9708253741264343,-2.4925105571746826,-1.218142032623291
1684252448898218800,8.25321875,0.8003499507904053,-1.933424711227417,-1.0389260053634644
1684252448908244700,8.26324462890625,0.6468483209609985,-1.41844642162323,-0.9260478615760803
1684252448918271500,8.273271484375,0.5529730916023254,-0.9197980761528015,-0.8924842476844788
1684252448928297500,8.28329736328125,0.47874918580055237,-0.4582046568393707,-0.9079535007476807
1684252448938323500,8.293323486328125,0.3914676308631897,-0.10115143656730652,-0.9258236289024353
1684252448948350500,8.3033505859375,0.31257200241088867,0.1762133240699768,-0.9449437856674194
1684252448958376400,8.31337646484375,0.23552648723125458,0.37030893564224243,-0.9268456697463989
1684252448968402700,8.323402587890625,0.17590497434139252,0.48482033610343933,-0.8709272742271423
1684252448978429400,8.333429443359375,0.1327269822359085,0.5594070553779602,-0.7821243405342102
1684252448988455400,8.343455322265624,0.09938180446624756,0.6025952696800232,-0.6746673583984375
1684252448998481400,8.3534814453125,0.06941407173871994,0.6223769187927246,-0.530137300491333
1684252449008507400,8.36350732421875,0.039614636451005936,0.5819533467292786,-0.38311347365379333
1684252449018534400,8.373534423828126,0.007378340698778629,0.4905010461807251,-0.23423101007938385
1684252449028560400,8.383560302734375,-0.050682831555604935,0.3532816767692566,-0.08420474827289581
1684252449038586600,8.393586669921875,-0.13555710017681122,0.1457897275686264,0.05317334085702896
1684252449048613600,8.403613525390625,-0.24005341529846191,-0.1630765050649643,0.16022229194641113
1684252449058639600,8.4136396484375,-0.32841771841049194,-0.5189047455787659,0.21918144822120667
1684252449068665600,8.42366552734375,-0.38606154918670654,-0.9493687748908997,0.2770293056964874
1684252449078691600,8.433691650390625,-0.40884968638420105,-1.4451080560684204,0.36876538395881653
1684252449088718300,8.44371826171875,-0.40956395864486694,-1.9116275310516357,0.4623326361179352
1684252449098744600,8.45374462890625,-0.3868146538734436,-2.293172597885132,0.5445261001586914
1684252449108770600,8.4637705078125,-0.34023410081863403,-2.4954497814178467,0.5734764933586121
1684252449118797600,8.473797607421876,-0.28453558683395386,-2.4663729667663574,0.5257835388183594
1684252449128823600,8.483823486328125,-0.23575767874717712,-2.2013440132141113,0.42227286100387573
1684252449138849500,8.493849609375,-0.2226623147726059,-1.7794164419174194,0.31748905777931213
1684252449148876500,8.50387646484375,-0.28863972425460815,-1.3230899572372437,0.29227131605148315
1684252449158902500,8.513902587890625,-0.4424908757209778,-0.8735147714614868,0.5061471462249756
1684252449168928500,8.523928466796875,-0.6674177050590515,-0.47954216599464417,1.2246229648590088
1684252449178954500,8.53395458984375,-0.7774180769920349,-0.17600774765014648,2.039963722229004
1684252449188981500,8.5439814453125,-0.6518169641494751,0.09241251647472382,2.43377685546875
1684252449199007500,8.554007568359374,-0.42514219880104065,0.35814210772514343,2.3787708282470703
1684252449209033500,8.564033447265626,-0.1868516355752945,0.5953562259674072,1.9899241924285889
1684252449219060500,8.574060546875,0.01053299568593502,0.7467265129089355,1.448531150817871
1684252449229086700,8.584086669921875,0.11140261590480804,0.7204727530479431,0.9122294783592224
1684252449239112700,8.59411279296875,0.09122145175933838,0.39264976978302,0.13196387887001038
1684252449249138700,8.604138671875,-0.017951106652617455,0.0011038243537768722,-0.8402816653251648
1684252449259165400,8.61416552734375,-0.17128731310367584,-0.28462326526641846,-1.5056805610656738
1684252449269191400,8.62419140625,-0.28191766142845154,-0.48955854773521423,-1.796213150024414
1684252449279217400,8.634217529296874,-0.3345671594142914,-0.5918970704078674,-1.8836077451705933
1684252449289244400,8.644244384765624,-0.3992055356502533,-0.5528401732444763,-1.8751484155654907
1684252449299270700,8.654270751953124,-0.5227121114730835,-0.3195412755012512,-1.8368918895721436
1684252449309296600,8.664296630859376,-0.8992156982421875,1.0311700105667114,-2.3908166885375977
1684252449319323600,8.67432373046875,-1.9133973121643066,3.8365209102630615,-4.240725517272949
1684252449329349600,8.684349609375,-2.934645891189575,5.2323455810546875,-5.319727897644043
1684252449339375600,8.694375732421875,-3.736518383026123,5.3649702072143555,-5.687684059143066
1684252449349401600,8.704401611328125,-4.420774936676025,4.4040913581848145,-5.847835063934326
1684252449359428400,8.714428466796875,-4.800332546234131,1.8494738340377808,-5.8364386558532715
1684252449369454600,8.72445458984375,-4.339847564697266,-1.3271455764770508,-5.422861576080322
1684252449379480600,8.73448046875,-3.1124987602233887,-3.5884885787963867,-4.532557487487793
1684252449389507600,8.744507568359374,-1.4751603603363037,-4.342240333557129,-3.404057025909424
1684252449399533600,8.754533447265626,0.12483049184083939,-4.0050530433654785,-2.414518117904663
1684252449409559600,8.7645595703125,1.495417594909668,-3.193087339401245,-1.9953503608703613
1684252449419586300,8.77458642578125,2.501708507537842,-2.813469409942627,-2.7062647342681885
1684252449429612500,8.784612548828125,3.125218152999878,-2.822451114654541,-3.770378828048706
1684252449439638500,8.794638427734375,3.567279815673828,-2.964024543762207,-4.18544340133667
1684252449449664500,8.80466455078125,3.8427748680114746,-3.358665704727173,-3.4815852642059326
1684252449459691500,8.81469140625,3.9902360439300537,-3.5105249881744385,-2.122871160507202
1684252449469717500,8.824717529296874,4.043989658355713,-3.2020926475524902,-0.7478201389312744
1684252449479743500,8.834743408203124,3.9292755126953125,-2.5898597240448,0.34215304255485535
1684252449489770500,8.8447705078125,3.711545467376709,-1.3141430616378784,1.2601792812347412
1684252449499796700,8.854796630859376,3.30068302154541,0.16158777475357056,1.8269833326339722
1684252449509822700,8.86482275390625,2.8152878284454346,1.3519240617752075,1.939218521118164
1684252449519848700,8.8748486328125,2.3137125968933105,2.3750500679016113,1.6876530647277832
1684252449529875500,8.88487548828125,1.7366007566452026,3.2292592525482178,1.3223297595977783
1684252449539901400,8.8949013671875,1.0656664371490479,3.6447222232818604,1.0147590637207031
1684252449549927400,8.904927490234375,0.4014439880847931,3.5686800479888916,0.7768838405609131
1684252449559954400,8.914954345703125,-0.06875450909137726,3.2137489318847656,0.4894944727420807
1684252449569980700,8.924980712890624,-0.126102477312088,2.791821002960205,0.1799217015504837
1684252449580006700,8.935006591796874,0.29508793354034424,2.576878547668457,0.1384674310684204
1684252449590033400,8.945033447265626,0.88419109582901,2.685004472732544,0.30838775634765625
1684252449600059400,8.955059326171876,1.374733805656433,3.0039544105529785,0.43060755729675293
1684252449610085400,8.96508544921875,1.6465288400650024,3.3022985458374023,0.36466315388679504
1684252449620111400,8.975111328125,1.7650452852249146,3.2277894020080566,0.1938067376613617
1684252449630138600,8.985138671875,1.8604711294174194,2.8206920623779297,0.06097784638404846
1684252449640164600,8.99516455078125,1.9635565280914307,2.325873374938965,0.024038206785917282
1684252449650190600,9.005190673828125,2.0369985103607178,1.9165499210357666,0.059483014047145844
1684252449660217600,9.015217529296875,2.0482263565063477,1.7209237813949585,0.1977749913930893
1684252449670243600,9.02524365234375,2.000361442565918,1.741639494895935,0.44056713581085205
1684252449680269600,9.03526953125,1.884373426437378,1.8091925382614136,0.6999390721321106
1684252449690295600,9.045295654296876,1.7262135744094849,1.8222297430038452,0.9102596044540405
1684252449700322600,9.055322509765626,1.5759925842285156,1.8509936332702637,1.0903804302215576
1684252449710348500,9.0653486328125,1.4736028909683228,1.7949708700180054,1.259231448173523
1684252449720374500,9.07537451171875,1.406057357788086,1.5939512252807617,1.4042274951934814
1684252449730401500,9.085401611328125,1.3463770151138306,1.3093277215957642,1.5089073181152344
1684252449740427500,9.095427490234375,1.2544313669204712,0.9650933146476746,1.6093370914459229
1684252449750453500,9.10545361328125,1.1223522424697876,0.6643494367599487,1.7747337818145752
1684252449760480500,9.11548046875,0.9208720326423645,0.4475381374359131,2.0366270542144775
1684252449770506500,9.125506591796874,0.6448023915290833,0.3637947738170624,2.4001705646514893
1684252449780532500,9.135532470703126,0.3289159834384918,0.43653979897499084,2.813015937805176
1684252449790558500,9.145558349609376,0.05405966192483902,0.5828759670257568,3.216130018234253
1684252449800585500,9.15558544921875,-0.15780510008335114,0.6845322847366333,3.5563366413116455
1684252449810611500,9.165611572265625,-0.28191718459129333,0.6139984726905823,3.8128926753997803
1684252449820637400,9.175637451171875,-0.15941904485225677,-1.731987714767456,3.25058913230896
1684252449830664700,9.185664794921875,2.463416576385498,-17.228788375854492,-1.2709546089172363
1684252449840690700,9.195690673828125,5.113526821136475,-17.685630798339844,1.7192798852920532
1684252449850716700,9.205716552734375,4.869927883148193,-5.178736686706543,4.414093494415283
1684252449860742700,9.21574267578125,2.1828505992889404,1.031949758529663,2.167309284210205
1684252449870769400,9.225769287109374,-1.2386473417282104,-2.246778726577759,-4.493803024291992
1684252449880795400,9.23579541015625,-2.370438575744629,-0.9630745053291321,-1.9774415493011475
1684252449890821400,9.2458212890625,-2.489180326461792,2.9166128635406494,-0.2619530260562897
1684252449900848600,9.2558486328125,-2.72232723236084,4.411780834197998,0.4225981533527374
1684252449910874600,9.26587451171875,-3.1607792377471924,3.5478880405426025,0.5713801383972168
1684252449920900600,9.275900634765625,-3.4906439781188965,0.9749312400817871,0.17917552590370178
1684252449930927600,9.285927734375,-3.243022918701172,-1.9484946727752686,0.16387753188610077
1684252449940953600,9.29595361328125,-2.5014405250549316,-1.985053539276123,0.39060038328170776
1684252449950979600,9.3059794921875,-1.6375768184661865,0.025837399065494537,0.6055383086204529
1684252449961005600,9.316005615234374,-0.8931313157081604,1.4071229696273804,0.8026465773582458
1684252449971032600,9.326032470703124,-0.5545042753219604,1.1554193496704102,1.0545637607574463
1684252449981058600,9.33605859375,-0.5740286111831665,-0.4769901633262634,1.2031232118606567
1684252449991084500,9.34608447265625,-0.7550170421600342,-2.071033239364624,1.1537525653839111
1684252450001111600,9.356111572265625,-0.989872932434082,-2.8147456645965576,1.0164047479629517
1684252450011137500,9.366137451171875,-1.2374587059020996,-2.8943049907684326,0.9325932264328003
1684252450021163500,9.37616357421875,-1.4688822031021118,-2.564815044403076,0.9701016545295715
1684252450031190500,9.3861904296875,-1.6600031852722168,-1.806382179260254,1.031021237373352
1684252450041216500,9.396216552734375,-1.793121576309204,-0.7746149897575378,0.9980388283729553
1684252450051242500,9.406242431640624,-1.884420394897461,0.19499854743480682,0.9157026410102844
1684252450061268500,9.4162685546875,-1.9315285682678223,0.848955512046814,0.8815274834632874
1684252450071295500,9.42629541015625,-1.9078387022018433,1.0124046802520752,0.8981704115867615
1684252450081321500,9.436321533203126,-1.8055297136306763,0.9669733047485352,0.8718403577804565
1684252450091347500,9.446347412109375,-1.5988577604293823,0.7421569228172302,0.8287509679794312
1684252450101374700,9.456374755859375,-1.324666142463684,0.39418676495552063,0.7675062417984009
1684252450111400700,9.466400634765625,-1.0061407089233398,-0.027692047879099846,0.7092634439468384
1684252450121426700,9.4764267578125,-0.6928877234458923,-0.4918542802333832,0.6667795181274414
1684252450131452700,9.48645263671875,-0.44151028990745544,-0.9522914290428162,0.6237247586250305
1684252450141479400,9.4964794921875,-0.22839179635047913,-1.2992708683013916,0.5701053142547607
1684252450151505400,9.50650537109375,-0.05277283489704132,-1.5322513580322266,0.5063753128051758
1684252450161531400,9.516531494140626,0.08405862003564835,-1.6118016242980957,0.4461367130279541
1684252450171558700,9.52655859375,0.1878526508808136,-1.5114699602127075,0.37713685631752014
1684252450181584600,9.536584716796876,0.26332348585128784,-1.2373418807983398,0.31182804703712463
1684252450191610600,9.546610595703125,0.3155355453491211,-0.7767030596733093,0.26091986894607544
1684252450201637600,9.5566376953125,0.34424740076065063,-0.17256046831607819,0.23203343152999878
1684252450211663600,9.56666357421875,0.36056485772132874,0.5095860958099365,0.2500925660133362
1684252450221689600,9.576689697265625,0.35623157024383545,1.1945226192474365,0.28678953647613525
1684252450231715600,9.586715576171875,0.33518409729003906,1.7749983072280884,0.32031476497650146
1684252450241742600,9.59674267578125,0.3235761523246765,2.2287564277648926,0.3262321352958679
1684252450251768600,9.6067685546875,0.3100382387638092,2.5337600708007812,0.31978756189346313
1684252450261794600,9.616794677734376,0.32291558384895325,2.681550979614258,0.316106379032135
1684252450271821800,9.62682177734375,0.3250333368778229,2.655865430831909,0.3287510871887207
1684252450281847800,9.636847900390626,0.3226984143257141,2.4868762493133545,0.3452516198158264
1684252450291873800,9.646873779296875,0.31488338112831116,2.1959052085876465,0.3650471568107605
1684252450301899800,9.656899658203125,0.2993911802768707,1.793370008468628,0.3998793959617615
1684252450311926500,9.666926513671875,0.2811703681945801,1.4006706476211548,0.4603462219238281
1684252450321952500,9.676952392578125,0.21887028217315674,1.086118459701538,0.5672358274459839
1684252450331978500,9.686978515625,0.16785424947738647,0.7661940455436707,0.6737326979637146
1684252450342005800,9.697005859375,0.15433084964752197,0.432566374540329,0.7670090794563293
1684252450352031700,9.70703173828125,0.16527484357357025,0.08083230257034302,0.856327474117279
1684252450362057700,9.7170576171875,0.1789926141500473,-0.19786085188388824,0.8990743160247803
1684252450372084700,9.727084716796876,0.1900833398103714,-0.3208030164241791,0.8585596680641174
1684252450382110700,9.73711083984375,0.21713237464427948,-0.3440110683441162,0.7606997489929199
1684252450392136400,9.747136474609375,0.2406022697687149,-0.36465078592300415,0.6602048277854919
1684252450402162400,9.757162353515625,0.24361258745193481,-0.40720877051353455,0.5886141657829285
1684252450412189700,9.767189697265625,0.21570426225662231,-0.4724372923374176,0.575947642326355
1684252450422215700,9.777215576171875,0.17855572700500488,-0.6383218169212341,0.6736565828323364
1684252450432241700,9.78724169921875,0.12867285311222076,-0.9256390333175659,0.8720333576202393
1684252450442268700,9.7972685546875,0.026961730793118477,-1.2741135358810425,1.0515508651733398
1684252450452294700,9.807294677734374,-0.14563773572444916,-1.514155387878418,1.058258295059204
1684252450462320600,9.817320556640626,-0.3130567669868469,-1.4959579706192017,0.8228276968002319
1684252450472346600,9.8273466796875,-0.41288456320762634,-1.2152565717697144,0.44856593012809753
1684252450482373600,9.83737353515625,-0.40486130118370056,-0.7782737016677856,0.09256228804588318
1684252450492399600,9.847399658203125,-0.312887966632843,-0.32488787174224854,-0.16396084427833557
1684252450502425600,9.857425537109375,-0.19726845622062683,0.015367185696959496,-0.26679113507270813
1684252450512452600,9.86745263671875,-0.06203846260905266,0.2064942568540573,-0.1692211925983429
1684252450522478600,9.877478515625,0.08525584638118744,0.21852846443653107,0.13447082042694092
1684252450532504600,9.887504638671874,0.2364134043455124,0.15658865869045258,0.5004472136497498
1684252450542531800,9.89753173828125,0.3237685561180115,0.14581696689128876,0.7018769979476929
1684252450552557800,9.907557861328126,0.2933427393436432,0.18460191786289215,0.6632843017578125
1684252450562583800,9.917583740234376,0.17429611086845398,0.2556874454021454,0.431604266166687
1684252450572609500,9.927609619140625,0.05664457008242607,0.3973156809806824,0.06004536151885986
1684252450582636500,9.937636474609375,0.03360431268811226,0.7374441623687744,-0.44241800904273987
1684252450592662500,9.94766259765625,0.12397442013025284,1.2720879316329956,-1.0923821926116943
1684252450602688500,9.9576884765625,0.33202260732650757,1.9818706512451172,-1.8065117597579956
1684252450612715800,9.9677158203125,0.5782667398452759,2.834074020385742,-2.5244901180267334
1684252450622741800,9.97774169921875,0.7324974536895752,3.840285062789917,-3.5834555625915527
1684252450632767700,9.987767822265624,0.6172486543655396,4.241156101226807,-4.506433010101318
1684252450642793700,9.997793701171876,0.559943675994873,3.3148772716522217,-4.494746208190918
1684252450652820500,10.007820556640626,0.6472455263137817,1.9103306531906128,-4.0743231773376465
1684252450662846500,10.017846435546875,0.6831258535385132,0.32450753450393677,-3.5118725299835205
1684252450672872400,10.02787255859375,0.5924913287162781,-1.237331748008728,-3.1918225288391113
1684252450682899700,10.037899658203125,0.49501466751098633,-2.709174394607544,-3.1006202697753906
1684252450692925700,10.04792578125,0.4577789008617401,-4.076915264129639,-3.105381965637207
1684252450702951700,10.05795166015625,0.5299124121665955,-4.985682964324951,-3.152972459793091
1684252450712978700,10.067978759765625,0.7542738318443298,-5.041166305541992,-3.1280150413513184
1684252450723004700,10.078004638671874,1.0945394039154053,-4.552781581878662,-3.0197582244873047
1684252450733030700,10.08803076171875,1.4251493215560913,-3.665919780731201,-2.808504343032837
1684252450743056600,10.098056640625,1.6885452270507812,-2.184241533279419,-2.43241286277771
1684252450753083600,10.108083740234376,1.790414810180664,-0.22749704122543335,-1.9203221797943115
1684252450763109600,10.118109619140625,1.6327043771743774,1.5919485092163086,-1.4135942459106445
1684252450773135600,10.128135498046875,1.3254666328430176,3.1940760612487793,-1.263142466545105
1684252450783162600,10.13816259765625,1.0338468551635742,4.372555732727051,-1.5818626880645752
1684252450793188600,10.148188720703125,0.7431777715682983,4.070920944213867,-1.7474089860916138
1684252450803214600,10.158214599609375,0.5792887210845947,2.3167173862457275,-1.5701391696929932
1684252450813240600,10.168240478515624,0.6231530904769897,0.19145236909389496,-1.1851800680160522
1684252450823267600,10.178267578125,0.8923113942146301,-1.4804201126098633,-0.7031261324882507
1684252450833293600,10.18829345703125,1.2772221565246582,-2.402132034301758,-0.2560916543006897
1684252450843319600,10.198319580078126,1.6713944673538208,-2.574477195739746,0.12384362518787384
1684252450853346600,10.2083466796875,1.9483636617660522,-2.115978956222534,0.33415451645851135
1684252450863372500,10.21837255859375,1.988964557647705,-1.2518284320831299,0.36492910981178284
1684252450873398500,10.2283984375,1.8286687135696411,-0.3705514669418335,0.32172891497612
1684252450883424800,10.2384248046875,1.5334904193878174,0.10389243066310883,0.18547768890857697
1684252450893451800,10.24845166015625,1.2050262689590454,0.20784439146518707,-0.04558375105261803
1684252450903477800,10.258477783203125,0.964580237865448,0.17678803205490112,-0.38819700479507446
1684252450913503700,10.268503662109374,0.8563759922981262,0.2161910980939865,-0.7939785718917847
1684252450923530500,10.278530517578124,0.8410976529121399,0.23170028626918793,-1.0677847862243652
1684252450933556500,10.288556396484376,0.882632851600647,0.06854038685560226,-1.0005210638046265
1684252450943582500,10.29858251953125,0.912346601486206,-0.19019874930381775,-0.6053793430328369
1684252450953609700,10.308609619140626,0.8857261538505554,-0.4193379282951355,-0.1399647295475006
1684252450963635700,10.3186357421875,0.80057293176651,-0.5955838561058044,0.2508152723312378
1684252450973661700,10.32866162109375,0.6373267769813538,-0.7256872057914734,0.593456506729126
1684252450983687700,10.338687744140625,0.4166004955768585,-0.8228643536567688,0.8364488482475281
1684252450993714700,10.348714599609375,0.1862381547689438,-0.8951665163040161,0.8909147381782532
1684252451003740700,10.35874072265625,-0.017506111413240433,-0.8244715929031372,0.776864767074585
1684252451013766400,10.368766357421874,-0.2327001839876175,-0.5942565202713013,0.610021710395813
1684252451023793700,10.378793701171874,-0.523171067237854,-0.4036611318588257,0.5522973537445068
1684252451033819600,10.388819580078126,-0.8510706424713135,-0.4678710103034973,0.5767198204994202
1684252451043845600,10.398845703125,-1.193522334098816,-0.7864289283752441,0.6467586159706116
1684252451053871600,10.40887158203125,-1.553217887878418,-1.2470014095306396,0.7779520750045776
1684252451063898600,10.418898681640625,-1.9469305276870728,-1.5960633754730225,1.055296778678894
1684252451073924600,10.428924560546875,-2.3831982612609863,-1.7561137676239014,1.4429664611816406
1684252451083950800,10.438950927734375,-2.8260786533355713,-1.7608861923217773,1.8614840507507324
1684252451093977600,10.4489775390625,-3.2453434467315674,-1.5235055685043335,1.3782676458358765
1684252451104003600,10.459003662109374,-1.761913776397705,2.0810866355895996,-8.345343589782715
1684252451114029600,10.469029541015624,-1.3525770902633667,-4.612151145935059,-4.739916801452637
1684252451124056600,10.479056640625,-1.642671823501587,-4.215976715087891,-0.5716492533683777
1684252451134082600,10.48908251953125,-2.0757718086242676,-1.5705078840255737,3.438321113586426
1684252451144108500,10.499108642578125,-2.323427200317383,-0.22367940843105316,6.365172863006592
1684252451154134800,10.509134765625,-2.5713400840759277,-0.5313107371330261,6.912209987640381
1684252451164161800,10.519161865234375,-1.8461897373199463,-2.1653971672058105,0.780051589012146
1684252451174187800,10.529187744140625,-0.19421784579753876,-2.878387212753296,-3.3777616024017334
1684252451184213800,10.5392138671875,0.562281608581543,-1.9490830898284912,-2.506800651550293
1684252451194240500,10.549240478515625,0.657241940498352,-1.6762800216674805,-1.4452110528945923
1684252451204266500,10.5592666015625,0.3905681371688843,-1.913452386856079,-0.48677852749824524
1684252451214292500,10.56929248046875,0.16549532115459442,-3.674530029296875,0.2706913352012634
1684252451224318500,10.579318359375,0.3568582236766815,-8.738444328308105,-0.08575231581926346
1684252451234345700,10.589345703125,0.28444981575012207,-8.721630096435547,-0.5520228147506714
1684252451244371700,10.599371826171875,-0.1846758872270584,-6.361032485961914,-0.8737368583679199
1684252451254397700,10.609397705078125,-0.822167158126831,-4.536637783050537,-0.8678861856460571
1684252451264424400,10.619424560546875,-1.4443755149841309,-3.7772653102874756,-0.40582701563835144
1684252451274450400,10.629450439453125,-1.8238062858581543,-3.155383825302124,0.1259593963623047
1684252451284476400,10.639476318359375,-1.898771047592163,-2.2992746829986572,0.37247177958488464
1684252451294502400,10.64950244140625,-1.7324962615966797,-1.4945889711380005,0.4541573226451874
1684252451304529700,10.65952978515625,-1.518245816230774,-1.0026812553405762,0.43507862091064453
1684252451314555600,10.6695556640625,-1.3812695741653442,-0.8011249303817749,0.3761061131954193
1684252451324581600,10.67958154296875,-1.355323314666748,-0.6986395716667175,0.3154500126838684
1684252451334608600,10.689608642578126,-1.3988415002822876,-0.6341553926467896,0.2901180386543274
1684252451344634600,10.699634521484375,-1.4224344491958618,-0.5977851152420044,0.3156536817550659
1684252451354660600,10.70966064453125,-1.3892625570297241,-0.5517078638076782,0.35898810625076294
1684252451364687400,10.719687255859375,-1.336710810661316,-0.5436925292015076,0.4208628237247467
1684252451374713600,10.729713623046875,-1.2694889307022095,-0.4975181519985199,0.46011674404144287
1684252451384739600,10.739739501953125,-1.1935725212097168,-0.30841025710105896,0.42607229948043823
1684252451394765600,10.749765625,-1.11605966091156,0.05220305174589157,0.3696921169757843
1684252451404792600,10.75979248046875,-1.0474148988723755,0.5800353288650513,0.35545840859413147
1684252451414818600,10.769818603515626,-0.9574858546257019,1.2461481094360352,0.39775848388671875
1684252451424844500,10.779844482421876,-0.849605917930603,1.9612091779708862,0.39515164494514465
1684252451434871600,10.78987158203125,-0.7736365795135498,2.4603183269500732,0.2933350205421448
1684252451444897500,10.7998974609375,-0.77681964635849,2.687741994857788,0.13965316116809845
1684252451454923500,10.809923583984375,-0.7860690951347351,2.630887985229492,0.021570464596152306
1684252451464949500,10.819949462890625,-0.7257905006408691,2.360231637954712,-0.021526135504245758
1684252451474976500,10.8299765625,-0.5956144332885742,2.0411415100097656,-0.006903782952576876
1684252451485002500,10.84000244140625,-0.40315020084381104,1.715242624282837,0.03392300009727478
1684252451495028500,10.850028564453124,-0.2168373316526413,1.2799276113510132,0.07489253580570221
1684252451505055700,10.8600556640625,-0.11501986533403397,0.7604778409004211,0.14305035769939423
1684252451515081700,10.870081787109376,-0.07278905063867569,0.1881815642118454,0.24914748966693878
1684252451525107700,10.880107666015626,-0.07729895412921906,-0.339729368686676,0.368534654378891
1684252451535133700,10.8901337890625,-0.09711393713951111,-0.7714773416519165,0.4714091122150421
1684252451545160400,10.900160400390625,-0.14515352249145508,-1.1342341899871826,0.5744847655296326
1684252451555186400,10.9101865234375,-0.23340855538845062,-1.5238815546035767,0.6878643035888672
1684252451565212400,10.92021240234375,-0.3625921607017517,-1.975015640258789,0.8174298405647278
1684252451575239700,10.93023974609375,-0.5341703295707703,-2.3833651542663574,0.9182475805282593
1684252451585265700,10.940265625,-0.7434780597686768,-2.6208386421203613,0.9413923621177673
1684252451595291600,10.950291748046874,-0.9738161563873291,-2.6009020805358887,0.8467345237731934
1684252451605318700,10.960318603515624,-1.1740283966064453,-2.214888095855713,0.6311538815498352
1684252451615344600,10.9703447265625,-1.2578647136688232,-1.524797797203064,0.308078408241272
1684252451625370600,10.98037060546875,-1.240049958229065,-0.7778673768043518,-0.07988239824771881
1684252451635396600,10.990396728515625,-1.1571012735366821,-0.16576248407363892,-0.5530135035514832
1684252451645423600,11.000423583984375,-1.0403647422790527,0.35101231932640076,-1.0769286155700684
1684252451655449600,11.01044970703125,-0.9051502346992493,0.7546143531799316,-1.465248703956604
1684252451665475600,11.0204755859375,-0.8111534714698792,0.9529033899307251,-1.6888301372528076
1684252451675502600,11.030502685546875,-0.791593611240387,0.7774950861930847,-1.7863000631332397
1684252451685528600,11.040528564453124,-0.8468992114067078,0.0835881382226944,-1.8479822874069214
1684252451695554600,11.050554443359376,-0.9396262168884277,-0.8960444927215576,-1.969725489616394
1684252451705580500,11.06058056640625,-0.9677796363830566,-1.620954155921936,-2.1024889945983887
1684252451715607600,11.070607666015626,-0.8249311447143555,-1.6011130809783936,-2.1913158893585205
1684252451725633500,11.080633544921875,-0.4339148700237274,-0.8386625647544861,-2.340813398361206
1684252451735659500,11.090659423828125,0.12754444777965546,0.3899044990539551,-2.7701056003570557
1684252451745686500,11.1006865234375,0.7732165455818176,2.2464799880981445,-3.4886281490325928
1684252451755712500,11.11071240234375,1.3937751054763794,4.052796363830566,-4.110436916351318
1684252451765738500,11.120738525390625,1.8045017719268799,4.478087902069092,-4.132871150970459
1684252451775765800,11.130765869140625,1.9244978427886963,3.216348886489868,-3.5227386951446533
1684252451785791700,11.140791748046874,1.7326287031173706,1.2627640962600708,-2.8609201908111572
1684252451795817700,11.150817626953126,1.377319097518921,-0.9363296627998352,-2.111598491668701
1684252451805843700,11.16084375,0.7833834886550903,-5.611666202545166,-0.8104538917541504
1684252451815870500,11.170870361328125,0.3749208450317383,-7.573453903198242,-0.5866842269897461
1684252451825896400,11.180896484375,0.15390639007091522,-7.760033130645752,-1.0496782064437866
1684252451835922400,11.19092236328125,0.3533329367637634,-6.876895904541016,-1.544455647468567
1684252451845949700,11.20094970703125,0.9360033869743347,-5.484592437744141,-1.4573259353637695
1684252451855975700,11.2109755859375,1.6615628004074097,-3.1840128898620605,-0.4574769139289856
1684252451866001700,11.221001708984375,2.244962692260742,-0.34875982999801636,0.7450679540634155
1684252451876027600,11.231027587890624,2.5529022216796875,2.0456416606903076,1.2402371168136597
1684252451886054400,11.241054443359374,2.550647020339966,3.6939008235931396,1.052726149559021
1684252451896080400,11.251080322265626,2.287903308868408,4.494574546813965,0.6546986103057861
1684252451906106400,11.2611064453125,1.8598817586898804,4.682572364807129,0.4456961154937744
1684252451916133600,11.271133544921875,1.3580236434936523,4.469257831573486,0.4677833020687103
1684252451926159600,11.28115966796875,0.8345224261283875,4.054251670837402,0.6114073395729065
1684252451936185600,11.291185546875,0.39029058814048767,3.5590317249298096,0.7918652296066284
1684252451946211600,11.301211669921875,0.15327169001102448,3.1276845932006836,0.9303931593894958
1684252451956238600,11.311238525390625,0.09445418417453766,2.9092698097229004,0.9949484467506409
1684252451966264600,11.3212646484375,0.15517547726631165,2.943744421005249,1.014422059059143
1684252451976290600,11.33129052734375,0.2986985743045807,3.108213186264038,1.0396020412445068
1684252451986317600,11.341317626953124,0.5558380484580994,3.065800189971924,1.0273622274398804
1684252451996343600,11.351343505859376,0.9110632538795471,2.61993408203125,0.8941389322280884
1684252452006369500,11.36136962890625,1.3252769708633423,1.9771732091903687,0.7114684581756592
1684252452016395500,11.3713955078125,1.746326208114624,1.3671895265579224,0.5955545902252197
1684252452026422500,11.381422607421875,2.087928533554077,0.8405871987342834,0.5421208143234253
1684252452036448500,11.391448486328125,2.2681825160980225,0.31724199652671814,0.44476383924484253
1684252452046474500,11.401474609375,2.1941916942596436,-0.23180557787418365,0.26593461632728577
1684252452056501500,11.41150146484375,1.876997947692871,-0.7173986434936523,-0.003799137193709612
1684252452066527500,11.421527587890624,1.4644780158996582,-0.9756372570991516,-0.31358465552330017
1684252452076553500,11.431553466796874,1.0755493640899658,-0.9449400305747986,-0.5461143255233765
1684252452086580500,11.44158056640625,0.7531308531761169,-0.5636284351348877,-0.6085571646690369
1684252452096606500,11.4516064453125,0.5034717917442322,0.031428262591362,-0.4784497618675232
1684252452106632400,11.461632568359375,0.3088533580303192,0.5682063698768616,-0.26176750659942627
1684252452116658400,11.471658447265625,0.12036893516778946,0.7174856066703796,-0.10125425457954407
1684252452126685700,11.481685791015625,-0.039901986718177795,0.6981232762336731,-0.039189234375953674
1684252452136711700,11.491711669921875,-0.13938942551612854,0.8192886114120483,-0.025249183177947998
1684252452146737700,11.501737548828125,-0.20663808286190033,1.1069698333740234,-0.029058199375867844
1684252452156764400,11.511764404296875,-0.2537984251976013,1.299979567527771,-0.07781775295734406
1684252452166790400,11.521790283203124,-0.30144524574279785,1.3014450073242188,-0.22500145435333252
1684252452176816400,11.53181640625,-0.36131444573402405,1.058430790901184,-0.4371565878391266
1684252452186842400,11.54184228515625,-0.44653475284576416,0.6497020125389099,-0.6244536638259888
1684252452196869600,11.55186962890625,-0.5650222897529602,0.16262082755565643,-0.7147457599639893
1684252452206895600,11.5618955078125,-0.704203724861145,-0.3449707627296448,-0.6637062430381775
1684252452216920800,11.5719208984375,-0.887191653251648,-0.7765386700630188,-0.4973881244659424
1684252452226947800,11.58194775390625,-1.1041897535324097,-1.0729936361312866,-0.2755821943283081
1684252452236974000,11.59197412109375,-1.3698182106018066,-1.2355974912643433,-0.07742434740066528
1684252452247000000,11.602,-1.6464515924453735,-1.2593319416046143,0.12696519494056702
1684252452257026000,11.612026123046874,-1.897853970527649,-1.1808685064315796,0.35598427057266235
1684252452267052800,11.622052734375,-2.127068042755127,-1.0553253889083862,0.6101288795471191
1684252452277078800,11.632078857421876,-2.3454535007476807,-0.9247551560401917,0.8664783835411072
1684252452287104800,11.642104736328125,-2.5505995750427246,-0.7770569920539856,1.104275107383728
1684252452297131800,11.6521318359375,-2.6971349716186523,-0.39568328857421875,1.3697563409805298
1684252452307158000,11.662157958984375,-2.7306032180786133,0.34530627727508545,1.6392396688461304
1684252452317184000,11.67218408203125,-2.420226812362671,0.994780957698822,2.0313124656677246
1684252452327210000,11.6822099609375,-0.7762213349342346,-7.589756965637207,2.996680974960327
1684252452337237000,11.692237060546875,0.5590277314186096,-9.095532417297363,2.5293185710906982
1684252452347263000,11.702262939453124,0.8679240345954895,-3.052335500717163,1.425189733505249
1684252452357289000,11.7122890625,0.4191553294658661,-2.461193084716797,0.2500775158405304
1684252452367316000,11.72231591796875,-0.4483650326728821,-6.5225443840026855,0.1508229374885559
1684252452377342000,11.732342041015626,-1.1198233366012573,-4.269452095031738,-0.6613501310348511
1684252452387368000,11.742367919921875,-1.7657418251037598,-1.429922342300415,-1.4430923461914062
1684252452397395000,11.75239501953125,-2.4281482696533203,-1.7806109189987183,-0.8757705688476562
1684252452407421000,11.7624208984375,-2.8782155513763428,-2.5807416439056396,0.5412443280220032
1684252452417447000,11.772447021484375,-2.8248472213745117,-0.48413968086242676,0.8476554155349731
1684252452427473000,11.782472900390625,-2.4790539741516113,2.155658721923828,0.7932140231132507
1684252452437500000,11.7925,-2.0768542289733887,3.827261209487915,0.8239599466323853
1684252452447526000,11.80252587890625,-1.7310173511505127,4.0721964836120605,0.8688125610351562
1684252452457552000,11.8125517578125,-1.4148356914520264,3.1639328002929688,0.7694249749183655
1684252452467579000,11.822578857421876,-1.0180913209915161,2.4168450832366943,0.3776692748069763
1684252452477604900,11.83260498046875,-0.5065745115280151,2.5507984161376953,-0.15660317242145538
1684252452487630800,11.842630859375,0.04257461801171303,3.3624179363250732,-0.6230038404464722
1684252452497656800,11.85265673828125,0.4709307551383972,4.314409255981445,-0.8901689648628235
1684252452507684000,11.86268408203125,0.7053026556968689,5.11384916305542,-0.8697395920753479
1684252452517710000,11.8727099609375,0.52521812915802,5.128780841827393,-0.8676239848136902
1684252452527736000,11.882736083984375,-0.39459922909736633,3.053605794906616,-1.358122706413269
1684252452537762800,11.8927626953125,-1.1284433603286743,0.6332821846008301,-1.4945827722549438
1684252452547788800,11.902788818359374,-1.2035269737243652,-0.40236347913742065,-0.8487664461135864
1684252452557814800,11.912814697265626,-0.833621621131897,-0.4259343147277832,-0.037295397371053696
1684252452567840800,11.9228408203125,-0.4552464485168457,-0.07094630599021912,0.6284696459770203
1684252452577868000,11.932867919921875,-0.20445924997329712,0.3150136470794678,0.9419074058532715
1684252452587894000,11.94289404296875,-0.06629729270935059,0.650924801826477,1.04276442527771
1684252452597920000,11.952919921875,0.08033742010593414,1.0338575839996338,1.1605461835861206
1684252452607946800,11.96294677734375,0.3167800009250641,1.3112584352493286,1.304816484451294
1684252452617972700,11.97297265625,0.4891086220741272,1.5558143854141235,1.5726386308670044
1684252452627998700,11.982998779296874,0.5203778743743896,1.8127611875534058,1.8125108480453491
1684252452638026000,11.99302587890625,0.49433428049087524,2.161234140396118,1.8293747901916504
1684252452648052000,12.003052001953124,0.3076924681663513,3.0202908515930176,1.7469947338104248
1684252452658078000,12.013077880859376,0.06542445719242096,4.310847759246826,1.6566927433013916
1684252452668104000,12.02310400390625,-0.21524372696876526,5.476685047149658,1.6034101247787476
1684252452678131000,12.033130859375,-0.5742967128753662,6.268263339996338,1.5759384632110596
1684252452688157000,12.043156982421875,-0.9510655999183655,6.605356693267822,1.6186418533325195
1684252452698183000,12.053182861328125,-1.2730937004089355,6.375553607940674,1.685015082359314
1684252452708210000,12.0632099609375,-1.4794020652770996,5.397637844085693,1.603140950202942
1684252452718236000,12.07323583984375,-1.512917160987854,3.8031349182128906,1.3234329223632812
1684252452728262000,12.083261962890624,-1.3624267578125,1.924460768699646,0.8868231177330017
1684252452738287900,12.093287841796876,-1.0672595500946045,0.18968980014324188,0.3875925540924072
1684252452748315000,12.10331494140625,-0.6666468977928162,-1.0113449096679688,-0.016681000590324402
1684252452758340900,12.1133408203125,-0.2044622153043747,-1.719175100326538,-0.26573529839515686
1684252452768366800,12.123366943359375,0.1788560301065445,-2.213209390640259,-0.4172365665435791
1684252452778393900,12.133393798828125,0.4901718199253082,-2.5554096698760986,-0.48700740933418274
1684252452788419800,12.143419921875,0.6675518751144409,-2.824782371520996,-0.4563539922237396
1684252452798445800,12.15344580078125,0.5638204216957092,-2.874495267868042,-0.3488757312297821
1684252452808471800,12.163471923828125,0.22863921523094177,-2.636368751525879,-0.27515149116516113
1684252452818498800,12.173498779296875,-0.36082538962364197,-1.8964258432388306,-0.31898418068885803
1684252452828524800,12.18352490234375,-1.1767936944961548,-0.8518586158752441,-0.47888314723968506
1684252452838550800,12.19355078125,-1.9976893663406372,0.29484471678733826,-0.701826810836792
1684252452848578000,12.203578125,-2.520158529281616,1.4151380062103271,-0.9346019625663757
1684252452858604000,12.21360400390625,-2.734598159790039,2.404728651046753,-1.1903880834579468
1684252452868630000,12.223630126953125,-2.6351871490478516,3.127387046813965,-1.5077943801879883
1684252452878656000,12.233656005859375,-2.2463929653167725,3.5163462162017822,-1.8501324653625488
1684252452888682800,12.243682861328125,-1.6546564102172852,3.5009942054748535,-2.2307751178741455
1684252452898708700,12.253708740234375,-0.8241690993309021,3.260082483291626,-2.5363986492156982
1684252452908734700,12.263734619140624,0.7920882105827332,2.5521461963653564,-2.786057233810425
1684252452918762000,12.273761962890624,2.5149762630462646,2.197080135345459,-2.708141565322876
1684252452928788000,12.2837880859375,4.519195556640625,1.6215685606002808,-2.725569248199463
1684252452938814000,12.29381396484375,6.452531337738037,0.8529978394508362,-2.8536336421966553
1684252452948840000,12.30383984375,7.738232135772705,-0.1767873466014862,-3.0238468647003174
1684252452958867000,12.313866943359375,7.884149551391602,-1.6625699996948242,-2.805819272994995
1684252452968893000,12.323892822265625,7.356582164764404,-3.132481575012207,-2.1627674102783203
1684252452978919000,12.3339189453125,6.336007595062256,-4.459989547729492,-1.4711695909500122
1684252452988946000,12.34394580078125,3.1804728507995605,-5.261420726776123,-1.2705241441726685
1684252452998972000,12.353971923828125,-0.6339564919471741,-4.9121503829956055,-1.4171769618988037
1684252453008998000,12.363997802734374,-3.07544207572937,-1.9324644804000854,-1.373235821723938
1684252453019024000,12.37402392578125,-4.259696960449219,1.6569544076919556,-0.9919852614402771
1684252453029051000,12.38405078125,-4.991048336029053,3.2812256813049316,-0.7850161790847778
1684252453039076900,12.394076904296876,-5.516720771789551,3.4699552059173584,-0.686604380607605
1684252453049102800,12.404102783203125,-5.96995210647583,2.8020548820495605,-0.6663686633110046
1684252453059129900,12.4141298828125,-6.482076168060303,1.8642311096191406,-0.7954155802726746
1684252453069155800,12.42415576171875,-6.747406959533691,0.9737278819084167,-1.0404703617095947
1684252453079181800,12.434181884765625,-6.7655415534973145,0.46315065026283264,-1.2941761016845703
1684252453089208800,12.444208740234375,-6.451561450958252,0.26232221722602844,-1.4389277696609497
1684252453099234800,12.45423486328125,-5.685472011566162,0.38903459906578064,-1.4505653381347656
1684252453109260800,12.4642607421875,-4.411953926086426,0.5333629250526428,-1.4140493869781494
1684252453119286800,12.474286865234374,-2.9100074768066406,0.8507621884346008,-1.1782501935958862
1684252453129314000,12.48431396484375,-1.7677916288375854,1.1824637651443481,-0.9346845746040344
1684252453139340000,12.494340087890626,-1.384735345840454,1.7315177917480469,-0.7534226179122925
1684252453149366000,12.504365966796875,-0.9691804051399231,1.8857651948928833,-0.8464479446411133
1684252453159392800,12.514392822265625,-0.3740254044532776,2.0895352363586426,-0.926482081413269
1684252453169418800,12.524418701171875,0.2585790157318115,1.986945629119873,-0.9586440920829773
1684252453179444700,12.53444482421875,0.7316834926605225,1.2235238552093506,-0.390957772731781
1684252453189471000,12.544470947265625,0.9149965047836304,0.6992045640945435,0.14835567772388458
1684252453199498000,12.554498046875,0.7485974431037903,0.15254706144332886,0.7982090711593628
1684252453209524000,12.56452392578125,0.36534053087234497,0.29523682594299316,1.411010980606079
1684252453219550500,12.574550537109374,-0.1817382425069809,1.1570647954940796,2.321739912033081
1684252453229577200,12.5845771484375,-0.5933252573013306,2.545308828353882,3.1660146713256836
1684252453239603200,12.594603271484376,-0.6461109519004822,3.9300692081451416,3.6041548252105713
1684252453249629400,12.60462939453125,-0.4478349983692169,5.173652648925781,3.768584966659546
