time,seconds_elapsed,z,y,x
1684252376630520800,0.030520751953125,-0.4230033755302429,0.41607311367988586,0.23022957146167755
1684252376640546800,0.040546875,-0.4815492331981659,0.4572746157646179,0.2824198007583618
1684252376650572800,0.05057275390625,-0.49731436371803284,0.5320426821708679,0.36255913972854614
1684252376660598800,0.060598876953125,-0.46977168321609497,0.6566299200057983,0.4378450810909271
1684252376670624800,0.070624755859375,-0.5087711215019226,0.9651565551757812,0.5517725944519043
1684252376680650800,0.080650634765625,-0.6835219264030457,1.4456124305725098,0.7440834641456604
1684252376690676700,0.0906767578125,-0.9538565278053284,1.990054965019226,1.0170512199401855
1684252376700702700,0.10070263671875,-1.2583461999893188,2.4917173385620117,1.3590599298477173
1684252376710729000,0.11072900390625,-1.6391243934631348,2.9614691734313965,1.728786826133728
1684252376720755000,0.1207548828125,-2.030902147293091,3.441171646118164,2.0598461627960205
1684252376730781000,0.130781005859375,-2.3632500171661377,3.8704617023468018,2.274068832397461
1684252376740807000,0.140806884765625,-2.595897674560547,4.239833831787109,2.4158294200897217
1684252376750833000,0.1508330078125,-2.95451021194458,4.722230434417725,2.69024920463562
1684252376760859000,0.16085888671875,-3.5229480266571045,5.315995216369629,3.0519816875457764
1684252376770883800,0.1708837890625,-4.34384298324585,5.770928382873535,3.4575979709625244
1684252376780909800,0.180909912109375,-5.213045597076416,6.338661193847656,3.875361442565918
1684252376790935800,0.190935791015625,-5.898420333862305,6.71685791015625,4.158354759216309
1684252376800961800,0.2009619140625,-6.434683799743652,6.7583231925964355,4.34369421005249
1684252376810987800,0.21098779296875,-6.8837175369262695,6.495302200317383,4.370718479156494
1684252376821013800,0.221013671875,-7.388494968414307,6.155403137207031,4.271082401275635
1684252376831039700,0.231039794921875,-7.8743896484375,5.609534740447998,4.071006774902344
1684252376841066000,0.24106591796875,-8.32345199584961,4.860692024230957,3.762244939804077
1684252376851092000,0.251092041015625,-8.830839157104492,4.095491409301758,3.4395763874053955
1684252376861118000,0.261117919921875,-9.336993217468262,3.379502773284912,3.1853528022766113
1684252376871144000,0.27114404296875,-9.842599868774414,2.621854782104492,2.898364305496216
1684252376881170000,0.281169921875,-9.920451164245605,2.260324239730835,2.6073031425476074
1684252376891195600,0.291195556640625,-9.337340354919434,2.4202795028686523,2.580148935317993
1684252376901221600,0.3012216796875,-8.468510627746582,2.700839042663574,2.899137258529663
1684252376911247600,0.31124755859375,-7.540920257568359,2.646233081817627,3.4933948516845703
1684252376921273600,0.321273681640625,-6.692376136779785,2.377655506134033,4.116903781890869
1684252376931299600,0.331299560546875,-5.820589542388916,2.0416276454925537,4.4459052085876465
1684252376941325600,0.34132568359375,-4.981010913848877,1.5839660167694092,4.41551399230957
1684252376951351800,0.351351806640625,-4.329721450805664,0.720249593257904,4.01750373840332
1684252376961377800,0.361377685546875,-3.8097293376922607,-0.46063005924224854,3.3654017448425293
1684252376971403800,0.37140380859375,-3.335465431213379,-1.7003196477890015,2.4989118576049805
1684252376981429800,0.3814296875,-2.8044891357421875,-2.7793822288513184,1.4214264154434204
1684252376991455700,0.391455810546875,-2.23043155670166,-3.2374026775360107,0.5507368445396423
1684252377001481700,0.401481689453125,-1.5910840034484863,-3.234647035598755,0.024737516418099403
1684252377011506700,0.411506591796875,-0.8587249517440796,-3.040142059326172,-0.2043357789516449
1684252377021532700,0.42153271484375,-0.07772316783666611,-2.8482000827789307,-0.21098116040229797
1684252377031558700,0.43155859375,0.7139790058135986,-2.6336357593536377,-0.1420682668685913
1684252377041584600,0.441584716796875,1.4887375831604004,-2.415740728378296,-0.1135450154542923
1684252377051610600,0.451610595703125,2.210745096206665,-2.0215046405792236,-0.1157936304807663
1684252377061636600,0.46163671875,2.717907428741455,-1.352340817451477,-0.11667966097593307
1684252377071662600,0.47166259765625,2.9899098873138428,-0.539190411567688,-0.13489525020122528
1684252377081688800,0.481688720703125,3.1004297733306885,0.14237192273139954,-0.19657805562019348
1684252377091714800,0.49171484375,2.9609291553497314,0.5085644721984863,-0.3467453122138977
1684252377101740800,0.50174072265625,2.817477226257324,0.6934256553649902,-0.48552611470222473
1684252377111766800,0.511766845703125,2.745579957962036,0.7256152629852295,-0.7225918769836426
1684252377121792800,0.521792724609375,2.7303757667541504,0.6079948544502258,-0.9966825842857361
1684252377131818800,0.53181884765625,2.2839338779449463,0.44918397068977356,-1.7004221677780151
1684252377141845800,0.541845703125,1.1237494945526123,0.4121748208999634,-3.4754655361175537
1684252377151871700,0.551871826171875,0.5230529308319092,1.027296781539917,-3.8987045288085938
1684252377161897700,0.561897705078125,0.3884091377258301,1.189499020576477,-3.1129846572875977
1684252377171923700,0.571923828125,0.524897575378418,0.5065172910690308,-2.2343759536743164
1684252377181949700,0.58194970703125,0.6010432243347168,-0.15928152203559875,-2.0247013568878174
1684252377191975700,0.5919755859375,0.6202068328857422,-0.8456828594207764,-2.0058257579803467
1684252377202001700,0.602001708984375,0.9380474090576172,-1.0691231489181519,-1.962050437927246
1684252377212027600,0.612027587890625,1.324902057647705,-0.8972306251525879,-2.020047187805176
1684252377222054000,0.622053955078125,2.6539292335510254,-0.6806767582893372,-1.8606252670288086
1684252377232080000,0.632079833984375,3.1223816871643066,0.569505512714386,-0.7525402307510376
1684252377242104800,0.642104736328125,2.9352805614471436,1.9317222833633423,0.5442498326301575
1684252377252130800,0.652130859375,2.2753853797912598,2.904090166091919,1.8523253202438354
1684252377262156800,0.66215673828125,1.6404986381530762,3.079655885696411,3.034170389175415
1684252377272182800,0.672182861328125,0.9593713283538818,2.666919231414795,3.895988702774048
1684252377282208800,0.682208740234375,0.2566121518611908,2.0218827724456787,4.3122782707214355
1684252377292234800,0.69223486328125,-0.6457623243331909,1.6223504543304443,4.292919158935547
1684252377302260700,0.7022607421875,-1.482783555984497,1.227500081062317,3.9069783687591553
1684252377312286700,0.71228662109375,-1.9269005060195923,0.8115277886390686,3.0564286708831787
1684252377322312700,0.722312744140625,-2.2115426063537598,0.8274316787719727,1.8594355583190918
1684252377332338700,0.732338623046875,-2.4775986671447754,1.0902541875839233,0.6523324847221375
1684252377342364700,0.74236474609375,-2.6142377853393555,0.7438780069351196,-0.21600371599197388
1684252377352390700,0.752390625,-2.862377882003784,0.6942902207374573,-0.6571492552757263
1684252377362416600,0.762416748046875,-3.2922186851501465,0.2992475628852844,-0.7592537999153137
1684252377372442600,0.772442626953125,-3.906139373779297,-0.31990474462509155,-0.701702356338501
1684252377382468600,0.782468505859375,-4.684497356414795,-0.3829132914543152,-0.6169917583465576
1684252377392494600,0.79249462890625,-5.415508270263672,0.5507827997207642,-0.5018249750137329
1684252377402520600,0.8025205078125,-6.0270915031433105,1.7619596719741821,-0.3932524025440216
1684252377412546600,0.812546630859375,-6.215147972106934,2.5041534900665283,-0.21289126574993134
1684252377422572500,0.822572509765625,-6.116457462310791,2.7674362659454346,0.03562106937170029
1684252377432598500,0.8325986328125,-5.648700714111328,2.2183454036712646,0.228994682431221
1684252377442624500,0.84262451171875,-4.852123260498047,1.2227219343185425,0.29109612107276917
1684252377452650500,0.852650390625,-3.9440085887908936,0.3608366549015045,0.2944735288619995
1684252377462676700,0.8626767578125,-3.001171112060547,0.0016499970806762576,0.40862831473350525
1684252377472702700,0.87270263671875,-2.0680429935455322,0.1489717811346054,0.7381396889686584
1684252377482728700,0.882728759765625,-1.3467460870742798,0.5868548154830933,1.228846549987793
1684252377492753700,0.892753662109375,-1.269711971282959,0.6471133232116699,1.6785231828689575
1684252377502779600,0.902779541015625,-1.9668241739273071,-0.267631858587265,1.7715299129486084
1684252377512805600,0.9128056640625,-2.6063101291656494,-1.0323987007141113,1.7448556423187256
1684252377522831600,0.92283154296875,-3.205314874649048,-1.4814108610153198,1.6067891120910645
1684252377532857600,0.932857666015625,-3.8439829349517822,-1.6771674156188965,1.4166181087493896
1684252377542883600,0.942883544921875,-4.507312774658203,-1.7705602645874023,1.1993212699890137
1684252377552909600,0.95290966796875,-5.036514759063721,-1.7772588729858398,0.9764917492866516
1684252377562935600,0.962935546875,-5.306601524353027,-1.422576665878296,0.8607536554336548
1684252377572961500,0.97296142578125,-5.347131252288818,-0.8734786510467529,0.8466826677322388
1684252377582987500,0.982987548828125,-5.192422866821289,-0.4094976484775543,0.8414549231529236
1684252377593013800,0.993013671875,-4.85432767868042,0.16085481643676758,0.9576078653335571
1684252377603039700,1.003039794921875,-4.228631973266602,1.0234827995300293,1.2562717199325562
1684252377613065700,1.013065673828125,-3.3045361042022705,1.7498289346694946,1.5983308553695679
1684252377623091700,1.023091796875,-2.207421064376831,1.9723621606826782,1.7793318033218384
1684252377633117700,1.03311767578125,-1.100656270980835,1.7035188674926758,1.7963526248931885
1684252377643143700,1.043143798828125,-0.20776201784610748,0.8300287127494812,1.4212274551391602
1684252377653169700,1.053169677734375,0.40496134757995605,-0.4170578122138977,0.7024621367454529
1684252377663195600,1.063195556640625,0.5673108696937561,-1.9336739778518677,0.35190460085868835
1684252377673221600,1.0732216796875,0.8327289819717407,-2.351351022720337,-0.12833601236343384
1684252377683247600,1.08324755859375,1.1192084550857544,-2.471956729888916,-0.29558441042900085
1684252377693273600,1.093273681640625,1.3309288024902344,-2.4205143451690674,-0.3794110417366028
1684252377703299800,1.1032998046875,1.4397538900375366,-2.3167591094970703,-0.43654435873031616
1684252377713325800,1.113325927734375,1.5580201148986816,-1.975347876548767,-0.3903694450855255
1684252377723351800,1.123351806640625,2.0033321380615234,-1.3628575801849365,-0.25905776023864746
1684252377733376800,1.133376708984375,2.7548890113830566,-0.6157744526863098,-0.15448909997940063
1684252377743402800,1.14340283203125,3.3647966384887695,-0.17539627850055695,-0.19238083064556122
1684252377753428700,1.1534287109375,3.4687421321868896,-0.4799574613571167,-0.5315902233123779
1684252377763454700,1.163454833984375,3.2182202339172363,-1.2371407747268677,-1.0518760681152344
1684252377773480700,1.173480712890625,2.6452724933624268,-1.499983787536621,-1.4307292699813843
1684252377783506700,1.183506591796875,1.7335307598114014,-1.273382306098938,-1.5924800634384155
1684252377793532700,1.19353271484375,0.5509892106056213,-0.9345645904541016,-1.7318835258483887
1684252377803558700,1.20355859375,-0.4585205912590027,-0.5897629857063293,-1.746638536453247
1684252377813584600,1.213584716796875,-0.9221885800361633,-0.17975856363773346,-1.6278773546218872
1684252377823610600,1.223610595703125,-1.037689208984375,0.10481350868940353,-1.5403903722763062
1684252377833636900,1.233636962890625,-1.0152138471603394,0.09987852722406387,-1.5642693042755127
1684252377843662800,1.243662841796875,-0.9124783277511597,-0.26341792941093445,-1.726668357849121
1684252377853688800,1.253688720703125,-0.6777266263961792,-0.5231385827064514,-1.8680322170257568
1684252377863714800,1.26371484375,-0.3647487759590149,-0.5050415992736816,-1.8887343406677246
1684252377873740800,1.27374072265625,-0.08170640468597412,-0.3170987367630005,-1.8621885776519775
1684252377883766500,1.2837666015625,0.16299735009670258,-0.018231337890028954,-1.737325668334961
1684252377893792500,1.29379248046875,0.23948216438293457,1.0546207427978516,-1.0240890979766846
1684252377903818500,1.303818603515625,-0.046962909400463104,3.939094305038452,1.3539930582046509
1684252377913844500,1.313844482421875,-0.2301294207572937,5.228550434112549,2.7123353481292725
1684252377923870500,1.323870361328125,-0.13288435339927673,5.207911491394043,2.9852640628814697
1684252377933896400,1.333896484375,0.08208039402961731,4.8904876708984375,2.9214859008789062
1684252377943922700,1.343922607421875,0.4248100519180298,4.596734046936035,2.8283190727233887
1684252377953948700,1.35394873046875,0.9074914455413818,4.508740425109863,2.7422122955322266
1684252377963974000,1.363973876953125,1.536460041999817,4.517540454864502,2.6313936710357666
1684252377973999600,1.37399951171875,2.3573219776153564,4.596024990081787,2.499001979827881
1684252377984025600,1.384025634765625,3.390099287033081,4.861758232116699,2.390540599822998
1684252377994051600,1.394051513671875,4.590278148651123,5.279261112213135,2.163996934890747
1684252378004077600,1.40407763671875,5.622767925262451,5.353847026824951,1.8399451971054077
1684252378014103600,1.414103515625,6.167329788208008,4.4864726066589355,1.5941883325576782
1684252378024129500,1.424129638671875,5.843845844268799,2.486829996109009,1.2468695640563965
1684252378034155500,1.434155517578125,4.416670322418213,-0.22902727127075195,0.48283636569976807
1684252378044181500,1.444181396484375,2.379262924194336,-2.352480173110962,-0.3839791715145111
1684252378054207500,1.45420751953125,0.5706799030303955,-3.4490764141082764,-1.1206517219543457
1684252378064233500,1.4642333984375,-0.2002575546503067,-3.685948371887207,-1.4720633029937744
1684252378074259700,1.474259765625,-0.270835816860199,-3.7402350902557373,-1.6240129470825195
1684252378084285700,1.48428564453125,-0.12230383604764938,-3.6274194717407227,-1.6688405275344849
1684252378094311700,1.494311767578125,0.0650901198387146,-3.4354770183563232,-1.6540496349334717
1684252378104337700,1.504337646484375,0.21313099563121796,-3.1762051582336426,-1.5744833946228027
1684252378114363600,1.51436376953125,0.3275485932826996,-2.7589926719665527,-1.4117172956466675
1684252378124389600,1.5243896484375,0.41658446192741394,-2.1538188457489014,-1.1841120719909668
1684252378134415600,1.53441552734375,0.4645389914512634,-1.4326481819152832,-0.9514762759208679
1684252378144440300,1.5444404296875,0.45807337760925293,-0.6819939613342285,-0.7852483987808228
1684252378154466600,1.554466552734375,0.43960413336753845,0.00008314521983265877,-0.6915701627731323
1684252378164492500,1.564492431640625,0.43486425280570984,0.6353392004966736,-0.6491481065750122
1684252378174518500,1.5745185546875,0.4238704741001129,1.2637630701065063,-0.617546021938324
1684252378184544500,1.58454443359375,0.37792882323265076,1.7974709272384644,-0.5920646786689758
1684252378194570500,1.594570556640625,0.29260921478271484,2.1639461517333984,-0.5455538630485535
1684252378204595500,1.604595458984375,0.15753847360610962,2.3534817695617676,-0.4620741307735443
1684252378214621400,1.614621337890625,0.00547595601528883,2.378201961517334,-0.355043888092041
1684252378224647400,1.6246474609375,-0.15017355978488922,2.2234292030334473,-0.21224147081375122
1684252378234673400,1.63467333984375,-0.2356535792350769,1.912870168685913,-0.028773687779903412
1684252378244699400,1.644699462890625,-0.22350716590881348,1.4107812643051147,0.22540773451328278
1684252378254725400,1.654725341796875,-0.15285706520080566,0.7721271514892578,0.5332919359207153
1684252378264751400,1.66475146484375,-0.06150025129318237,0.11224989593029022,0.8480786085128784
1684252378274777300,1.67477734375,0.0219716839492321,-0.40729227662086487,1.0871871709823608
1684252378284803600,1.684803466796875,0.07164257019758224,-0.7008823752403259,1.218440055847168
1684252378294829600,1.69482958984375,0.0829019844532013,-0.8217092752456665,1.2625287771224976
1684252378304855600,1.70485546875,0.06198578700423241,-0.8290510773658752,1.233128309249878
1684252378314881500,1.714881591796875,0.020685698837041855,-0.7521476745605469,1.1524759531021118
1684252378324907500,1.724907470703125,-0.01972990110516548,-0.6106797456741333,1.0285872220993042
1684252378334933500,1.73493359375,-0.03880298510193825,-0.42365792393684387,0.866234540939331
1684252378344959500,1.74495947265625,-0.015793537721037865,-0.21336700022220612,0.6814361810684204
1684252378354985500,1.7549853515625,0.033200208097696304,-0.007775500416755676,0.46762576699256897
1684252378365011500,1.765011474609375,0.07835569977760315,0.16884347796440125,0.24403901398181915
1684252378375037400,1.775037353515625,0.10164137184619904,0.2755741477012634,0.020005017518997192
1684252378385063700,1.785063720703125,0.11751674115657806,0.3132301867008209,-0.19142813980579376
1684252378395089700,1.795089599609375,0.11906339973211288,0.27928614616394043,-0.34843966364860535
1684252378405115600,1.80511572265625,0.12980419397354126,0.21007297933101654,-0.45552003383636475
1684252378415141600,1.8151416015625,0.16388945281505585,0.17361342906951904,-0.5232101678848267
1684252378425167600,1.825167724609375,0.19258715212345123,0.1302686184644699,-0.58250492811203
1684252378435193600,1.835193603515625,0.19252093136310577,0.069412000477314,-0.630143940448761
1684252378445218600,1.845218505859375,0.15572936832904816,-0.022064918652176857,-0.6702146530151367
1684252378455244500,1.85524462890625,0.11016178131103516,-0.15426725149154663,-0.6932783126831055
1684252378465270500,1.8652705078125,0.07879586517810822,-0.3209880292415619,-0.6859002709388733
1684252378475296500,1.875296630859375,0.06525492668151855,-0.4870948791503906,-0.6576922535896301
1684252378485322500,1.885322509765625,0.06023486331105232,-0.6251930594444275,-0.6132339239120483
1684252378495348500,1.895348388671875,0.05726288631558418,-0.728827953338623,-0.5755963921546936
1684252378505374500,1.90537451171875,0.045542046427726746,-0.7817502617835999,-0.5378519296646118
1684252378515400700,1.915400634765625,0.025277622044086456,-0.7560657858848572,-0.519704282283783
1684252378525426700,1.9254267578125,-0.005537548568099737,-0.6670799851417542,-0.5099347233772278
1684252378535452700,1.93545263671875,-0.04774518683552742,-0.5293123722076416,-0.5020772814750671
1684252378545478700,1.945478759765625,-0.08497405052185059,-0.3448632061481476,-0.4937397241592407
1684252378555504600,1.955504638671875,-0.11530537903308868,-0.16081750392913818,-0.47084128856658936
1684252378565530600,1.965530517578125,-0.1464739441871643,-0.005618073511868715,-0.43252718448638916
1684252378575556600,1.975556640625,-0.17081302404403687,0.10263548791408539,-0.37224167585372925
1684252378585582600,1.98558251953125,-0.20151181519031525,0.1386435627937317,-0.2962087094783783
1684252378595608600,1.995608642578125,-0.2331364005804062,0.11592323333024979,-0.20153842866420746
1684252378605634600,2.005634521484375,-0.2604404389858246,0.05614325404167175,-0.08501339703798294
1684252378615660500,2.01566064453125,-0.27327364683151245,-0.03693179041147232,0.04382523521780968
1684252378625686500,2.0256865234375,-0.2648782730102539,-0.15731678903102875,0.179343119263649
1684252378635712500,2.03571240234375,-0.2416156381368637,-0.2965881824493408,0.3103688061237335
1684252378645738500,2.045738525390625,-0.22341559827327728,-0.43747684359550476,0.41283178329467773
1684252378655764500,2.055764404296875,-0.2242870330810547,-0.5624552369117737,0.4809057116508484
1684252378665790500,2.06579052734375,-0.24119757115840912,-0.6603884100914001,0.5181175470352173
1684252378675816400,2.07581640625,-0.24918971955776215,-0.7177429795265198,0.5256672501564026
1684252378685842400,2.085842529296875,-0.23752641677856445,-0.7356705665588379,0.522645890712738
1684252378695867600,2.09586767578125,-0.21523718535900116,-0.725588321685791,0.5113276839256287
1684252378705893600,2.1058935546875,-0.19857671856880188,-0.7096367478370667,0.49948805570602417
1684252378715919600,2.115919677734375,-0.194805309176445,-0.7001934051513672,0.4914408028125763
1684252378725945600,2.125945556640625,-0.20676903426647186,-0.7070859670639038,0.48038071393966675
1684252378735971300,2.135971435546875,-0.22886618971824646,-0.6968062520027161,0.4557303786277771
1684252378745997300,2.145997314453125,-0.23832707107067108,-0.6051293611526489,0.40093716979026794
1684252378756023600,2.1560234375,-0.23618945479393005,-0.41140833497047424,0.29252001643180847
1684252378766049500,2.166049560546875,-0.2142426073551178,-0.11130790412425995,0.13312263786792755
1684252378776075500,2.176075439453125,-0.18329279124736786,0.22883757948875427,-0.03809107467532158
1684252378786101500,2.1861015625,-0.15602068603038788,0.5135102868080139,-0.19532009959220886
1684252378796127500,2.19612744140625,-0.13578252494335175,0.6814592480659485,-0.3108547031879425
1684252378806153500,2.206153564453125,-0.15314926207065582,0.73506760597229,-0.38406339287757874
1684252378816179500,2.216179443359375,-0.18815486133098602,0.6773454546928406,-0.40545764565467834
1684252378826205400,2.226205322265625,-0.2202235758304596,0.5063542723655701,-0.3777059018611908
1684252378836231400,2.2362314453125,-0.23636654019355774,0.2527019679546356,-0.2998335361480713
1684252378846257400,2.24625732421875,-0.24987223744392395,-0.03397294506430626,-0.1970541626214981
1684252378856283400,2.256283447265625,-0.25121310353279114,-0.2910618782043457,-0.08195778727531433
1684252378866309600,2.2663095703125,-0.24255596101284027,-0.47535768151283264,0.00947172287851572
1684252378876335600,2.276335693359375,-0.22686640918254852,-0.57880038022995,0.08150440454483032
1684252378886361600,2.286361572265625,-0.20917662978172302,-0.6443492770195007,0.14256615936756134
1684252378896387600,2.2963876953125,-0.1949220597743988,-0.7216053605079651,0.2111493945121765
1684252378906413600,2.30641357421875,-0.1884380728006363,-0.8472157120704651,0.30343857407569885
1684252378916439600,2.316439453125,-0.18736769258975983,-1.0054124593734741,0.41531607508659363
1684252378926464500,2.326464599609375,-0.1934351623058319,-1.1666048765182495,0.5161066055297852
1684252378936490500,2.336490478515625,-0.2001015990972519,-1.2671568393707275,0.5817626118659973
1684252378946516500,2.3465166015625,-0.2223011702299118,-1.2783583402633667,0.5865094065666199
1684252378956542500,2.35654248046875,-0.2548084557056427,-1.1656275987625122,0.49112585186958313
1684252378966568400,2.366568359375,-0.2930586338043213,-0.9106086492538452,0.23570501804351807
1684252378976594400,2.376594482421875,-0.34724897146224976,-0.47183647751808167,-0.2586575448513031
1684252378986620400,2.386620361328125,-0.41417792439460754,0.09809542447328568,-0.9576257467269897
1684252378996646700,2.396646728515625,-0.46657422184944153,0.5087034106254578,-1.6771650314331055
1684252379006672600,2.406672607421875,-0.47475066781044006,0.8987941741943359,-2.2840116024017334
1684252379016698600,2.41669873046875,-0.4474526047706604,1.414509892463684,-2.6609935760498047
1684252379026724600,2.426724609375,-0.42261460423469543,1.9686599969863892,-2.8381614685058594
1684252379036750600,2.43675048828125,-0.37336471676826477,2.489712953567505,-2.8613944053649902
1684252379046776600,2.446776611328125,-0.32009458541870117,2.8028554916381836,-2.769204616546631
1684252379056802600,2.456802490234375,-0.2937493622303009,2.8337669372558594,-2.564728021621704
1684252379066828500,2.46682861328125,-0.17870694398880005,3.366382598876953,-2.6343986988067627
1684252379076854500,2.4768544921875,0.04421285539865494,3.9783711433410645,-3.169405221939087
1684252379086880500,2.486880615234375,0.20997466146945953,3.898571491241455,-3.5435500144958496
1684252379096906500,2.496906494140625,0.3216516077518463,3.087476968765259,-3.5688679218292236
1684252379106932700,2.5069326171875,0.4991885721683502,1.8926138877868652,-3.12133526802063
1684252379116958700,2.516958740234375,0.7611128091812134,0.6496411561965942,-2.274895191192627
1684252379126984700,2.526984619140625,1.0323104858398438,-0.16354839503765106,-1.3217111825942993
1684252379137010700,2.5370107421875,1.283997654914856,-0.36525124311447144,-0.4393918812274933
1684252379147036700,2.54703662109375,1.366626262664795,-0.17738492786884308,0.09570882469415665
1684252379157062700,2.557062744140625,1.283207893371582,0.19835589826107025,0.1636960357427597
1684252379167087600,2.567087646484375,1.089681625366211,0.7101885676383972,-0.07736904174089432
1684252379177113900,2.57711376953125,1.1215611696243286,1.5861085653305054,-0.43302121758461
1684252379187139800,2.587139892578125,1.7619693279266357,2.3831870555877686,-0.8889956474304199
1684252379197165800,2.597165771484375,2.835786819458008,2.6133909225463867,-1.5268254280090332
1684252379207191800,2.60719189453125,3.89241886138916,2.5416529178619385,-2.1412203311920166
1684252379217217800,2.6172177734375,4.291192054748535,2.0815694332122803,-2.3696422576904297
1684252379227243800,2.627243896484375,3.9328811168670654,0.9078827500343323,-1.7389057874679565
1684252379237269800,2.637269775390625,3.2916030883789062,0.5372778177261353,-0.5115290284156799
1684252379247295700,2.647295654296875,2.559844732284546,1.5739740133285522,0.6145374774932861
1684252379257321500,2.657321533203125,1.8404955863952637,3.238220691680908,1.385781168937683
1684252379267347500,2.667347412109375,1.2065402269363403,4.640361785888672,1.7526119947433472
1684252379277373400,2.67737353515625,0.7414537668228149,5.489484786987305,1.8366073369979858
1684252379287399700,2.687399658203125,0.4652640223503113,5.227677345275879,1.613959789276123
1684252379297425700,2.69742578125,0.3786613941192627,3.9365267753601074,1.1166688203811646
1684252379307451600,2.70745166015625,0.47557729482650757,2.551623821258545,0.6874622702598572
1684252379317477600,2.7174775390625,0.646468460559845,1.6542783975601196,0.430049329996109
1684252379327503600,2.727503662109375,0.8171805739402771,1.2945020198822021,0.2906040847301483
1684252379337529600,2.737529541015625,0.9302963018417358,1.277503490447998,0.26732560992240906
1684252379347555600,2.7475556640625,1.0047905445098877,1.3653029203414917,0.37075746059417725
1684252379357581600,2.75758154296875,1.0454565286636353,1.3307472467422485,0.5671095252037048
1684252379367607600,2.767607666015625,1.0469307899475098,1.1103274822235107,0.8547745943069458
1684252379377633500,2.777633544921875,1.0191856622695923,0.7682619094848633,1.2288460731506348
1684252379387659500,2.787659423828125,0.9603801965713501,0.5406332612037659,1.5865352153778076
1684252379397685800,2.797685791015625,0.8702313899993896,0.4014938771724701,1.8971521854400635
1684252379407711700,2.807711669921875,0.7363446950912476,0.24878902733325958,2.1485707759857178
1684252379417736700,2.81773681640625,0.560305655002594,0.06316722929477692,2.3693439960479736
1684252379427762700,2.8277626953125,0.35552990436553955,-0.14730291068553925,2.560439109802246
1684252379437788700,2.83778857421875,0.13857893645763397,-0.3794928789138794,2.7507941722869873
1684252379447814700,2.847814697265625,-0.08617322146892548,-0.6418832540512085,2.9505527019500732
1684252379457840600,2.857840576171875,-0.3223055303096771,-0.9364389777183533,3.1328353881835938
1684252379467866600,2.86786669921875,-0.5549638271331787,-1.2403532266616821,3.253490924835205
1684252379477892600,2.877892578125,-0.7887943387031555,-1.5785647630691528,3.2950024604797363
1684252379487918600,2.887918701171875,-0.9827262759208679,-1.9237288236618042,3.265368700027466
1684252379497944600,2.897944580078125,-1.0832549333572388,-2.3855490684509277,2.8570797443389893
1684252379507970600,2.907970458984375,-0.7132723331451416,-4.144655227661133,1.3994220495224
1684252379517996500,2.91799658203125,0.051475733518600464,-7.668240547180176,1.032159447669983
1684252379528022800,2.928022705078125,0.6914043426513672,-9.886927604675293,1.5782177448272705
1684252379538048800,2.938048828125,2.2942075729370117,-12.623600006103516,-0.8977984189987183
1684252379548074800,2.94807470703125,2.732698678970337,-8.501545906066895,-1.3716166019439697
1684252379558100700,2.958100830078125,1.9904297590255737,-2.4824039936065674,-5.4298176765441895
1684252379568126700,2.968126708984375,0.5248010158538818,-3.5051612854003906,-3.0436246395111084
1684252379578152700,2.978152587890625,-0.18161596357822418,0.28737401962280273,1.1107321977615356
1684252379588178700,2.9881787109375,-1.26560640335083,3.7609004974365234,1.7220640182495117
1684252379598204700,2.99820458984375,-2.2593834400177,4.258683204650879,1.5036907196044922
1684252379608230700,3.008230712890625,-3.044602155685425,3.5316526889801025,1.0244234800338745
1684252379618256600,3.018256591796875,-3.692174196243286,2.16528582572937,0.2324323058128357
1684252379628282600,3.02828271484375,-3.8624846935272217,0.7599141001701355,-0.6020157337188721
1684252379638308900,3.038308837890625,-3.474187135696411,0.1650625467300415,-0.8751333355903625
1684252379648333600,3.04833349609375,-2.6609416007995605,-0.14829084277153015,-0.6920119524002075
1684252379658359800,3.05835986328125,-1.654374599456787,-0.7068883776664734,-0.3240916132926941
1684252379668385800,3.0683857421875,-0.7062668204307556,-1.4603182077407837,0.12287867069244385
1684252379678411800,3.078411865234375,-0.06068308651447296,-2.092686653137207,0.579508364200592
1684252379688437800,3.088437744140625,0.21367336809635162,-2.5307140350341797,0.9322323203086853
1684252379698463700,3.098463623046875,0.20108471810817719,-2.7778255939483643,1.119972825050354
1684252379708489700,3.10848974609375,0.013236522674560547,-2.782715320587158,1.129538655281067
1684252379718515700,3.118515625,-0.20036040246486664,-2.5290098190307617,1.0017924308776855
1684252379728541700,3.128541748046875,-0.34255990386009216,-2.0868070125579834,0.7824332118034363
1684252379738567700,3.138567626953125,-0.36038532853126526,-1.5969915390014648,0.5520308017730713
1684252379748593700,3.14859375,-0.285572350025177,-1.1897838115692139,0.361608624458313
1684252379758619600,3.15861962890625,-0.18691495060920715,-1.067990779876709,0.19830255210399628
1684252379768646000,3.16864599609375,-0.13225223124027252,-1.1753686666488647,0.07791035622358322
1684252379778671600,3.178671630859375,-0.12946054339408875,-1.3025729656219482,0.028538715094327927
1684252379788697600,3.188697509765625,-0.1564820408821106,-1.3747714757919312,0.06958894431591034
1684252379798723600,3.1987236328125,-0.20623134076595306,-1.3808199167251587,0.19463452696800232
1684252379808749600,3.20874951171875,-0.20327363908290863,-1.1865077018737793,0.35511019825935364
1684252379818775600,3.218775634765625,-0.14349818229675293,-0.7832834720611572,0.5187745094299316
1684252379828801500,3.228801513671875,-0.029248036444187164,-0.29866987466812134,0.6435039639472961
1684252379838827500,3.23882763671875,0.08430594950914383,0.1406441032886505,0.7109906077384949
1684252379848853500,3.248853515625,0.1477975845336914,0.48931100964546204,0.6934185028076172
1684252379858879500,3.25887939453125,0.16857613623142242,0.7973467111587524,0.6355000138282776
1684252379868905500,3.268905517578125,0.1626998633146286,1.057987928390503,0.5676026940345764
1684252379878931700,3.278931640625,0.15479455888271332,1.305213451385498,0.5165103077888489
1684252379888956700,3.288956787109375,0.1430628001689911,1.5205076932907104,0.4804188907146454
1684252379898982700,3.298982666015625,0.1314777135848999,1.642133355140686,0.4550818204879761
1684252379909008600,3.309008544921875,0.10573400557041168,1.648203730583191,0.43153706192970276
1684252379919034600,3.31903466796875,0.07475388050079346,1.551026463508606,0.4176575243473053
1684252379929060600,3.329060546875,0.06338617950677872,1.3727478981018066,0.40882834792137146
1684252379939086600,3.339086669921875,0.07260385155677795,1.1705888509750366,0.4130692481994629
1684252379949112600,3.349112548828125,0.08652260154485703,0.9702881574630737,0.416048526763916
1684252379959138600,3.359138671875,0.09909635037183762,0.8170415759086609,0.4048099219799042
1684252379969164500,3.36916455078125,0.11271149665117264,0.7462909817695618,0.39030367136001587
1684252379979190500,3.3791904296875,0.12186317890882492,0.7369394898414612,0.3594849705696106
1684252379989216500,3.389216552734375,0.13033442199230194,0.7782576680183411,0.3069722354412079
1684252379999242500,3.399242431640625,0.13239635527133942,0.8796243071556091,0.25823974609375
1684252380009268700,3.409268798828125,0.14912526309490204,0.988346517086029,0.20105233788490295
1684252380019294700,3.419294677734375,0.16124483942985535,1.068739891052246,0.13559764623641968
1684252380029320700,3.42932080078125,0.16077612340450287,1.0934721231460571,0.07545600831508636
1684252380039346700,3.4393466796875,0.15229618549346924,1.0513834953308105,0.02108297497034073
1684252380049372700,3.44937255859375,0.14331068098545074,0.9164441227912903,-0.02313508465886116
1684252380059398700,3.459398681640625,0.1345764696598053,0.6938967108726501,-0.04780280962586403
1684252380069424600,3.469424560546875,0.12901392579078674,0.3844973146915436,-0.045423008501529694
1684252380079450600,3.47945068359375,0.12099312245845795,0.00968022458255291,-0.025319654494524002
1684252380089476600,3.4894765625,0.1062256321310997,-0.4079854488372803,0.020806562155485153
1684252380099502600,3.499502685546875,0.10443241894245148,-0.8244249820709229,0.0867377296090126
1684252380109528600,3.509528564453125,0.10491578280925751,-1.1903492212295532,0.16193369030952454
1684252380119554800,3.519554931640625,0.11742203682661057,-1.4690043926239014,0.22066135704517365
1684252380129579500,3.52957958984375,0.14023761451244354,-1.6466132402420044,0.25842952728271484
1684252380139605800,3.539605712890625,0.16146039962768555,-1.7360342741012573,0.26972827315330505
1684252380149632300,3.54963232421875,0.17679381370544434,-1.7749593257904053,0.2662195563316345
1684252380159658200,3.559658203125,0.18135568499565125,-1.7904434204101562,0.2502554953098297
1684252380169684200,3.569684326171875,0.16911208629608154,-1.7888121604919434,0.22325022518634796
1684252380179710200,3.579710205078125,0.14577773213386536,-1.7495380640029907,0.18310073018074036
1684252380189736200,3.589736083984375,0.1361812949180603,-1.670045018196106,0.12130367755889893
1684252380199762200,3.59976220703125,0.12618501484394073,-1.561764121055603,0.04474911838769913
1684252380209788200,3.6097880859375,0.10488557815551758,-1.4189749956130981,-0.0712195560336113
1684252380219814400,3.619814453125,0.06344514340162277,-1.2518820762634277,-0.22566694021224976
1684252380229840400,3.62984033203125,-0.014469897374510765,-1.0755974054336548,-0.41319289803504944
1684252380239866400,3.639866455078125,-0.07603643089532852,-0.892368733882904,-0.607559323310852
1684252380249892400,3.649892333984375,-0.10155004262924194,-0.7147175073623657,-0.7932197451591492
1684252380259918300,3.65991845703125,-0.09902169555425644,-0.5562819242477417,-0.9531108140945435
1684252380269944000,3.669944091796875,-0.07616458088159561,-0.46395784616470337,-1.0746889114379883
1684252380279970000,3.679969970703125,-0.045688945800065994,-0.4649350941181183,-1.1486948728561401
1684252380289996000,3.68999609375,-0.0370459221303463,-0.5643572807312012,-1.18240487575531
1684252380300022000,3.70002197265625,-0.05885366350412369,-0.7760715484619141,-1.1752337217330933
1684252380310048000,3.710048095703125,-0.09180787950754166,-1.0333598852157593,-1.149398922920227
1684252380320074000,3.720073974609375,-0.11745522916316986,-1.2187442779541016,-1.1248655319213867
1684252380330100200,3.730100341796875,-0.13099101185798645,-1.2837752103805542,-1.1153428554534912
1684252380340126200,3.740126220703125,-0.1299823671579361,-1.2189334630966187,-1.1218804121017456
1684252380350152200,3.750152099609375,-0.12186932563781738,-1.1005178689956665,-1.124864935874939
1684252380360178200,3.76017822265625,-0.10718576610088348,-1.0149682760238647,-1.1141148805618286
1684252380370203100,3.770203125,-0.0728970319032669,-0.9493076205253601,-1.082119107246399
1684252380380229000,3.78022900390625,-0.024243902415037155,-0.9022712707519531,-1.0230929851531982
1684252380390255000,3.790255126953125,0.038341179490089417,-0.9575526714324951,-0.9390829801559448
1684252380400281000,3.800281005859375,0.10608571022748947,-1.1522982120513916,-0.8337612748146057
1684252380410307000,3.81030712890625,0.16992886364459991,-1.492816686630249,-0.6956603527069092
1684252380420333000,3.8203330078125,0.2419527918100357,-2.054457426071167,-0.6393017768859863
1684252380430359000,3.830359130859375,0.26287510991096497,-2.2594501972198486,-1.511035442352295
1684252380440385000,3.840385009765625,0.155830517411232,-1.3890039920806885,-2.4639899730682373
1684252380450411000,3.850410888671875,0.22771935164928436,-0.5249007940292358,-2.620556592941284
1684252380460437200,3.860437255859375,0.5230642557144165,0.577164888381958,-2.3498826026916504
1684252380470463200,3.870463134765625,0.8913357257843018,2.1394906044006348,-1.940933346748352
1684252380480489200,3.8804892578125,1.1605451107025146,3.9059431552886963,-1.5270813703536987
1684252380490515200,3.89051513671875,1.1909592151641846,4.703634738922119,-1.1329164505004883
1684252380500541200,3.900541259765625,0.9335705041885376,3.719787359237671,-0.6006118655204773
1684252380510567200,3.910567138671875,0.4751858711242676,1.7953203916549683,-0.15935638546943665
1684252380520593200,3.92059326171875,0.1076107919216156,0.04467146098613739,-0.0454828143119812
1684252380530619100,3.930619140625,0.002719795797020197,-1.1337594985961914,-0.2469956874847412
1684252380540645000,3.94064501953125,0.13748417794704437,-1.6769238710403442,-0.7743277549743652
1684252380550671000,3.950671142578125,0.3576112389564514,-1.741316795349121,-1.341524600982666
1684252380560697300,3.960697265625,0.5710262060165405,-1.7134559154510498,-1.6200143098831177
1684252380570723300,3.970723388671875,0.7171179056167603,-1.8305494785308838,-1.5770848989486694
1684252380580749300,3.980749267578125,0.7815340757369995,-2.053788423538208,-1.3489372730255127
1684252380590775300,3.990775390625,0.7416010499000549,-2.131805181503296,-1.0732372999191284
1684252380600801300,4.00080126953125,0.6290910243988037,-2.0409293174743652,-0.7784395217895508
1684252380610826200,4.010826171875,0.47328492999076843,-1.8334295749664307,-0.49305465817451477
1684252380620852200,4.020852294921875,0.3293745219707489,-1.5688194036483765,-0.2895633280277252
1684252380630878200,4.030878173828125,0.268432080745697,-1.2193405628204346,-0.2759138345718384
1684252380640904200,4.040904296875,0.27252423763275146,-0.7046195268630981,-0.3948492407798767
1684252380650930200,4.05093017578125,0.2337706834077835,-0.18437102437019348,-0.41205379366874695
1684252380660956200,4.0609560546875,0.11632268130779266,0.25967660546302795,-0.2398604452610016
1684252380670982100,4.070982177734375,-0.04231942445039749,0.7031826376914978,0.02851935476064682
1684252380681008000,4.081008056640625,-0.19875100255012512,1.102388858795166,0.24825875461101532
1684252380691034400,4.091034423828125,-0.342248797416687,1.4155269861221313,0.3648362457752228
1684252380701060400,4.101060302734375,-0.47865965962409973,1.521148443222046,0.3787790834903717
1684252380711086300,4.11108642578125,-0.6029440760612488,1.436326026916504,0.292944073677063
1684252380721112300,4.1211123046875,-0.7075011730194092,1.2339084148406982,0.1391683667898178
1684252380731138300,4.13113818359375,-0.7617878317832947,0.9738906025886536,-0.035902246832847595
1684252380741164300,4.141164306640625,-0.7232255935668945,0.711074948310852,-0.18109072744846344
1684252380751190300,4.151190185546875,-0.5915067195892334,0.4863768517971039,-0.2787264883518219
1684252380761216300,4.16121630859375,-0.42011845111846924,0.3372182846069336,-0.3543317914009094
1684252380771242200,4.1712421875,-0.2610931098461151,0.2574382424354553,-0.4245132803916931
1684252380781268200,4.181268310546875,-0.13417845964431763,0.18624119460582733,-0.5064226984977722
1684252380791294200,4.191294189453125,-0.03494694083929062,0.08914046734571457,-0.6158240437507629
1684252380801320200,4.2013203125,0.044569242745637894,-0.0923464298248291,-0.7386083006858826
1684252380811346200,4.21134619140625,0.12636210024356842,-0.3578127324581146,-0.8317291736602783
1684252380821372200,4.2213720703125,0.20414559543132782,-0.6276370286941528,-0.8563674092292786
1684252380831398100,4.231398193359375,0.27280372381210327,-0.7909117341041565,-0.8134050369262695
1684252380841424100,4.241424072265625,0.34246909618377686,-0.7085183262825012,-0.7316001653671265
1684252380851450000,4.2514501953125,0.41944029927253723,-0.41364192962646484,-0.6537783741950989
1684252380861475300,4.261475341796875,0.4883621335029602,-0.037596020847558975,-0.5846285223960876
1684252380871501300,4.271501220703125,0.5250980854034424,0.24458028376102448,-0.5521648526191711
1684252380881527300,4.28152734375,0.5518467426300049,0.4324796199798584,-0.5900691151618958
1684252380891553300,4.29155322265625,0.5762948393821716,0.42073559761047363,-0.6677817106246948
1684252380901579300,4.301579345703125,0.5942075252532959,0.20111754536628723,-0.7172971367835999
1684252380911605000,4.31160498046875,0.6309226751327515,0.12920208275318146,-0.6856569051742554
1684252380921631000,4.321630859375,0.6953111290931702,0.3341061770915985,-0.6531230807304382
1684252380931657200,4.3316572265625,0.7555731534957886,0.5443371534347534,-0.6245673298835754
1684252380941683200,4.34168310546875,0.8014246821403503,0.4960901141166687,-0.6283624768257141
1684252380951709200,4.351709228515625,0.9167984127998352,0.36102229356765747,-0.6335446834564209
1684252380961735200,4.361735107421875,1.116865873336792,0.23547786474227905,-0.6305900812149048
1684252380971761200,4.37176123046875,1.3551790714263916,0.18136082589626312,-0.6325309872627258
1684252380981787100,4.381787109375,1.615765929222107,0.3831370174884796,-0.6887074708938599
1684252380991813000,4.391813232421875,1.8114843368530273,0.8180229663848877,-0.760187029838562
1684252381001839000,4.401839111328125,1.8562759160995483,1.190076470375061,-0.7567660808563232
1684252381011865000,4.411864990234375,1.7722095251083374,1.2609986066818237,-0.6510103344917297
1684252381021891000,4.42189111328125,1.636866807937622,1.2135611772537231,-0.5233046412467957
1684252381031917000,4.4319169921875,1.5128226280212402,1.2500518560409546,-0.4161563515663147
1684252381041943300,4.441943359375,1.4239224195480347,1.265070915222168,-0.33293524384498596
1684252381051969300,4.45196923828125,1.353585958480835,1.1841657161712646,-0.2733859121799469
1684252381061995300,4.461995361328125,1.3139992952346802,1.0133018493652344,-0.21543610095977783
1684252381072021200,4.472021240234375,1.2977513074874878,0.8796876072883606,-0.13141337037086487
1684252381082047200,4.482047119140625,1.2648590803146362,0.7852787971496582,-0.0218966007232666
1684252381092072200,4.492072265625,1.21430242061615,0.7574711441993713,0.09100305289030075
1684252381102098200,4.50209814453125,1.1765477657318115,0.7647534012794495,0.20831412076950073
1684252381112124200,4.512124267578125,1.1265028715133667,0.8213319778442383,0.3576021194458008
1684252381122150100,4.522150146484375,1.0623111724853516,0.9099814891815186,0.5476195216178894
1684252381132176100,4.532176025390625,0.9640241265296936,1.056396484375,0.8061919808387756
1684252381142202000,4.5422021484375,0.8057800531387329,1.1640030145645142,1.0651315450668335
1684252381152228400,4.552228271484375,0.5999807715415955,1.1439560651779175,1.2679016590118408
1684252381162254300,4.56225439453125,0.35293346643447876,0.9568039774894714,1.4227725267410278
1684252381172280300,4.5722802734375,0.07730615139007568,0.6184131503105164,1.5506809949874878
1684252381182306300,4.582306396484375,-0.19128024578094482,0.26541608572006226,1.679722547531128
1684252381192332500,4.59233251953125,-0.4516007602214813,-0.04347331449389458,1.8321330547332764
1684252381202358500,4.602358642578125,-0.7308593988418579,-0.3337220251560211,2.0074386596679688
1684252381212384500,4.612384521484375,-1.050009846687317,-0.5624236464500427,2.208660364151001
1684252381222410500,4.622410400390625,-1.4050081968307495,-0.7425283789634705,2.4163644313812256
1684252381232436500,4.6324365234375,-1.7954590320587158,-0.9350482821464539,2.564297914505005
1684252381242462500,4.64246240234375,-2.221564769744873,-1.1129990816116333,2.629117727279663
1684252381252488400,4.652488525390625,-2.694917678833008,-1.2023224830627441,2.5726115703582764
1684252381262514400,4.662514404296875,-3.217595100402832,-1.1384096145629883,2.360074043273926
1684252381272540400,4.67254052734375,-3.7581233978271484,-0.9372616410255432,2.039898633956909
1684252381282566400,4.68256640625,-4.249347686767578,-0.6418595314025879,1.6698447465896606
1684252381292592600,4.692592529296875,-4.643385887145996,-0.3310973644256592,1.3143126964569092
1684252381302618600,4.70261865234375,-4.913581371307373,-0.13841789960861206,1.0933440923690796
1684252381312644600,4.71264453125,-5.026381015777588,0.06856564432382584,0.9769149422645569
1684252381322670300,4.72267041015625,-5.07554817199707,0.5083913207054138,0.6645327806472778
1684252381332696300,4.7326962890625,-5.312915802001953,2.448854923248291,-1.3295769691467285
1684252381342721500,4.742721435546875,-4.8089189529418945,1.0668485164642334,-0.4445294141769409
1684252381352747500,4.75274755859375,-3.780867099761963,-0.3076033294200897,0.4652516841888428
1684252381362773500,4.7627734375,-2.439603567123413,0.8607616424560547,0.37552738189697266
1684252381372799500,4.772799560546875,-1.2166656255722046,3.140601634979248,0.24620799720287323
1684252381382825500,4.782825439453125,-0.4439505934715271,4.803520679473877,0.08624881505966187
1684252381392851500,4.7928515625,-0.04400690644979477,5.4500627517700195,-0.053121063858270645
1684252381402877400,4.80287744140625,-0.20290440320968628,3.4272735118865967,0.11170811951160431
1684252381412903400,4.8129033203125,-0.8641316294670105,-1.3544304370880127,0.5739375352859497
1684252381422929400,4.822929443359375,-1.185427188873291,-3.2786192893981934,0.7537393569946289
1684252381432955400,4.832955322265625,-0.9987611174583435,-3.0644688606262207,0.6719164252281189
1684252381442981400,4.8429814453125,-0.5477039813995361,-2.2390708923339844,0.5159494280815125
1684252381453007400,4.85300732421875,-0.05791456997394562,-1.1851252317428589,0.3499996066093445
1684252381463033300,4.863033447265625,0.3686736524105072,-0.11432328820228577,0.17060384154319763
1684252381473059300,4.873059326171875,0.7548826336860657,0.6905848979949951,-0.0006416676915250719
1684252381483085300,4.883085205078125,1.070726752281189,0.7941881418228149,-0.07665760070085526
1684252381493111300,4.893111328125,1.2215303182601929,-0.7048141360282898,0.07091987133026123
1684252381503137300,4.90313720703125,1.097447156906128,-4.268387317657471,0.5010329484939575
1684252381513163300,4.913163330078125,0.9736130237579346,-6.648264408111572,0.8901050686836243
1684252381523189200,4.923189208984375,1.0481748580932617,-7.165478706359863,1.0869438648223877
1684252381533215500,4.933215576171875,1.2712297439575195,-6.568875789642334,1.1359971761703491
1684252381543241500,4.943241455078125,1.4741491079330444,-5.335964202880859,1.0800189971923828
1684252381553267500,4.953267333984375,1.5396748781204224,-3.9657058715820312,0.9009461998939514
1684252381563293400,4.96329345703125,1.5152162313461304,-2.87119460105896,0.6570602655410767
1684252381573319400,4.9733193359375,1.4670228958129883,-2.751523494720459,0.4984807074069977
1684252381583344400,4.983344482421875,1.331067681312561,-4.361666202545166,0.3779446482658386
1684252381593370400,4.993370361328125,0.9918374419212341,-5.546810626983643,0.038351137191057205
1684252381603396400,5.003396240234375,0.5546942949295044,-5.123135566711426,-0.6347057819366455
1684252381613422300,5.01342236328125,0.2505384087562561,-3.0598556995391846,-1.270876407623291
1684252381623448300,5.0234482421875,0.22538189589977264,-0.5219596028327942,-1.4033732414245605
1684252381633474300,5.033474365234375,0.3846788704395294,1.6277365684509277,-1.0869609117507935
1684252381643500300,5.043500244140625,0.529883623123169,3.15787410736084,-0.6418789625167847
1684252381653526300,5.0535263671875,0.554914116859436,4.1372528076171875,-0.26355642080307007
1684252381663552500,5.063552490234375,0.46085578203201294,4.697897911071777,0.041620612144470215
1684252381673578500,5.07357861328125,0.3491175174713135,4.914560317993164,0.3703708052635193
1684252381683604500,5.0836044921875,0.30289435386657715,4.8036932945251465,0.7238839268684387
1684252381693630500,5.09363037109375,0.2927069365978241,4.5140299797058105,1.0145639181137085
1684252381703656400,5.103656494140625,0.27159571647644043,4.223857402801514,1.1670417785644531
1684252381713682400,5.113682373046875,0.24465572834014893,4.022209644317627,1.1982239484786987
1684252381723708400,5.12370849609375,0.2420017272233963,3.872161388397217,1.1536791324615479
1684252381733734400,5.133734375,0.2534179091453552,3.659054756164551,1.0444493293762207
1684252381743760400,5.143760498046875,0.2831496298313141,3.37739634513855,0.9262905120849609
1684252381753786400,5.153786376953125,0.31391260027885437,3.0571134090423584,0.832512617111206
1684252381763812400,5.163812255859375,0.35032665729522705,2.684722900390625,0.7790186405181885
1684252381773838600,5.173838623046875,0.38578611612319946,2.218951940536499,0.7446929216384888
1684252381783864600,5.183864501953125,0.42648375034332275,1.656904697418213,0.7393958568572998
1684252381793890600,5.193890625,0.4602864682674408,1.0604758262634277,0.7909528017044067
1684252381803916500,5.20391650390625,0.4884416162967682,0.42367151379585266,0.890960693359375
1684252381813942500,5.213942626953125,0.518385112285614,-0.15413883328437805,1.0428471565246582
1684252381823967500,5.223967529296875,0.5350774526596069,-0.6314657926559448,1.2165653705596924
1684252381833993500,5.233993408203125,0.5340800881385803,-0.9904540181159973,1.4107105731964111
1684252381844019500,5.24401953125,0.5067002177238464,-1.2315330505371094,1.6243687868118286
1684252381854045400,5.25404541015625,0.4505583941936493,-1.3463648557662964,1.8763624429702759
1684252381864071400,5.264071533203125,0.3452659249305725,-1.3964049816131592,2.219944477081299
1684252381874097400,5.274097412109375,0.18597479164600372,-1.3580533266067505,2.7503128051757812
1684252381884123400,5.284123291015625,-0.017793038859963417,-0.8601987957954407,3.415619373321533
1684252381894149400,5.2941494140625,-0.2534162104129791,0.24696598947048187,4.027010917663574
1684252381904175600,5.304175537109375,-0.4287567436695099,2.0309998989105225,4.247686862945557
1684252381914201600,5.31420166015625,-0.5063706040382385,4.188105583190918,3.737466335296631
1684252381924227600,5.3242275390625,-0.4934694468975067,5.669769763946533,2.614023447036743
1684252381934253600,5.334253662109375,-0.6284278035163879,5.891316890716553,1.257775068283081
1684252381944279600,5.344279541015625,-1.0378888845443726,5.035053253173828,-0.08021251112222672
1684252381954305500,5.354305419921875,-1.602856159210205,3.4177405834198,-1.2403980493545532
1684252381964331300,5.364331298828125,-2.0617716312408447,1.9068171977996826,-2.268686294555664
1684252381974357200,5.374357177734375,-2.424609422683716,0.6397173404693604,-3.0995688438415527
1684252381984383200,5.38438330078125,-2.684060573577881,-0.5545161366462708,-3.7497758865356445
1684252381994409200,5.3944091796875,-2.8259503841400146,-1.5183748006820679,-4.149585723876953
1684252382004435200,5.404435302734375,-2.9535574913024902,-2.260298490524292,-4.357538223266602
1684252382014461400,5.41446142578125,-3.0759966373443604,-2.753615140914917,-4.37307596206665
1684252382024487400,5.4244873046875,-3.1875412464141846,-3.002229690551758,-4.122988700866699
1684252382034513400,5.434513427734375,-3.1075406074523926,-2.7382307052612305,-2.9266357421875
1684252382044539400,5.444539306640625,-2.5810539722442627,-0.8007800579071045,-0.4236743450164795
1684252382054565400,5.4545654296875,-2.057392120361328,1.866818904876709,1.0937048196792603
1684252382064590300,5.46459033203125,-1.6204044818878174,3.9315109252929688,1.5083009004592896
1684252382074616300,5.4746162109375,-1.2409805059432983,5.355432510375977,0.9257791042327881
1684252382084642300,5.484642333984375,-0.9985263347625732,5.613425254821777,-0.14910517632961273
1684252382094668300,5.494668212890625,-0.9275065660476685,4.745453357696533,-1.19987154006958
1684252382104694300,5.5046943359375,-0.8635490536689758,3.5936007499694824,-1.9604134559631348
1684252382114720300,5.51472021484375,-0.632645845413208,2.3132846355438232,-2.2613532543182373
1684252382124746200,5.524746337890625,-0.22953751683235168,1.1637096405029297,-2.2907557487487793
1684252382134772200,5.534772216796875,0.291744589805603,0.05962355062365532,-2.1850812435150146
1684252382144798500,5.544798583984375,0.8822013735771179,-0.9215001463890076,-2.1315276622772217
1684252382154824400,5.554824462890625,1.4425102472305298,-1.836614727973938,-2.2555184364318848
1684252382164850400,5.564850341796875,1.8675190210342407,-2.431985855102539,-2.535033941268921
1684252382174876400,5.57487646484375,2.0526225566864014,-2.641737699508667,-2.916689395904541
1684252382184902400,5.58490234375,2.1235156059265137,-2.4461965560913086,-3.2463178634643555
1684252382194928600,5.5949287109375,2.169790506362915,-1.9355584383010864,-3.260395050048828
1684252382204954600,5.60495458984375,2.1678626537323,-1.0461121797561646,-2.8719966411590576
1684252382214980600,5.614980712890625,2.099069356918335,0.13809777796268463,-2.275068998336792
1684252382225006600,5.625006591796875,1.9850549697875977,1.2315539121627808,-1.5936812162399292
1684252382235032600,5.635032470703125,1.8636106252670288,1.7485712766647339,-0.9981891512870789
1684252382245058600,5.64505859375,1.8499479293823242,1.7849119901657104,-0.6593304872512817
1684252382255084500,5.65508447265625,1.9991874694824219,1.7134345769882202,-0.48945915699005127
1684252382265110500,5.665110595703125,2.297072649002075,1.6842695474624634,-0.3776654899120331
1684252382275136500,5.675136474609375,2.6440393924713135,1.6129533052444458,-0.35625872015953064
1684252382285162500,5.68516259765625,2.890599250793457,1.6698716878890991,-0.407870888710022
1684252382295188500,5.6951884765625,2.9508378505706787,1.8643993139266968,-0.4519802927970886
1684252382305214700,5.705214599609375,2.8001391887664795,1.7550547122955322,-0.4330495297908783
1684252382315239400,5.715239501953125,2.532301425933838,1.4362441301345825,-0.2704204022884369
1684252382325265700,5.725265625,2.2460176944732666,1.2084084749221802,0.009025676175951958
1684252382335291600,5.735291748046875,1.9721314907073975,1.2560029029846191,0.26531845331192017
1684252382345317600,5.745317626953125,1.6779645681381226,1.4930691719055176,0.4402400553226471
1684252382355343600,5.755343505859375,1.3881900310516357,1.6315189599990845,0.5171814560890198
1684252382365369600,5.76536962890625,1.1902587413787842,1.51532781124115,0.5601849555969238
1684252382375395600,5.7753955078125,1.1038072109222412,1.163390874862671,0.6335191130638123
1684252382385421600,5.785421630859375,1.069965124130249,0.718967854976654,0.7372626066207886
1684252382395447600,5.795447509765625,1.063388705253601,0.3604153096675873,0.8725926876068115
1684252382405473500,5.8054736328125,1.0035430192947388,0.08565952628850937,1.0292723178863525
1684252382415499500,5.81549951171875,0.8477708697319031,-0.24404114484786987,1.2276418209075928
1684252382425525500,5.825525390625,0.6425510048866272,-0.5375505685806274,1.4703058004379272
1684252382435551700,5.8355517578125,0.42705148458480835,-0.7034454941749573,1.7192636728286743
1684252382445577700,5.84557763671875,0.2268192619085312,-0.8096702694892883,1.9641594886779785
1684252382455603700,5.855603759765625,0.04720954969525337,-0.9466819167137146,2.194979190826416
1684252382465629700,5.865629638671875,-0.11840599030256271,-1.2052979469299316,2.4074816703796387
1684252382475655700,5.87565576171875,-0.24713174998760223,-1.492811679840088,2.601933240890503
1684252382485681400,5.885681396484375,-0.34769973158836365,-1.6990548372268677,2.763991594314575
1684252382495707400,5.895707275390625,-0.43661123514175415,-1.746901035308838,2.9021029472351074
1684252382505733400,5.9057333984375,-0.5388764142990112,-1.7220752239227295,2.9855780601501465
1684252382515759400,5.91575927734375,-0.6583157181739807,-1.697987675666809,3.013852834701538
1684252382525785300,5.925785400390625,-0.765586793422699,-1.7434622049331665,2.9602904319763184
1684252382535811300,5.935811279296875,-0.7896982431411743,-2.103264808654785,2.6370930671691895
1684252382545837600,5.945837646484375,-0.6275618076324463,-3.103872537612915,1.7252418994903564
1684252382555862500,5.955862548828125,0.09092097729444504,-5.534969329833984,-0.06307608634233475
1684252382565888800,5.965888671875,1.9456217288970947,-9.569840431213379,-2.4693479537963867
1684252382575914500,5.97591455078125,3.59956955909729,-11.702126502990723,-1.8746379613876343
1684252382585940500,5.9859404296875,3.8633246421813965,-10.41128158569336,-0.5721424221992493
1684252382595966500,5.995966552734375,3.3091866970062256,-6.718511581420898,-3.285764455795288
1684252382605992400,6.005992431640625,1.58110511302948,-1.019684076309204,-6.267154216766357
1684252382616018400,6.016018310546875,1.4922010898590088,1.7379473447799683,-0.9825223088264465
1684252382626044400,6.02604443359375,1.281776785850525,5.31935453414917,0.6132744550704956
1684252382636070400,6.0360703125,0.37486764788627625,7.1537184715271,-0.25813794136047363
1684252382646096400,6.046096435546875,-0.6467531323432922,6.940889835357666,-1.3702839612960815
1684252382656122400,6.056122314453125,-1.7692328691482544,4.696792125701904,-2.3251240253448486
1684252382666148400,6.0661484375,-2.7750942707061768,1.826002597808838,-3.009472131729126
1684252382676174600,6.076174560546875,-3.311392307281494,0.15888085961341858,-3.1353514194488525
1684252382686200600,6.08620068359375,-3.370584011077881,-0.13636310398578644,-2.6416590213775635
1684252382696226600,6.0962265625,-3.0599100589752197,0.4294898808002472,-1.8030540943145752
1684252382706252500,6.10625244140625,-2.5512144565582275,1.400336742401123,-0.8177868723869324
1684252382716278500,6.116278564453125,-1.9026583433151245,2.2835612297058105,0.1859273910522461
1684252382726304500,6.126304443359375,-1.304089903831482,2.826627016067505,1.0727030038833618
1684252382736330500,6.13633056640625,-0.8044673204421997,2.9905073642730713,1.856762409210205
1684252382746356500,6.1463564453125,-0.4539106488227844,2.57869029045105,2.642083168029785
1684252382756382500,6.156382568359375,-0.4258579611778259,0.20222319662570953,4.039623737335205
1684252382766408400,6.166408447265625,-0.5245548486709595,-2.4381768703460693,5.310410976409912
1684252382776434400,6.176434326171875,-0.42919689416885376,-3.4515268802642822,5.8290629386901855
1684252382786460700,6.186460693359375,-0.165664404630661,-3.1911637783050537,5.776203155517578
1684252382796485400,6.1964853515625,0.0481133870780468,-3.161440372467041,5.278295993804932
1684252382806512600,6.2065126953125,-0.08652869611978531,-5.9153900146484375,3.7913882732391357
1684252382816537600,6.21653759765625,-0.2577292025089264,-7.664048194885254,1.65816330909729
1684252382826563600,6.2265634765625,-0.15297313034534454,-7.262695789337158,-0.26726773381233215
1684252382836589600,6.236589599609375,0.2224428355693817,-5.86445951461792,-1.6044467687606812
1684252382846615600,6.246615478515625,0.6460140943527222,-4.530401229858398,-2.3269026279449463
1684252382856641500,6.2566416015625,0.9634581208229065,-3.93123722076416,-2.4893016815185547
1684252382866667500,6.26666748046875,1.1289421319961548,-4.041746139526367,-2.066354751586914
1684252382876693500,6.276693603515625,1.1484673023223877,-4.078946590423584,-1.3208783864974976
1684252382886719500,6.286719482421875,1.0814896821975708,-3.452937126159668,-0.628500759601593
1684252382896745500,6.296745361328125,1.0046113729476929,-2.144117593765259,-0.2346983700990677
1684252382906771500,6.306771484375,0.942294180393219,-0.5192394256591797,-0.12178954482078552
1684252382916797700,6.316797607421875,0.8968816995620728,1.0380606651306152,-0.1517903208732605
1684252382926823700,6.32682373046875,0.8310105800628662,2.2222554683685303,-0.16463667154312134
1684252382936849700,6.336849609375,0.7417901754379272,2.8964946269989014,-0.05813473090529442
1684252382946875600,6.346875732421875,0.6576622724533081,2.9816877841949463,0.2387988567352295
1684252382956901600,6.356901611328125,0.6136687397956848,2.5570881366729736,0.6874210834503174
1684252382966927600,6.366927734375,0.6111645698547363,2.1026008129119873,1.0702883005142212
1684252382976953600,6.37695361328125,0.5885884165763855,1.8020533323287964,1.3145813941955566
1684252382986979600,6.3869794921875,0.5231729745864868,1.5715712308883667,1.4212368726730347
1684252382997005600,6.397005615234375,0.42960044741630554,1.313567042350769,1.4062548875808716
1684252383007031600,6.407031494140625,0.3097909986972809,0.9858764410018921,1.3228979110717773
1684252383017057500,6.4170576171875,0.21057841181755066,0.5975492000579834,1.244173526763916
1684252383027083500,6.42708349609375,0.12153124064207077,0.15136808156967163,1.2113895416259766
1684252383037109500,6.437109619140625,0.041887544095516205,-0.2768314778804779,1.1783080101013184
1684252383047134700,6.447134765625,-0.01466436218470335,-0.5693362355232239,1.071925401687622
1684252383057160700,6.45716064453125,-0.03190486878156662,-0.7316502928733826,0.9069973826408386
1684252383067186700,6.467186767578125,-0.015291268937289715,-0.8344354629516602,0.7433652877807617
1684252383077212700,6.477212646484375,0.011234881356358528,-0.8932798504829407,0.6179743409156799
1684252383087238700,6.48723876953125,0.02741699293255806,-0.9054185152053833,0.5831000208854675
1684252383097264600,6.4972646484375,-0.0010258324909955263,-0.8924044370651245,0.6570432782173157
1684252383107290600,6.50729052734375,-0.09440100193023682,-0.8595618605613708,0.8103035688400269
1684252383117316600,6.517316650390625,-0.24885982275009155,-0.753984272480011,1.0242207050323486
1684252383127342300,6.52734228515625,-0.461676687002182,-0.5382353663444519,1.1997361183166504
1684252383137368300,6.537368408203125,-0.7017220258712769,-0.21799235045909882,1.252217411994934
1684252383147394300,6.547394287109375,-0.9468742609024048,0.12616486847400665,1.1284838914871216
1684252383157420300,6.557420166015625,-1.1783382892608643,0.3702752888202667,0.8718534111976624
1684252383167446300,6.5674462890625,-1.3388992547988892,0.43164846301078796,0.547650158405304
1684252383177472300,6.57747216796875,-1.3706973791122437,0.3392053544521332,0.22915686666965485
1684252383187498200,6.587498291015625,-1.285003900527954,0.08719712495803833,-0.019496919587254524
1684252383197524200,6.597524169921875,-1.1277191638946533,-0.2876899242401123,-0.16144287586212158
1684252383207550200,6.60755029296875,-0.9434577822685242,-0.7322942614555359,-0.1769101470708847
1684252383217576200,6.617576171875,-0.7600088715553284,-1.1938971281051636,-0.06531278789043427
1684252383227602200,6.627602294921875,-0.5696839094161987,-1.5828003883361816,0.14152982831001282
1684252383237628200,6.637628173828125,-0.3800910711288452,-1.8267147541046143,0.4016985297203064
1684252383247654400,6.647654296875,-0.1748393326997757,-1.8217833042144775,0.6809133291244507
1684252383257680400,6.657680419921875,0.051912590861320496,-1.4779266119003296,0.9598416090011597
1684252383267706400,6.667706298828125,0.27630773186683655,-0.9248436093330383,1.1097358465194702
1684252383277732400,6.677732421875,0.38065704703330994,-0.4568827748298645,0.921331524848938
1684252383287757300,6.68775732421875,0.4058782756328583,0.009568298235535622,0.44940513372421265
1684252383297783300,6.697783203125,0.5000439286231995,0.6161170601844788,-0.11522577702999115
1684252383307809300,6.707809326171875,0.6902129054069519,1.3454102277755737,-0.6543165445327759
1684252383317835300,6.717835205078125,0.8879555463790894,1.8997912406921387,-1.0998204946517944
1684252383327861200,6.727861328125,1.0427525043487549,1.9857068061828613,-1.379024624824524
1684252383337887200,6.73788720703125,1.1835980415344238,1.768222451210022,-1.4015551805496216
1684252383347913200,6.747913330078125,1.30278742313385,1.2668365240097046,-1.2199701070785522
1684252383357939200,6.757939208984375,1.310936689376831,0.46743232011795044,-0.9751020669937134
1684252383367965200,6.767965087890625,1.3648713827133179,-0.631958544254303,-0.5256024599075317
1684252383377991400,6.777991455078125,1.5385750532150269,-2.2137701511383057,0.2948266863822937
1684252383388017400,6.788017333984375,1.640191674232483,-3.3442156314849854,1.1292266845703125
1684252383398043400,6.79804345703125,1.4632335901260376,-1.9526361227035522,1.143083930015564
1684252383408069400,6.8080693359375,0.8279384970664978,3.1662237644195557,-0.7384837865829468
1684252383418095400,6.818095458984375,0.2506099045276642,5.371336936950684,-1.9620057344436646
1684252383428121300,6.828121337890625,-0.14020614326000214,5.226661682128906,-2.4429781436920166
1684252383438147300,6.838147216796875,-0.43535125255584717,4.4213948249816895,-2.7334394454956055
1684252383448173300,6.84817333984375,-0.629030168056488,3.5394928455352783,-3.012266159057617
1684252383458199300,6.85819921875,-0.7219350934028625,2.6995937824249268,-3.2319836616516113
1684252383468225300,6.868225341796875,-0.693173885345459,2.00264835357666,-3.362946033477783
1684252383478251300,6.878251220703125,-0.5746387243270874,1.5061308145523071,-3.4140241146087646
1684252383488277500,6.888277587890625,-0.4053480923175812,1.1947087049484253,-3.4116907119750977
1684252383498303500,6.898303466796875,-0.2107653021812439,1.0500788688659668,-3.3571534156799316
1684252383508329500,6.90832958984375,-0.036943938583135605,1.0935958623886108,-3.216262102127075
1684252383518355500,6.91835546875,0.12012957036495209,1.352115511894226,-2.9349873065948486
1684252383528380400,6.92838037109375,0.2941281795501709,1.7276794910430908,-2.545384645462036
1684252383538406400,6.938406494140625,0.519931435585022,2.3280327320098877,-2.010026693344116
1684252383548432400,6.948432373046875,0.7826189994812012,2.9612832069396973,-1.3585361242294312
1684252383558458400,6.958458251953125,0.9406126141548157,2.6693851947784424,-0.5202438831329346
1684252383568484400,6.968484375,0.9392558336257935,1.0803356170654297,0.5303948521614075
1684252383578510300,6.97851025390625,0.9432675838470459,-0.36258578300476074,1.327048897743225
1684252383588536300,6.988536376953125,1.023409128189087,-1.18340265750885,1.8021692037582397
1684252383598562300,6.998562255859375,1.1328831911087036,-1.5024996995925903,2.017671585083008
1684252383608588300,7.00858837890625,1.2484239339828491,-1.5025901794433594,1.895293116569519
1684252383618614500,7.018614501953125,1.403338074684143,-1.1375174522399902,1.3619314432144165
1684252383628640500,7.028640625,1.5567851066589355,-0.360622376203537,0.6907296776771545
1684252383638666500,7.03866650390625,1.6305590867996216,0.5998522639274597,0.18017935752868652
1684252383648692500,7.0486923828125,1.6283029317855835,1.4755723476409912,-0.017772378399968147
1684252383658718500,7.058718505859375,1.555774211883545,1.9478312730789185,0.084843210875988
1684252383668744400,7.068744384765625,1.4276039600372314,2.0861732959747314,0.39717012643814087
1684252383678770200,7.078770263671875,1.2568812370300293,2.042543888092041,0.8227096796035767
1684252383688796200,7.088796142578125,1.0322763919830322,1.9265795946121216,1.2903343439102173
1684252383698822100,7.098822265625,0.7625650763511658,1.8464924097061157,1.7006566524505615
1684252383708848000,7.10884814453125,0.5166793465614319,1.8293447494506836,2.019371747970581
1684252383718874000,7.1188740234375,0.33779269456863403,1.8271031379699707,2.2530481815338135
1684252383728900400,7.128900390625,0.20794756710529327,1.7627217769622803,2.4258437156677246
1684252383738926300,7.13892626953125,0.10586754232645035,1.5881887674331665,2.469224214553833
1684252383748952300,7.148952392578125,0.02130190096795559,1.5453490018844604,2.150024890899658
1684252383758978300,7.158978271484375,-0.04191674664616585,1.9266347885131836,1.5197559595108032
1684252383769003300,7.169003173828125,-0.06721549481153488,2.4972033500671387,0.9248337745666504
1684252383779029200,7.179029296875,-0.07488913089036942,2.972033739089966,0.5705803632736206
1684252383789055200,7.18905517578125,-0.06834983825683594,3.2096168994903564,0.5437076091766357
1684252383799081200,7.199081298828125,-0.060029059648513794,3.241196393966675,0.7618836164474487
1684252383809107200,7.209107177734375,-0.048980463296175,3.204747438430786,1.0928629636764526
1684252383819133200,7.21913330078125,-0.03404838591814041,3.2255802154541016,1.4259060621261597
1684252383829159200,7.2291591796875,-0.01220631692558527,3.3335065841674805,1.7059053182601929
1684252383839185200,7.23918505859375,0.023999091237783432,3.479120969772339,1.9292278289794922
1684252383849211100,7.249211181640625,0.046585842967033386,3.586167573928833,2.0913474559783936
1684252383859237400,7.2592373046875,0.04291680455207825,3.599316120147705,2.2084267139434814
1684252383869263400,7.269263427734375,0.012800820171833038,3.5150585174560547,2.3008639812469482
1684252383879289300,7.279289306640625,-0.025443505495786667,3.3643693923950195,2.376105308532715
1684252383889315300,7.2893154296875,-0.04766550660133362,3.217494010925293,2.410263776779175
1684252383899341300,7.29934130859375,-0.04540102183818817,3.211103677749634,2.3911538124084473
1684252383909367300,7.3093671875,-0.016702258959412575,3.3829243183135986,2.3230884075164795
1684252383919393300,7.319393310546875,0.04965679347515106,3.6194007396698,2.212430477142334
1684252383929419300,7.329419189453125,0.13557083904743195,3.6978209018707275,2.0860745906829834
1684252383939445200,7.3394453125,0.22554519772529602,3.393098831176758,2.000393867492676
1684252383949471200,7.34947119140625,0.33390846848487854,2.313472270965576,2.1090664863586426
1684252383959497200,7.359497314453125,0.4268075227737427,0.4148854613304138,2.4657182693481445
1684252383969523500,7.3695234375,0.4303036630153656,-1.3598287105560303,2.77549409866333
1684252383979549400,7.379549560546875,0.33857986330986023,-1.995764970779419,2.83701229095459
1684252383989575400,7.389575439453125,0.13416793942451477,-1.076974630355835,2.416059970855713
1684252383999601400,7.399601318359375,-0.1719970405101776,1.1461467742919922,1.621334433555603
1684252384009626400,7.40962646484375,-0.4343821108341217,3.1049365997314453,0.9662890434265137
1684252384019652400,7.41965234375,-0.5755019783973694,3.915867567062378,0.7184416651725769
1684252384029678300,7.42967822265625,-0.6477915048599243,3.884364128112793,0.7890422940254211
1684252384039704300,7.439704345703125,-0.71027672290802,3.588078022003174,0.9720552563667297
1684252384049730300,7.449730224609375,-0.7897680997848511,3.3859267234802246,1.1003227233886719
1684252384059756300,7.45975634765625,-0.814871609210968,3.4305806159973145,1.153011441230774
1684252384069782300,7.4697822265625,-0.7645905613899231,3.529675245285034,1.1687185764312744
1684252384079808300,7.479808349609375,-0.6535338163375854,3.436662197113037,1.2586042881011963
1684252384089834200,7.489834228515625,-0.48754802346229553,3.08794903755188,1.500582218170166
1684252384099860500,7.499860595703125,-0.28081509470939636,2.594559669494629,1.811795711517334
1684252384109886500,7.509886474609375,-0.043447330594062805,2.2503371238708496,2.0811007022857666
1684252384119912400,7.519912353515625,0.19044426083564758,2.14843487739563,2.2683043479919434
1684252384129938400,7.5299384765625,0.3898772597312927,2.1892340183258057,2.399871349334717
1684252384139964400,7.53996435546875,0.531832218170166,2.225060224533081,2.4888129234313965
1684252384149990400,7.549990478515625,0.627933919429779,2.210123062133789,2.532702684402466
1684252384160016400,7.560016357421875,0.653053343296051,2.1541645526885986,2.5137410163879395
1684252384170042600,7.570042724609375,0.5922566652297974,2.069983720779419,2.3855860233306885
1684252384180068600,7.580068603515625,0.459243506193161,2.01227068901062,2.1644883155822754
1684252384190094600,7.590094482421875,0.312093585729599,2.0486605167388916,1.8871344327926636
1684252384200120600,7.60012060546875,0.2034033238887787,2.138258695602417,1.5869139432907104
1684252384210146300,7.610146240234375,0.16687805950641632,2.2543041706085205,1.2989190816879272
1684252384220172300,7.62017236328125,0.1950729489326477,2.349318504333496,1.048845887184143
1684252384230198300,7.6301982421875,0.24256610870361328,2.4051992893218994,0.8304219245910645
1684252384240224300,7.640224365234375,0.2818160653114319,2.4294002056121826,0.6441715955734253
1684252384250250200,7.650250244140625,0.3047775626182556,2.473081588745117,0.5026161074638367
1684252384260275500,7.660275390625,0.29947733879089355,2.5927035808563232,0.40901774168014526
1684252384270301400,7.670301513671875,0.27842313051223755,2.7803361415863037,0.3417888581752777
1684252384280327400,7.680327392578125,0.29294881224632263,3.0110321044921875,0.29254913330078125
1684252384290353400,7.690353515625,0.32967454195022583,3.257737636566162,0.26689258217811584
1684252384300379400,7.70037939453125,0.36568474769592285,3.4198031425476074,0.29118192195892334
1684252384310405400,7.7104052734375,0.3873272240161896,3.4625778198242188,0.3929794430732727
1684252384320431400,7.720431396484375,0.3987508714199066,3.3981873989105225,0.5722160339355469
1684252384330457300,7.730457275390625,0.39585360884666443,3.2292916774749756,0.8065946102142334
1684252384340483300,7.7404833984375,0.3728193938732147,2.9935038089752197,1.0589864253997803
1684252384350509300,7.75050927734375,0.3216284513473511,2.7368364334106445,1.2876955270767212
1684252384360535300,7.760535400390625,0.2582862079143524,2.5059406757354736,1.4570204019546509
1684252384370561300,7.770561279296875,0.1968528926372528,2.3527090549468994,1.554839849472046
1684252384380587300,7.780587158203125,0.14697827398777008,2.281972885131836,1.5844191312789917
1684252384390613200,7.79061328125,0.12510280311107635,2.3180429935455322,1.5553295612335205
1684252384400639200,7.80063916015625,0.13102328777313232,2.446063995361328,1.501785159111023
1684252384410665500,7.81066552734375,0.1498846858739853,2.620833158493042,1.429090142250061
1684252384420691500,7.82069140625,0.17207494378089905,2.7934153079986572,1.3595377206802368
1684252384430717400,7.830717529296875,0.19642269611358643,2.8825573921203613,1.3110297918319702
1684252384440743400,7.840743408203125,0.21999113261699677,2.810321807861328,1.2948518991470337
1684252384450769400,7.850769287109375,0.23650431632995605,2.560944080352783,1.3276808261871338
1684252384460795400,7.86079541015625,0.23744574189186096,2.239985227584839,1.3937608003616333
1684252384470821400,7.8708212890625,0.20552238821983337,1.9960620403289795,1.4357519149780273
1684252384480847400,7.880847412109375,0.1503041386604309,1.9067656993865967,1.42353093624115
1684252384490873300,7.890873291015625,0.09648795425891876,1.9265267848968506,1.3504209518432617
1684252384500898300,7.900898193359375,0.06223038211464882,1.9901310205459595,1.2482719421386719
1684252384510924300,7.91092431640625,0.07396920770406723,2.035994052886963,1.1429486274719238
1684252384520950300,7.9209501953125,0.09631898999214172,2.024735450744629,1.0455615520477295
1684252384530976300,7.930976318359375,0.12963002920150757,1.9478942155838013,0.9667512774467468
1684252384541002500,7.94100244140625,0.15446719527244568,1.830613374710083,0.8925611972808838
1684252384551028500,7.951028564453125,0.1642969846725464,1.6922874450683594,0.8048173785209656
1684252384561054500,7.961054443359375,0.1524674892425537,1.5466290712356567,0.7103902101516724
1684252384571080400,7.97108056640625,0.13502137362957,1.4130698442459106,0.6006708741188049
1684252384581106400,7.9811064453125,0.12971395254135132,1.309202790260315,0.4966789484024048
1684252384591132400,7.99113232421875,0.1366899013519287,1.2244315147399902,0.40613678097724915
1684252384601158400,8.001158447265626,0.14831379055976868,1.1420730352401733,0.3341880142688751
1684252384611184400,8.011184326171875,0.1614464372396469,1.0756289958953857,0.27334436774253845
1684252384621210400,8.02121044921875,0.17031902074813843,1.0419224500656128,0.21287833154201508
1684252384631236400,8.031236328125,0.17771674692630768,1.0446200370788574,0.14132262766361237
1684252384641262300,8.041262451171875,0.16346138715744019,1.068341851234436,0.04987579211592674
1684252384651288600,8.05128857421875,0.15106382966041565,1.0965403318405151,-0.035199400037527084
1684252384661314600,8.061314453125,0.13414716720581055,1.1317366361618042,-0.08679042011499405
1684252384671340500,8.071340576171876,0.09919606149196625,1.1837447881698608,-0.10191494226455688
1684252384681366500,8.081366455078125,0.046097952872514725,1.2809884548187256,-0.11020563542842865
1684252384691392500,8.091392578125,-0.052653227001428604,1.7292437553405762,-0.2504347860813141
1684252384701418500,8.10141845703125,-0.14420445263385773,2.1673643589019775,-0.5641692280769348
1684252384711444500,8.111444580078125,-0.2016075998544693,2.2395827770233154,-0.8900418281555176
1684252384721470500,8.121470458984374,-0.2142922282218933,2.096750020980835,-1.1575697660446167
1684252384731496400,8.131496337890624,-0.17146611213684082,1.898034691810608,-1.3330708742141724
1684252384741521400,8.141521484375,-0.058802686631679535,1.7206847667694092,-1.4148310422897339
1684252384751547400,8.15154736328125,0.0930681824684143,1.649396538734436,-1.383884310722351
1684252384761573400,8.161573486328125,0.25155583024024963,1.7170010805130005,-1.2511014938354492
1684252384771599400,8.171599365234375,0.3778475224971771,1.933661937713623,-1.0680711269378662
1684252384781625600,8.18162548828125,0.4604419767856598,2.0962283611297607,-0.8792111277580261
1684252384791651600,8.191651611328124,0.5141487717628479,2.0609607696533203,-0.6970028281211853
1684252384801677600,8.201677490234376,0.5444957613945007,1.7740199565887451,-0.5567400455474854
1684252384811703600,8.21170361328125,0.5606275200843811,1.3151638507843018,-0.47252511978149414
1684252384821729500,8.2217294921875,0.5496741533279419,0.7936093807220459,-0.4476003348827362
1684252384831755500,8.231755615234375,0.5215517282485962,0.30235886573791504,-0.48455798625946045
1684252384841781500,8.241781494140625,0.5033513903617859,-0.06521300971508026,-0.5666723251342773
1684252384851807200,8.25180712890625,0.500582754611969,-0.2368381917476654,-0.6611402034759521
1684252384861833200,8.261833251953124,0.49848097562789917,-0.22849370539188385,-0.7290081977844238
1684252384871859200,8.271859130859376,0.4956737458705902,-0.10684189945459366,-0.7475441694259644
1684252384881885200,8.28188525390625,0.49586042761802673,-0.038146987557411194,-0.7029651999473572
1684252384891911400,8.291911376953125,0.48342210054397583,-0.09454967081546783,-0.544991672039032
1684252384901937400,8.3019375,0.46266409754753113,-0.16063308715820312,-0.23785120248794556
1684252384911963400,8.31196337890625,0.46754392981529236,-0.035592105239629745,0.14759477972984314
1684252384921989400,8.3219892578125,0.49800407886505127,0.3153150677680969,0.39987921714782715
1684252384932015400,8.332015380859374,0.5419042110443115,0.9249506592750549,0.4770551919937134
1684252384942041300,8.342041259765624,0.5640819668769836,1.6438555717468262,0.47526606917381287
1684252384952067300,8.3520673828125,0.5482101440429688,2.137230396270752,0.39689815044403076
1684252384962093300,8.36209326171875,0.47866493463516235,2.3374879360198975,0.31065595149993896
1684252384972119300,8.372119384765625,0.3856412470340729,2.281262159347534,0.26357901096343994
1684252384982144300,8.382144287109375,0.3097672462463379,2.0339529514312744,0.28039050102233887
1684252384992170200,8.392170166015624,0.2933428883552551,1.720069408416748,0.34256821870803833
1684252385002196200,8.4021962890625,0.3508772850036621,1.4414020776748657,0.35347625613212585
1684252385012222200,8.41222216796875,0.48887163400650024,1.2850853204727173,0.23285581171512604
1684252385022248400,8.42224853515625,0.6530094742774963,1.2502881288528442,0.008027490228414536
1684252385032274400,8.4322744140625,0.7951381206512451,1.2251334190368652,-0.21615001559257507
1684252385042300400,8.442300537109375,0.8596872687339783,1.1515135765075684,-0.34418734908103943
1684252385052326400,8.452326416015625,0.8322405219078064,0.9463961720466614,-0.3645660877227783
1684252385062352400,8.462352294921875,0.7693262696266174,0.6755966544151306,-0.33630648255348206
1684252385072378400,8.47237841796875,0.6941574811935425,0.49111923575401306,-0.31938332319259644
1684252385082404400,8.482404296875,0.633525013923645,0.4651970863342285,-0.3340171277523041
1684252385092430300,8.492430419921876,0.6256089806556702,0.5744631886482239,-0.34158533811569214
1684252385102456300,8.502456298828125,0.6561101675033569,0.735008955001831,-0.3288993835449219
1684252385112482300,8.512482421875,0.6794875264167786,0.862537682056427,-0.31562918424606323
1684252385122508300,8.52250830078125,0.6802449226379395,0.9213144183158875,-0.28655439615249634
1684252385132534500,8.532534423828125,0.669460117816925,0.881589412689209,-0.2352341264486313
1684252385142560500,8.542560546875,0.6549482345581055,0.7896272540092468,-0.1491735428571701
1684252385152585500,8.55258544921875,0.6517812013626099,0.7158473134040833,-0.048318661749362946
1684252385162611500,8.562611572265626,0.647062361240387,0.7225816249847412,0.015057113021612167
1684252385172637400,8.572637451171875,0.6433255076408386,0.7690352201461792,0.02156793139874935
1684252385182663700,8.58266357421875,0.6261438727378845,0.7871367335319519,0.015246119350194931
1684252385192689700,8.592689697265625,0.5984179973602295,0.7353916764259338,0.020526045933365822
1684252385202715600,8.602715576171875,0.5914101600646973,0.6054901480674744,0.03677825257182121
1684252385212741600,8.61274169921875,0.6035043597221375,0.47496774792671204,0.026107583194971085
1684252385222766600,8.6227666015625,0.6398522853851318,0.40684089064598083,0.015060525387525558
1684252385232792600,8.63279248046875,0.6544352173805237,0.4273108243942261,-0.004380902275443077
1684252385242818600,8.642818603515625,0.6064762473106384,0.49838101863861084,-0.03347540274262428
1684252385252844500,8.652844482421875,0.5141279101371765,0.5456771850585938,-0.07041291147470474
1684252385262870500,8.66287060546875,0.3954170048236847,0.5140364170074463,-0.07806363701820374
1684252385272896500,8.672896484375,0.2950803339481354,0.39220213890075684,-0.03449409455060959
1684252385282922500,8.682922607421874,0.238003209233284,0.22338198125362396,0.02169460989534855
1684252385292948500,8.692948486328126,0.214402437210083,0.09589371085166931,0.0773981586098671
1684252385302974500,8.702974365234375,0.2132285088300705,0.0033547249622642994,0.1355602741241455
1684252385313000700,8.713000732421875,0.21447929739952087,-0.08290521800518036,0.20721863210201263
1684252385323026700,8.723026611328125,0.20719875395298004,-0.1276005208492279,0.303297758102417
1684252385333052700,8.733052734375,0.18303604423999786,-0.13701550662517548,0.42483118176460266
1684252385343078700,8.74307861328125,0.12856481969356537,-0.12074945122003555,0.5305287837982178
1684252385353104600,8.753104736328124,0.051969368010759354,-0.17287017405033112,0.6042227149009705
1684252385363130600,8.763130615234376,-0.0262141190469265,-0.3279295265674591,0.7090064287185669
1684252385373156600,8.773156494140625,-0.06034822389483452,-0.518496036529541,0.8807948231697083
1684252385383182600,8.7831826171875,-0.07023307681083679,-0.7222864627838135,1.0894205570220947
1684252385393208600,8.79320849609375,-0.064155213534832,-0.9042899012565613,1.280307650566101
1684252385403234600,8.803234619140625,-0.07636607438325882,-1.002315878868103,1.396578073501587
1684252385413260500,8.813260498046875,-0.15300147235393524,-1.0256893634796143,1.4333386421203613
1684252385423286800,8.823286865234374,-0.2528921067714691,-1.015842080116272,1.4620426893234253
1684252385433312800,8.833312744140626,-0.3516024351119995,-1.0698734521865845,1.5248055458068848
1684252385443338800,8.8433388671875,-0.4072648882865906,-1.3141601085662842,1.6127259731292725
1684252385453364700,8.85336474609375,-0.4286286532878876,-1.7278320789337158,1.765944242477417
1684252385463389700,8.8633896484375,-0.4193587303161621,-2.1416947841644287,2.058220148086548
1684252385473415700,8.873415771484375,-0.4332771897315979,-2.469611883163452,2.456587314605713
1684252385483441700,8.883441650390624,-0.53049236536026,-2.818840503692627,2.811554193496704
1684252385493467600,8.893467529296874,-0.783681333065033,-3.197232246398926,2.95526123046875
1684252385503493600,8.90349365234375,-1.215251088142395,-3.467261791229248,2.8410449028015137
1684252385513519600,8.91351953125,-1.8393765687942505,-3.514409303665161,2.530029773712158
1684252385523545600,8.923545654296875,-2.530219554901123,-3.459343910217285,1.8915308713912964
1684252385533571600,8.933571533203125,-2.0569024085998535,-2.9922804832458496,-2.097658157348633
1684252385543597600,8.94359765625,-0.4823279082775116,-4.041842460632324,-4.541497707366943
1684252385553623600,8.95362353515625,1.4783456325531006,-5.010776996612549,-3.6832656860351562
1684252385563649500,8.9636494140625,2.2173357009887695,-4.757706642150879,-1.835354208946228
1684252385573675500,8.973675537109376,1.6249977350234985,-3.7089455127716064,-0.5474228262901306
1684252385583701500,8.983701416015625,0.6056421399116516,-1.8890219926834106,0.1712740659713745
1684252385593727500,8.9937275390625,-0.4774622321128845,-0.009086769074201584,0.4989835023880005
1684252385603753500,9.00375341796875,-1.3335763216018677,1.0983104705810547,0.5221213102340698
1684252385613779500,9.013779541015625,-1.939835786819458,1.599063754081726,0.599885106086731
1684252385623805400,9.023805419921874,-2.4207894802093506,1.8822214603424072,0.7941408753395081
1684252385633831400,9.03383154296875,-2.7854695320129395,1.840098261833191,0.8287535905838013
1684252385643857400,9.043857421875,-2.9645347595214844,1.6262820959091187,0.6839330196380615
1684252385653883400,9.05388330078125,-2.8481814861297607,1.4456589221954346,0.5198296904563904
1684252385663909600,9.06390966796875,-2.4700968265533447,1.4908796548843384,0.4833414554595947
1684252385673935600,9.073935546875,-1.9111909866333008,0.49323394894599915,0.5584738850593567
1684252385683961600,9.083961669921875,-1.1893656253814697,-1.6267402172088623,0.5178950428962708
1684252385693987600,9.093987548828125,-0.5215558409690857,-2.678457498550415,0.31692010164260864
1684252385704012500,9.104012451171876,-0.059518963098526,-2.4718549251556396,0.1678946614265442
1684252385714038500,9.11403857421875,0.2212807983160019,-1.8085577487945557,0.10319443792104721
1684252385724064500,9.124064453125,0.35453206300735474,-1.1870313882827759,0.11779788136482239
1684252385734090500,9.134090576171875,0.3474086821079254,-0.8334710597991943,0.17224101722240448
1684252385744116500,9.144116455078125,0.19694913923740387,-0.8276355266571045,0.24951103329658508
1684252385754142500,9.154142578125,-0.03949210047721863,-0.9084399342536926,0.317573219537735
1684252385764168400,9.16416845703125,-0.27036285400390625,-0.8989412784576416,0.39983561635017395
1684252385774194400,9.1741943359375,-0.4042646288871765,-0.811754047870636,0.5062186121940613
1684252385784220400,9.184220458984376,-0.41867128014564514,-0.771400511264801,0.6357126832008362
1684252385794246700,9.19424658203125,-0.3307592570781708,-0.809638261795044,0.7720680832862854
1684252385804272600,9.204272705078125,-0.19317397475242615,-0.8695857524871826,0.8954491019248962
1684252385814298600,9.214298583984375,-0.05845578387379646,-0.9179223775863647,0.960546612739563
1684252385824324600,9.22432470703125,0.039076365530490875,-0.8329997658729553,0.9225803017616272
1684252385834350600,9.2343505859375,0.08076915889978409,-0.6113966703414917,0.7954381108283997
1684252385844376600,9.24437646484375,0.09843816608190536,-0.3452637791633606,0.6266627311706543
1684252385854402600,9.254402587890626,0.11225712299346924,-0.09207795560359955,0.4610106945037842
1684252385864428500,9.264428466796875,0.12621049582958221,0.0393730103969574,0.33841341733932495
1684252385874454500,9.27445458984375,0.14597058296203613,-0.02695847675204277,0.2772090435028076
1684252385884480500,9.28448046875,0.17480675876140594,-0.2655087411403656,0.27260470390319824
1684252385894506500,9.294506591796875,0.1854996383190155,-0.5893346071243286,0.29266101121902466
1684252385904532700,9.30453271484375,0.1684596687555313,-0.9048856496810913,0.3198433518409729
1684252385914558700,9.314558837890624,0.12164133787155151,-1.141067385673523,0.32701602578163147
1684252385924584700,9.324584716796876,0.05350489914417267,-1.2886688709259033,0.2996826767921448
1684252385934609700,9.334609619140625,-0.022212984040379524,-1.369101643562317,0.26351815462112427
1684252385944635600,9.3446357421875,-0.0929579958319664,-1.4350625276565552,0.23413893580436707
1684252385954661600,9.35466162109375,-0.1566593199968338,-1.501793384552002,0.25378915667533875
1684252385964687600,9.3646875,-0.21622037887573242,-1.5669035911560059,0.3295630216598511
1684252385974713600,9.374713623046874,-0.286080539226532,-1.5612787008285522,0.4286288022994995
1684252385984739600,9.384739501953124,-0.375104695558548,-1.4400664567947388,0.5013322830200195
1684252385994765600,9.394765625,-0.4658253490924835,-1.1706898212432861,0.5545926690101624
1684252386004791600,9.40479150390625,-0.5528076887130737,-0.7421914935112,0.5679710507392883
1684252386014817500,9.414817626953125,-0.6375840902328491,-0.19145037233829498,0.5400771498680115
1684252386024843500,9.424843505859375,-0.6959691047668457,0.4142161011695862,0.5034123659133911
1684252386034869800,9.434869873046875,-0.7148694396018982,1.0251554250717163,0.46173298358917236
1684252386044895700,9.444895751953124,-0.6937865614891052,1.573677659034729,0.4335833787918091
1684252386054921700,9.454921630859374,-0.6397585272789001,2.0137078762054443,0.4350769519805908
1684252386064947700,9.46494775390625,-0.5465809106826782,2.330505132675171,0.48203060030937195
1684252386074973700,9.4749736328125,-0.41749855875968933,2.444413900375366,0.6029996871948242
1684252386084999700,9.484999755859375,-0.2909635305404663,2.223212242126465,0.8117403388023376
1684252386095025700,9.495025634765625,-0.1571674346923828,1.7250070571899414,1.0678150653839111
1684252386105051400,9.505051513671875,-0.005172321572899818,1.1586594581604004,1.2839763164520264
1684252386115077400,9.515077392578124,0.14279115200042725,0.6486866474151611,1.4040910005569458
1684252386125103400,9.525103271484374,0.22751057147979736,0.16585178673267365,1.4452000856399536
1684252386135129600,9.535129638671876,0.2550194561481476,-0.3811376094818115,1.4317052364349365
1684252386145155600,9.545155517578126,0.2368393987417221,-1.0557847023010254,1.3825488090515137
1684252386155182300,9.555182373046875,0.19867576658725739,-1.7860585451126099,1.2934943437576294
1684252386165208300,9.565208251953125,0.15497276186943054,-2.42051362991333,1.1441612243652344
1684252386175233300,9.5752333984375,0.12034182995557785,-2.8083336353302,0.9023929238319397
1684252386185259300,9.58525927734375,0.13547471165657043,-3.0521578788757324,0.5626867413520813
1684252386195285200,9.59528515625,0.2093707174062729,-3.2992494106292725,0.19587256014347076
1684252386205311200,9.605311279296876,0.3095199465751648,-3.50642728805542,-0.41835519671440125
1684252386215337200,9.615337158203126,0.47227174043655396,-2.3143067359924316,-2.3897132873535156
1684252386225363200,9.62536328125,0.6753896474838257,-0.9381220936775208,-3.5346271991729736
1684252386235389200,9.63538916015625,0.7904520630836487,0.14992305636405945,-3.9235005378723145
1684252386245415200,9.645415283203125,0.7770566344261169,1.4595719575881958,-4.123425483703613
1684252386255441200,9.655441162109375,0.535713255405426,2.7309465408325195,-4.336577892303467
1684252386265467100,9.665467041015624,0.09871088713407516,3.658764600753784,-4.645586967468262
1684252386275493400,9.675493408203126,-0.34086915850639343,3.7836148738861084,-4.778567314147949
1684252386285519400,9.685519287109376,-0.7210116982460022,3.142803430557251,-4.614428520202637
1684252386295545300,9.69554541015625,-1.0413886308670044,2.2568864822387695,-4.23841667175293
1684252386305571300,9.7055712890625,-1.2890335321426392,1.559922218322754,-3.721113443374634
1684252386315597300,9.715597412109375,-1.3315564393997192,0.8863832950592041,-2.885970115661621
1684252386325623300,9.725623291015625,-0.8939425945281982,-1.6507534980773926,-1.9977537393569946
1684252386335649300,9.735649169921874,-0.29886147379875183,-3.514781951904297,-2.024843692779541
1684252386345675300,9.74567529296875,0.2741120457649231,-3.817390203475952,-2.3204729557037354
1684252386355701200,9.755701171875,0.7522786855697632,-3.0137336254119873,-2.5784173011779785
1684252386365727200,9.765727294921875,0.9660871028900146,-1.6366392374038696,-2.8464789390563965
1684252386375753200,9.775753173828125,0.8224866390228271,-0.3694246709346771,-3.1499557495117188
1684252386385779500,9.785779541015625,0.5216314792633057,0.5125287771224976,-3.2844979763031006
1684252386395805400,9.795805419921875,0.27250930666923523,0.8342698812484741,-3.081810235977173
1684252386405831400,9.80583154296875,0.14096486568450928,0.8099983930587769,-2.5941195487976074
1684252386415856400,9.8158564453125,0.09352671355009079,0.7406356930732727,-1.9542077779769897
1684252386425882400,9.82588232421875,0.0748228058218956,0.6340871453285217,-1.2612732648849487
1684252386435908400,9.835908447265625,0.09841132909059525,0.46945348381996155,-0.6724067330360413
1684252386445934300,9.845934326171875,0.1687571257352829,0.1444237381219864,-0.39160624146461487
1684252386455960300,9.855960205078125,0.27570387721061707,-0.35861217975616455,-0.49938660860061646
1684252386465986300,9.865986328125,0.40325650572776794,-0.8826410174369812,-0.8271564841270447
1684252386476012300,9.87601220703125,0.525255024433136,-1.2096680402755737,-1.179893136024475
1684252386486038300,9.886038330078126,0.5941541790962219,-1.3196957111358643,-1.4602954387664795
1684252386496064300,9.896064208984376,0.6309686303138733,-1.2849475145339966,-1.5319421291351318
1684252386506090200,9.90609033203125,0.6626911759376526,-1.110129952430725,-1.343169927597046
1684252386516116500,9.916116455078125,0.6866604685783386,-0.8063507080078125,-0.9573964476585388
1684252386526142500,9.926142578125,0.674689769744873,-0.313480019569397,-0.4620250463485718
1684252386536168400,9.93616845703125,0.6158825159072876,0.3136245012283325,-0.07070399075746536
1684252386546194400,9.9461943359375,0.521487832069397,0.9259400963783264,0.10328058898448944
1684252386556220400,9.956220458984374,0.4398617148399353,1.3979337215423584,0.1282336562871933
1684252386566246100,9.96624609375,0.41986778378486633,1.6231955289840698,0.10742850601673126
1684252386576272100,9.976272216796875,0.45784488320350647,1.60108482837677,0.08740131556987762
1684252386586298000,9.986298095703125,0.546541690826416,1.5415469408035278,0.08598238229751587
1684252386596324000,9.996323974609375,0.6315321922302246,1.5537177324295044,0.09927964955568314
1684252386606350000,10.00635009765625,0.6806715130805969,1.5545262098312378,0.12256179749965668
1684252386616376300,10.016376220703124,0.7003898024559021,1.5124529600143433,0.20004083216190338
1684252386626402300,10.02640234375,0.7270429730415344,1.4554905891418457,0.34129250049591064
1684252386636428300,10.03642822265625,0.7590816617012024,1.3890652656555176,0.5033095479011536
1684252386646453500,10.04645361328125,0.7588425278663635,1.3120630979537964,0.6588898301124573
1684252386656479200,10.056479248046875,0.7194942831993103,1.2349539995193481,0.7993060946464539
1684252386666505200,10.066505126953125,0.6484989523887634,1.147249460220337,0.9196026921272278
1684252386676531200,10.07653125,0.5665265917778015,1.0488395690917969,1.0525357723236084
1684252386686557200,10.08655712890625,0.508205771446228,0.9420049786567688,1.2065857648849487
1684252386696583200,10.096583251953126,0.4970020055770874,0.7700161933898926,1.341189980506897
1684252386706609200,10.106609130859376,0.540888786315918,0.5456123948097229,1.4543266296386719
1684252386716635100,10.11663525390625,0.6285296082496643,0.37457749247550964,1.5493348836898804
1684252386726661000,10.1266611328125,0.7211258411407471,0.38463494181632996,1.6465247869491577
1684252386736687000,10.13668701171875,0.7797137498855591,0.5590500235557556,1.7339521646499634
1684252386746713300,10.14671337890625,0.8059900999069214,0.7770841121673584,1.7899515628814697
1684252386756739300,10.1567392578125,0.8450486660003662,0.9535824060440063,1.80496084690094
1684252386766765300,10.166765380859376,0.9201847314834595,1.107879877090454,1.7806434631347656
1684252386776791300,10.176791259765626,1.0013580322265625,1.2487800121307373,1.663111925125122
1684252386786817300,10.1868173828125,1.0709874629974365,1.4255335330963135,1.4385298490524292
1684252386796843300,10.19684326171875,1.0850725173950195,1.5694971084594727,1.1138514280319214
1684252386806869200,10.206869140625,1.0973988771438599,1.7950085401535034,0.7863901853561401
1684252386816895200,10.216895263671875,1.1413695812225342,1.9749876260757446,0.5362401604652405
1684252386826921200,10.226921142578124,1.2026118040084839,1.9630018472671509,0.4308205246925354
1684252386836947200,10.236947265625,1.262571930885315,1.8186753988265991,0.45705530047416687
1684252386846973200,10.24697314453125,1.3208248615264893,1.5503640174865723,0.5538750290870667
1684252386856999400,10.25699951171875,1.340430736541748,1.2839592695236206,0.6432667374610901
1684252386867025400,10.267025390625,1.3067489862442017,1.2387193441390991,0.743993878364563
1684252386877051400,10.277051513671875,1.2123221158981323,1.473235011100769,0.8627931475639343
1684252386887077400,10.287077392578125,1.0621219873428345,1.885010004043579,0.9778504967689514
1684252386897102300,10.297102294921874,0.9035996198654175,2.2500219345092773,1.089268684387207
1684252386907128300,10.30712841796875,0.7375631928443909,2.2555952072143555,1.126537561416626
1684252386917154300,10.317154296875,0.5552462339401245,1.8716466426849365,1.01214599609375
1684252386927180300,10.32718017578125,0.4041967988014221,1.346504807472229,0.8654114603996277
1684252386937206300,10.337206298828125,0.30454686284065247,0.9010801315307617,0.8290277719497681
1684252386947232300,10.347232177734375,0.21245209872722626,0.5983511209487915,0.9124694466590881
1684252386957258200,10.35725830078125,0.11239580810070038,0.4978877604007721,1.1590875387191772
1684252386967284200,10.3672841796875,-0.026943715289235115,0.5296907424926758,1.5904239416122437
1684252386977310200,10.377310302734376,-0.23239944875240326,0.5641409754753113,2.0932700634002686
1684252386987336400,10.38733642578125,-0.4954374432563782,0.5118218660354614,2.5927278995513916
1684252386997362400,10.397362548828125,-0.7944445013999939,0.3463227152824402,3.024930953979492
1684252387007388400,10.407388427734375,-1.115154504776001,0.08280773460865021,3.365182399749756
1684252387017414400,10.417414306640625,-1.462833285331726,-0.3134338855743408,3.5599188804626465
1684252387027440400,10.4274404296875,-1.5746088027954102,-4.7672553062438965,2.1143949031829834
1684252387037466400,10.43746630859375,0.7936891913414001,-14.58064079284668,-3.5401546955108643
1684252387047492400,10.447492431640624,1.8542802333831787,-10.047393798828125,-0.822275698184967
1684252387057518300,10.457518310546876,1.513972520828247,-2.9962992668151855,0.4714054465293884
1684252387067544300,10.46754443359375,-0.04045867547392845,-3.1561856269836426,0.3193773031234741
1684252387077570300,10.4775703125,-0.8285976648330688,-1.9607264995574951,0.7415661215782166
1684252387087596300,10.48759619140625,-1.0063629150390625,1.821256160736084,0.648659348487854
1684252387097622300,10.497622314453125,-1.3728902339935303,3.6251559257507324,0.09928688406944275
1684252387107648300,10.507648193359374,-1.6399110555648804,4.457601547241211,0.054208092391490936
1684252387117673500,10.517673583984376,-1.8304351568222046,4.625389575958252,0.14972339570522308
1684252387127699500,10.527699462890626,-1.9906806945800781,4.350107669830322,0.17610174417495728
1684252387137725400,10.537725341796875,-2.0152010917663574,3.2126948833465576,0.4314436614513397
1684252387147751400,10.54775146484375,-1.9251042604446411,0.5894725918769836,0.8576511144638062
1684252387157777200,10.557777099609375,-1.6807496547698975,-0.6055918335914612,0.9389849305152893
1684252387167803100,10.56780322265625,-1.4323046207427979,-0.2847040891647339,0.8596603274345398
1684252387177829000,10.5778291015625,-1.2071675062179565,0.35846784710884094,0.8100418448448181
1684252387187855000,10.587855224609376,-0.9743270874023438,0.9127939343452454,0.8371884822845459
1684252387197881000,10.597881103515626,-0.7618843913078308,1.1777583360671997,0.9780107140541077
1684252387207907000,10.607906982421875,-0.614838182926178,1.2226150035858154,1.1658087968826294
1684252387217933000,10.61793310546875,-0.5485554933547974,1.2172693014144897,1.3232719898223877
1684252387227959000,10.627958984375,-0.5093633532524109,1.275588870048523,1.4118952751159668
1684252387237985000,10.637985107421875,-0.4903840124607086,1.3120996952056885,1.452546238899231
1684252387248011000,10.648010986328124,-0.49447330832481384,1.0773146152496338,1.4874311685562134
1684252387258037000,10.658037109375,-0.5386208295822144,0.43775323033332825,1.5093344449996948
1684252387268063000,10.66806298828125,-0.6198893189430237,-0.30236026644706726,1.445276141166687
1684252387278089000,10.6780888671875,-0.6973093152046204,-0.7617085576057434,1.2513558864593506
1684252387288115000,10.688114990234375,-0.7382650375366211,-0.8751085996627808,0.9711569547653198
1684252387298141000,10.698140869140625,-0.7325595617294312,-0.7611777186393738,0.6947152614593506
1684252387308167000,10.7081669921875,-0.6695685982704163,-0.5356114506721497,0.4839300215244293
1684252387318193000,10.71819287109375,-0.5571506023406982,-0.2567146420478821,0.3602278232574463
1684252387328219000,10.728218994140626,-0.40498849749565125,0.03677903115749359,0.3216239809989929
1684252387338244900,10.738244873046876,-0.22903631627559662,0.2859151363372803,0.3471753001213074
1684252387348271000,10.74827099609375,-0.04965483397245407,0.470487117767334,0.4052298367023468
1684252387358297000,10.758297119140625,0.1162923201918602,0.6191096305847168,0.4698796570301056
1684252387368322000,10.768322021484375,0.2643206715583801,0.7923194766044617,0.507825493812561
1684252387378348000,10.77834814453125,0.3756037950515747,0.984478771686554,0.49212804436683655
1684252387388374000,10.7883740234375,0.43761762976646423,1.1839303970336914,0.4249471426010132
1684252387398400000,10.79839990234375,0.45565128326416016,1.3736637830734253,0.3214244842529297
1684252387408426000,10.808426025390625,0.45314523577690125,1.5046206712722778,0.2200816124677658
1684252387418452000,10.818451904296875,0.4480867087841034,1.5662678480148315,0.13357044756412506
1684252387428478000,10.82847802734375,0.450991153717041,1.5532817840576172,0.07632499933242798
1684252387438504000,10.83850390625,0.4487491548061371,1.439706563949585,0.0453220009803772
1684252387448530000,10.848530029296874,0.44406041502952576,1.2451790571212769,0.042483601719141006
1684252387458556000,10.858555908203124,0.4248013496398926,1.0739896297454834,0.04758324474096298
1684252387468582000,10.868581787109376,0.4096341133117676,0.962726891040802,0.03837909549474716
1684252387478608100,10.878608154296876,0.39642494916915894,0.9291002750396729,0.0006330515025183558
1684252387488634000,10.888634033203125,0.3814132511615753,0.9504878520965576,-0.041935715824365616
1684252387498660000,10.89866015625,0.38269931077957153,0.9846846461296082,-0.08521545678377151
1684252387508686000,10.90868603515625,0.3970385491847992,1.0091267824172974,-0.12095454335212708
1684252387518712000,10.918712158203125,0.4169788658618927,1.0117359161376953,-0.14498315751552582
1684252387528738000,10.928738037109374,0.4386492669582367,0.9472978115081787,-0.1501488834619522
1684252387538764000,10.938763916015626,0.4691956341266632,0.7897142171859741,-0.1592414826154709
1684252387548790000,10.9487900390625,0.5080056190490723,0.5502406358718872,-0.17681382596492767
1684252387558816000,10.95881591796875,0.5531224608421326,0.20685166120529175,-0.22821074724197388
1684252387568842000,10.968842041015625,0.6042317152023315,-0.22588777542114258,-0.29040807485580444
1684252387578868000,10.978867919921875,0.6327893137931824,-0.7539731860160828,-0.35862255096435547
1684252387588894200,10.988894287109375,0.6380873918533325,-1.3392070531845093,-0.3954676687717438
1684252387598920200,10.998920166015624,0.6228358745574951,-1.9337586164474487,-0.34521353244781494
1684252387608945200,11.008945068359376,0.6007249355316162,-2.458688497543335,-0.20419193804264069
1684252387618971100,11.01897119140625,0.5656463503837585,-2.8948476314544678,0.005817829631268978
1684252387628997000,11.0289970703125,0.5028612613677979,-3.2589399814605713,0.28131014108657837
1684252387639023000,11.039023193359375,0.4039442241191864,-3.4870173931121826,0.5954989194869995
1684252387649049000,11.049049072265625,0.2914815843105316,-3.415442943572998,0.836942732334137
1684252387659075000,11.059074951171874,0.17951571941375732,-3.1010239124298096,1.0275143384933472
1684252387669101000,11.06910107421875,0.09594252705574036,-2.4664223194122314,1.297202229499817
1684252387679127000,11.079126953125,0.043963052332401276,-1.4367154836654663,1.7223225831985474
1684252387689153000,11.089153076171876,-0.01582837477326393,-0.22790858149528503,2.1204757690429688
1684252387699179000,11.099178955078125,-0.0861157476902008,0.8599511384963989,2.3059091567993164
1684252387709205200,11.109205322265625,-0.16927455365657806,1.6391597986221313,2.2569243907928467
1684252387719231200,11.119231201171875,-0.2541450560092926,2.095832347869873,2.0570640563964844
1684252387729257200,11.12925732421875,-0.3168814182281494,2.2013332843780518,1.7701956033706665
1684252387739283200,11.139283203125,-0.3449474573135376,1.9338529109954834,1.4726966619491577
1684252387749309200,11.14930908203125,-0.3322327136993408,1.2942774295806885,1.2133524417877197
1684252387759335200,11.159335205078126,-0.26674965023994446,0.38981619477272034,0.9814987778663635
1684252387769361000,11.16936083984375,-0.12513738870620728,-0.5344410538673401,0.7383639216423035
1684252387779387000,11.179386962890625,0.07089139521121979,-1.2444208860397339,0.4474661648273468
1684252387789412900,11.189412841796875,0.27230703830718994,-1.6071703433990479,0.11385120451450348
1684252387799438800,11.19943896484375,0.43987929821014404,-1.6555752754211426,-0.2578596770763397
1684252387809464800,11.20946484375,0.5737795829772949,-1.489396333694458,-0.6084661483764648
1684252387819491000,11.219490966796876,0.694019079208374,-1.225608468055725,-0.8239673376083374
1684252387829517000,11.22951708984375,0.7713788747787476,-0.9570170044898987,-0.7789322137832642
1684252387839542300,11.239542236328125,0.7945712208747864,-0.7409513592720032,-0.4615967869758606
1684252387849568300,11.249568359375,0.7438039183616638,-0.6218965649604797,-0.17285072803497314
1684252387859594000,11.259593994140625,0.5792312026023865,-0.5657216310501099,-0.32570502161979675
1684252387869620000,11.269619873046874,0.40992313623428345,-0.48847153782844543,-0.8598166108131409
1684252387879646000,11.27964599609375,0.4718751907348633,-0.17739926278591156,-1.5645045042037964
1684252387889672000,11.289671875,0.8057474493980408,0.43172451853752136,-2.3041679859161377
1684252387899698000,11.299697998046875,1.296128273010254,1.2321680784225464,-3.0107479095458984
1684252387909724000,11.309723876953125,1.8901503086090088,2.130626916885376,-3.43035626411438
1684252387919750000,11.31975,2.308357000350952,3.075488328933716,-3.374119758605957
1684252387929775900,11.32977587890625,2.174633264541626,3.2220277786254883,-3.175825357437134
1684252387939801900,11.3398017578125,1.651233434677124,2.565365791320801,-2.885249614715576
1684252387949828000,11.349828125,0.9453088641166687,1.4565551280975342,-2.6825504302978516
1684252387959854000,11.35985400390625,0.42419642210006714,0.4114551246166229,-2.6281864643096924
1684252387969880000,11.369880126953126,0.18199123442173004,-0.2614053189754486,-2.5972487926483154
1684252387979906000,11.379906005859375,0.05964977294206619,-0.7954233288764954,-2.538450241088867
1684252387989932000,11.38993212890625,0.026546144858002663,-1.3023481369018555,-2.2728347778320312
1684252387999958000,11.3999580078125,0.1142963394522667,-1.9639779329299927,-1.5242739915847778
1684252388009984000,11.40998388671875,0.1977962851524353,-2.174185276031494,-0.7106685042381287
1684252388020010000,11.420010009765624,0.23999466001987457,-1.5218464136123657,-0.12385649234056473
1684252388030036000,11.430035888671876,0.2034909725189209,0.24686641991138458,-0.06601822376251221
1684252388040062000,11.44006201171875,0.020063577219843864,2.467632532119751,-0.5201507806777954
1684252388050088000,11.450087890625,-0.23914748430252075,4.194263935089111,-1.0377204418182373
1684252388060114200,11.4601142578125,-0.5839415788650513,5.023225784301758,-1.4172857999801636
1684252388070139000,11.470138916015625,-0.9021293520927429,5.003366470336914,-1.5866113901138306
1684252388080165000,11.4801650390625,-1.1003326177597046,3.9997153282165527,-1.554689884185791
1684252388090191000,11.490191162109374,-1.1034269332885742,2.2540318965911865,-1.4670608043670654
1684252388100217000,11.500217041015626,-0.8422269821166992,0.4274488389492035,-1.5036789178848267
1684252388110243000,11.5102431640625,-0.4004024565219879,-0.9450631141662598,-1.6403241157531738
1684252388120269000,11.52026904296875,0.09299925714731216,-1.7111554145812988,-1.7110837697982788
1684252388130295000,11.530294921875,0.5443397760391235,-1.9088850021362305,-1.6292786598205566
1684252388140321000,11.540321044921875,0.8811178803443909,-1.6261590719223022,-1.4698346853256226
1684252388150347300,11.55034716796875,1.1620386838912964,-0.9686115384101868,-1.3086133003234863
1684252388160373200,11.560373291015624,1.3584531545639038,-0.2164183109998703,-1.225012183189392
1684252388170399200,11.570399169921876,1.4822678565979004,0.35090237855911255,-1.1425144672393799
1684252388180425200,11.58042529296875,1.5676789283752441,0.6447911262512207,-0.9732608199119568
1684252388190451200,11.590451171875,1.592773675918579,0.7087003588676453,-0.748797595500946
1684252388200477200,11.600477294921875,1.5508809089660645,0.5850102305412292,-0.6039770841598511
1684252388210503200,11.610503173828125,1.4667553901672363,0.4325767755508423,-0.5742226243019104
1684252388220529200,11.620529052734375,1.3850535154342651,0.3577893078327179,-0.5595895648002625
1684252388230555100,11.63055517578125,1.322144627571106,0.2945445775985718,-0.4748070240020752
1684252388240581400,11.640581298828126,1.2423943281173706,0.3044503331184387,-0.3097766935825348
1684252388250607400,11.650607421875,1.166678547859192,0.4521915912628174,-0.08712737262248993
1684252388260633300,11.66063330078125,1.0604623556137085,0.6571251749992371,0.08357609063386917
1684252388270659300,11.670659423828125,0.9111142754554749,0.7928963303565979,0.14534011483192444
1684252388280685300,11.680685302734375,0.7749758958816528,0.8348432183265686,0.10800820589065552
1684252388290711000,11.6907109375,0.7053480744361877,0.8240092396736145,0.02462756261229515
1684252388300736300,11.700736328125,0.7054819464683533,0.6943650245666504,-0.07668226957321167
1684252388310762200,11.71076220703125,0.7732402682304382,0.5258356928825378,-0.1262466311454773
1684252388320788200,11.720788330078125,0.8322854042053223,0.4727824032306671,-0.13822147250175476
1684252388330814200,11.730814208984375,0.8396705985069275,0.604028582572937,-0.16394920647144318
1684252388340840200,11.740840087890625,0.7987127304077148,0.7720661759376526,-0.23472008109092712
1684252388350866200,11.7508662109375,0.7371167540550232,0.7625144720077515,-0.30489251017570496
1684252388360892200,11.76089208984375,0.6774961948394775,0.5623368620872498,-0.3753637373447418
1684252388370918400,11.77091845703125,0.6038081049919128,0.3001613914966583,-0.501509964466095
1684252388380944100,11.780944091796876,0.4978071451187134,-0.013140518218278885,-0.6254916191101074
1684252388390970000,11.79097021484375,0.3697951138019562,-0.3305283188819885,-0.6977157592773438
1684252388400996000,11.80099609375,0.22551575303077698,-0.556640088558197,-0.6922356486320496
1684252388411022000,11.81102197265625,0.026259638369083405,-0.7259513139724731,-0.6286904811859131
1684252388421048000,11.821048095703125,-0.19374515116214752,-0.907817542552948,-0.5396780371665955
1684252388431074000,11.831073974609374,-0.4306490421295166,-1.1713385581970215,-0.46883395314216614
1684252388441100000,11.84110009765625,-0.693351149559021,-1.5134392976760864,-0.40829524397850037
1684252388451126000,11.8511259765625,-0.9738190174102783,-1.8792071342468262,-0.347502201795578
1684252388461152000,11.861152099609376,-1.2556461095809937,-2.2321739196777344,-0.28171923756599426
1684252388471178000,11.871177978515625,-1.5246243476867676,-2.474977731704712,-0.18435727059841156
1684252388481204200,11.881204345703125,-1.7860859632492065,-2.6193630695343018,-0.04970282316207886
1684252388491230200,11.891230224609375,-2.0497050285339355,-2.6753249168395996,0.13623107969760895
1684252388501256200,11.901256103515625,-2.301060199737549,-2.7523233890533447,0.44635817408561707
1684252388511282200,11.9112822265625,-2.531398057937622,-2.8944013118743896,0.8692676424980164
1684252388521308200,11.92130810546875,-2.7384722232818604,-2.969802141189575,1.3161429166793823
1684252388531334100,11.931334228515626,-2.88875150680542,-2.86814022064209,1.6578443050384521
1684252388541359000,11.941359130859375,-2.93578839302063,-2.681391477584839,1.6688578128814697
1684252388551385000,11.951385009765625,-2.4975080490112305,-2.276153564453125,0.36576369404792786
1684252388561411000,11.9614111328125,-1.8620388507843018,-3.1063120365142822,0.562885582447052
1684252388571437000,11.97143701171875,-1.1507058143615723,-2.3751533031463623,1.00873601436615
1684252388581463000,11.981463134765624,0.21666042506694794,-0.05698409676551819,0.014555927366018295
1684252388591489000,11.991489013671876,1.7491285800933838,1.018373727798462,-1.7294621467590332
1684252388601515000,12.001514892578125,2.2044026851654053,-4.403750896453857,-3.685751438140869
1684252388611541200,12.011541259765625,1.656219720840454,-9.20411491394043,-2.200535535812378
1684252388621567200,12.021567138671875,1.1715410947799683,-7.52057409286499,-0.6073225140571594
1684252388631593200,12.03159326171875,0.5566883087158203,-5.166276454925537,-0.6094540953636169
1684252388641619200,12.041619140625,0.3535325229167938,-3.8048737049102783,-2.2057623863220215
1684252388651645200,12.051645263671874,-0.0501457080245018,-3.9083938598632812,-2.4254984855651855
1684252388661671200,12.061671142578126,-0.3464941680431366,-3.944157838821411,-1.3074729442596436
1684252388671697200,12.071697265625,-0.3584190011024475,-3.224783182144165,-0.595605731010437
1684252388681723100,12.08172314453125,-0.1444871723651886,-1.9750194549560547,-0.6551539301872253
1684252388691749000,12.0917490234375,-0.22791548073291779,-0.7600163221359253,-0.23493905365467072
1684252388701775000,12.101775146484375,-0.5879653692245483,-0.1808614879846573,0.4361281394958496
1684252388711801000,12.111801025390625,-0.8997024893760681,0.30254751443862915,0.7401005029678345
1684252388721827300,12.121827392578124,-0.9983486533164978,0.8414321541786194,0.7777228951454163
1684252388731853300,12.131853271484376,-0.9200865626335144,1.1614335775375366,0.8294084668159485
1684252388741879300,12.14187939453125,-0.7879999279975891,1.0317471027374268,0.827468752861023
1684252388751905300,12.1519052734375,-0.7305302619934082,0.7479566335678101,0.7306820154190063
1684252388761931300,12.16193115234375,-0.7254353165626526,0.5241537690162659,0.6144047975540161
1684252388771956200,12.171956298828125,-0.7028059363365173,0.28919002413749695,0.5379031300544739
1684252388781982200,12.181982177734374,-0.6466755270957947,0.10626991838216782,0.5038509368896484
1684252388792008200,12.19200830078125,-0.6231542229652405,0.005050088744610548,0.4723833203315735
1684252388802034200,12.2020341796875,-0.620083212852478,-0.03810597583651543,0.43474864959716797
1684252388812060200,12.21206005859375,-0.6257541179656982,-0.013467474840581417,0.39936667680740356
1684252388822086100,12.222086181640625,-0.6247225999832153,-0.011498644016683102,0.37954428791999817
1684252388832112000,12.232112060546875,-0.5805924534797668,-0.0066895075142383575,0.3748027980327606
1684252388842138000,12.24213818359375,-0.5283740758895874,-0.012285449542105198,0.3773828446865082
1684252388852164400,12.252164306640625,-0.4975775480270386,0.014220459386706352,0.38167238235473633
1684252388862190300,12.2621904296875,-0.4897017180919647,0.06533774733543396,0.38912495970726013
1684252388872216300,12.27221630859375,-0.5199735760688782,0.1873355507850647,0.3880636990070343
1684252388882242300,12.2822421875,-0.5796318650245667,0.38125091791152954,0.36219990253448486
1684252388892268300,12.292268310546875,-0.6426774263381958,0.6081109642982483,0.327782541513443
1684252388902294300,12.302294189453125,-0.6863584518432617,0.8878788352012634,0.32074791193008423
1684252388912320300,12.3123203125,-0.7104225158691406,1.2795437574386597,0.3519503176212311
1684252388922346200,12.32234619140625,-0.7185788750648499,1.6935572624206543,0.43665871024131775
1684252388932372000,12.3323720703125,-0.7171370387077332,2.023218870162964,0.5757239460945129
1684252388942398000,12.34239794921875,-0.7054394483566284,2.2843246459960938,0.7323101758956909
1684252388952424000,12.352423828125,-0.7152038812637329,2.5305943489074707,0.8895991444587708
1684252388962450200,12.3624501953125,-0.7337915897369385,2.717256546020508,1.0329585075378418
1684252388972476200,12.37247607421875,-0.7403421401977539,2.7838127613067627,1.178098440170288
1684252388982502100,12.382502197265625,-0.6998902559280396,2.6465511322021484,1.3103845119476318
1684252388992527400,12.39252734375,-0.6072537899017334,2.3480875492095947,1.372839093208313
1684252389002553300,12.40255322265625,-0.4970422387123108,1.9967983961105347,1.3411611318588257
1684252389012579300,12.412579345703126,-0.35763853788375854,1.6229339838027954,1.256045937538147
1684252389022605000,12.42260498046875,-0.17037948966026306,1.1540403366088867,1.1392449140548706
1684252389032631000,12.432631103515625,0.029241474345326424,0.6104223728179932,0.9898378252983093
1684252389042657000,12.442656982421875,0.20624969899654388,0.054202839732170105,0.8266276717185974
1684252389052683000,12.45268310546875,0.3598986566066742,-0.40975525975227356,0.6789934635162354
1684252389062709000,12.462708984375,0.48826995491981506,-0.7504986524581909,0.5688166618347168
1684252389072735000,12.47273486328125,0.5815964341163635,-0.9735831022262573,0.5223149657249451
1684252389082761000,12.482760986328126,0.6298189163208008,-1.120522141456604,0.5539611577987671
1684252389092787200,12.492787109375,0.6237183809280396,-1.2301826477050781,0.6829143166542053
1684252389102813200,12.502813232421875,0.5062157511711121,-1.307969570159912,0.9097709059715271
1684252389112839200,12.512839111328125,0.26572057604789734,-1.2634412050247192,1.158060908317566
1684252389122865200,12.522865234375,-0.03889097273349762,-0.9103195667266846,1.3275690078735352
1684252389132891100,12.53289111328125,-0.3863126039505005,-0.3009400963783264,1.3832075595855713
1684252389142917000,12.542917236328124,-0.7049139142036438,0.407900333404541,1.3653861284255981
1684252389152943400,12.552943359375,-0.9390571713447571,1.0373826026916504,1.3272879123687744
1684252389162969300,12.56296923828125,-1.0270271301269531,1.428341269493103,1.2893253564834595
1684252389172995300,12.572995361328125,-0.9879339337348938,1.5458881855010986,1.2600630521774292
1684252389183021300,12.583021240234375,-0.8836641311645508,1.439285159111023,1.2424004077911377
1684252389193047600,12.593047607421875,-0.7398571968078613,1.2117068767547607,1.232815146446228
1684252389203073500,12.603073486328125,-0.5864054560661316,0.8833552002906799,1.21513032913208
