time,seconds_elapsed,z,y,x
1684252423582003200,0.026003173828125,0.0029498906806111336,0.7526851296424866,-0.5422934293746948
1684252423592029200,0.036029296875,0.06359294056892395,0.6325497627258301,-0.6626614928245544
1684252423602055200,0.04605517578125,0.11073249578475952,0.5183930993080139,-0.7295907139778137
1684252423612081200,0.0560810546875,0.009873527102172375,0.5716025829315186,-0.6703896522521973
1684252423622107100,0.066107177734375,-0.2001926302909851,0.8074933886528015,-0.5739454030990601
1684252423632133000,0.076133056640625,-0.4574734568595886,1.0388740301132202,-0.49298012256622314
1684252423642159000,0.0861591796875,-0.6922641396522522,1.3475892543792725,-0.48017752170562744
1684252423652185000,0.09618505859375,-0.8677058219909668,1.6341724395751953,-0.5562142133712769
1684252423662212000,0.106212158203125,-1.0290333032608032,1.9003082513809204,-0.619400680065155
1684252423672238000,0.116238037109375,-1.2303332090377808,2.238886833190918,-0.5953807234764099
1684252423682264000,0.12626416015625,-1.4437211751937866,2.5106441974639893,-0.4918796420097351
1684252423692290000,0.1362900390625,-1.6111230850219727,2.8028759956359863,-0.3538239300251007
1684252423702316000,0.14631591796875,-1.637613296508789,2.9147109985351562,-0.2625395655632019
1684252423712342000,0.156342041015625,-1.6474578380584717,2.754690408706665,-0.27673688530921936
1684252423722368000,0.166367919921875,-1.6409049034118652,2.2601592540740967,-0.4387342929840088
1684252423732394000,0.17639404296875,-1.622994303703308,1.8736469745635986,-0.7529670000076294
1684252423742420000,0.186419921875,-1.6572198867797852,1.8133580684661865,-1.1663424968719482
1684252423752447200,0.196447265625,-1.8840802907943726,1.8851951360702515,-1.5797944068908691
1684252423762473200,0.20647314453125,-2.425487518310547,1.680867075920105,-2.0601937770843506
1684252423772499200,0.216499267578125,-2.9678704738616943,1.837152361869812,-2.278597593307495
1684252423782525200,0.226525146484375,-3.4123752117156982,2.1128358840942383,-2.2480766773223877
1684252423792551200,0.23655126953125,-3.6451258659362793,2.219879627227783,-2.065427303314209
1684252423802577000,0.246576904296875,-3.654191017150879,1.8160455226898193,-1.9484237432479858
1684252423812603000,0.256602783203125,-3.5482118129730225,1.5152955055236816,-1.897850513458252
1684252423822628900,0.26662890625,-3.4187276363372803,1.6816387176513672,-1.856898307800293
1684252423832656100,0.27665625,-3.417651891708374,2.1748883724212646,-1.724449634552002
1684252423842682000,0.28668212890625,-3.7041704654693604,3.0049290657043457,-1.395823359489441
1684252423852708000,0.2967080078125,-4.199498653411865,4.196529388427734,-0.6895338892936707
1684252423862734000,0.306734130859375,-4.778474807739258,5.522898197174072,0.45226040482521057
1684252423872760000,0.316760009765625,-5.331096649169922,6.61434268951416,1.7429956197738647
1684252423882786000,0.3267861328125,-5.811715126037598,7.479614734649658,2.9220380783081055
1684252423892812000,0.33681201171875,-6.159430980682373,7.948363304138184,3.836226224899292
1684252423902838000,0.346838134765625,-6.363528728485107,7.966285228729248,4.438190460205078
1684252423912865300,0.356865234375,-6.5478363037109375,7.63861083984375,4.726110935211182
1684252423922891300,0.366891357421875,-6.7083048820495605,7.090543746948242,4.7636399269104
1684252423932917000,0.3769169921875,-6.9202446937561035,6.357354640960693,4.647034168243408
1684252423942943000,0.38694287109375,-7.1201605796813965,5.349510192871094,4.457616329193115
1684252423952969000,0.396968994140625,-7.038750648498535,3.754228353500366,4.119510650634766
1684252423962995000,0.406994873046875,-6.661233425140381,1.9286173582077026,3.554595947265625
1684252423973021000,0.41702099609375,-5.8426594734191895,-0.15677519142627716,2.5109806060791016
1684252423983047000,0.427046875,-4.549798488616943,-1.1713950634002686,1.2661210298538208
1684252423993073000,0.437072998046875,-2.9537291526794434,-1.0809447765350342,0.46658989787101746
1684252424003100200,0.44710009765625,-1.3113446235656738,-1.2999953031539917,0.6026688814163208
1684252424013126100,0.457126220703125,0.041274767369031906,-1.6372346878051758,1.0833227634429932
1684252424023152000,0.467152099609375,1.0407603979110718,-1.456268072128296,1.6461507081985474
1684252424033178000,0.47717822265625,1.8517863750457764,-1.0676207542419434,1.8654958009719849
1684252424043204000,0.4872041015625,2.536811113357544,-0.5420278310775757,1.6672879457473755
1684252424053230000,0.49722998046875,2.9567456245422363,-0.030027491971850395,1.3233524560928345
1684252424063256000,0.507256103515625,3.052274465560913,0.5799357295036316,0.9548032283782959
1684252424073282000,0.517281982421875,2.971418857574463,1.2315906286239624,0.6559250950813293
1684252424083309000,0.52730908203125,2.7645623683929443,1.7920124530792236,0.35384562611579895
1684252424093335000,0.5373349609375,1.67682945728302,2.34224271774292,-0.9233369827270508
1684252424103361000,0.547361083984375,-0.3897051215171814,2.901467800140381,-3.5128014087677
1684252424113387000,0.557386962890625,-0.6090031862258911,3.4869208335876465,-3.673143148422241
1684252424123413000,0.5674130859375,0.1009926125407219,3.961203098297119,-2.6803205013275146
1684252424133439000,0.57743896484375,1.0655694007873535,4.286447525024414,-1.9682430028915405
1684252424143465000,0.58746484375,1.92133367061615,4.0840864181518555,-1.4165774583816528
1684252424153491000,0.597490966796875,2.734851837158203,2.1214869022369385,-0.9532137513160706
1684252424163517000,0.607516845703125,3.1779282093048096,-0.06466078013181686,-0.5316696763038635
1684252424173544200,0.617544189453125,2.9690263271331787,-1.2876346111297607,-0.3478568494319916
1684252424183570200,0.627570068359375,2.5465939044952393,-0.4249799847602844,0.24266663193702698
1684252424193595400,0.637595458984375,2.3967559337615967,0.9852408170700073,0.9035874009132385
1684252424203621400,0.647621337890625,2.47660756111145,1.81725013256073,1.8016151189804077
1684252424213647400,0.6576474609375,2.795320510864258,0.5417733192443848,1.6477652788162231
1684252424223673300,0.66767333984375,2.316030502319336,0.2686072587966919,1.2298532724380493
1684252424233699300,0.67769921875,1.7101397514343262,0.9593989253044128,1.1619420051574707
1684252424243725300,0.687725341796875,1.0118978023529053,1.022371768951416,0.5874183177947998
1684252424253752300,0.69775244140625,0.4192880392074585,1.0688210725784302,-0.403759241104126
1684252424263778300,0.7077783203125,0.19991014897823334,1.0289082527160645,-1.0910053253173828
1684252424273804500,0.717804443359375,-0.031900957226753235,0.8574011325836182,-1.5679724216461182
1684252424283830500,0.72783056640625,-0.49746304750442505,0.8390458226203918,-1.6228433847427368
1684252424293856300,0.737856201171875,-1.1063151359558105,0.9180871844291687,-1.2557995319366455
1684252424303882200,0.74788232421875,-1.773729681968689,0.6184418797492981,-0.7544351816177368
1684252424313908200,0.757908203125,-2.7455062866210938,0.5090585947036743,-0.23459844291210175
1684252424323934200,0.767934326171875,-3.592341184616089,0.48612454533576965,-0.13299618661403656
1684252424333961200,0.777961181640625,-4.073221206665039,0.5240806341171265,-0.4926866888999939
1684252424343987200,0.7879873046875,-4.12814474105835,0.5462607741355896,-1.0972881317138672
1684252424354013400,0.798013427734375,-4.168795585632324,0.8266178965568542,-1.5246331691741943
1684252424364039400,0.808039306640625,-4.206841468811035,1.2905539274215698,-1.663472056388855
1684252424374065400,0.8180654296875,-4.0144429206848145,1.7745805978775024,-1.4583083391189575
1684252424384091400,0.82809130859375,-3.738535165786743,1.8770010471343994,-1.1924211978912354
1684252424394117400,0.838117431640625,-3.4630398750305176,1.5095689296722412,-1.1652358770370483
1684252424404144400,0.848144287109375,-3.246960401535034,1.3735064268112183,-1.2667193412780762
1684252424414170400,0.85817041015625,-3.2465627193450928,1.729769229888916,-1.3584330081939697
1684252424424196400,0.8681962890625,-3.5391576290130615,2.2527496814727783,-1.426124095916748
1684252424434222300,0.878222412109375,-3.9570906162261963,2.738828659057617,-1.4566398859024048
1684252424444248300,0.888248291015625,-4.436152935028076,2.6673264503479004,-1.2524715662002563
1684252424454274300,0.8982744140625,-4.922951698303223,2.506849765777588,-0.8352641463279724
1684252424464300300,0.90830029296875,-5.331242561340332,2.230854034423828,-0.08936680853366852
1684252424474326300,0.918326171875,-5.138453483581543,1.3030391931533813,0.9530879855155945
1684252424484353300,0.928353271484375,-4.013539791107178,0.5280786752700806,2.247765064239502
1684252424494379300,0.938379150390625,-2.0938720703125,0.34707069396972656,3.19649076461792
1684252424504405200,0.9484052734375,-0.0825376957654953,0.3848484456539154,3.6918396949768066
1684252424514431200,0.95843115234375,0.9256769418716431,0.4135322570800781,3.9985318183898926
1684252424524457200,0.968457275390625,1.0215775966644287,0.2746223211288452,4.224315643310547
1684252424534483500,0.9784833984375,0.6132986545562744,-0.14961224794387817,4.241888523101807
1684252424544509400,0.988509521484375,0.1298225224018097,-1.113111138343811,3.797046184539795
1684252424554535400,0.998535400390625,-0.21916595101356506,-2.3961715698242188,2.8524765968322754
1684252424564562400,1.0085625,-0.5155901312828064,-3.665041446685791,1.907425880432129
1684252424574588400,1.01858837890625,-0.8312824964523315,-4.7379655838012695,1.1971276998519897
1684252424584614400,1.028614501953125,-0.9591832160949707,-5.238368988037109,0.7698333263397217
1684252424594640100,1.03864013671875,-0.8786917924880981,-4.6167731285095215,0.5787373781204224
1684252424604666000,1.048666015625,-0.9633395671844482,-4.233157634735107,0.3213350772857666
1684252424614692000,1.058692138671875,-1.0758981704711914,-3.6892621517181396,0.09089811146259308
1684252424624718300,1.06871826171875,-1.243201732635498,-3.4194581508636475,-0.1388474553823471
1684252424634744300,1.078744384765625,-0.9336848855018616,-1.4425792694091797,-1.0588366985321045
1684252424644771300,1.088771240234375,-0.7084988951683044,0.15098124742507935,-1.6803054809570312
1684252424654797300,1.09879736328125,-0.8803233504295349,1.482745885848999,-1.943995714187622
1684252424664823300,1.1088232421875,-1.3832578659057617,2.7037904262542725,-2.0945582389831543
1684252424674849300,1.118849365234375,-2.1339685916900635,3.6830027103424072,-2.2484402656555176
1684252424684875300,1.128875244140625,-2.991899251937866,4.267231464385986,-2.308671712875366
1684252424694901200,1.1389013671875,-3.8798885345458984,4.724763870239258,-2.3044826984405518
1684252424704927500,1.148927490234375,-4.515187740325928,5.12601375579834,-2.1833462715148926
1684252424714953500,1.158953369140625,-4.534954071044922,4.824495792388916,-1.6392744779586792
1684252424724980500,1.16898046875,-3.7389047145843506,4.070271015167236,-0.47795113921165466
1684252424735006200,1.179006103515625,-3.006155490875244,3.510709762573242,0.579927384853363
1684252424745032200,1.1890322265625,-2.684917688369751,3.186582088470459,1.3026680946350098
1684252424755058200,1.19905810546875,-2.7468180656433105,3.264385223388672,1.6212395429611206
1684252424765084200,1.209084228515625,-2.872051954269409,3.3864169120788574,1.8083175420761108
1684252424775110100,1.219110107421875,-2.9081692695617676,3.4420382976531982,1.9145898818969727
1684252424785136000,1.22913623046875,-2.6319658756256104,3.460430145263672,1.9412950277328491
1684252424795163400,1.239163330078125,-2.010936975479126,3.414900779724121,1.8962056636810303
1684252424805189400,1.249189453125,-1.13373601436615,3.399278402328491,1.7476314306259155
1684252424815215400,1.25921533203125,-0.03800392523407936,3.550114154815674,1.4527435302734375
1684252424825241300,1.269241455078125,1.149423599243164,3.842144012451172,0.9822937846183777
1684252424835267300,1.279267333984375,2.1746253967285156,4.215564250946045,0.39492982625961304
1684252424845293300,1.289293212890625,2.749720573425293,4.512436389923096,-0.1778244972229004
1684252424855319300,1.2993193359375,2.804581642150879,4.338126182556152,-0.8218947649002075
1684252424865345300,1.30934521484375,2.4957149028778076,3.544606924057007,-1.6029391288757324
1684252424875372300,1.319372314453125,2.3323447704315186,2.7337453365325928,-2.4989712238311768
1684252424885398300,1.329398193359375,2.1470885276794434,2.0499351024627686,-3.2023181915283203
1684252424895424300,1.33942431640625,1.7922029495239258,1.3713362216949463,-3.51580810546875
1684252424905450200,1.3494501953125,1.247888207435608,0.8234148621559143,-3.451310634613037
1684252424915476200,1.359476318359375,0.36261042952537537,0.34100043773651123,-3.097569465637207
1684252424925502200,1.369502197265625,-0.5815746784210205,0.031911853700876236,-2.5925021171569824
1684252424935528200,1.379528076171875,-1.5845166444778442,-0.7650179862976074,-1.9548323154449463
1684252424945555200,1.38955517578125,-2.529088258743286,-1.7563199996948242,-1.326758861541748
1684252424955581400,1.39958154296875,-3.3640778064727783,-2.367891311645508,-0.6365506649017334
1684252424965607400,1.409607421875,-3.999401807785034,-2.9099299907684326,0.0034325066953897476
1684252424975633400,1.41963330078125,-4.169212818145752,-3.324997663497925,0.4900956451892853
1684252424985659400,1.429659423828125,-4.271097183227539,-3.6789162158966064,0.8951451182365417
1684252424995685400,1.439685302734375,-4.092355251312256,-3.7580177783966064,1.253186583518982
1684252425005711400,1.44971142578125,-3.5256617069244385,-3.670954704284668,1.5061759948730469
1684252425015738400,1.45973828125,-2.6375157833099365,-3.3206474781036377,1.8034625053405762
1684252425025764400,1.469764404296875,-1.305067777633667,-2.403393507003784,2.729705333709717
1684252425035790300,1.479790283203125,0.39931735396385193,0.4455815553665161,5.585818767547607
1684252425045816300,1.48981640625,1.479099988937378,2.8160898685455322,7.258238315582275
1684252425055842300,1.49984228515625,2.0907771587371826,4.329883098602295,7.76409912109375
1684252425065868300,1.509868408203125,2.22978138923645,4.2415242195129395,5.1256327629089355
1684252425075894300,1.519894287109375,1.41721773147583,2.5406405925750732,0.5541911125183105
1684252425085920300,1.529920166015625,0.5413625836372375,1.3486024141311646,-1.9328463077545166
1684252425095947300,1.539947265625,-0.08327443897724152,0.7120046615600586,-2.7835521697998047
1684252425105973200,1.54997314453125,-0.5048736333847046,0.18894675374031067,-3.0710957050323486
1684252425115999200,1.559999267578125,-0.8180909752845764,-0.2539784014225006,-3.1970267295837402
1684252425126025500,1.570025390625,-0.993028461933136,-0.5510585904121399,-3.2094833850860596
1684252425136051500,1.580051513671875,-1.0078893899917603,-0.7356235980987549,-3.1119837760925293
1684252425146077400,1.590077392578125,-0.8805004954338074,-0.8533843159675598,-2.9132485389709473
1684252425156103400,1.600103515625,-0.6177502870559692,-0.856569766998291,-2.5141143798828125
1684252425166130400,1.61013037109375,-0.2043704092502594,-0.6627388000488281,-1.8567832708358765
1684252425176156200,1.62015625,0.19863274693489075,-0.3652521073818207,-1.0694609880447388
1684252425186183000,1.630182861328125,0.42308396100997925,-0.2053772360086441,-0.4374869465827942
1684252425196209000,1.640208984375,0.4685307741165161,-0.20651927590370178,-0.021642550826072693
1684252425206235000,1.65023486328125,0.42548877000808716,-0.2853890657424927,0.2518515884876251
1684252425216260900,1.6602607421875,0.3837848901748657,-0.3686981201171875,0.43069446086883545
1684252425226286800,1.670286865234375,0.36985254287719727,-0.4146331250667572,0.5538190603256226
1684252425236314000,1.680314208984375,0.37700602412223816,-0.4021545350551605,0.6174674034118652
1684252425246340000,1.690340087890625,0.3897992968559265,-0.3351629972457886,0.6209121942520142
1684252425256366000,1.700365966796875,0.40901270508766174,-0.2354549765586853,0.5773570537567139
1684252425266392000,1.71039208984375,0.42698904871940613,-0.08680957555770874,0.5162023901939392
1684252425276418000,1.72041796875,0.4336142838001251,0.049426328390836716,0.43751218914985657
1684252425286444000,1.730444091796875,0.43495145440101624,0.1780886948108673,0.37425118684768677
1684252425296470000,1.740469970703125,0.4170415699481964,0.2973073720932007,0.3366585969924927
1684252425306496000,1.75049609375,0.38193657994270325,0.38928017020225525,0.3487594425678253
1684252425316523000,1.76052294921875,0.34676334261894226,0.5043221116065979,0.46399328112602234
1684252425326549000,1.770549072265625,0.33762097358703613,0.7579056620597839,0.8166102170944214
1684252425336575000,1.780574951171875,0.3754172623157501,1.153167724609375,1.3964592218399048
1684252425346601000,1.79060107421875,0.44211718440055847,1.5061588287353516,1.9104762077331543
1684252425356627000,1.800626953125,0.5196356773376465,1.7049168348312378,2.20504093170166
1684252425366653000,1.81065283203125,0.6133546829223633,1.7446404695510864,2.306973695755005
1684252425376679000,1.820678955078125,0.7105256915092468,1.6489797830581665,2.2514443397521973
1684252425386706000,1.830705810546875,0.7618919610977173,1.3867734670639038,2.0363030433654785
1684252425396732200,1.840732177734375,0.7426978349685669,1.001145601272583,1.6487857103347778
1684252425406758100,1.850758056640625,0.6213961839675903,0.40845611691474915,0.9189935326576233
1684252425416784100,1.8607841796875,0.41670742630958557,-0.2911786437034607,0.05383741855621338
1684252425426810000,1.87081005859375,0.21655167639255524,-0.889559268951416,-0.5999960899353027
1684252425436836000,1.880836181640625,0.08714278787374496,-1.286504864692688,-0.9443106055259705
1684252425446862000,1.890862060546875,0.0214812234044075,-1.524327039718628,-1.068822979927063
1684252425456888800,1.900888916015625,-0.006219270173460245,-1.6389878988265991,-1.0803285837173462
1684252425466914800,1.910914794921875,-0.004168369807302952,-1.6720880270004272,-1.0345264673233032
1684252425476941000,1.920941162109375,0.014319898560643196,-1.710391879081726,-0.981452226638794
1684252425486967000,1.930967041015625,0.056199438869953156,-1.7832096815109253,-0.9173542261123657
1684252425496993000,1.940992919921875,0.12843738496303558,-1.868926763534546,-0.84149169921875
1684252425507019000,1.95101904296875,0.2096739113330841,-1.9608780145645142,-0.7361413240432739
1684252425517045000,1.961044921875,0.27493682503700256,-2.052283763885498,-0.5999429821968079
1684252425527072000,1.971072021484375,0.3028677999973297,-2.152468204498291,-0.4460703730583191
1684252425537098000,1.981097900390625,0.2999570667743683,-2.255387544631958,-0.28235238790512085
1684252425547124000,1.9911240234375,0.27341946959495544,-2.3279800415039062,-0.11482943594455719
1684252425557150000,2.00114990234375,0.22475376725196838,-2.355161190032959,0.04710076376795769
1684252425567176200,2.01117626953125,0.15354882180690765,-2.3332200050354004,0.1911945641040802
1684252425577202200,2.0212021484375,0.08108947426080704,-2.279961347579956,0.3073797821998596
1684252425587228200,2.031228271484375,0.0062453290447592735,-2.1767115592956543,0.3975411057472229
1684252425597255000,2.0412548828125,-0.07530168443918228,-2.0352864265441895,0.4658765494823456
1684252425607281000,2.051281005859375,-0.16479241847991943,-1.8767749071121216,0.5070778131484985
1684252425617307000,2.061306884765625,-0.2629772126674652,-1.7052854299545288,0.5267905592918396
1684252425627332900,2.071332763671875,-0.3430960178375244,-1.5414613485336304,0.5208823084831238
1684252425637358800,2.08135888671875,-0.4012313485145569,-1.3906855583190918,0.4965292811393738
1684252425647384800,2.091384765625,-0.43434321880340576,-1.2242484092712402,0.4540092647075653
1684252425657411000,2.1014111328125,-0.4574070870876312,-1.0370076894760132,0.41448792815208435
1684252425667438000,2.11143798828125,-0.4863782823085785,-0.8197808265686035,0.39004915952682495
1684252425677464000,2.121464111328125,-0.5407790541648865,-0.5963321328163147,0.39495423436164856
1684252425687490000,2.131489990234375,-0.619783341884613,-0.37054696679115295,0.4617825150489807
1684252425697516000,2.14151611328125,-0.7050944566726685,-0.1945602297782898,0.652675449848175
1684252425707542000,2.1515419921875,-0.7720750570297241,-0.13128964602947235,1.0389463901519775
1684252425717568000,2.161568115234375,-0.7597519159317017,-0.16671083867549896,1.594670295715332
1684252425727594000,2.171593994140625,-0.6546857357025146,-0.2666824758052826,2.0887515544891357
1684252425737621000,2.18162109375,-0.5223114490509033,-0.40406569838523865,2.3450164794921875
1684252425747647000,2.19164697265625,-0.4022180438041687,-0.6281994581222534,2.3345117568969727
1684252425757673000,2.2016728515625,-0.2853902578353882,-1.5807487964630127,1.9169669151306152
1684252425767699000,2.211698974609375,-0.19555196166038513,-3.2340943813323975,0.8325708508491516
1684252425777725000,2.221724853515625,-0.08872603625059128,-3.909297466278076,-0.28619101643562317
1684252425787751000,2.2317509765625,0.02126438170671463,-3.5914838314056396,-1.001588225364685
1684252425797778000,2.24177783203125,0.08165565133094788,-2.9412736892700195,-1.2618765830993652
1684252425807804200,2.25180419921875,0.06319887936115265,-2.203798770904541,-1.127347469329834
1684252425817830100,2.261830078125,-0.08369410783052444,-1.501638650894165,-0.7478040456771851
1684252425827856100,2.271856201171875,-0.3522353172302246,-1.030545949935913,-0.3979911506175995
1684252425837882000,2.281882080078125,-0.6909156441688538,-1.0050766468048096,-0.3173624277114868
1684252425847908000,2.291908203125,-1.0415982007980347,-1.503474235534668,-0.5660926103591919
1684252425857934000,2.30193408203125,-1.3251620531082153,-2.397618055343628,-1.1278544664382935
1684252425867960800,2.3119609375,-1.4964532852172852,-3.1217041015625,-1.7620278596878052
1684252425877986800,2.32198681640625,-1.5063728094100952,-3.0571815967559814,-2.1294825077056885
1684252425888012800,2.3320126953125,-1.3870354890823364,-2.190263032913208,-2.446251392364502
1684252425898039000,2.3420390625,-1.1864207983016968,-0.6964854598045349,-3.04441499710083
1684252425908065000,2.35206494140625,-0.7131044864654541,1.2246981859207153,-3.787661552429199
1684252425918091000,2.362091064453125,-0.040774039924144745,2.9226224422454834,-4.376186370849609
1684252425928117000,2.372116943359375,0.21833927929401398,3.5836851596832275,-4.52111291885376
1684252425938144000,2.38214404296875,-0.06922407448291779,2.6376636028289795,-3.272196054458618
1684252425948170000,2.392169921875,-0.6797114014625549,1.1462948322296143,-1.6754941940307617
1684252425958196000,2.402196044921875,-1.2645066976547241,0.4822588264942169,-1.0465824604034424
1684252425968222000,2.412221923828125,-1.4294441938400269,0.4693520665168762,-1.0824118852615356
1684252425978248000,2.422248046875,-1.1242557764053345,0.5582289099693298,-1.2817127704620361
1684252425988274200,2.432274169921875,-0.5000734925270081,0.6589698791503906,-1.5540167093276978
1684252425998300200,2.442300048828125,0.19518496096134186,0.664106547832489,-1.7669587135314941
1684252426008327000,2.452326904296875,0.9221109747886658,0.49768561124801636,-1.7416086196899414
1684252426018353000,2.462352783203125,1.6480571031570435,0.25779271125793457,-1.3403362035751343
1684252426028379000,2.47237890625,2.224884510040283,-0.2977765202522278,-0.7342026233673096
1684252426038404900,2.48240478515625,2.51814341545105,-0.9547043442726135,0.14739196002483368
1684252426048430800,2.492430908203125,2.433148145675659,-1.7283121347427368,1.1145991086959839
1684252426058456800,2.502456787109375,2.0353851318359375,-2.625178813934326,1.9714479446411133
1684252426068484000,2.512484130859375,1.503145456314087,-3.3426592350006104,2.5234127044677734
1684252426078510000,2.522510009765625,1.0146676301956177,-4.153619289398193,2.6723079681396484
1684252426088536000,2.5325361328125,0.7305006384849548,-5.713071823120117,2.2651267051696777
1684252426098562000,2.54256201171875,0.6724735498428345,-7.138049602508545,1.4527596235275269
1684252426108588000,2.552588134765625,0.8584433794021606,-7.28977632522583,0.8566001057624817
1684252426118614000,2.562614013671875,1.1312741041183472,-5.597410678863525,0.6616068482398987
1684252426128640000,2.572639892578125,1.329894781112671,-2.0715129375457764,0.2255309820175171
1684252426138667000,2.5826669921875,1.464665412902832,2.0084362030029297,-0.5920206904411316
1684252426148693000,2.59269287109375,1.4529796838760376,4.727682113647461,-1.6413642168045044
1684252426158719000,2.602718994140625,1.3101513385772705,5.458286762237549,-2.2241311073303223
1684252426168745000,2.612744873046875,1.2399336099624634,5.32780122756958,-2.3189070224761963
1684252426178771000,2.62277099609375,1.2188754081726074,4.8697099685668945,-2.1356372833251953
1684252426188797000,2.632796875,1.1821320056915283,3.9303200244903564,-1.7661592960357666
1684252426198824000,2.642823974609375,1.1445307731628418,2.356191635131836,-1.430544137954712
1684252426208850000,2.652849853515625,1.1933622360229492,0.5727720260620117,-1.2172837257385254
1684252426218876000,2.6628759765625,1.3240960836410522,-0.6727014780044556,-1.1674023866653442
1684252426228902000,2.67290185546875,1.5015549659729004,-1.362234115600586,-1.2586390972137451
1684252426238928000,2.682927978515625,1.6953412294387817,-1.6446698904037476,-1.330276608467102
1684252426248954000,2.6929541015625,1.89968740940094,-1.3223600387573242,-1.165371298789978
1684252426258980000,2.70297998046875,1.9964884519577026,-0.43282994627952576,-0.8634397387504578
1684252426269006800,2.7130068359375,1.9992363452911377,0.6004542112350464,-0.6778043508529663
1684252426279032800,2.72303271484375,2.0073206424713135,1.3561344146728516,-0.7231056094169617
1684252426289058800,2.733058837890625,2.036936044692993,1.724086880683899,-0.8982755541801453
1684252426299084800,2.743084716796875,2.0639331340789795,1.7119766473770142,-1.0209836959838867
1684252426309110800,2.75311083984375,2.067544937133789,1.5172157287597656,-1.0126056671142578
1684252426319136800,2.76313671875,1.9969228506088257,1.2555413246154785,-0.9026077389717102
1684252426329164000,2.7731640625,1.8528856039047241,1.0190222263336182,-0.7575312256813049
1684252426339190000,2.78318994140625,1.6684199571609497,0.8612743020057678,-0.6508480310440063
1684252426349216000,2.793216064453125,1.5072041749954224,0.8091596961021423,-0.6102367043495178
1684252426359242000,2.803241943359375,1.3614490032196045,0.8354929089546204,-0.6062339544296265
1684252426369268000,2.81326806640625,1.2111940383911133,0.9742406606674194,-0.6033366918563843
1684252426379294000,2.8232939453125,1.0992995500564575,1.0492454767227173,-0.552116334438324
1684252426389320000,2.83331982421875,1.0300331115722656,0.9725145697593689,-0.4556441009044647
1684252426399347000,2.843346923828125,0.9694321751594543,0.8056290745735168,-0.38295671343803406
1684252426409373000,2.853373046875,0.8703671097755432,0.6390350461006165,-0.33891257643699646
1684252426419399000,2.86339892578125,0.7450820803642273,0.47156012058258057,-0.30549755692481995
1684252426429425000,2.8734248046875,0.6473576426506042,0.3077642619609833,-0.24136412143707275
1684252426439451000,2.883450927734375,0.5740311145782471,0.1430303454399109,-0.16151027381420135
1684252426449476900,2.893476806640625,0.50820392370224,-0.009682766161859035,-0.12902024388313293
1684252426459503900,2.90350390625,0.42449721693992615,-0.09930755198001862,-0.15713177621364594
1684252426469529900,2.91352978515625,0.309773325920105,-0.051292888820171356,-0.24250952899456024
1684252426479555800,2.923555908203125,0.17690515518188477,0.09238589555025101,-0.34792906045913696
1684252426489582000,2.93358203125,0.03979203850030899,0.2477392703294754,-0.44662126898765564
1684252426499608000,2.943608154296875,-0.07472379505634308,0.41341185569763184,-0.5215283632278442
1684252426509634000,2.953634033203125,-0.18289633095264435,0.5271427035331726,-0.5523062348365784
1684252426519661000,2.9636611328125,-0.3015715181827545,0.4995860755443573,-0.4912460148334503
1684252426529687000,2.97368701171875,-0.43129435181617737,0.36649778485298157,-0.3541419506072998
1684252426539713000,2.983713134765625,-0.5731058120727539,0.14456556737422943,-0.1404438018798828
1684252426549739000,2.993739013671875,-0.7047783732414246,-0.08022119849920273,0.1016995832324028
1684252426559764700,3.0037646484375,-0.8372711539268494,-0.2514877915382385,0.29714611172676086
1684252426569790700,3.013790771484375,-0.9542209506034851,-0.29528453946113586,0.431743860244751
1684252426579817000,3.02381689453125,-1.0791926383972168,-0.16121742129325867,0.5442918539047241
1684252426589844000,3.033843994140625,-1.2214521169662476,0.0828559547662735,0.663702130317688
1684252426599870000,3.043869873046875,-1.3753161430358887,0.32150742411613464,0.8406534194946289
1684252426609896000,3.05389599609375,-1.5064531564712524,0.5163019895553589,1.0919221639633179
1684252426619922000,3.063921875,-1.6028907299041748,0.6691840291023254,1.3742669820785522
1684252426629948000,3.073947998046875,-1.638187289237976,0.7544275522232056,1.667113184928894
1684252426639974000,3.083973876953125,-1.612287998199463,0.7046859860420227,1.9337058067321777
1684252426650001200,3.094001220703125,-1.5490206480026245,0.3806562125682831,2.139366388320923
1684252426660027100,3.104027099609375,-1.4418323040008545,0.020820999518036842,2.3061914443969727
1684252426670053000,3.11405322265625,-1.329943060874939,-0.23986704647541046,2.4830212593078613
1684252426680079000,3.1240791015625,-1.1586406230926514,-0.9062210321426392,2.600503921508789
1684252426690105000,3.13410498046875,-0.5014315843582153,-4.853098392486572,2.1206274032592773
1684252426700130800,3.144130859375,0.47290897369384766,-8.329167366027832,1.621022343635559
1684252426710157800,3.15415771484375,0.46202996373176575,-3.8286056518554688,2.1100847721099854
1684252426720183800,3.164183837890625,-0.3116476833820343,1.8150177001953125,1.5168551206588745
1684252426730210000,3.1742099609375,-1.3091692924499512,5.084155559539795,1.0345265865325928
1684252426740236000,3.184236083984375,-1.6011157035827637,6.754411697387695,1.1825051307678223
1684252426750262000,3.194261962890625,-0.9433146119117737,6.113447189331055,1.2921773195266724
1684252426760288000,3.2042880859375,0.0701962411403656,3.740063428878784,0.9436232447624207
1684252426770315000,3.21431494140625,0.898131251335144,4.603756904602051,0.7432552576065063
1684252426780341000,3.224341064453125,1.6039073467254639,6.706942558288574,0.8542459011077881
1684252426790367000,3.234366943359375,2.3534717559814453,5.201514720916748,0.8798947930335999
1684252426800393000,3.24439306640625,3.0111491680145264,-5.1118855476379395,0.09628062695264816
1684252426810419000,3.2544189453125,2.3387396335601807,-5.731744289398193,-0.43703415989875793
1684252426820445200,3.264445068359375,1.2784444093704224,-2.6129848957061768,0.5943558812141418
1684252426830472000,3.274471923828125,0.3379407823085785,3.3455471992492676,1.2735247611999512
1684252426840498000,3.284497802734375,-0.6803123950958252,7.009528636932373,-1.0550529956817627
1684252426850524000,3.29452392578125,-1.7154895067214966,7.9903564453125,-2.915738344192505
1684252426860550000,3.3045498046875,-2.534209728240967,7.7157182693481445,-3.7730352878570557
1684252426870575900,3.314575927734375,-3.1847212314605713,6.648003578186035,-4.109206199645996
1684252426880601900,3.324601806640625,-3.7031497955322266,5.034457206726074,-4.115012168884277
1684252426890629000,3.334629150390625,-4.027746677398682,3.164511203765869,-3.9081404209136963
1684252426900655000,3.344655029296875,-4.112023830413818,1.2577158212661743,-3.546133518218994
1684252426910681000,3.35468115234375,-3.816727876663208,-0.19437138736248016,-3.079683303833008
1684252426920707000,3.36470703125,-2.9060471057891846,0.0012072580866515636,-2.0718209743499756
1684252426930733000,3.374733154296875,-1.4235674142837524,3.653635263442993,0.46408089995384216
1684252426940759000,3.384759033203125,-0.5590350031852722,4.816854476928711,2.235501527786255
1684252426950785800,3.394785888671875,-0.2382974475622177,3.6930041313171387,3.1657798290252686
1684252426960811800,3.404811767578125,-0.053561653941869736,0.859531819820404,3.587386131286621
1684252426970837800,3.414837646484375,0.013301800936460495,-2.6376988887786865,3.132625102996826
1684252426980864000,3.424864013671875,-0.006168974097818136,-3.308176040649414,2.3499202728271484
1684252426990890000,3.434889892578125,-0.08715703338384628,-2.366997241973877,1.7468422651290894
1684252427000916000,3.444916015625,-0.2960546612739563,-0.9262630939483643,1.7632945775985718
1684252427010942000,3.45494189453125,-0.5150144100189209,0.2405620515346527,1.998763918876648
1684252427020969000,3.464968994140625,-0.569402813911438,0.7513567805290222,1.8995180130004883
1684252427030995000,3.474994873046875,-0.49523594975471497,0.7403832674026489,1.6041637659072876
1684252427041021000,3.48502099609375,-0.3928784728050232,0.36350610852241516,1.3311245441436768
1684252427051047000,3.495046875,-0.33376002311706543,-0.1754218190908432,1.1837074756622314
1684252427061073200,3.5050732421875,-0.36215147376060486,-0.6423262357711792,1.181713581085205
1684252427071100000,3.515099853515625,-0.46031105518341064,-0.8633885383605957,1.2454789876937866
1684252427081126000,3.5251259765625,-0.6056077480316162,-0.9023622870445251,1.349550485610962
1684252427091152000,3.53515185546875,-0.7464964389801025,-0.8081857562065125,1.4476932287216187
1684252427101177900,3.545177734375,-0.8365148305892944,-0.6288558840751648,1.5126299858093262
1684252427111203800,3.555203857421875,-0.8294838666915894,-0.3931589424610138,1.5015145540237427
1684252427121229800,3.565229736328125,-0.7511141896247864,-0.12464521080255508,1.4276387691497803
1684252427131255800,3.575255859375,-0.598192572593689,0.09356915205717087,1.3359181880950928
1684252427141283000,3.585282958984375,-0.39789316058158875,0.25829482078552246,1.2109113931655884
1684252427151309000,3.59530908203125,-0.20889981091022491,0.29983001947402954,1.0791282653808594
1684252427161335000,3.6053349609375,-0.022488480433821678,0.2539573311805725,0.9479919075965881
1684252427171361000,3.615361083984375,0.12942008674144745,0.17942078411579132,0.8140705823898315
1684252427181387000,3.625386962890625,0.2413255125284195,0.2233443707227707,0.6713075041770935
1684252427191413500,3.63541357421875,0.33696258068084717,0.3683614730834961,0.5658111572265625
1684252427201439500,3.645439453125,0.41398152709007263,0.5139816403388977,0.5579020380973816
1684252427211465500,3.655465576171875,0.5044325590133667,0.6254099011421204,0.6272568702697754
1684252427221491500,3.665491455078125,0.5950505137443542,0.7407103776931763,0.7071855664253235
1684252427231517400,3.675517333984375,0.6687995791435242,0.854362428188324,0.7586373090744019
1684252427241543200,3.685543212890625,0.7148188352584839,0.9441837072372437,0.7906622886657715
1684252427251570400,3.6955703125,0.7026918530464172,0.9842943549156189,0.8098873496055603
1684252427261596400,3.705596435546875,0.6546881198883057,0.987736701965332,0.8076508045196533
1684252427271622400,3.715622314453125,0.5698272585868835,0.9526452422142029,0.7985584735870361
1684252427281648400,3.7256484375,0.47486862540245056,0.8814594745635986,0.7889878153800964
1684252427291674400,3.73567431640625,0.39683640003204346,0.7933676838874817,0.7529533505439758
1684252427301700400,3.745700439453125,0.3499429225921631,0.7279492616653442,0.6969342827796936
1684252427311727400,3.755727294921875,0.334409236907959,0.6916040778160095,0.6525737643241882
1684252427321753300,3.76575341796875,0.35357043147087097,0.6662547588348389,0.6499508619308472
1684252427331779600,3.775779541015625,0.4079417884349823,0.6557970643043518,0.6709709167480469
1684252427341805600,3.7858056640625,0.4901004731655121,0.6623108386993408,0.6947211027145386
1684252427351831600,3.79583154296875,0.5783607959747314,0.6770764589309692,0.6974079608917236
1684252427361857500,3.805857421875,0.6456345319747925,0.714584231376648,0.6440002918243408
1684252427371884300,3.81588427734375,0.7077274322509766,0.7823233008384705,0.5516932606697083
1684252427381910300,3.82591015625,0.7723480463027954,0.8563563227653503,0.4416084885597229
1684252427391936300,3.835936279296875,0.8229672908782959,0.884996771812439,0.3727807104587555
1684252427401962200,3.845962158203125,0.8527711629867554,0.7971733212471008,0.37223005294799805
1684252427411988200,3.85598828125,0.8679469227790833,0.5737168192863464,0.4499323070049286
1684252427422014500,3.866014404296875,0.865351140499115,0.3003695011138916,0.5818435549736023
1684252427432041500,3.87604150390625,0.8588690161705017,0.05794352665543556,0.7672067880630493
1684252427442067500,3.8860673828125,0.8731372356414795,-0.10375892370939255,1.0411224365234375
1684252427452093400,3.896093505859375,0.9203361868858337,-0.12350093573331833,1.5007661581039429
1684252427462119400,3.906119384765625,1.0044915676116943,0.030913235619664192,2.2209482192993164
1684252427472145400,3.9161455078125,1.0419172048568726,0.28018805384635925,2.9554805755615234
1684252427482171400,3.92617138671875,0.9931634664535522,0.5309922695159912,3.427978754043579
1684252427492198400,3.936198486328125,0.8534920811653137,0.3952624201774597,3.1982319355010986
1684252427502224400,3.946224365234375,0.6243346333503723,-0.2458896040916443,1.7933326959609985
1684252427512250400,3.95625048828125,0.437041699886322,-0.7332241535186768,0.06384453177452087
1684252427522276400,3.9662763671875,0.3841750919818878,-0.831421434879303,-1.2135668992996216
1684252427532302300,3.97630224609375,0.4565739333629608,-0.7392044067382812,-1.7995870113372803
1684252427542328300,3.986328369140625,0.5864217281341553,-0.7536165118217468,-1.9282886981964111
1684252427552355300,3.996355224609375,0.6860527396202087,-0.882116436958313,-1.9949030876159668
1684252427562381300,4.00638134765625,0.7612995505332947,-0.9833938479423523,-2.2147417068481445
1684252427572407600,4.016407470703125,0.9192702770233154,-0.9308558106422424,-2.6062302589416504
1684252427582433500,4.02643359375,1.1831271648406982,-0.8007093667984009,-3.0545260906219482
1684252427592459500,4.03645947265625,1.479343056678772,-0.7154280543327332,-3.441770553588867
1684252427602486300,4.046486328125,1.709889531135559,-0.8217839002609253,-3.6381003856658936
1684252427612512300,4.05651220703125,1.8623826503753662,-1.0733617544174194,-3.6258466243743896
1684252427622538200,4.066538330078125,1.9244985580444336,-1.3224711418151855,-3.4434022903442383
1684252427632564200,4.076564208984375,1.863673210144043,-1.5000097751617432,-3.119527578353882
1684252427642590200,4.086590087890625,1.6762253046035767,-1.5508767366409302,-2.7598953247070312
1684252427652616200,4.0966162109375,1.4402750730514526,-1.4690021276474,-2.3993730545043945
1684252427662643500,4.1066435546875,1.188179850578308,-1.2350958585739136,-2.0349929332733154
1684252427672669400,4.11666943359375,1.0212165117263794,-0.7520876526832581,-1.5231267213821411
1684252427682695400,4.1266953125,0.965711772441864,0.10297998040914536,-0.8445920348167419
1684252427692721400,4.136721435546875,0.8875519633293152,1.175136685371399,-0.19232554733753204
1684252427702747400,4.146747314453125,0.6718083024024963,1.8913778066635132,0.16452105343341827
1684252427712773400,4.1567734375,0.34843289852142334,2.1702346801757812,0.2980317175388336
1684252427722800000,4.166800048828125,0.026334010064601898,2.139427900314331,0.2936442494392395
1684252427732826400,4.176826416015625,-0.3174353241920471,2.5973219871520996,-0.0011599560966715217
1684252427742852400,4.186852294921875,-0.7799715399742126,3.9018189907073975,-0.9157359004020691
1684252427752878300,4.19687841796875,-1.0974432229995728,4.489904880523682,-1.8094042539596558
1684252427762904300,4.206904296875,-1.2455060482025146,4.379397869110107,-2.49139142036438
1684252427772931300,4.216931396484375,-1.3142057657241821,3.7674927711486816,-2.9365038871765137
1684252427782957300,4.226957275390625,-1.3322457075119019,2.8384013175964355,-3.234663724899292
1684252427792983300,4.2369833984375,-1.322593092918396,1.7156963348388672,-3.4670016765594482
1684252427803009300,4.24700927734375,-1.2709414958953857,0.44084689021110535,-3.5816054344177246
1684252427813035300,4.25703515625,-1.1889537572860718,-0.49057772755622864,-3.255777597427368
1684252427823061500,4.2670615234375,-1.1205813884735107,-0.9931890964508057,-2.327540874481201
1684252427833088500,4.277088623046875,-1.0046055316925049,-1.660994052886963,-1.2138336896896362
1684252427843114500,4.287114501953125,-0.7206346988677979,-2.4730217456817627,-0.2364063411951065
1684252427853140500,4.297140380859375,-0.19938400387763977,-3.334865093231201,0.4463282823562622
1684252427863166200,4.307166259765625,0.45483046770095825,-4.083971977233887,0.9006908535957336
1684252427873192200,4.317192138671875,1.0446103811264038,-4.517294883728027,1.2077538967132568
1684252427883218200,4.32721826171875,1.49843168258667,-4.825306415557861,1.2971577644348145
1684252427893245400,4.337245361328125,1.9125505685806274,-4.710422992706299,1.1767467260360718
1684252427903271400,4.347271484375,2.2087111473083496,-4.428606986999512,0.7457553148269653
1684252427913297400,4.35729736328125,2.3115146160125732,-4.067682266235352,0.028328757733106613
1684252427923323400,4.367323486328125,2.144853353500366,-3.538038492202759,-0.7857475280761719
1684252427933349400,4.377349365234375,1.704787015914917,-2.821272373199463,-1.5967496633529663
1684252427943376400,4.38737646484375,1.0421518087387085,-1.7254167795181274,-2.1139707565307617
1684252427953402400,4.39740234375,0.11257202178239822,0.1919528990983963,-1.6074022054672241
1684252427963428400,4.407428466796875,-0.7914796471595764,2.1992993354797363,-0.6927772760391235
1684252427973454600,4.41745458984375,-1.2627112865447998,3.8535213470458984,-0.0757250040769577
1684252427983480600,4.42748046875,-1.340680480003357,5.140202045440674,0.22073212265968323
1684252427993506300,4.43750634765625,-1.25054931640625,6.130480766296387,0.35632190108299255
1684252428003533300,4.447533203125,-1.0450462102890015,6.824491500854492,0.4437843859195709
1684252428013559300,4.457559326171875,-0.7307652831077576,7.049983978271484,0.6435105204582214
1684252428023585300,4.467585205078125,-0.33473536372184753,6.755819320678711,1.020415186882019
1684252428033611300,4.477611328125,0.06526344269514084,5.927713871002197,1.5247787237167358
1684252428043637200,4.48763720703125,0.42915210127830505,4.615194320678711,2.054964303970337
1684252428053664500,4.49766455078125,0.7160515189170837,3.1167585849761963,2.434293031692505
1684252428063690500,4.5076904296875,0.9024863243103027,1.6241859197616577,2.6314303874969482
1684252428073716500,4.517716552734375,1.0384819507598877,0.19428983330726624,2.668091058731079
1684252428083742500,4.527742431640625,1.0689195394515991,-0.6967806816101074,2.232142448425293
1684252428093768400,4.5377685546875,0.4262100160121918,2.0539727210998535,-0.8904234766960144
1684252428103794400,4.54779443359375,-0.4098930358886719,2.706695318222046,-1.9843300580978394
1684252428113821200,4.5578212890625,-1.1091736555099487,-1.249884843826294,-1.4955850839614868
1684252428123847400,4.567847412109375,-1.866992712020874,-5.299978256225586,-0.9136838316917419
1684252428133873400,4.577873291015625,-2.1236798763275146,-7.400928497314453,-0.7437965273857117
1684252428143899400,4.5878994140625,-1.5597020387649536,-5.649378299713135,-0.8683210611343384
1684252428153925400,4.59792529296875,-0.5388792157173157,-3.1748313903808594,-0.4577087461948395
1684252428163952400,4.607952392578125,0.3008004426956177,-2.6182403564453125,0.05580371245741844
1684252428173978400,4.617978271484375,0.773158609867096,-2.666726589202881,0.25406646728515625
1684252428184004400,4.62800439453125,1.0119686126708984,-2.5715906620025635,0.28021225333213806
1684252428194030600,4.638030517578125,1.0803327560424805,-2.415696620941162,0.3262295722961426
1684252428204056600,4.648056640625,0.9682256579399109,-2.322530746459961,0.451316773891449
1684252428214082800,4.658082763671875,0.7116607427597046,-2.4847540855407715,0.6794343590736389
1684252428224109600,4.668109619140625,0.33453086018562317,-2.781897783279419,0.9857763051986694
1684252428234135600,4.678135498046875,-0.11352495104074478,-3.07273268699646,1.2871400117874146
1684252428244161500,4.68816162109375,-0.5181335210800171,-3.27073073387146,1.5010992288589478
1684252428254187500,4.6981875,-0.8145686984062195,-3.470010757446289,1.641865611076355
1684252428264213500,4.708213623046875,-1.1023203134536743,-4.783050537109375,2.107186794281006
1684252428274240800,4.71824072265625,-1.441773772239685,-7.129086494445801,2.5170836448669434
1684252428284266800,4.728266845703125,-1.6091320514678955,-7.9166131019592285,2.2087199687957764
1684252428294292700,4.738292724609375,-1.5069241523742676,-7.161205291748047,1.5104252099990845
1684252428304318700,4.748318603515625,-1.2890748977661133,-5.997859954833984,0.8403491973876953
1684252428314344700,4.7583447265625,-1.1272979974746704,-5.087093830108643,0.5878138542175293
1684252428324371500,4.768371337890625,-1.1075630187988281,-4.219134330749512,0.7364380359649658
1684252428334397400,4.7783974609375,-1.109279990196228,-2.977154493331909,0.9118439555168152
1684252428344423400,4.78842333984375,-1.0190216302871704,-1.438079595565796,0.9419383406639099
1684252428354449400,4.798449462890625,-0.861829400062561,0.036931369453668594,0.8957247734069824
1684252428364475600,4.8084755859375,-0.6793613433837891,1.1482020616531372,0.8246562480926514
1684252428374501600,4.818501708984375,-0.511709451675415,1.8909287452697754,0.7179673314094543
1684252428384528600,4.828528564453125,-0.373099684715271,2.435302972793579,0.5517485737800598
1684252428394554600,4.8385546875,-0.26318809390068054,2.839539051055908,0.3847454786300659
1684252428404580600,4.84858056640625,-0.18439479172229767,3.0919735431671143,0.28170597553253174
1684252428414606600,4.858606689453125,-0.14822666347026825,3.1993649005889893,0.2441718876361847
1684252428424632600,4.868632568359375,-0.1447593718767166,3.1842942237854004,0.249818354845047
1684252428434659800,4.878659912109375,-0.20776736736297607,3.049234390258789,0.2779834270477295
1684252428444685800,4.888685791015625,-0.31145262718200684,2.7905285358428955,0.3155333995819092
1684252428454711600,4.898711669921875,-0.43426749110221863,2.467792272567749,0.3359140455722809
1684252428464737500,4.908737548828125,-0.5588667392730713,2.1499381065368652,0.31419554352760315
1684252428474763500,4.918763427734375,-0.6513508558273315,1.8789513111114502,0.2550813853740692
1684252428484789500,4.92878955078125,-0.7017846703529358,1.6302752494812012,0.1948825716972351
1684252428494816500,4.93881640625,-0.7057600021362305,1.3752541542053223,0.1485172063112259
1684252428504842500,4.948842529296875,-0.6800750494003296,1.1094717979431152,0.1343395709991455
1684252428514868500,4.958868408203125,-0.6261311173439026,0.8353598713874817,0.14333759248256683
1684252428524894700,4.968894775390625,-0.5595474243164062,0.5547745823860168,0.16171562671661377
1684252428534920700,4.978920654296875,-0.5129027366638184,0.27564069628715515,0.18146535754203796
1684252428544947700,4.98894775390625,-0.4905308485031128,0.027245452627539635,0.19916285574436188
1684252428554973700,4.9989736328125,-0.5026599764823914,-0.1825868785381317,0.22850103676319122
1684252428564999700,5.008999755859375,-0.5269473195075989,-0.3591972291469574,0.26106739044189453
1684252428575025700,5.019025634765625,-0.5348103046417236,-0.5191895365715027,0.31115105748176575
1684252428585051600,5.0290517578125,-0.5138534903526306,-0.641727089881897,0.3851351737976074
1684252428595078700,5.03907861328125,-0.44834667444229126,-0.6896607875823975,0.4956883192062378
1684252428605104600,5.049104736328125,-0.36697760224342346,-0.6324369311332703,0.6612772941589355
1684252428615130600,5.059130615234375,-0.29955434799194336,-0.46067824959754944,0.9321948289871216
1684252428625156600,5.069156494140625,-0.264404296875,-0.1546771079301834,1.3325302600860596
1684252428635182600,5.0791826171875,-0.2690981328487396,0.2544808089733124,1.8209484815597534
1684252428645209600,5.089209716796875,-0.3209702670574188,0.6518471837043762,2.2618408203125
1684252428655235600,5.099235595703125,-0.42743146419525146,0.9343286752700806,2.543389320373535
1684252428665261600,5.109261474609375,-0.5746578574180603,1.0660769939422607,2.6684036254882812
1684252428675287800,5.119287841796875,-0.7173721194267273,1.0735762119293213,2.6917827129364014
1684252428685313800,5.129313720703125,-0.8005623817443848,0.9825745820999146,2.694967031478882
1684252428695339800,5.13933984375,-0.7962965369224548,0.750985324382782,2.66245698928833
1684252428705366500,5.149366455078125,-0.7264952063560486,0.2655141353607178,2.281487464904785
1684252428715392500,5.159392578125,-0.6723925471305847,-0.3893127143383026,1.5259249210357666
1684252428725418500,5.16941845703125,-0.6614371538162231,-0.9704843163490295,0.7060971856117249
1684252428735444500,5.179444580078125,-0.6442051529884338,-1.3292746543884277,0.08358917385339737
1684252428745470500,5.189470458984375,-0.6241860389709473,-1.5347435474395752,-0.39573270082473755
1684252428755497700,5.199497802734375,-0.6620575189590454,-1.6407201290130615,-0.9835038185119629
1684252428765523700,5.209523681640625,-0.6762728095054626,-1.5996837615966797,-1.8219480514526367
1684252428775549700,5.2195498046875,-0.6087251901626587,-1.3632707595825195,-2.807987928390503
1684252428785575700,5.22957568359375,-0.4694317579269409,-0.9904468655586243,-3.7956793308258057
1684252428795601700,5.2396015625,-0.25767290592193604,-0.5005671381950378,-4.621308326721191
1684252428805628400,5.24962841796875,-0.01517605222761631,0.08359740674495697,-5.088681221008301
1684252428815654400,5.259654296875,0.169373020529747,0.537133514881134,-5.0968804359436035
1684252428825680600,5.2696806640625,0.2580721378326416,0.7330198287963867,-4.77549409866333
1684252428835706600,5.27970654296875,0.22696934640407562,0.6430201530456543,-4.293056488037109
1684252428845732600,5.289732666015625,0.11014169454574585,0.420227974653244,-3.8153953552246094
1684252428855759600,5.299759521484375,0.09860381484031677,0.2607128918170929,-3.2725517749786377
1684252428865785600,5.30978564453125,0.2641443610191345,0.39311808347702026,-2.3539631366729736
1684252428875811600,5.3198115234375,0.4294542372226715,0.5549471974372864,-1.1973737478256226
1684252428885837600,5.329837646484375,0.39536672830581665,0.3573318123817444,-0.37676629424095154
1684252428895863600,5.339863525390625,0.28044065833091736,-0.023986484855413437,0.07309727370738983
1684252428905889500,5.3498896484375,0.20574569702148438,-0.3588017523288727,0.2817407548427582
1684252428915916800,5.359916748046875,0.1550132781267166,-0.5824815034866333,0.2978680729866028
1684252428925942800,5.36994287109375,0.08306502550840378,-0.6591247320175171,0.15520593523979187
1684252428935968500,5.379968505859375,-0.06972718238830566,-0.5771151185035706,-0.15685130655765533
1684252428945994500,5.389994384765625,-0.3507324159145355,-0.4074278175830841,-0.6445773839950562
1684252428956020500,5.4000205078125,-0.6914961338043213,-0.40145859122276306,-1.1290178298950195
1684252428966047500,5.410047607421875,-0.9844732284545898,-0.7390496730804443,-1.4786885976791382
1684252428976073500,5.420073486328125,-1.0417029857635498,-1.1319465637207031,-1.7618577480316162
1684252428986099700,5.430099609375,-0.680757462978363,-2.113499641418457,-2.346604824066162
1684252428996125700,5.440125732421875,-0.011988475918769836,-2.7523305416107178,-2.4073047637939453
1684252429006151700,5.450151611328125,0.6631706357002258,-2.6025054454803467,-1.9349141120910645
1684252429016178700,5.4601787109375,1.0927278995513916,-1.9683505296707153,-1.2506252527236938
1684252429026204700,5.47020458984375,1.2168915271759033,-1.2452332973480225,-0.5861960649490356
1684252429036230700,5.480230712890625,1.1433414220809937,-0.6672607660293579,-0.06689643114805222
1684252429046256600,5.490256591796875,1.0640344619750977,-0.3081951439380646,0.2623998820781708
1684252429056282600,5.50028271484375,1.0741175413131714,-0.20581309497356415,0.3904055058956146
1684252429066309600,5.5103095703125,1.09755539894104,-0.30712318420410156,0.30763110518455505
1684252429076335600,5.520335693359375,1.1241494417190552,-0.4388708472251892,0.026796530932188034
1684252429086361600,5.530361572265625,1.1269915103912354,-0.5270659923553467,-0.3072214126586914
1684252429096387600,5.5403876953125,1.0668812990188599,-0.5546563863754272,-0.614120364189148
1684252429106413600,5.55041357421875,0.9322104454040527,-0.5487687587738037,-0.9916622638702393
1684252429116440600,5.560440673828125,0.7684089541435242,-0.4251730740070343,-1.529053807258606
1684252429126466600,5.570466552734375,0.6387423872947693,-0.06660763174295425,-2.1624996662139893
1684252429136492800,5.580492919921875,0.5421902537345886,0.46259817481040955,-2.7351632118225098
1684252429146518800,5.590518798828125,0.49449682235717773,1.342980146408081,-3.083348512649536
1684252429156544800,5.600544677734375,0.44178780913352966,2.068458080291748,-3.060486078262329
1684252429166571500,5.610571533203125,0.40982091426849365,2.1643497943878174,-2.814810276031494
1684252429176597500,5.620597412109375,0.40285220742225647,1.8166824579238892,-2.445979595184326
1684252429186623500,5.63062353515625,0.4221823513507843,1.3498294353485107,-1.9891303777694702
1684252429196649200,5.640649169921875,0.5318800806999207,1.0558403730392456,-1.4454172849655151
1684252429206675200,5.65067529296875,0.7493621706962585,1.0846319198608398,-0.7526242733001709
1684252429216702200,5.6607021484375,1.0780726671218872,1.4433618783950806,0.12479378283023834
1684252429226728400,5.670728515625,1.489140510559082,1.8896126747131348,1.0582387447357178
1684252429236754400,5.68075439453125,1.8754950761795044,1.9801676273345947,1.7135217189788818
1684252429246780400,5.690780517578125,2.059196949005127,1.2061504125595093,1.6984578371047974
1684252429256806400,5.700806396484375,2.079782009124756,0.08732911944389343,1.278786540031433
1684252429266833400,5.71083349609375,2.0306129455566406,-0.6457208395004272,0.8995634317398071
1684252429276859400,5.720859375,1.9740595817565918,-0.6508117318153381,0.7877503633499146
1684252429286885400,5.730885498046875,1.9381382465362549,-0.11341135203838348,0.9002492427825928
1684252429296911400,5.740911376953125,1.9491591453552246,0.6082967519760132,1.1000219583511353
1684252429306937300,5.750937255859375,2.0038537979125977,1.2465571165084839,1.2655344009399414
1684252429316964400,5.76096435546875,2.073928117752075,1.5245431661605835,1.3157176971435547
1684252429326990300,5.770990234375,2.172102451324463,1.445991039276123,1.3292884826660156
1684252429337016300,5.781016357421875,2.202704429626465,1.1880265474319458,1.6550390720367432
1684252429347042300,5.791042236328125,1.9708582162857056,0.9612534642219543,2.6996560096740723
1684252429357068300,5.801068359375,1.4708936214447021,0.6145613193511963,4.090451717376709
1684252429367095300,5.81109521484375,1.1536909341812134,-1.2092088460922241,4.269093036651611
1684252429377121300,5.821121337890625,2.2911486625671387,-13.322053909301758,-2.7652459144592285
1684252429387147500,5.8311474609375,2.5731780529022217,-10.732539176940918,-0.5400269627571106
1684252429397173500,5.841173583984375,0.865932047367096,-0.8239080309867859,4.23745584487915
1684252429407199500,5.851199462890625,-1.8473186492919922,3.7644357681274414,6.1092095375061035
1684252429417226200,5.861226318359375,-4.095719337463379,2.607980966567993,2.091187000274658
1684252429427252200,5.871252197265625,-4.855489253997803,0.9715175032615662,-2.1630630493164062
1684252429437278200,5.8812783203125,-4.709460258483887,0.8393706679344177,-2.74743914604187
1684252429447304200,5.89130419921875,-4.1560187339782715,1.0833262205123901,-2.849573850631714
1684252429457330200,5.901330078125,-3.2997076511383057,1.3283910751342773,-2.6916277408599854
1684252429467357400,5.911357421875,-2.388410806655884,1.5260716676712036,-2.341064691543579
1684252429477383400,5.921383544921875,-1.607168197631836,1.5132184028625488,-2.0492916107177734
1684252429487409400,5.931409423828125,-0.9983317852020264,2.2463743686676025,-1.6300952434539795
1684252429497435400,5.941435302734375,-0.6625585556030273,5.0847487449646,-0.8891417980194092
1684252429507461400,5.95146142578125,-0.5018606185913086,6.857785701751709,-0.27737459540367126
1684252429517488000,5.961488037109375,-0.5342295169830322,7.280521392822266,0.1912945806980133
1684252429527514000,5.97151416015625,-0.8485598564147949,6.89754056930542,0.6097862124443054
1684252429537540400,5.981540283203125,-1.3702374696731567,6.028741359710693,1.0278844833374023
1684252429547566300,5.99156640625,-1.9076191186904907,4.864121913909912,1.2957463264465332
1684252429557592300,6.00159228515625,-2.296100378036499,3.3565049171447754,1.2431840896606445
1684252429567619300,6.011619384765625,-2.30234694480896,1.5958677530288696,0.9210312962532043
1684252429577645300,6.021645263671875,-1.970802903175354,-0.0075027612037956715,0.6103013753890991
1684252429587671300,6.03167138671875,-1.5756756067276,-1.0378057956695557,0.5093798041343689
1684252429597697300,6.041697265625,-1.188239574432373,-1.3682750463485718,0.7128745913505554
1684252429607723300,6.05172314453125,-0.8383021354675293,-1.233189582824707,1.1758025884628296
1684252429617750500,6.06175048828125,-0.5425298810005188,-0.9319427013397217,1.6934508085250854
1684252429627776500,6.071776611328125,-0.2331925481557846,-0.6777814626693726,2.1037869453430176
1684252429637802200,6.08180224609375,0.08001943677663803,-0.567389190196991,2.323143720626831
1684252429647828200,6.091828125,0.37789803743362427,-0.4853155016899109,2.3774304389953613
1684252429657854200,6.101854248046875,0.5601288080215454,-0.4758964478969574,2.348801851272583
1684252429667881200,6.111881103515625,0.6803985238075256,-0.48533201217651367,2.2538795471191406
1684252429677907200,6.1219072265625,0.7115745544433594,-0.6475379467010498,2.133831024169922
1684252429687933200,6.13193310546875,0.6233168244361877,-1.297377586364746,1.9767876863479614
1684252429697959400,6.14195947265625,0.42966458201408386,-2.384263038635254,1.783309817314148
1684252429707985400,6.1519853515625,0.17607448995113373,-3.371152639389038,1.5498788356781006
1684252429718012400,6.162012451171875,-0.02897586300969124,-3.8583757877349854,1.3374059200286865
1684252429728038400,6.172038330078125,-0.08318114280700684,-3.8393912315368652,1.191667079925537
1684252429738064400,6.182064453125,0.0027516032569110394,-3.4941155910491943,1.1319371461868286
1684252429748090400,6.19209033203125,0.14591164886951447,-2.9865169525146484,1.1403011083602905
1684252429758116400,6.202116455078125,0.2745484709739685,-2.483562469482422,1.1580036878585815
1684252429768143400,6.212143310546875,0.3099873960018158,-2.1346383094787598,1.1082738637924194
1684252429778169300,6.22216943359375,0.24167492985725403,-2.1053104400634766,0.9515551328659058
1684252429788195300,6.2321953125,0.11779771000146866,-2.393497943878174,0.6411920189857483
1684252429798221300,6.24222119140625,0.024612635374069214,-2.794198513031006,0.24465511739253998
1684252429808247300,6.252247314453125,-0.02149062044918537,-3.0544376373291016,-0.11717836558818817
1684252429818274300,6.2622744140625,-0.043407633900642395,-3.1308727264404297,-0.3224353790283203
1684252429828300300,6.27230029296875,-0.06968807429075241,-3.100851058959961,-0.37480616569519043
1684252429838326300,6.282326171875,-0.08911077678203583,-2.998589277267456,-0.36531543731689453
1684252429848352500,6.2923525390625,-0.06911412626504898,-2.8399713039398193,-0.3730613589286804
1684252429858378500,6.30237841796875,-0.01260690949857235,-2.628952741622925,-0.4053228795528412
1684252429868405200,6.3124052734375,0.045570261776447296,-2.3541996479034424,-0.4162207245826721
1684252429878431200,6.32243115234375,0.04379685968160629,-2.053773880004883,-0.39561372995376587
1684252429888457200,6.332457275390625,-0.036266427487134933,-1.7206023931503296,-0.3869071304798126
1684252429898483200,6.342483154296875,-0.1402042806148529,-1.2742347717285156,-0.44527536630630493
1684252429908510200,6.35251025390625,-0.22932188212871552,-0.6058904528617859,-0.6125121116638184
1684252429918536400,6.362536376953125,-0.27046266198158264,0.31130966544151306,-0.8578659296035767
1684252429928562400,6.3725625,-0.26852330565452576,1.3700143098831177,-1.0576304197311401
1684252429938588400,6.38258837890625,-0.2033964991569519,2.352219581604004,-1.07079017162323
1684252429948614400,6.392614501953125,0.009035618975758553,3.2222795486450195,-0.8343392014503479
1684252429958641400,6.402641357421875,0.3923172354698181,3.9744443893432617,-0.42620205879211426
1684252429968667400,6.41266748046875,0.8221201300621033,4.433996200561523,0.038453541696071625
1684252429978693000,6.422693115234375,1.1705294847488403,4.317986011505127,0.4666661322116852
1684252429988719000,6.432718994140625,1.2831788063049316,3.7157034873962402,0.7741654515266418
1684252429998745300,6.442745361328125,1.121899962425232,2.8051528930664062,0.9963089823722839
1684252430008772400,6.4527724609375,0.7965308427810669,1.7743065357208252,1.13319993019104
1684252430018798300,6.46279833984375,0.4738316535949707,0.7236892580986023,1.1682662963867188
1684252430028824300,6.47282421875,0.21311016380786896,-0.2838785946369171,1.1280089616775513
1684252430038850300,6.482850341796875,0.010552268475294113,-1.1320881843566895,0.9779675602912903
1684252430048876300,6.492876220703125,-0.17433513700962067,-1.615816593170166,0.5871477723121643
1684252430058903300,6.5029033203125,-0.3178195655345917,-1.52443265914917,-0.06711475551128387
1684252430068929500,6.512929443359375,-0.33311522006988525,-0.9615817070007324,-0.7456305623054504
1684252430078955500,6.52295556640625,-0.11456718295812607,-0.5881189107894897,-1.223634958267212
1684252430088981500,6.5329814453125,0.16672450304031372,-0.5511228442192078,-1.4372104406356812
1684252430099008300,6.54300830078125,0.40673762559890747,-0.7418728470802307,-1.5678051710128784
1684252430109034200,6.5530341796875,0.5763842463493347,-0.9556633830070496,-1.5683693885803223
1684252430119060200,6.563060302734375,0.45747119188308716,-1.2334403991699219,-1.4293144941329956
1684252430129086200,6.573086181640625,0.007751341909170151,-1.5708438158035278,-1.1735113859176636
1684252430139112200,6.5831123046875,-0.6039075255393982,-1.8127201795578003,-0.8956201076507568
1684252430149139500,6.593139404296875,-1.1810383796691895,-1.9888660907745361,-0.6995439529418945
1684252430159165400,6.60316552734375,-1.5725624561309814,-2.150596857070923,-0.6021809577941895
1684252430169191400,6.61319140625,-1.8037482500076294,-2.3504750728607178,-0.5173547863960266
1684252430179217400,6.623217529296875,-2.003887414932251,-2.6807518005371094,-0.38379326462745667
1684252430189243400,6.633243408203125,-2.1710593700408936,-3.157658100128174,-0.1834946721792221
1684252430199271200,6.643271240234375,-2.2419373989105225,-3.6270251274108887,0.06718868017196655
1684252430209297200,6.653297119140625,-2.1493937969207764,-3.815748929977417,0.44484081864356995
1684252430219323100,6.6633232421875,-1.8349249362945557,-3.608870029449463,1.001831293106079
1684252430229349000,6.67334912109375,-1.3756062984466553,-3.277881383895874,1.5533256530761719
1684252430239375000,6.683375,-0.7969672083854675,-3.1638245582580566,1.9031819105148315
1684252430249402000,6.693402099609375,-0.24099121987819672,-3.3794965744018555,2.0250587463378906
1684252430259428000,6.703427978515625,0.18057678639888763,-3.769899368286133,2.0212817192077637
1684252430269454000,6.7134541015625,0.4251074194908142,-4.093960285186768,1.8819230794906616
1684252430279480300,6.723480224609375,0.46912121772766113,-4.25571870803833,1.6583302021026611
1684252430289507000,6.733507080078125,0.3608008325099945,-4.32375431060791,1.3867912292480469
1684252430299533000,6.743532958984375,0.18691477179527283,-4.275961399078369,1.07840096950531
1684252430309559000,6.75355908203125,-0.006000159308314323,-4.08421516418457,0.7642431259155273
1684252430319585000,6.7635849609375,-0.20800811052322388,-3.770169258117676,0.46898776292800903
1684252430329611000,6.773611083984375,-0.44726818799972534,-3.2994730472564697,0.19459664821624756
1684252430339638300,6.78363818359375,-0.7449992299079895,-2.7114243507385254,0.003212843555957079
1684252430349664300,6.793664306640625,-1.0888829231262207,-1.970521092414856,0.01489897072315216
1684252430359690200,6.803690185546875,-1.43290376663208,-1.311540961265564,0.23437008261680603
1684252430369716200,6.81371630859375,-1.6954153776168823,-1.0053542852401733,0.5555239319801331
1684252430379742200,6.8237421875,-1.8336890935897827,-1.0802953243255615,0.854026734828949
1684252430389769000,6.83376904296875,-1.8074098825454712,-1.4868243932724,1.0703133344650269
1684252430399795000,6.843794921875,-1.6324468851089478,-2.1221530437469482,1.1631039381027222
1684252430409821000,6.853821044921875,-1.3410893678665161,-2.8467602729797363,1.1771044731140137
1684252430419847000,6.863846923828125,-0.9921214580535889,-3.5146000385284424,1.1808456182479858
1684252430429874200,6.873874267578125,-0.6775326132774353,-3.995250701904297,1.2499947547912598
1684252430439900200,6.883900146484375,-0.4718998670578003,-4.26170539855957,1.3851206302642822
1684252430449926100,6.893926025390625,-0.3597104549407959,-4.340460777282715,1.520053505897522
1684252430459952000,6.9039521484375,-0.32603079080581665,-4.311805248260498,1.6017792224884033
1684252430469978000,6.91397802734375,-0.35246649384498596,-4.219159126281738,1.6105380058288574
1684252430480005000,6.924005126953125,-0.401700884103775,-4.094558238983154,1.5687588453292847
1684252430490031000,6.934031005859375,-0.4574984908103943,-3.9340004920959473,1.5078251361846924
1684252430500057300,6.944057373046875,-0.4980562925338745,-3.711080312728882,1.4591832160949707
1684252430510083000,6.9540830078125,-0.5169560313224792,-3.4258859157562256,1.4529716968536377
1684252430520109000,6.964109130859375,-0.5084757208824158,-3.034346342086792,1.498091459274292
1684252430530136000,6.974135986328125,-0.48509958386421204,-2.547945261001587,1.5859321355819702
1684252430540162000,6.984162109375,-0.43771928548812866,-2.0094048976898193,1.6842477321624756
1684252430550188000,6.99418798828125,-0.3455240726470947,-1.4893395900726318,1.7640111446380615
1684252430560214000,7.004214111328125,-0.2259281575679779,-1.1104234457015991,1.7833880186080933
1684252430570241300,7.0142412109375,-0.10105597972869873,-0.9846184849739075,1.7276420593261719
1684252430580267300,7.024267333984375,0.01832873933017254,-1.0790119171142578,1.6263309717178345
1684252430590293200,7.034293212890625,0.10334714502096176,-1.2752010822296143,1.5161343812942505
1684252430600319200,7.0443193359375,0.14340801537036896,-1.4255764484405518,1.4117157459259033
1684252430610345200,7.05434521484375,0.17004306614398956,-1.3972783088684082,1.3329702615737915
1684252430620372000,7.0643720703125,0.2280120998620987,-1.1930674314498901,1.3126200437545776
1684252430630398000,7.07439794921875,0.3010862171649933,-0.9354771971702576,1.3811713457107544
1684252430640424000,7.084423828125,0.34842628240585327,-0.763599693775177,1.48019278049469
1684252430650450200,7.0944501953125,0.3336678743362427,-0.827807605266571,1.4932622909545898
1684252430660476200,7.10447607421875,0.28653234243392944,-1.126662254333496,1.3887912034988403
1684252430670503200,7.114503173828125,0.24686101078987122,-1.558746337890625,1.2142670154571533
1684252430680529200,7.124529052734375,0.2565261423587799,-2.025101661682129,1.0368664264678955
1684252430690555100,7.13455517578125,0.31154587864875793,-2.4688427448272705,0.9031890630722046
1684252430700581000,7.1445810546875,0.40970519185066223,-2.8303799629211426,0.8234878182411194
1684252430710608100,7.154608154296875,0.491252064704895,-3.0762932300567627,0.7852136492729187
1684252430720634000,7.164634033203125,0.5124497413635254,-3.1313974857330322,0.7928601503372192
1684252430730660000,7.17466015625,0.4110865294933319,-2.9899404048919678,0.8380762934684753
1684252430740686000,7.18468603515625,0.1890486478805542,-2.786018133163452,0.8364773392677307
1684252430750712000,7.194712158203125,-0.10270261019468307,-2.754354953765869,0.7561100721359253
1684252430760739000,7.204739013671875,-0.415069580078125,-2.975770950317383,0.5858116149902344
1684252430770765000,7.21476513671875,-0.658135712146759,-3.3369317054748535,0.3544950485229492
1684252430780791000,7.224791015625,-0.7902988195419312,-3.6866025924682617,0.10886850953102112
1684252430790817000,7.234817138671875,-0.8070259094238281,-3.934239387512207,-0.11606387794017792
1684252430800844300,7.24484423828125,-0.7446677088737488,-4.038102149963379,-0.28180384635925293
1684252430810870300,7.254870361328125,-0.632789134979248,-4.028527736663818,-0.3805679678916931
1684252430820896300,7.264896240234375,-0.5051131844520569,-3.972438335418701,-0.37864676117897034
1684252430830922200,7.274922119140625,-0.3811211585998535,-3.871638774871826,-0.29228752851486206
1684252430840948200,7.2849482421875,-0.30357736349105835,-3.7904410362243652,-0.16313005983829498
1684252430850975000,7.29497509765625,-0.2861076295375824,-3.6835999488830566,-0.015175092965364456
1684252430861001000,7.3050009765625,-0.32379773259162903,-3.565370559692383,0.11246968060731888
1684252430871027200,7.315027099609375,-0.37320056557655334,-3.427704095840454,0.18820761144161224
1684252430881053200,7.32505322265625,-0.40731433033943176,-3.256009817123413,0.20042966306209564
1684252430891079200,7.3350791015625,-0.4134750962257385,-3.101578712463379,0.16663312911987305
1684252430901106200,7.345106201171875,-0.41314220428466797,-2.9503865242004395,0.12277885526418686
1684252430911132200,7.355132080078125,-0.4195985496044159,-2.7834668159484863,0.11311536282300949
1684252430921158100,7.365158203125,-0.4536031186580658,-2.5518107414245605,0.14879533648490906
1684252430931184000,7.37518408203125,-0.5243909358978271,-2.2421715259552,0.2628025710582733
1684252430941211100,7.385211181640625,-0.6304406523704529,-1.8831120729446411,0.4610445499420166
1684252430951237000,7.395237060546875,-0.7341263294219971,-1.5023666620254517,0.7129668593406677
1684252430961263000,7.40526318359375,-0.7975843548774719,-1.1479213237762451,0.9653767347335815
1684252430971289000,7.4152890625,-0.7952917218208313,-0.861926257610321,1.1660445928573608
1684252430981315000,7.425315185546875,-0.725663959980011,-0.6722234487533569,1.2796167135238647
1684252430991342000,7.435342041015625,-0.6404528617858887,-0.5545951724052429,1.3351068496704102
1684252431001368000,7.4453681640625,-0.5664752721786499,-0.47470909357070923,1.385101556777954
1684252431011394000,7.45539404296875,-0.5162245631217957,-0.39144226908683777,1.4983004331588745
1684252431021420000,7.465419921875,-0.49021589756011963,-0.31221696734428406,1.7759805917739868
1684252431031447300,7.475447265625,-0.4597788453102112,-0.31594112515449524,2.190371513366699
1684252431041473000,7.48547314453125,-0.409287691116333,-0.4831892251968384,2.51519513130188
1684252431051499000,7.4954990234375,-0.34725719690322876,-0.7896188497543335,2.6226894855499268
1684252431061525000,7.50552490234375,-0.2793332636356354,-1.1716588735580444,2.514937162399292
1684252431071551000,7.515551025390625,-0.1971341073513031,-1.5443143844604492,2.162607431411743
1684252431081578000,7.525577880859375,-0.11552206426858902,-1.9391801357269287,1.5387914180755615
1684252431091604200,7.535604248046875,-0.038533974438905716,-2.295872926712036,0.6653017997741699
1684252431101630200,7.545630126953125,0.034210801124572754,-2.3477895259857178,-0.19061128795146942
1684252431111656200,7.55565625,0.12332074344158173,-2.0587222576141357,-0.7702203989028931
1684252431121683200,7.56568310546875,0.22103825211524963,-1.6236109733581543,-1.0259437561035156
1684252431131709200,7.575709228515625,0.32322371006011963,-1.1800216436386108,-1.0597469806671143
1684252431141735200,7.585735107421875,0.43455928564071655,-0.8075568675994873,-0.9725362062454224
1684252431151761200,7.59576123046875,0.520621657371521,-0.5977576971054077,-0.7981137633323669
1684252431161787100,7.605787109375,0.5447246432304382,-0.5654423832893372,-0.5782610177993774
1684252431171814100,7.615814208984375,0.5231816172599792,-0.6766934990882874,-0.33048468828201294
1684252431181840100,7.625840087890625,0.4862198829650879,-0.8778502941131592,-0.05433431267738342
1684252431191865000,7.635864990234375,0.43554213643074036,-1.1288330554962158,0.2227977067232132
1684252431201891000,7.64589111328125,0.37778908014297485,-1.4927210807800293,0.3504411578178406
1684252431211918000,7.65591796875,0.28727152943611145,-1.9916468858718872,0.1503019630908966
1684252431221944000,7.665944091796875,0.21094106137752533,-2.4670519828796387,-0.3020189106464386
1684252431231970000,7.675969970703125,0.18471075594425201,-2.796658992767334,-0.7819626331329346
1684252431241996000,7.68599609375,0.22218462824821472,-2.911254644393921,-1.164467215538025
1684252431252022000,7.69602197265625,0.2719195485115051,-2.797063112258911,-1.3782345056533813
1684252431262049000,7.706049072265625,0.26572316884994507,-2.5586016178131104,-1.3828753232955933
1684252431272075300,7.7160751953125,0.20175568759441376,-2.214719533920288,-1.2358735799789429
1684252431282101200,7.726101318359375,0.1087285503745079,-1.7971924543380737,-1.0667811632156372
1684252431292127200,7.736127197265625,-0.005430205725133419,-1.4736071825027466,-0.9413745403289795
1684252431302154000,7.746154052734375,-0.11070869117975235,-1.2594155073165894,-0.8675280213356018
1684252431312180000,7.756179931640625,-0.19089002907276154,-1.2096306085586548,-0.8807986974716187
1684252431322206000,7.7662060546875,-0.22861476242542267,-1.0941226482391357,-0.9007694721221924
1684252431332232000,7.77623193359375,-0.23244895040988922,-0.7739596366882324,-0.8369412422180176
1684252431342258000,7.7862578125,-0.14800304174423218,-0.3992299735546112,-0.6196326613426208
1684252431352285200,7.79628515625,-0.021548086777329445,-0.14142772555351257,-0.3119257986545563
1684252431362311200,7.806311279296875,0.08374371379613876,-0.09597901999950409,0.0504462756216526
1684252431372337200,7.816337158203125,0.1382986307144165,-0.26353827118873596,0.41711848974227905
1684252431382363100,7.826363037109375,0.15431062877178192,-0.587936282157898,0.7176908850669861
1684252431392390000,7.836389892578125,0.12265361845493317,-0.9410555958747864,0.932777464389801
1684252431402415900,7.846415771484375,0.05162099376320839,-1.1708877086639404,1.1142441034317017
1684252431412441900,7.85644189453125,-0.019995789974927902,-1.2205135822296143,1.2872060537338257
1684252431422468000,7.866468017578125,-0.06497444957494736,-1.067134976387024,1.447640299797058
1684252431432494000,7.876494140625,-0.10042821615934372,-0.7785251140594482,1.5592985153198242
1684252431442521000,7.88652099609375,-0.13545569777488708,-0.43996408581733704,1.6046910285949707
1684252431452547000,7.896547119140625,-0.20179413259029388,-0.09331097453832626,1.577150821685791
1684252431462573000,7.906572998046875,-0.3269456624984741,0.2699553668498993,1.5082519054412842
1684252431472599000,7.91659912109375,-0.47787773609161377,0.7219507694244385,1.4195287227630615
1684252431482626000,7.9266259765625,-0.6481605172157288,1.3141926527023315,1.342310905456543
1684252431492652300,7.93665234375,-0.795610249042511,2.0414326190948486,1.2784510850906372
1684252431502678300,7.94667822265625,-0.8197047114372253,2.7080185413360596,1.1987037658691406
1684252431512704300,7.956704345703125,-0.7452367544174194,3.0205273628234863,1.0924110412597656
1684252431522731000,7.96673095703125,-0.6512652039527893,2.873551368713379,0.9592722058296204
1684252431532757000,7.976757080078125,-0.5791789293289185,2.285212278366089,0.8343629240989685
1684252431542783000,7.986782958984375,-0.529290497303009,1.409738540649414,0.7601240873336792
1684252431552809000,7.99680908203125,-0.4675183594226837,0.5270512700080872,0.7511621117591858
1684252431562835000,8.0068349609375,-0.3825499415397644,-0.24949482083320618,0.8206524848937988
1684252431572862200,8.0168623046875,-0.34881243109703064,-1.0012564659118652,0.9385032057762146
1684252431582888200,8.02688818359375,-0.40072008967399597,-1.6288095712661743,0.9994467496871948
1684252431592914200,8.0369140625,-0.3763270080089569,-1.9618608951568604,0.9219921231269836
1684252431602940200,8.046940185546875,-0.25333794951438904,-2.003859043121338,0.7245645523071289
1684252431612967000,8.056966796875,-0.0946684330701828,-1.8831831216812134,0.4711650609970093
1684252431622993000,8.066992919921875,0.04186651110649109,-1.6542357206344604,0.2484169453382492
1684252431633019000,8.077018798828124,0.12946180999279022,-1.277220368385315,0.14476515352725983
1684252431643045000,8.087045166015624,0.16027937829494476,-0.697399914264679,0.18077535927295685
1684252431653071000,8.097071044921876,0.15165461599826813,0.03389802575111389,0.3298596143722534
1684252431663098000,8.10709814453125,0.10688074678182602,0.7349706888198853,0.4513684809207916
1684252431673124000,8.1171240234375,0.03683297336101532,1.1465201377868652,0.374846488237381
1684252431683150000,8.127150146484375,-0.03771423175930977,1.2621005773544312,0.0771186426281929
1684252431693176000,8.137176025390625,-0.12119400501251221,1.1657713651657104,-0.35613539814949036
1684252431703203000,8.147203125,-0.19391001760959625,0.9586712121963501,-0.7893478274345398
1684252431713229000,8.15722900390625,-0.23852255940437317,0.740376353263855,-1.1087101697921753
1684252431723255000,8.167255126953124,-0.22298914194107056,0.5559255480766296,-1.2689456939697266
1684252431733281000,8.177281005859374,-0.14332030713558197,0.41506773233413696,-1.2610188722610474
1684252431743308000,8.18730810546875,0.023866819217801094,0.4230244755744934,-1.0615589618682861
1684252431753334000,8.197333984375,0.28654998540878296,0.58286452293396,-0.7275823354721069
1684252431763360000,8.207360107421875,0.5553185939788818,0.7943885326385498,-0.37902382016181946
1684252431773386000,8.217385986328125,0.7512573599815369,0.9616091251373291,-0.1180712953209877
1684252431783412000,8.227411865234375,0.8261646032333374,1.0253981351852417,0.02136729098856449
1684252431793439200,8.237439208984375,0.7866299748420715,0.9879522919654846,0.08387110382318497
1684252431803465200,8.24746533203125,0.6691060662269592,0.8843915462493896,0.09287125617265701
1684252431813491200,8.2574912109375,0.5414299964904785,0.7271917462348938,0.08281644433736801
1684252431823517200,8.26751708984375,0.4559475779533386,0.5367501378059387,0.07292440533638
1684252431833544000,8.2775439453125,0.4115084111690521,0.31403565406799316,0.06884022802114487
1684252431843570000,8.28756982421875,0.38637134432792664,0.07167442888021469,0.07017367333173752
1684252431853596000,8.297595947265625,0.3744524419307709,-0.1899901181459427,0.07799839228391647
1684252431863622100,8.3076220703125,0.36748695373535156,-0.46257612109184265,0.10110504180192947
1684252431873648000,8.317648193359375,0.37011346220970154,-0.7563297748565674,0.15180739760398865
1684252431883675100,8.327675048828125,0.3499562740325928,-1.123691439628601,0.2671603560447693
1684252431893701000,8.337701171875,0.37678274512290955,-1.425532341003418,0.3933314383029938
1684252431903727000,8.34772705078125,0.45957162976264954,-1.5768779516220093,0.4957702159881592
1684252431913753000,8.357753173828126,0.5363806486129761,-1.6586456298828125,0.5664049983024597
1684252431923779800,8.36777978515625,0.571363627910614,-1.6897952556610107,0.6391345858573914
1684252431933806000,8.37780615234375,0.5500332117080688,-1.6467607021331787,0.7109169960021973
1684252431943832000,8.38783203125,0.465785950422287,-1.523677110671997,0.757192850112915
1684252431953858000,8.397858154296875,0.3508357107639313,-1.2881100177764893,0.7874459624290466
1684252431963885000,8.407885009765625,0.2696380615234375,-0.9287856817245483,0.8355453014373779
1684252431973911000,8.4179111328125,0.2743457853794098,-0.475357323884964,0.9743147492408752
1684252431983937000,8.42793701171875,0.2936268150806427,0.24288548529148102,1.2304661273956299
1684252431993963000,8.437962890625,0.23916473984718323,1.2682161331176758,1.520700216293335
1684252432003990300,8.447990234375,0.167788565158844,2.2314529418945312,1.7353752851486206
1684252432014016300,8.458016357421876,0.09359968453645706,2.8678510189056396,1.8300443887710571
1684252432024042200,8.468042236328126,-0.0019718455150723457,3.1614058017730713,1.8214954137802124
1684252432034068200,8.478068115234375,-0.10029453784227371,3.2012133598327637,1.7506860494613647
1684252432044094200,8.48809423828125,-0.1869138479232788,3.0723273754119873,1.6427927017211914
1684252432054121000,8.498120849609375,-0.2651713490486145,2.886047124862671,1.5425714254379272
1684252432064147000,8.50814697265625,-0.3416179120540619,2.80723237991333,1.5033631324768066
1684252432074173000,8.5181728515625,-0.4042028486728668,2.9735331535339355,1.5398502349853516
1684252432084199200,8.52819921875,-0.41470688581466675,3.937161445617676,1.2557222843170166
1684252432094226200,8.53822607421875,-0.33347776532173157,4.644049167633057,0.3779258728027344
1684252432104252200,8.548252197265626,-0.2561129331588745,4.255679130554199,-0.5045192241668701
1684252432114278100,8.558278076171876,-0.25075632333755493,2.9771487712860107,-0.9443323016166687
1684252432124304100,8.56830419921875,-0.30525097250938416,1.0792794227600098,-0.8803825974464417
1684252432134331000,8.578330810546875,-0.39657291769981384,-0.9716982245445251,-0.6108980774879456
1684252432144356900,8.58835693359375,-0.47347864508628845,-2.674018621444702,-0.4411894679069519
1684252432154383000,8.598383056640625,-0.45432382822036743,-3.9280893802642822,-0.4164634644985199
1684252432164409000,8.6084091796875,-0.35104885697364807,-4.790980339050293,-0.5315836668014526
1684252432174435000,8.61843505859375,-0.2320868968963623,-5.332549571990967,-0.7238357067108154
1684252432184462000,8.628462158203124,-0.1768135279417038,-5.521787643432617,-0.9226366877555847
1684252432194488600,8.638488525390626,-0.19699080288410187,-5.298025131225586,-1.1130095720291138
1684252432204514600,8.6485146484375,-0.2597982883453369,-4.681870937347412,-1.3641741275787354
1684252432214540500,8.65854052734375,-0.2833712100982666,-3.947736978530884,-1.8028841018676758
1684252432224567600,8.668567626953125,-0.25438350439071655,-3.058582067489624,-2.4591736793518066
1684252432234593500,8.678593505859375,-0.18898743391036987,-1.924760341644287,-3.238722324371338
1684252432244619500,8.68861962890625,-0.1350965052843094,-0.5358888506889343,-3.8853936195373535
1684252432254645500,8.6986455078125,-0.19419994950294495,1.160216212272644,-4.199203968048096
1684252432264672500,8.708672607421875,-0.3841975927352905,3.4846982955932617,-4.112987995147705
1684252432274698500,8.718698486328124,-0.5865890979766846,5.807859420776367,-3.9069087505340576
1684252432284724500,8.728724365234376,-0.7198992371559143,6.9398417472839355,-3.974639892578125
1684252432294750700,8.738750732421876,-0.8485446572303772,6.445162296295166,-4.374965667724609
1684252432304777700,8.74877783203125,-0.8983811736106873,4.23536491394043,-4.634349346160889
1684252432314803700,8.7588037109375,-0.8008209466934204,1.284706950187683,-4.294547080993652
1684252432324829700,8.76882958984375,-0.6284475922584534,-1.413409948348999,-3.555382251739502
1684252432334855700,8.778855712890625,-0.43229272961616516,-3.4420506954193115,-2.7034876346588135
1684252432344881400,8.78888134765625,-0.22294668853282928,-4.897313117980957,-1.8425627946853638
1684252432354908400,8.798908447265624,0.09089499711990356,-5.8418803215026855,-1.048150658607483
1684252432364934700,8.8089345703125,0.5198588967323303,-6.015647888183594,-0.3523956835269928
1684252432374960600,8.818960693359376,1.089654803276062,-5.053575038909912,0.3211613893508911
1684252432384986600,8.828986572265626,1.7876173257827759,-2.7851476669311523,1.079702615737915
1684252432395013600,8.839013671875,2.3320517539978027,-0.46045631170272827,1.7133241891860962
1684252432405039600,8.84903955078125,2.717928647994995,-0.11612183600664139,1.029361367225647
1684252432415065600,8.859065673828125,3.213493824005127,-1.5653653144836426,-0.6905170679092407
1684252432425091600,8.869091552734375,3.4214694499969482,-1.9567434787750244,-1.4770939350128174
1684252432435118600,8.87911865234375,3.1838314533233643,-1.4259594678878784,-1.3901408910751343
1684252432445144600,8.88914453125,2.6426923274993896,-0.40048983693122864,-0.8681464791297913
1684252432455170600,8.899170654296874,2.02099347114563,0.7922276258468628,-0.3468574583530426
1684252432465196500,8.909196533203126,1.4805012941360474,1.8381417989730835,0.03901941329240799
1684252432475223600,8.9192236328125,1.033755898475647,2.5729918479919434,0.3196493685245514
1684252432485249500,8.92924951171875,0.6361721158027649,2.9386191368103027,0.5420549511909485
1684252432495275500,8.939275634765625,0.2775731086730957,2.806964159011841,0.6276504397392273
1684252432505301500,8.949301513671875,0.016099177300930023,2.218268632888794,0.5378390550613403
1684252432515327700,8.95932763671875,-0.05401827022433281,1.5138577222824097,0.3016957640647888
1684252432525354500,8.9693544921875,0.00045775691978633404,1.0149046182632446,-0.06714749336242676
1684252432535380500,8.97938037109375,0.1202978566288948,0.7609468698501587,-0.5682544708251953
1684252432545406500,8.989406494140624,0.29161474108695984,0.7360361814498901,-1.193882703781128
1684252432555432400,8.999432373046876,0.468858003616333,0.9578519463539124,-1.8481125831604004
1684252432565459500,9.00945947265625,0.5917364954948425,1.367047667503357,-2.370816469192505
1684252432575485400,9.0194853515625,0.6297863125801086,1.8877652883529663,-2.652320623397827
1684252432585511700,9.02951171875,0.6321423649787903,2.815748929977417,-2.4078924655914307
1684252432595537700,9.03953759765625,0.5814547538757324,3.1989128589630127,-1.7266854047775269
1684252432605564700,9.049564697265625,0.5284586548805237,2.186633586883545,-1.08152174949646
1684252432615590700,9.059590576171875,0.5399709343910217,0.7222079634666443,-0.48998698592185974
1684252432625616600,9.06961669921875,0.5619601607322693,-0.30435940623283386,-0.01605910249054432
1684252432635642600,9.079642578125,0.5137755870819092,-0.6825839281082153,0.2713417708873749
1684252432645669400,9.08966943359375,0.4223015606403351,-0.653092086315155,0.3702300190925598
1684252432655695600,9.099695556640626,0.3347785472869873,-0.5041911602020264,0.3611326217651367
1684252432665721600,9.1097216796875,0.2355147898197174,-0.3181062936782837,0.3310631215572357
1684252432675747600,9.11974755859375,0.14526402950286865,-0.0980946347117424,0.3427779972553253
1684252432685773600,9.129773681640625,0.029977647587656975,0.10926201194524765,0.4377516508102417
1684252432695800600,9.139800537109375,-0.11858859658241272,0.182826429605484,0.5944424271583557
1684252432705826600,9.14982666015625,-0.3158816993236542,0.06988655775785446,0.8095592856407166
1684252432715852500,9.1598525390625,-0.5226254463195801,-0.06601881235837936,1.07354736328125
1684252432725878500,9.16987841796875,-0.7339262366294861,-0.16209420561790466,1.4009900093078613
1684252432735905500,9.179905517578124,-0.9509307742118835,-0.1784248948097229,1.7790958881378174
1684252432745931500,9.189931640625,-1.0876091718673706,-0.06991812586784363,2.205470323562622
1684252432755957500,9.19995751953125,-1.0665640830993652,0.09511850029230118,2.689279556274414
1684252432765983500,9.2099833984375,-0.8941164016723633,0.24133722484111786,3.237727642059326
1684252432776010500,9.220010498046875,-0.6741632223129272,0.33441779017448425,3.808622360229492
1684252432786036500,9.230036376953125,-0.4315023422241211,0.4210379123687744,4.369785785675049
1684252432796062500,9.2400625,-0.07037802785634995,0.33713066577911377,4.9258904457092285
1684252432806088700,9.250088623046874,1.5529017448425293,-7.201916217803955,2.7255337238311768
1684252432816115700,9.26011572265625,3.3713865280151367,-13.65339469909668,1.9408209323883057
1684252432826141700,9.2701416015625,2.7650747299194336,-10.345514297485352,4.104703903198242
1684252432836167700,9.280167724609376,0.2615782618522644,-5.361814498901367,4.639585971832275
1684252432846193700,9.290193603515625,-2.357801914215088,-1.4363898038864136,2.0231592655181885
1684252432856220400,9.300220458984375,-3.7073183059692383,0.2773873805999756,-2.7935729026794434
1684252432866246400,9.310246337890625,-3.5146214962005615,3.3485918045043945,-4.00732421875
1684252432876272600,9.320272705078125,-3.1274609565734863,4.671833515167236,-3.89896821975708
1684252432886298600,9.330298583984375,-2.7774617671966553,4.983332633972168,-3.501708984375
1684252432896325600,9.34032568359375,-2.6403958797454834,4.576508522033691,-3.1338958740234375
1684252432906351600,9.3503515625,-2.5632925033569336,3.9016313552856445,-2.4915332794189453
1684252432916377600,9.360377685546876,-2.444150686264038,3.590268611907959,-1.513241171836853
1684252432926403600,9.370403564453126,-2.1882309913635254,3.24294114112854,-0.44448965787887573
1684252432936429600,9.3804296875,-1.7512773275375366,2.439923048019409,0.4748820960521698
1684252432946456600,9.39045654296875,-1.1677355766296387,1.2320075035095215,1.0863596200942993
1684252432956482600,9.400482666015625,-0.5703800320625305,-0.06509576737880707,1.517838954925537
1684252432966508500,9.410508544921875,-0.009639741852879524,-1.0135080814361572,1.9359663724899292
1684252432976534500,9.420534423828125,0.3975813686847687,-1.4268096685409546,2.3364264965057373
1684252432986561500,9.4305615234375,0.6265463829040527,-1.497072458267212,2.6223652362823486
1684252432996587500,9.44058740234375,0.7731894850730896,-1.4652678966522217,2.7606499195098877
1684252433006613500,9.450613525390626,0.8799593448638916,-1.4645233154296875,2.7691893577575684
1684252433016639500,9.460639404296876,0.935023307800293,-1.5498329401016235,2.632775068283081
1684252433026666800,9.470666748046876,0.9245123267173767,-1.6783944368362427,2.342944622039795
1684252433036692700,9.480692626953125,0.8514803647994995,-1.714608073234558,1.9788521528244019
1684252433046718700,9.49071875,0.7252417206764221,-1.497790813446045,1.5919138193130493
1684252433056744400,9.500744384765625,0.5674333572387695,-1.039817452430725,1.291383147239685
1684252433066771500,9.510771484375,0.4008398652076721,-0.42155721783638,1.0914561748504639
1684252433076797400,9.52079736328125,0.24562577903270721,0.19130609929561615,0.9346570372581482
1684252433086823400,9.530823486328124,0.1201285794377327,0.7128657102584839,0.7578777074813843
1684252433096849700,9.540849609375,0.09702791273593903,1.0909889936447144,0.5361723899841309
1684252433106876700,9.550876708984376,0.163810133934021,1.3306916952133179,0.32155758142471313
1684252433116902700,9.560902587890626,0.2490074336528778,1.4550912380218506,0.1767304241657257
1684252433126928600,9.5709287109375,0.28080955147743225,1.4723981618881226,0.11449500918388367
1684252433136954600,9.58095458984375,0.2492363601922989,1.4276865720748901,0.12084050476551056
1684252433146981400,9.5909814453125,0.17754487693309784,1.3824901580810547,0.21367910504341125
1684252433157007600,9.601007568359375,0.1018725261092186,1.3168116807937622,0.37451714277267456
1684252433167033600,9.61103369140625,0.02722412347793579,1.1855812072753906,0.5588041543960571
1684252433177059600,9.6210595703125,-0.040063876658678055,1.0318831205368042,0.7168586254119873
1684252433187086600,9.631086669921874,-0.10416136682033539,0.8668848276138306,0.827016294002533
1684252433197112000,9.641112060546876,-0.16552886366844177,0.6653159856796265,0.8715922832489014
1684252433207138000,9.651137939453125,-0.22870703041553497,0.45324236154556274,0.8390654921531677
1684252433217164000,9.6611640625,-0.289312481880188,0.2731606662273407,0.7403046488761902
1684252433227190000,9.67118994140625,-0.30764487385749817,0.12496267259120941,0.648253321647644
1684252433237217300,9.68121728515625,-0.27254346013069153,0.0010405557695776224,0.5958243608474731
1684252433247243300,9.6912431640625,-0.18375207483768463,-0.08712845295667648,0.6371203660964966
1684252433257269200,9.701269287109374,-0.0367204025387764,-0.1011175885796547,0.7839882373809814
1684252433267295200,9.711295166015624,0.15130436420440674,-0.030924389138817787,1.0356824398040771
1684252433277322000,9.721322021484376,0.37858888506889343,0.15109752118587494,1.3969135284423828
1684252433287348000,9.731347900390626,0.6368534564971924,0.4674043357372284,1.858128309249878
1684252433297374000,9.7413740234375,0.9213868379592896,0.9159896969795227,2.413630247116089
1684252433307400200,9.751400146484375,1.1963752508163452,1.471047282218933,3.040022373199463
1684252433317427200,9.76142724609375,1.418558120727539,2.08732271194458,3.7134528160095215
1684252433327453200,9.771453125,1.5573402643203735,2.703219175338745,4.240179061889648
1684252433337479200,9.781479248046875,1.3914730548858643,2.592636823654175,3.573546886444092
1684252433347505200,9.791505126953124,0.7873927354812622,1.1638933420181274,1.5281764268875122
1684252433357532000,9.801531982421874,0.10038455575704575,-0.8387484550476074,-0.5289340019226074
1684252433367558000,9.811557861328126,-0.43772175908088684,-2.834149122238159,-1.8003333806991577
1684252433377584000,9.821584228515626,-0.8324122428894043,-4.50913667678833,-2.174379348754883
1684252433387610000,9.831610107421875,-1.0315543413162231,-5.422877788543701,-2.1319639682769775
1684252433397637000,9.84163720703125,-0.9517965912818909,-5.748854160308838,-2.045930862426758
1684252433407663000,9.8516630859375,-0.6168920993804932,-5.905191898345947,-2.2058846950531006
1684252433417689000,9.861689208984375,-0.17482976615428925,-5.9571661949157715,-2.414475440979004
1684252433427715000,9.871715087890625,0.16914944350719452,-5.82014274597168,-2.487419366836548
1684252433437742300,9.881742431640625,0.3620576858520508,-5.486064434051514,-2.343656539916992
1684252433447768300,9.891768310546874,0.49248412251472473,-4.690252304077148,-1.9934171438217163
1684252433457794300,9.901794189453126,0.6167402863502502,-3.751589298248291,-1.6578763723373413
1684252433467820300,9.9118203125,0.8290491104125977,-3.0823974609375,-1.5707275867462158
1684252433477847000,9.921846923828125,1.2278172969818115,-2.482041835784912,-1.7993978261947632
1684252433487873000,9.931873046875,1.4446923732757568,-1.9591721296310425,-2.336324453353882
1684252433497899000,9.94189892578125,1.1093177795410156,-1.3913379907608032,-2.9557182788848877
1684252433507925000,9.951925048828125,0.20943240821361542,-0.4195758104324341,-3.3132424354553223
1684252433517952300,9.9619521484375,-0.8739016652107239,2.1438140869140625,-2.838027000427246
1684252433527978200,9.971978271484375,-1.511220932006836,4.747466087341309,-1.9147558212280273
1684252433538004200,9.982004150390624,-1.731402039527893,5.605989933013916,-1.2311201095581055
1684252433548030200,9.9920302734375,-1.5663951635360718,5.377941608428955,-1.0825444459915161
1684252433558057000,10.002056884765626,-0.7811242341995239,3.10164737701416,-2.1493349075317383
1684252433568083000,10.0120830078125,0.14324460923671722,-0.3868376910686493,-3.1614792346954346
1684252433578109000,10.02210888671875,0.5100992918014526,-2.949329137802124,-3.247854471206665
1684252433588135000,10.032135009765625,0.5412878394126892,-4.398606300354004,-2.7908167839050293
1684252433598162200,10.042162109375,0.5301509499549866,-4.726032257080078,-1.813647747039795
1684252433608188200,10.052188232421875,0.6504302024841309,-3.434933662414551,-0.3324713706970215
1684252433618214100,10.062214111328124,0.7511063814163208,-1.6310988664627075,0.9372475147247314
1684252433628240100,10.072240234375,0.8391180038452148,-1.450343132019043,0.4676238000392914
1684252433638267100,10.08226708984375,0.9554184675216675,-2.023136615753174,-0.6491763591766357
1684252433648293000,10.092293212890626,0.8074598908424377,-2.2451155185699463,-1.2811230421066284
1684252433658319400,10.1023193359375,0.5413376688957214,-2.133561134338379,-1.4107321500778198
1684252433668345000,10.112344970703125,0.3538852334022522,-1.5845705270767212,-1.2474428415298462
1684252433678372000,10.1223720703125,0.2796493172645569,-0.7624073028564453,-1.024345874786377
1684252433688398000,10.132398193359375,0.340493768453598,0.07057728618383408,-0.801865816116333
1684252433698424000,10.142424072265625,0.4938979744911194,0.8467909097671509,-0.6970075368881226
1684252433708450000,10.152449951171874,0.7414070963859558,1.3173868656158447,-0.6252723336219788
1684252433718477000,10.16247705078125,0.981719434261322,1.6155025959014893,-0.5264487862586975
1684252433728503300,10.17250341796875,1.0814199447631836,1.6108382940292358,-0.39890092611312866
1684252433738529300,10.182529296875,1.0324273109436035,1.347463846206665,-0.24286465346813202
1684252433748555300,10.19255517578125,0.8845287561416626,1.0301860570907593,-0.07824534177780151
1684252433758582000,10.20258203125,0.7197108268737793,0.8067730069160461,0.06483152508735657
1684252433768608000,10.21260791015625,0.5563173294067383,0.6817445158958435,0.11362303793430328
1684252433778634000,10.222634033203125,0.40418142080307007,0.667230486869812,0.10177631676197052
1684252433788660000,10.232659912109375,0.19818192720413208,0.6568058133125305,0.0893380269408226
1684252433798686000,10.24268603515625,-0.07704316079616547,0.5929861068725586,0.10591256618499756
1684252433808713200,10.252713134765624,-0.4015789031982422,0.47554075717926025,0.1683165580034256
1684252433818739200,10.2627392578125,-0.731296956539154,0.38338035345077515,0.2622797191143036
1684252433828765200,10.27276513671875,-0.9878286123275757,0.4751174747943878,0.3929716646671295
1684252433838791200,10.282791259765625,-1.0663985013961792,0.9758675694465637,0.6419782042503357
1684252433848818200,10.292818115234375,-0.9757087826728821,1.7661778926849365,1.0084397792816162
1684252433858844200,10.30284423828125,-0.7836942076683044,2.5448741912841797,1.3911843299865723
1684252433868870100,10.3128701171875,-0.5927804112434387,3.126512050628662,1.701520562171936
1684252433878897200,10.322897216796875,-0.44750741124153137,3.5099680423736572,1.8983433246612549
1684252433888923100,10.332923095703125,-0.3745786249637604,3.7062342166900635,2.0023043155670166
1684252433898949000,10.34294921875,-0.3645768165588379,3.77150559425354,2.0920937061309814
1684252433908975000,10.35297509765625,-0.38253477215766907,3.7884511947631836,2.225344181060791
1684252433919001000,10.3630009765625,-0.37510961294174194,3.8222415447235107,2.4209587574005127
1684252433929028000,10.373028076171876,-0.30440908670425415,3.855163812637329,2.6840929985046387
1684252433939054000,10.38305419921875,-0.2335721254348755,3.8320696353912354,2.995760917663574
1684252433949080300,10.393080322265625,-0.5178403258323669,3.137352228164673,2.4468939304351807
1684252433959107000,10.403107177734375,-1.5555534362792969,0.9315261244773865,0.08342110365629196
1684252433969133000,10.413133056640625,-2.466829776763916,-1.1713734865188599,-0.9449992775917053
1684252433979159000,10.423158935546875,-2.909973382949829,-2.203305721282959,-0.6893593072891235
1684252433989185000,10.43318505859375,-2.5630860328674316,-2.581756114959717,0.007631498388946056
1684252433999211000,10.4432109375,-1.8168621063232422,-3.1141226291656494,0.45018503069877625
1684252434009238000,10.453238037109376,-1.123329758644104,-3.484987258911133,0.3709496259689331
1684252434019264300,10.46326416015625,-0.526812732219696,-3.7715675830841064,0.006908746901899576
1684252434029290200,10.473290283203125,-0.08106404542922974,-3.828911304473877,-0.3007907569408417
1684252434039316200,10.483316162109375,0.19653350114822388,-3.771897315979004,-0.5351114273071289
1684252434049343200,10.49334326171875,0.3451554775238037,-3.642841339111328,-0.73362135887146
1684252434059369000,10.503368896484375,0.40751340985298157,-3.4195523262023926,-0.9069719314575195
1684252434069395000,10.51339501953125,0.42647460103034973,-3.003605604171753,-1.0890791416168213
1684252434079422200,10.523422119140625,0.4445631206035614,-2.434185743331909,-1.264039158821106
1684252434089448200,10.5334482421875,0.43837475776672363,-1.831322193145752,-1.405409574508667
1684252434099474200,10.54347412109375,0.3759914040565491,-1.0711954832077026,-1.526368498802185
1684252434109500200,10.553500244140626,0.27137815952301025,-0.23463907837867737,-1.59353768825531
1684252434119526100,10.563526123046875,0.13827022910118103,0.2940741181373596,-1.398319125175476
1684252434129553200,10.57355322265625,-0.038653139024972916,0.3702051043510437,-0.9471727609634399
1684252434139579100,10.5835791015625,-0.12206848710775375,0.31186169385910034,-0.36716532707214355
1684252434149605000,10.593605224609375,-0.1315394788980484,0.2855893671512604,0.2691996693611145
1684252434159632100,10.603632080078125,-0.0917869359254837,0.4155040383338928,0.771356463432312
1684252434169658000,10.613658203125,-0.09378644078969955,0.5753800272941589,1.125813364982605
1684252434179684000,10.62368408203125,-0.1637815684080124,0.7670333981513977,1.3997931480407715
1684252434189710000,10.6337099609375,-0.23903290927410126,1.0524382591247559,1.719834804534912
1684252434199736000,10.643736083984376,-0.21867826581001282,1.4617762565612793,2.192631721496582
1684252434209763000,10.65376318359375,-0.09935319423675537,2.0208356380462646,2.834606885910034
1684252434219789000,10.6637890625,-0.01033230684697628,2.4737846851348877,3.37977933883667
1684252434229815000,10.67381494140625,-0.013125697150826454,2.6755199432373047,3.680785655975342
1684252434239842300,10.68384228515625,-0.09219782054424286,2.674071788787842,3.7693653106689453
1684252434249868000,10.693867919921875,-0.18655388057231903,2.546945333480835,3.7055370807647705
1684252434259894000,10.70389404296875,-0.2595497965812683,2.35005259513855,3.5218677520751953
1684252434269920000,10.713919921875,-0.27727553248405457,2.1569604873657227,3.3058111667633057
1684252434279947000,10.723947021484374,-0.16742154955863953,2.1442840099334717,3.3070735931396484
1684252434289973000,10.733972900390626,0.11132379621267319,2.534309148788452,3.6739957332611084
1684252434299999000,10.7439990234375,0.391239732503891,2.744720458984375,3.7314257621765137
1684252434310025200,10.754025146484375,0.23178109526634216,1.0940982103347778,1.561611294746399
1684252434320052200,10.76405224609375,-0.056186921894550323,0.15308505296707153,-0.17913410067558289
1684252434330078200,10.774078125,-0.21870924532413483,-0.12317690998315811,-0.964516818523407
1684252434340104200,10.784104248046875,-0.4013859033584595,-0.3116263747215271,-1.47760009765625
1684252434350130200,10.794130126953124,-0.6162516474723816,-0.4948641061782837,-1.7528703212738037
1684252434360157000,10.804156982421874,-0.8258329629898071,-0.5636808276176453,-1.8329049348831177
1684252434370183200,10.81418310546875,-1.0158233642578125,-0.3994132876396179,-1.7459956407546997
1684252434380209200,10.824209228515626,-1.1032451391220093,0.1571768820285797,-1.496781826019287
1684252434390235100,10.834235107421875,-1.0352394580841064,1.0360887050628662,-1.1355315446853638
1684252434400262100,10.84426220703125,-0.8412204384803772,1.7164359092712402,-0.8490204811096191
1684252434410288000,10.8542880859375,-0.6060723662376404,1.980741024017334,-0.7148666977882385
1684252434420314000,10.864314208984375,-0.3503373861312866,1.933547854423523,-0.6745205521583557
1684252434430340000,10.874340087890625,-0.052429813891649246,1.7492940425872803,-0.6532166004180908
1684252434440367000,10.8843671875,0.2910904884338379,1.5550304651260376,-0.5870065689086914
1684252434450393000,10.89439306640625,0.5360674858093262,1.3496123552322388,-0.46075567603111267
1684252434460419000,10.904419189453124,0.6031377911567688,1.0719777345657349,-0.30631139874458313
1684252434470445000,10.914445068359376,0.48224571347236633,0.502537190914154,-0.2039850354194641
1684252434480472000,10.92447216796875,0.13542331755161285,-0.4769863784313202,-0.22085575759410858
1684252434490498000,10.934498046875,-0.35744601488113403,-1.7479890584945679,-0.4845465123653412
1684252434500524000,10.94452392578125,-0.8625491261482239,-3.4142229557037354,-1.2448797225952148
1684252434510550000,10.954550048828125,-1.2154160737991333,-6.036289215087891,-3.057685136795044
1684252434520577300,10.964577392578125,-1.481590747833252,-7.755405902862549,-4.9777045249938965
1684252434530603300,10.974603271484375,-1.740975022315979,-5.861574172973633,-5.7207794189453125
1684252434540629200,10.984629150390624,-1.9493327140808105,-3.105649471282959,-5.3699727058410645
1684252434550655200,10.9946552734375,-2.0472636222839355,-1.3988136053085327,-4.727149486541748
1684252434560682000,11.004681884765626,-1.903367280960083,-0.4579959213733673,-4.073016166687012
1684252434570708000,11.0147080078125,-1.691415548324585,0.020543498918414116,-3.31253981590271
1684252434580734000,11.02473388671875,-1.358443260192871,0.005596242845058441,-2.525716781616211
1684252434590760200,11.03476025390625,-0.9510492086410522,-0.49894359707832336,-1.962835431098938
1684252434600787200,11.044787109375,-0.5108700394630432,-1.2767893075942993,-1.6264915466308594
1684252434610813200,11.054813232421875,-0.016325853765010834,-2.1484289169311523,-1.3697223663330078
1684252434620839200,11.064839111328125,0.4371795058250427,-2.6095142364501953,-1.1887845993041992
1684252434630865200,11.074865234375,0.837203860282898,-2.3300840854644775,-1.275612711906433
1684252434640892000,11.084891845703124,1.1931729316711426,-1.4663488864898682,-1.6215513944625854
1684252434650918000,11.09491796875,1.485737681388855,-0.3434852957725525,-2.060508966445923
1684252434660944100,11.104944091796876,1.7237317562103271,0.6888088583946228,-2.3466837406158447
1684252434670970000,11.11497021484375,1.9564152956008911,1.2471215724945068,-2.2978103160858154
1684252434680997000,11.1249970703125,2.2796382904052734,1.380204200744629,-1.861540675163269
1684252434691023000,11.135023193359375,2.739497661590576,1.2453070878982544,-1.1423635482788086
1684252434701049000,11.145049072265625,3.2071292400360107,0.972322940826416,-0.35268935561180115
1684252434711075000,11.155074951171875,3.4459218978881836,0.6816412806510925,0.2684527635574341
1684252434721102000,11.16510205078125,3.2902865409851074,0.2636471390724182,0.5504515171051025
1684252434731128300,11.17512841796875,2.8329005241394043,-0.11246097832918167,0.4340801537036896
1684252434741154300,11.185154296875,2.263489007949829,-0.14218133687973022,-0.04318884760141373
1684252434751180300,11.19518017578125,1.7317155599594116,0.419369637966156,-0.7877535820007324
1684252434761207000,11.20520703125,1.3269070386886597,1.5754839181900024,-1.5152312517166138
1684252434771233000,11.21523291015625,1.1410391330718994,2.811021327972412,-1.945151448249817
1684252434781259000,11.225259033203125,1.1459729671478271,3.3784420490264893,-2.062072992324829
1684252434791286300,11.235286376953125,1.3060576915740967,3.3673861026763916,-1.9799795150756836
1684252434801312300,11.245312255859375,1.520832896232605,3.0730745792388916,-1.7502201795578003
1684252434811338200,11.255338134765625,1.70919930934906,2.6574010848999023,-1.376274585723877
1684252434821364200,11.2653642578125,1.8624404668807983,2.2192680835723877,-0.8651496767997742
1684252434831391000,11.275390869140624,2.010680675506592,1.7629449367523193,-0.3478039801120758
1684252434841417000,11.2854169921875,2.1742477416992188,1.2541487216949463,0.015480054542422295
1684252434851443000,11.29544287109375,2.359797239303589,0.8163840770721436,0.16593240201473236
1684252434861469000,11.305468994140625,2.537827253341675,0.6673334836959839,0.22696591913700104
1684252434871496200,11.31549609375,2.6500089168548584,1.0185954570770264,0.3794417381286621
1684252434881522200,11.325522216796875,2.6451001167297363,1.6550120115280151,0.6601051688194275
1684252434891548200,11.335548095703125,2.5694398880004883,2.1545121669769287,0.978731632232666
1684252434901574100,11.34557421875,2.4713287353515625,2.419243574142456,1.3076540231704712
1684252434911601200,11.35560107421875,2.3373587131500244,2.5127854347229004,1.637521743774414
1684252434921627100,11.365627197265624,2.1674692630767822,2.482807159423828,1.93514084815979
1684252434931653000,11.375653076171876,1.9736299514770508,2.336308717727661,2.1633965969085693
1684252434941679000,11.38567919921875,1.788223147392273,2.191279411315918,2.3494386672973633
1684252434951706000,11.3957060546875,1.6846078634262085,2.125826358795166,2.535285234451294
1684252434961732000,11.405732177734375,1.7049124240875244,2.1236984729766846,2.7703304290771484
1684252434971758000,11.415758056640625,1.8195470571517944,2.1497676372528076,3.0890843868255615
1684252434981784000,11.4257841796875,1.982865571975708,1.9927119016647339,3.4418485164642334
1684252434991811000,11.43581103515625,2.2316856384277344,0.8287743926048279,3.703181743621826
1684252435001837000,11.445837158203124,2.7767996788024902,-3.497568368911743,3.8697502613067627
1684252435011863300,11.45586328125,3.1000070571899414,-8.484230995178223,5.067182540893555
1684252435021889300,11.46588916015625,1.704230546951294,-12.263564109802246,6.333394527435303
1684252435031916000,11.475916015625,-0.9110972881317139,-14.630744934082031,3.5755770206451416
1684252435041942000,11.48594189453125,-2.9672460556030273,-1.1958379745483398,-1.2541708946228027
1684252435051968000,11.495968017578125,-3.010504961013794,14.202290534973145,-3.490450143814087
1684252435061994000,11.505993896484375,-3.004551649093628,12.60770034790039,-5.067193031311035
1684252435072021000,11.51602099609375,-3.130882501602173,7.829758644104004,-5.774412155151367
1684252435082047200,11.526047119140625,-3.4068856239318848,2.748419761657715,-5.687312126159668
1684252435092073200,11.5360732421875,-3.642435312271118,-1.452327013015747,-5.083463668823242
1684252435102099200,11.54609912109375,-3.7311909198760986,-4.38795804977417,-4.5384745597839355
1684252435112126200,11.556126220703124,-3.434300422668457,-5.955470561981201,-4.117055416107178
1684252435122152200,11.566152099609376,-2.8381199836730957,-5.585357666015625,-3.413233757019043
1684252435132178200,11.57617822265625,-2.5318946838378906,-1.3728609085083008,-1.1731153726577759
1684252435142205000,11.586204833984375,-2.5252816677093506,2.2361526489257812,1.256837248802185
1684252435152231200,11.596231201171875,-2.14035964012146,3.3815600872039795,2.7836642265319824
1684252435162257200,11.606257080078125,-1.439108967781067,3.332174301147461,3.622108221054077
1684252435172283100,11.616283203125,-0.6490889191627502,2.9791483879089355,4.013627052307129
1684252435182310100,11.62631005859375,0.12727993726730347,2.651592969894409,4.118679523468018
1684252435192336100,11.636336181640624,0.8059071898460388,2.531660556793213,4.097801208496094
1684252435202362600,11.646362548828124,1.3765314817428589,2.5538177490234375,3.9958384037017822
1684252435212388600,11.656388671875,1.816390037536621,2.7670507431030273,3.790170192718506
1684252435222415600,11.66641552734375,2.103214740753174,2.997870922088623,3.44115948677063
1684252435232441600,11.676441650390625,2.114499092102051,2.969503164291382,2.961585760116577
1684252435242467600,11.686467529296875,1.7145015001296997,2.620330333709717,2.4245352745056152
1684252435252493600,11.69649365234375,1.000705361366272,1.9014577865600586,1.9153597354888916
1684252435262520600,11.7065205078125,0.24757376313209534,0.7282335162162781,1.6413570642471313
1684252435272546600,11.716546630859375,-0.5887978672981262,-2.7859222888946533,2.4220287799835205
1684252435282572500,11.726572509765624,-1.1634430885314941,-5.721149921417236,2.8973777294158936
1684252435292598800,11.736598876953124,-1.2118481397628784,-6.7046637535095215,2.7804079055786133
1684252435302625500,11.74662548828125,-0.8883444666862488,-6.9335103034973145,2.4843478202819824
1684252435312651500,11.756651611328126,-0.34130510687828064,-6.778961181640625,2.1850359439849854
1684252435322677500,11.766677490234375,0.23637017607688904,-6.419222354888916,2.0474042892456055
1684252435332703500,11.776703369140625,0.6816136837005615,-5.935865879058838,2.153252124786377
1684252435342730500,11.78673046875,0.9854868054389954,-5.134642601013184,2.348081350326538
1684252435352756500,11.796756591796875,1.2175304889678955,-4.018682956695557,2.38720965385437
1684252435362782700,11.80678271484375,1.428167462348938,-2.6376497745513916,2.2580478191375732
1684252435372808700,11.81680859375,1.609188437461853,-1.1633949279785156,2.073526382446289
1684252435382835700,11.826835693359374,1.7334693670272827,0.19812023639678955,1.887237310409546
1684252435392861700,11.83686181640625,1.723034143447876,1.2100898027420044,1.6908386945724487
1684252435402887700,11.8468876953125,1.5013203620910645,1.6060287952423096,1.3426145315170288
1684252435412914400,11.85691455078125,1.0529290437698364,1.5603103637695312,0.743972897529602
1684252435422940700,11.866940673828125,0.5761145353317261,1.4297773838043213,0.162154421210289
1684252435432966700,11.876966552734375,0.22948519885540009,1.2727651596069336,-0.20915867388248444
1684252435442992600,11.88699267578125,0.03273049369454384,0.8695085644721985,-0.28164467215538025
1684252435453019600,11.89701953125,-0.0617174468934536,0.20290228724479675,-0.03972339257597923
1684252435463045600,11.907045654296875,-0.047656405717134476,-0.3510230481624603,0.3177524507045746
1684252435473071600,11.917071533203124,0.060530517250299454,-0.46887537837028503,0.6102956533432007
1684252435483097600,11.92709765625,0.2610483467578888,-0.17440539598464966,0.8401575088500977
1684252435493124600,11.93712451171875,0.5085130333900452,0.334892213344574,1.0054666996002197
1684252435503150600,11.947150634765626,0.7273362278938293,0.7933384776115417,1.0519075393676758
1684252435513176600,11.957176513671875,0.8700028657913208,1.0924309492111206,1.0095257759094238
1684252435523202600,11.96720263671875,0.895122766494751,1.1595938205718994,0.9244097471237183
1684252435533229600,11.9772294921875,0.7764262557029724,1.0355613231658936,0.8354604840278625
1684252435543255600,11.987255615234375,0.5212793350219727,0.8857036232948303,0.7740132212638855
1684252435553281500,11.997281494140625,0.16888587176799774,0.8843558430671692,0.7350274920463562
1684252435563307500,12.0073076171875,-0.2503136992454529,1.1513656377792358,0.6825767159461975
1684252435573334800,12.017334716796874,-0.6676579117774963,1.610111117362976,0.5940505862236023
1684252435583360800,12.02736083984375,-0.9918458461761475,2.0136520862579346,0.4893028438091278
1684252435593386800,12.03738671875,-1.1203603744506836,2.0429069995880127,0.3588777184486389
1684252435603412700,12.047412841796875,-1.0320281982421875,1.5269733667373657,0.18678565323352814
1684252435613439500,12.057439453125,-0.7989320755004883,0.45432209968566895,-0.024837376549839973
1684252435623465500,12.067465576171875,-0.5803881883621216,-0.9456967711448669,-0.2850145399570465
1684252435633491500,12.077491455078125,-0.49316325783729553,-2.0638427734375,-0.6822103261947632
1684252435643518700,12.087518798828125,-0.3975414037704468,-2.474241256713867,-1.4261614084243774
1684252435653544700,12.097544677734374,-0.14963814616203308,-2.232680082321167,-2.536497116088867
1684252435663570700,12.10757080078125,0.34919050335884094,-1.7181514501571655,-3.63655424118042
1684252435673596700,12.1175966796875,0.9495235085487366,-1.4370678663253784,-4.376229763031006
1684252435683623700,12.127623779296876,1.5705796480178833,-1.3237632513046265,-4.669177055358887
1684252435693649400,12.1376494140625,2.096566915512085,-1.3500046730041504,-4.474366664886475
1684252435703675400,12.14767529296875,2.450268268585205,-1.6063119173049927,-3.8616371154785156
1684252435713701600,12.15770166015625,2.6780951023101807,-1.6934603452682495,-2.6760737895965576
1684252435723728600,12.167728759765625,2.97187876701355,-1.294306755065918,-0.9044057130813599
1684252435733754600,12.177754638671875,3.240260601043701,-0.5790597200393677,0.6493346691131592
1684252435743780600,12.187780517578124,3.289881706237793,0.23212994635105133,1.7198830842971802
1684252435753806600,12.197806640625,2.7215709686279297,0.6896682381629944,0.7753655910491943
1684252435763833600,12.20783349609375,1.7121858596801758,0.8939360976219177,-0.993262529373169
1684252435773859600,12.217859619140626,0.9525935053825378,0.6932195425033569,-2.0835862159729004
1684252435783885800,12.2278857421875,0.4845634400844574,-0.026197383180260658,-2.5531558990478516
1684252435793911800,12.237911865234375,0.028316818177700043,-0.9367457628250122,-2.9378085136413574
1684252435803938600,12.2479384765625,-0.40580669045448303,-1.9422991275787354,-3.163170337677002
1684252435813964500,12.257964599609375,-0.7237135767936707,-2.75283145904541,-3.3578715324401855
1684252435823990500,12.267990478515625,-0.9222921133041382,-3.2441036701202393,-3.593977689743042
1684252435834016500,12.2780166015625,-1.0451003313064575,-3.0521717071533203,-3.622652530670166
1684252435844043800,12.288043701171874,-1.0028263330459595,-0.19066959619522095,-3.129894495010376
1684252435854069800,12.29806982421875,-1.1045753955841064,5.063060283660889,-2.678377151489258
1684252435864095700,12.308095703125,-1.401740550994873,7.000436782836914,-2.9876527786254883
1684252435874122500,12.31812255859375,-1.7386608123779297,6.207633972167969,-3.927722454071045
1684252435884148500,12.3281484375,-1.880240559577942,3.3746190071105957,-4.767003059387207
1684252435894174500,12.338174560546875,-1.7868865728378296,0.2903002202510834,-4.710287094116211
1684252435904200400,12.348200439453125,-1.3928005695343018,-1.5717236995697021,-3.7351455688476562
1684252435914227700,12.358227783203125,-0.8228039145469666,-2.613447666168213,-2.4961392879486084
1684252435924253700,12.368253662109375,-0.21602344512939453,-3.237672805786133,-1.3644822835922241
1684252435934279700,12.37827978515625,0.232426255941391,-3.552128553390503,-0.5131908059120178
1684252435944305700,12.3883056640625,0.5328309535980225,-3.5602405071258545,0.08304335176944733
1684252435954332700,12.398332763671876,0.7763549089431763,-3.2303225994110107,0.44253042340278625
1684252435964358700,12.408358642578126,1.0338964462280273,-2.5852479934692383,0.559522271156311
1684252435974384600,12.418384521484375,1.2158987522125244,-1.7655431032180786,0.42909130454063416
1684252435984410600,12.42841064453125,1.2462308406829834,-1.0482829809188843,0.11169083416461945
1684252435994437600,12.438437744140625,1.0870816707611084,-0.5771844983100891,-0.28310200572013855
1684252436004463600,12.448463623046875,0.8041857481002808,-0.3333773910999298,-0.6142411231994629
1684252436014489600,12.458489501953125,0.4652539789676666,-0.3732273280620575,-0.7812032699584961
1684252436024516600,12.4685166015625,0.16758953034877777,-0.567707359790802,-0.78232741355896
1684252436034542600,12.47854248046875,-0.03257365897297859,-0.7070114612579346,-0.663221538066864
1684252436044568600,12.488568603515626,-0.1495010107755661,-0.6915474534034729,-0.47086000442504883
1684252436054594600,12.498594482421876,-0.22674892842769623,-0.46244099736213684,-0.24293574690818787
1684252436064621600,12.50862158203125,-0.3148460388183594,0.283935010433197,0.12079653143882751
1684252436074647600,12.5186474609375,-0.5340007543563843,1.6191041469573975,0.8231562376022339
1684252436084673500,12.528673583984375,-0.8515640497207642,2.7992265224456787,1.6866647005081177
1684252436094699500,12.538699462890625,-1.1583019495010376,3.548041343688965,2.523256778717041
1684252436104726500,12.5487265625,-1.3951220512390137,3.8744959831237793,3.2981603145599365
1684252436114752500,12.55875244140625,-1.546010136604309,3.6065282821655273,3.937457799911499
1684252436124778500,12.568778564453124,-1.6124204397201538,2.5231339931488037,4.376280784606934
1684252436134804700,12.5788046875,-1.509461760520935,0.8646470904350281,4.529477119445801
1684252436144831700,12.588831787109376,-1.1844069957733154,-1.4861217737197876,4.284082889556885
1684252436154857700,12.598857666015626,-1.019332766532898,-3.6706619262695312,3.3480987548828125
1684252436164883700,12.6088837890625,-1.6022695302963257,-6.844691753387451,-0.13785450160503387
1684252436174909700,12.61890966796875,-2.8492894172668457,-3.566624641418457,-1.3952564001083374
