time,seconds_elapsed,z,y,x
1684253236006542300,0.011542236328125,-0.38970446586608887,-1.5503668785095215,4.0261616706848145
1684253236016568300,0.021568359375,-0.5019961595535278,-2.0386505126953125,4.787420272827148
1684253236026594300,0.03159423828125,-0.636271059513092,-2.164228677749634,5.39279842376709
1684253236036619500,0.04161962890625,-0.8067440390586853,-1.400128960609436,5.72538423538208
1684253236046645500,0.0516455078125,-0.5833664536476135,-0.002201249822974205,4.980714321136475
1684253236056671500,0.06167138671875,0.3710084855556488,2.0209808349609375,2.5565874576568604
1684253236066696400,0.071696533203125,1.0333118438720703,2.180532217025757,1.5213438272476196
1684253236076722400,0.081722412109375,1.0215561389923096,1.3304907083511353,1.5602209568023682
1684253236086748400,0.09174853515625,0.7042360305786133,0.7311580181121826,1.8138961791992188
1684253236096773400,0.1017734375,0.5064031481742859,0.6471824645996094,1.820315957069397
1684253236106799400,0.11179931640625,0.46164968609809875,0.7820645570755005,1.601224422454834
1684253236116825300,0.121825439453125,0.2909986078739166,0.9281696081161499,1.3202470541000366
1684253236126850300,0.131850341796875,-0.08370821177959442,1.071781039237976,1.197913646697998
1684253236136876300,0.141876220703125,-0.4689387381076813,1.2263634204864502,1.230569839477539
1684253236146902300,0.15190234375,-0.6323611736297607,1.409967303276062,1.2927987575531006
1684253236156927200,0.16192724609375,-0.600505530834198,1.5647870302200317,1.3039664030075073
1684253236166953200,0.171953125,-0.5743178725242615,1.5487253665924072,1.1988335847854614
1684253236176979200,0.181979248046875,-0.6528600454330444,1.2442586421966553,0.9694728255271912
1684253236187005200,0.192005126953125,-0.816258430480957,0.8135008811950684,0.6563371419906616
1684253236197030400,0.202030517578125,-0.9959046244621277,0.4341791272163391,0.3124953806400299
1684253236207056400,0.212056396484375,-1.193997859954834,0.13188131153583527,-0.045181818306446075
1684253236217082400,0.222082275390625,-1.3998972177505493,-0.028374403715133667,-0.46398571133613586
1684253236227107300,0.232107421875,-1.5832345485687256,-0.8713699579238892,-0.784493625164032
1684253236237133300,0.24213330078125,-1.7391802072525024,-1.1319831609725952,-1.1406445503234863
1684253236247159300,0.2521591796875,-1.7591074705123901,-0.9078285694122314,-1.1933037042617798
1684253236257184300,0.262184326171875,-1.7489770650863647,-0.03136839717626572,-1.0348085165023804
1684253236267210200,0.272210205078125,-1.884208083152771,0.8353725075721741,-0.7108126878738403
1684253236277236500,0.282236572265625,-1.993425965309143,1.1359968185424805,-0.32077255845069885
1684253236287261200,0.29226123046875,-1.8405036926269531,1.292688250541687,-0.08117944002151489
1684253236297287400,0.302287353515625,-1.6487091779708862,1.7755491733551025,0.08981893211603165
1684253236307313400,0.3123134765625,-1.6693789958953857,2.360908269882202,0.3245314955711365
1684253236317338400,0.32233837890625,-1.71868896484375,2.564142942428589,0.6091712117195129
1684253236327364400,0.3323642578125,-1.734092116355896,2.6606695652008057,0.9157336950302124
1684253236337390300,0.342390380859375,-1.7016936540603638,2.966798782348633,1.2519302368164062
1684253236347416300,0.352416259765625,-1.536464810371399,3.3328022956848145,1.524743914604187
1684253236357441500,0.362441650390625,-1.2717915773391724,3.8482813835144043,1.669771671295166
1684253236367467500,0.372467529296875,-1.5931119918823242,4.832371711730957,1.6528315544128418
1684253236377493500,0.382493408203125,-2.6319265365600586,5.909446716308594,1.6929004192352295
1684253236387518500,0.3925185546875,-3.5266830921173096,6.368299961090088,1.8731940984725952
1684253236397544400,0.40254443359375,-4.314547061920166,6.691371440887451,2.223740816116333
1684253236407570400,0.4125703125,-4.770212650299072,7.0400896072387695,2.74485445022583
1684253236417595400,0.422595458984375,-4.914779186248779,6.899272918701172,3.256723642349243
1684253236427621400,0.432621337890625,-4.9786224365234375,6.753684043884277,3.5763165950775146
1684253236437647400,0.4426474609375,-5.240103244781494,6.127746105194092,3.4522011280059814
1684253236447672300,0.45267236328125,-5.644261837005615,5.918184757232666,3.233949899673462
1684253236457698300,0.4626982421875,-6.055731296539307,5.757305145263672,3.000199794769287
1684253236467724300,0.472724365234375,-6.458921432495117,5.523448467254639,2.7933342456817627
1684253236477749200,0.482749267578125,-6.839705467224121,5.251448154449463,2.6409287452697754
1684253236487775200,0.492775146484375,-7.099050521850586,4.93369197845459,2.62801194190979
1684253236497801200,0.50280126953125,-7.1408257484436035,4.435819625854492,2.8256378173828125
1684253236507827200,0.5128271484375,-6.946746349334717,3.5853309631347656,3.153867483139038
1684253236517852400,0.522852294921875,-6.63504695892334,2.4746785163879395,3.497541904449463
1684253236527878400,0.53287841796875,-6.370615005493164,1.4520398378372192,3.6834983825683594
1684253236537904400,0.542904296875,-6.163183689117432,0.6020367741584778,3.604583978652954
1684253236547929300,0.552929443359375,-5.819089412689209,-0.17509213089942932,3.2603464126586914
1684253236557955300,0.562955322265625,-5.233721733093262,-0.6217061281204224,2.7039577960968018
1684253236567981300,0.572981201171875,-4.380081653594971,-0.9976643919944763,1.9324030876159668
1684253236578006300,0.58300634765625,-3.354857921600342,-1.3648618459701538,0.9890914559364319
1684253236588032300,0.5930322265625,-2.2506263256073,-1.5981900691986084,0.2539660334587097
1684253236598058500,0.60305859375,-1.2363531589508057,-1.8085854053497314,-0.020178968086838722
1684253236608083200,0.613083251953125,-0.2946423292160034,-2.0159924030303955,-0.005703243426978588
1684253236618109400,0.623109375,0.5755413174629211,-2.070103883743286,0.07635567337274551
1684253236628135400,0.633135498046875,1.280922293663025,-1.9535616636276245,0.05811738967895508
1684253236638160400,0.643160400390625,1.7767621278762817,-1.7373838424682617,-0.0817963108420372
1684253236648186400,0.653186279296875,2.1000208854675293,-1.5615559816360474,-0.28825363516807556
1684253236658212400,0.66321240234375,2.3201522827148438,-1.2771297693252563,-0.5052523016929626
1684253236668238300,0.67323828125,2.4545741081237793,-0.7832165360450745,-0.6511555910110474
1684253236678263600,0.683263671875,2.560434579849243,-0.10151921957731247,-0.670163094997406
1684253236688289300,0.693289306640625,2.6608967781066895,0.6158724427223206,-0.5811050534248352
1684253236698315300,0.703315185546875,2.7308382987976074,1.2369201183319092,-0.39188477396965027
1684253236708340500,0.713340576171875,2.531705856323242,1.6146835088729858,-0.05030994862318039
1684253236718366500,0.723366455078125,2.183138847351074,1.6739354133605957,0.3090500831604004
1684253236728392400,0.733392333984375,1.7850478887557983,1.4275542497634888,0.6778053641319275
1684253236738417400,0.74341748046875,1.3617181777954102,0.9092713594436646,0.8965198397636414
1684253236748443400,0.753443359375,1.052809476852417,0.6674818396568298,0.7391980290412903
1684253236758469400,0.763469482421875,0.8258057236671448,0.7324094176292419,0.2955648899078369
1684253236768494300,0.773494384765625,0.8036385178565979,0.7489330172538757,-0.5732398629188538
1684253236778520300,0.783520263671875,0.771196722984314,0.18360967934131622,-1.354326844215393
1684253236788546300,0.79354638671875,0.5673053860664368,-0.31913840770721436,-1.6312938928604126
1684253236798571300,0.8035712890625,0.1683691442012787,0.13319845497608185,-1.4199693202972412
1684253236808597200,0.81359716796875,-0.09342958778142929,0.9608483910560608,-0.7494215965270996
1684253236818623200,0.823623291015625,-0.13474321365356445,1.561485767364502,0.13324154913425446
1684253236828648400,0.8336484375,-0.34187379479408264,1.9966771602630615,0.9123622179031372
1684253236838674400,0.84367431640625,-0.8111491799354553,2.196239709854126,1.4166558980941772
1684253236848700200,0.8537001953125,-1.4051666259765625,1.682537317276001,1.5188044309616089
1684253236858726100,0.86372607421875,-1.990566372871399,0.6122240424156189,1.0954926013946533
1684253236868751400,0.87375146484375,-2.645163059234619,-0.4433545172214508,0.19789177179336548
1684253236878777300,0.88377734375,-3.3234755992889404,-1.2652904987335205,-0.9300152659416199
1684253236888803300,0.89380322265625,-3.840721607208252,-1.611804723739624,-1.9217932224273682
1684253236898828300,0.903828369140625,-4.459939002990723,-1.3822075128555298,-2.665381669998169
1684253236908854300,0.913854248046875,-5.172933101654053,-1.1583609580993652,-3.1914727687835693
1684253236918880500,0.923880615234375,-5.382567882537842,-0.9322100877761841,-3.3849997520446777
1684253236928905200,0.9339052734375,-5.344521999359131,-0.5039346814155579,-3.232140064239502
1684253236938931500,0.943931396484375,-5.250020503997803,-0.36601221561431885,-2.920660972595215
1684253236948957400,0.95395751953125,-5.201820373535156,-0.23275713622570038,-2.605846405029297
1684253236958982400,0.963982421875,-5.430007457733154,0.2786954939365387,-2.2749123573303223
1684253236969007600,0.974007568359375,-5.961177349090576,0.7102000117301941,-1.893210768699646
1684253236979033600,0.98403369140625,-6.517961025238037,0.7808153033256531,-1.4409843683242798
1684253236989059600,0.9940595703125,-6.701197147369385,0.3342027962207794,-0.6400554776191711
1684253236999084800,1.004084716796875,-6.037128448486328,-0.8578462600708008,0.8384215831756592
1684253237009110800,1.01411083984375,-4.946949005126953,-1.1045717000961304,2.04390549659729
1684253237019136800,1.02413671875,-3.8620524406433105,-0.37576228380203247,2.535717010498047
1684253237029161700,1.03416162109375,-3.122774600982666,0.32345250248908997,2.8094465732574463
1684253237039187700,1.044187744140625,-2.840528726577759,0.513413667678833,3.1008596420288086
1684253237049213700,1.054213623046875,-2.8626208305358887,0.27377647161483765,3.3603250980377197
1684253237059238700,1.06423876953125,-3.0226118564605713,-0.19322159886360168,3.518862724304199
1684253237069264600,1.0742646484375,-3.274932861328125,-0.6671237945556641,3.520256996154785
1684253237079290600,1.08429052734375,-3.4589366912841797,-0.9391806125640869,3.4727771282196045
1684253237089315600,1.094315673828125,-3.5451595783233643,-0.8843814134597778,3.590301513671875
1684253237099341600,1.104341552734375,-3.646644353866577,-0.4995482265949249,3.8138136863708496
1684253237109367800,1.114367919921875,-3.854631185531616,-0.15456277132034302,3.838332176208496
1684253237119392500,1.124392578125,-4.013354778289795,-0.009259365499019623,3.516197443008423
1684253237129418800,1.134418701171875,-3.769265651702881,-0.3320012092590332,1.8603185415267944
1684253237139444700,1.14444482421875,-3.310410261154175,-0.5119390487670898,0.37539130449295044
1684253237149470700,1.154470703125,-3.4344632625579834,-0.6106964349746704,-0.37495407462120056
1684253237159496000,1.164495849609375,-3.503326177597046,-1.3830211162567139,-0.9878507852554321
1684253237169522000,1.17452197265625,-3.581484794616699,-1.8055142164230347,-1.5490761995315552
1684253237179548000,1.1845478515625,-3.7598178386688232,-1.8127455711364746,-1.8295155763626099
1684253237189572900,1.19457275390625,-3.9049832820892334,-1.8412160873413086,-2.100245475769043
1684253237199598800,1.204598876953125,-3.94002628326416,-1.7976484298706055,-2.3652262687683105
1684253237209624800,1.214624755859375,-3.803663730621338,-1.729780912399292,-2.588998794555664
1684253237219649800,1.22464990234375,-3.6225202083587646,-1.5997798442840576,-2.7997546195983887
1684253237229675800,1.23467578125,-3.3700199127197266,-1.2793935537338257,-3.197598695755005
1684253237239701800,1.24470166015625,-3.4433932304382324,-0.8389818668365479,-3.7320311069488525
1684253237249726700,1.254726806640625,-3.9307966232299805,-0.35389840602874756,-4.1707444190979
1684253237259752700,1.264752685546875,-4.5046000480651855,0.1730722039937973,-4.436902046203613
1684253237269778700,1.27477880859375,-4.693456649780273,0.3897106647491455,-4.4944963455200195
1684253237279803600,1.2848037109375,-4.384671211242676,0.13788855075836182,-4.408493518829346
1684253237289829600,1.29482958984375,-3.8023109436035156,-0.45403406023979187,-3.9083073139190674
1684253237299855600,1.304855712890625,-3.0593581199645996,-1.1333516836166382,-3.281536340713501
1684253237309881600,1.314881591796875,-2.380096673965454,-1.5285919904708862,-2.682774066925049
1684253237319906800,1.32490673828125,-1.7831294536590576,-1.5965285301208496,-1.892928123474121
1684253237329932800,1.334932861328125,-0.9522866606712341,-0.3040999174118042,-0.6209483742713928
1684253237339958800,1.344958740234375,-0.03059755079448223,1.8761370182037354,0.9182623624801636
1684253237349983700,1.354983642578125,0.5876818895339966,3.1506967544555664,1.7430485486984253
1684253237360009700,1.365009765625,0.8225378394126892,3.4630868434906006,1.8953299522399902
1684253237370035700,1.37503564453125,0.8892001509666443,3.4306674003601074,1.799222707748413
1684253237380060700,1.385060791015625,0.8656492829322815,3.3530704975128174,1.5974743366241455
1684253237390086700,1.395086669921875,0.7761510610580444,3.3222246170043945,1.3970664739608765
1684253237400112600,1.405112548828125,0.7677648067474365,3.3724355697631836,1.2429187297821045
1684253237410137600,1.4151376953125,0.6712226271629333,3.3684535026550293,1.0925451517105103
1684253237420163600,1.42516357421875,0.6860018372535706,3.438035488128662,1.0349146127700806
1684253237430189800,1.43518994140625,0.7556460499763489,3.4039316177368164,1.058583378791809
1684253237440215800,1.4452158203125,0.6629635095596313,3.191019058227539,1.2100703716278076
1684253237450240800,1.45524072265625,0.8077057003974915,2.8715829849243164,1.9705896377563477
1684253237460266800,1.465266845703125,1.3105597496032715,2.1172595024108887,3.5324809551239014
1684253237470292700,1.475292724609375,1.7655121088027954,0.24883295595645905,4.618581295013428
1684253237480318000,1.48531787109375,2.101888418197632,-4.012439250946045,4.43346643447876
1684253237490344000,1.495343994140625,2.254032611846924,-6.746370315551758,3.4917285442352295
1684253237500369700,1.50536962890625,2.3197174072265625,-7.131611347198486,2.525394916534424
1684253237510395000,1.515394775390625,2.2637720108032227,-6.416357040405273,1.6704308986663818
1684253237520420900,1.5254208984375,2.0489323139190674,-5.154458522796631,0.8553658723831177
1684253237530446800,1.53544677734375,1.7413631677627563,-3.789313793182373,0.03767136484384537
1684253237540471800,1.545471923828125,1.3718986511230469,-2.4808998107910156,-0.8482544422149658
1684253237550497800,1.555497802734375,0.9836687445640564,-1.369860291481018,-1.8373607397079468
1684253237560523800,1.565523681640625,0.5898317098617554,-0.373003214597702,-2.8264050483703613
1684253237570548700,1.575548828125,0.24457459151744843,0.48089614510536194,-3.783665657043457
1684253237580574700,1.58557470703125,-0.03396543115377426,1.0071321725845337,-4.628242015838623
1684253237590600700,1.5956005859375,-0.36131638288497925,1.0809983015060425,-5.280801773071289
1684253237600626700,1.605626708984375,-0.752265989780426,0.5964997410774231,-6.687119007110596
1684253237610651600,1.615651611328125,-0.9729790091514587,0.2040368914604187,-7.413456439971924
1684253237620677600,1.625677734375,-0.7935240268707275,-0.37843719124794006,-6.832447528839111
1684253237630703600,1.63570361328125,-0.284514844417572,-0.9674491882324219,-5.539060592651367
1684253237640728800,1.645728759765625,0.31928741931915283,-1.4514528512954712,-4.122803688049316
1684253237650754800,1.6557548828125,0.8628537654876709,-1.4373306035995483,-2.8357961177825928
1684253237660780500,1.665780517578125,1.1425861120224,-0.9147855043411255,-1.943674087524414
1684253237670805800,1.6758056640625,1.2663270235061646,-0.11825961619615555,-1.3997347354888916
1684253237680831700,1.685831787109375,1.4780778884887695,0.6278798580169678,-0.9455603361129761
1684253237690857700,1.695857666015625,2.014448881149292,1.1474075317382812,-0.2746516168117523
1684253237700882700,1.705882568359375,2.9842023849487305,1.4553288221359253,0.6121842265129089
1684253237710908700,1.71590869140625,4.206812858581543,0.7516503930091858,1.4758059978485107
1684253237720934700,1.7259345703125,5.482806205749512,-1.992161512374878,1.920911192893982
1684253237730959600,1.735959716796875,6.471293926239014,-4.963622093200684,2.064718723297119
1684253237740985600,1.745985595703125,6.849461078643799,-6.707517623901367,2.162923812866211
1684253237751011800,1.75601171875,6.492250442504883,-6.817956447601318,1.9824726581573486
1684253237761037800,1.766037841796875,5.4747233390808105,-5.768106460571289,1.0889166593551636
1684253237771062800,1.776062744140625,3.954441785812378,-1.2584222555160522,-0.16355568170547485
1684253237781088800,1.7860888671875,2.0053412914276123,4.8936448097229,-0.7368708848953247
1684253237791114800,1.79611474609375,0.4821334779262543,7.867000102996826,-1.0850510597229004
1684253237801139700,1.8061396484375,-0.4316498339176178,7.661438941955566,-1.0906859636306763
1684253237811165700,1.816165771484375,-0.8211494088172913,6.016904830932617,-0.8637775778770447
1684253237821191700,1.826191650390625,-0.8944220542907715,3.807111978530884,-0.5952821969985962
1684253237831217000,1.836216796875,-0.6162222027778625,2.1695449352264404,-0.3732711970806122
1684253237841243000,1.846242919921875,0.13939012587070465,1.887678623199463,-0.3016049861907959
1684253237851268900,1.856268798828125,1.0177102088928223,2.325944662094116,-0.5324355959892273
1684253237861293800,1.8662939453125,1.6511430740356445,2.6480703353881836,-0.994429886341095
1684253237871319800,1.87631982421875,1.809611439704895,2.5653083324432373,-1.3351391553878784
1684253237881345800,1.886345703125,1.6584285497665405,2.297977924346924,-1.267910361289978
1684253237891371800,1.896371826171875,1.3532487154006958,1.9847192764282227,-0.9188414812088013
1684253237901396700,1.906396728515625,1.0188566446304321,1.7987240552902222,-0.5927587151527405
1684253237911422700,1.916422607421875,0.8052312135696411,1.7418893575668335,-0.42272040247917175
1684253237921448700,1.92644873046875,0.72051602602005,1.6610549688339233,-0.34959158301353455
1684253237931473700,1.9364736328125,0.6994484066963196,1.5451053380966187,-0.23719598352909088
1684253237941499600,1.946499755859375,0.6930751800537109,1.4875695705413818,-0.0806436613202095
1684253237951525600,1.956525634765625,0.6364452242851257,1.4737601280212402,0.05062796175479889
1684253237961550600,1.966550537109375,0.4900030791759491,1.571447491645813,0.11475102603435516
1684253237971577600,1.97657763671875,0.3028060793876648,1.6794317960739136,0.20603333413600922
1684253237981603600,1.986603515625,0.10009664297103882,1.514049768447876,0.39744430780410767
1684253237991628300,1.996628173828125,-0.10033681243658066,1.1482172012329102,0.6762772798538208
1684253238001654500,2.006654541015625,-0.33055615425109863,0.9251779913902283,0.9664835929870605
1684253238011680500,2.016680419921875,-0.6194295287132263,1.0023709535598755,1.2177298069000244
1684253238021705700,2.026705810546875,-0.95956951379776,1.3659398555755615,1.4183359146118164
1684253238031731700,2.036731689453125,-1.3361587524414062,1.8571535348892212,1.628000020980835
1684253238041757700,2.0467578125,-1.7507237195968628,2.2836012840270996,1.849397897720337
1684253238051783700,2.05678369140625,-2.1989943981170654,2.486297607421875,2.045787811279297
1684253238061808600,2.06680859375,-2.540156841278076,2.562269449234009,2.2192111015319824
1684253238071834600,2.076834716796875,-2.640733242034912,2.509326934814453,2.414424180984497
1684253238081860600,2.086860595703125,-2.1311135292053223,1.1195199489593506,2.308846950531006
1684253238091885600,2.096885498046875,0.1680513620376587,-5.0372538566589355,1.4164992570877075
1684253238101911600,2.10691162109375,2.480825901031494,-3.580483913421631,3.689534902572632
1684253238111937500,2.1169375,2.4208664894104004,-0.46550020575523376,5.513688564300537
1684253238121962500,2.12696240234375,0.784660816192627,-0.14663247764110565,5.519070625305176
1684253238131988500,2.136988525390625,-0.47664448618888855,-6.347212791442871,0.8335475325584412
1684253238142014500,2.147014404296875,-0.9090986847877502,-2.5678553581237793,-3.419015884399414
1684253238152039400,2.157039306640625,-1.2334811687469482,5.609326362609863,-4.649959564208984
1684253238162065400,2.1670654296875,-1.9264477491378784,8.268558502197266,-4.400993347167969
1684253238172091400,2.17709130859375,-2.5733492374420166,7.484925270080566,-3.844700574874878
1684253238182117400,2.187117431640625,-3.1656429767608643,4.780943393707275,-3.3930516242980957
1684253238192142600,2.197142578125,-3.4415857791900635,1.959834098815918,-2.836507797241211
1684253238202168600,2.20716845703125,-3.1706113815307617,0.551927924156189,-1.8939474821090698
1684253238212194600,2.217194580078125,-2.425907611846924,0.4430537819862366,-0.7328335046768188
1684253238222219500,2.227219482421875,-1.490815281867981,0.8718464374542236,0.2685829699039459
1684253238232245500,2.23724560546875,-0.6776182651519775,1.2802598476409912,1.0613402128219604
1684253238242271500,2.247271484375,-0.16382232308387756,1.3554128408432007,1.5832750797271729
1684253238252296400,2.25729638671875,0.07274610549211502,1.1517930030822754,1.9252657890319824
1684253238262322400,2.267322509765625,0.09198664873838425,0.8179774880409241,2.146758556365967
1684253238272348700,2.2773486328125,-0.0008737996686249971,0.49527308344841003,2.2630162239074707
1684253238282373400,2.287373291015625,-0.08944334834814072,0.18286806344985962,2.284372329711914
1684253238292399600,2.297399658203125,-0.14909401535987854,-0.0841212049126625,2.244582176208496
1684253238302425600,2.307425537109375,-0.2165582776069641,-0.2596232295036316,2.1859397888183594
1684253238312450300,2.3174501953125,-0.3168506622314453,-0.26179131865501404,2.1872246265411377
1684253238322476500,2.3274765625,-0.4494422674179077,-0.06275944411754608,2.271768808364868
1684253238332502500,2.33750244140625,-0.5729413628578186,0.24267184734344482,2.3737876415252686
1684253238342528500,2.347528564453125,-0.6255624890327454,0.47689926624298096,2.356476306915283
1684253238352553700,2.3575537109375,-0.5923105478286743,0.5712602138519287,2.125195264816284
1684253238362579700,2.367579833984375,-0.4579293131828308,0.47423937916755676,1.765278697013855
1684253238372605400,2.37760546875,-0.29305726289749146,0.32618626952171326,1.3475635051727295
1684253238382630700,2.387630615234375,-0.1498204618692398,0.1724443882703781,1.0024985074996948
1684253238392656600,2.39765673828125,-0.04241491109132767,0.08186202496290207,0.7895348072052002
1684253238402682600,2.4076826171875,0.05320461839437485,0.06552093476057053,0.684329628944397
1684253238412707600,2.41770751953125,0.1874598264694214,0.07782360166311264,0.6555019021034241
1684253238422733600,2.427733642578125,0.39374640583992004,0.10325226932764053,0.6936418414115906
1684253238432759600,2.437759521484375,0.6196845769882202,0.12079154700040817,0.7503588199615479
1684253238442784500,2.447784423828125,0.7612523436546326,0.04832480102777481,0.7742878794670105
1684253238452810500,2.457810546875,0.7700913548469543,-0.14288127422332764,0.7194940447807312
1684253238462836500,2.46783642578125,0.649529755115509,-0.38998401165008545,0.5698795318603516
1684253238472862500,2.477862548828125,0.4541489779949188,-0.6427662372589111,0.3230419158935547
1684253238482887400,2.487887451171875,0.24698086082935333,-0.8931257128715515,0.02979513816535473
1684253238492913400,2.497913330078125,0.09915158152580261,-1.1082323789596558,-0.2457057237625122
1684253238502939400,2.507939453125,0.02873814105987549,-1.246647834777832,-0.42933839559555054
1684253238512964600,2.517964599609375,-0.0016910878475755453,-1.2898658514022827,-0.5010477304458618
1684253238522990600,2.527990478515625,0.003352673025801778,-1.2397254705429077,-0.4347115457057953
1684253238533016300,2.538016357421875,0.012640424072742462,-1.0599026679992676,-0.2048042118549347
1684253238543041500,2.54804150390625,0.035459715873003006,-0.7019141316413879,0.16744285821914673
1684253238553067500,2.558067626953125,0.06370899081230164,-0.24058769643306732,0.6031126379966736
1684253238563093500,2.568093505859375,0.08483372628688812,0.17097428441047668,0.9978123307228088
1684253238573118500,2.578118408203125,0.09147665649652481,0.3914746642112732,1.257653832435608
1684253238583144400,2.58814453125,0.10506170243024826,0.4167430102825165,1.3538427352905273
1684253238593170700,2.598170654296875,0.11345046758651733,0.32678741216659546,1.3437529802322388
1684253238603196700,2.60819677734375,0.131967693567276,0.19285064935684204,1.2921550273895264
1684253238613221600,2.6182216796875,0.15650403499603271,0.05731610581278801,1.2559813261032104
1684253238623247600,2.62824755859375,0.18565872311592102,-0.050544582307338715,1.2756884098052979
1684253238633273600,2.638273681640625,0.20816075801849365,-0.10824663937091827,1.3827310800552368
1684253238643298600,2.648298583984375,0.2128141075372696,-0.12309349328279495,1.5766416788101196
1684253238653324500,2.658324462890625,0.19901369512081146,-0.11282144486904144,1.8089361190795898
1684253238663350500,2.6683505859375,0.16406981647014618,-0.08552377671003342,2.016127824783325
1684253238673375500,2.67837548828125,0.12668822705745697,-0.03474878519773483,2.1644749641418457
1684253238683401500,2.6884013671875,0.0868968665599823,0.04157688468694687,2.265206813812256
1684253238693427500,2.698427490234375,0.05094444006681442,0.09756705909967422,2.2889397144317627
1684253238703452700,2.70845263671875,0.021362578496336937,0.10404893010854721,2.2116682529449463
1684253238713478700,2.718478759765625,0.033264145255088806,0.06531848758459091,1.9976805448532104
1684253238723504600,2.728504638671875,0.12477382272481918,-0.07684823870658875,1.5896310806274414
1684253238733529600,2.738529541015625,0.2774892747402191,-0.3120950758457184,0.9629095792770386
1684253238743555600,2.7485556640625,0.46054112911224365,-0.547968327999115,0.21568839251995087
1684253238753581600,2.75858154296875,0.5889768600463867,-0.7367919683456421,-0.5158891081809998
1684253238763607600,2.768607666015625,0.6146920919418335,-0.8956146240234375,-1.0806372165679932
1684253238773632500,2.778632568359375,0.5605301856994629,-0.9825913906097412,-1.3824305534362793
1684253238783658500,2.788658447265625,0.5112100839614868,-0.9746551513671875,-1.4169000387191772
1684253238793684500,2.7986845703125,0.5416377782821655,-0.9052032828330994,-1.3474270105361938
1684253238803709400,2.80870947265625,0.5933617353439331,-0.8926454186439514,-1.496909737586975
1684253238813735400,2.8187353515625,0.7088304162025452,-0.7729009389877319,-1.9153189659118652
1684253238823761400,2.828761474609375,0.9839682579040527,-0.5264748930931091,-2.5183005332946777
1684253238833786400,2.838786376953125,1.2437113523483276,-0.15190157294273376,-3.1461055278778076
1684253238843812400,2.848812255859375,1.2464101314544678,0.44854751229286194,-3.6153414249420166
1684253238853838300,2.85883837890625,1.0054444074630737,1.3787052631378174,-3.534496784210205
1684253238863863600,2.868863525390625,0.7425715923309326,2.586632490158081,-2.4880900382995605
1684253238873889500,2.8788896484375,0.5193831324577332,3.182809829711914,-1.0150104761123657
1684253238883915500,2.88891552734375,0.20781828463077545,2.331080436706543,0.08925940096378326
1684253238893941800,2.898941650390625,0.033406034111976624,-0.6685291528701782,0.35020092129707336
1684253238903966500,2.908966552734375,0.08538561314344406,-4.185742378234863,-0.2865169644355774
1684253238913992700,2.91899267578125,0.5268740653991699,-6.314126491546631,-0.7243859171867371
1684253238924018700,2.929018798828125,1.0909415483474731,-7.446749687194824,-0.881524920463562
1684253238934043600,2.939043701171875,1.486169457435608,-7.333090305328369,-0.9788750410079956
1684253238944069600,2.949069580078125,1.7716618776321411,-5.655395984649658,-0.9945123195648193
1684253238954095600,2.959095703125,1.7922333478927612,-2.6705844402313232,-1.0305739641189575
1684253238964119800,2.969119873046875,1.357620120048523,-0.15910260379314423,-1.0787094831466675
1684253238974146000,2.97914599609375,0.6464233994483948,1.266893982887268,-1.2205190658569336
1684253238984172000,2.989172119140625,-0.11675631999969482,1.5407921075820923,-1.3658725023269653
1684253238994197200,2.999197265625,-0.71489417552948,0.8024211525917053,-1.9099228382110596
1684253239004223200,3.00922314453125,-1.1233829259872437,-0.9679223895072937,-2.928344964981079
1684253239014249000,3.0192490234375,-1.3589937686920166,-2.530266046524048,-3.686434507369995
1684253239024275000,3.02927490234375,-1.368238925933838,-2.5791842937469482,-3.9961869716644287
1684253239034300200,3.039300048828125,-1.245715618133545,-1.3285505771636963,-3.773352861404419
1684253239044326100,3.049326171875,-1.0261690616607666,-0.02029477432370186,-3.3362650871276855
1684253239054352100,3.05935205078125,-0.7610581517219543,0.6704286932945251,-2.9907374382019043
1684253239064377000,3.069377197265625,-0.47840622067451477,0.719843864440918,-2.7590696811676025
1684253239074403000,3.079403076171875,-0.20782262086868286,0.4545481204986572,-2.545853614807129
1684253239084429000,3.089428955078125,0.03353646770119667,-0.10444165021181107,-2.3027658462524414
1684253239094454000,3.0994541015625,0.2812349796295166,-0.7317725419998169,-2.033457040786743
1684253239104480000,3.10947998046875,0.5143587589263916,-1.2711436748504639,-1.6436485052108765
1684253239114506000,3.119506103515625,0.7385843992233276,-1.6409741640090942,-1.1156752109527588
1684253239124531000,3.129531005859375,1.0233482122421265,-1.768450379371643,-0.5331252217292786
1684253239134557000,3.139556884765625,1.3417106866836548,-1.633978247642517,0.0648651123046875
1684253239144583000,3.1495830078125,1.6067495346069336,-1.3297003507614136,0.6009777784347534
1684253239154608000,3.159608154296875,1.7623465061187744,-0.9166226387023926,1.0146408081054688
1684253239164634000,3.169634033203125,1.9009515047073364,-0.3774060606956482,1.3602956533432007
1684253239174659800,3.179659912109375,1.9752475023269653,0.10599133372306824,1.674974799156189
1684253239184685800,3.189685791015625,1.9599190950393677,0.5030716061592102,1.9093209505081177
1684253239194711000,3.1997109375,1.915921926498413,0.8441961407661438,2.0263772010803223
1684253239204737000,3.209737060546875,1.8739142417907715,1.2985388040542603,2.056305170059204
1684253239214763000,3.219762939453125,1.8454304933547974,1.973460078239441,2.075533628463745
1684253239224788000,3.2297880859375,1.7905992269515991,2.683445930480957,2.053380250930786
1684253239234814000,3.23981396484375,1.766434907913208,2.223789930343628,1.2009756565093994
1684253239244840200,3.249840087890625,1.4520527124404907,-0.801189124584198,-2.1510777473449707
1684253239254865000,3.259864990234375,-2.041121482849121,-2.708136796951294,-12.995837211608887
1684253239264891000,3.269890869140625,-5.059869289398193,9.357084274291992,-12.128992080688477
1684253239274917000,3.279917236328125,-7.187763214111328,8.559046745300293,-6.072052001953125
1684253239284941800,3.28994189453125,-8.255850791931152,5.579189300537109,-1.0038150548934937
1684253239294968000,3.299968017578125,-8.110428810119629,3.6274054050445557,2.721411943435669
1684253239304994000,3.309994140625,-6.30732536315918,1.4966658353805542,5.537752628326416
1684253239315020000,3.32002001953125,-3.686436176300049,-1.803679347038269,6.766320705413818
1684253239325045000,3.330044921875,-0.8659050464630127,-3.31162691116333,7.237216472625732
1684253239335071000,3.340071044921875,1.5720642805099487,-3.3967559337615967,7.668715953826904
1684253239345097000,3.350096923828125,3.423967123031616,-2.379587411880493,7.9998955726623535
1684253239355122200,3.3601220703125,4.704281806945801,-0.6640241146087646,8.390089988708496
1684253239365148200,3.370148193359375,5.320147514343262,1.1472595930099487,8.678580284118652
1684253239375174100,3.380174072265625,4.990133762359619,1.8046966791152954,8.284409523010254
1684253239385199000,3.39019921875,3.5290775299072266,-0.10251341015100479,7.265908241271973
1684253239395225000,3.40022509765625,1.4128117561340332,-3.8485028743743896,6.056035041809082
1684253239405251000,3.4102509765625,-0.5209835171699524,-7.986577033996582,4.4841628074646
1684253239415276000,3.420276123046875,-1.7787681818008423,-12.789633750915527,2.51701283454895
1684253239425302000,3.430302001953125,-2.683042526245117,-13.48762035369873,1.022629737854004
1684253239435328000,3.440327880859375,-3.530430793762207,-11.9705228805542,1.3415220975875854
1684253239445354000,3.45035400390625,-4.715512275695801,-2.6939339637756348,5.384887218475342
1684253239455379000,3.46037890625,-4.5316081047058105,0.9513759016990662,5.477441310882568
1684253239465405000,3.470405029296875,-3.2043089866638184,1.2611846923828125,3.6080386638641357
1684253239475431000,3.480430908203125,-1.8186988830566406,-0.2211408168077469,1.2069474458694458
1684253239485456000,3.490455810546875,-0.9073840975761414,-1.7096019983291626,-0.7809962630271912
1684253239495481900,3.50048193359375,-0.5973924398422241,-2.1590490341186523,-1.7993754148483276
1684253239505507800,3.5105078125,-0.7224739193916321,-1.658875584602356,-1.8733469247817993
1684253239515533000,3.520532958984375,-1.1134217977523804,-1.0183906555175781,-1.6026521921157837
1684253239525559000,3.53055908203125,-1.4121533632278442,-0.3715839684009552,-1.6045845746994019
1684253239535585000,3.5405849609375,-1.5364890098571777,0.371299684047699,-1.7292264699935913
1684253239545610000,3.55060986328125,-1.506348729133606,1.147447943687439,-1.7985777854919434
1684253239555636000,3.560635986328125,-1.3363438844680786,1.8935188055038452,-1.6730889081954956
1684253239565662200,3.570662109375,-0.9759127497673035,2.4652247428894043,-1.2105915546417236
1684253239575687000,3.58068701171875,-0.4973958432674408,2.68496036529541,-0.5694550275802612
1684253239585713000,3.590712890625,0.03781271353363991,2.4973371028900146,-0.07030721008777618
1684253239595739100,3.6007392578125,0.47960004210472107,1.8510897159576416,0.28559410572052
1684253239605765000,3.61076513671875,0.7850164175033569,0.8348818421363831,0.5426005721092224
1684253239615790000,3.6207900390625,0.9783429503440857,-0.3757175803184509,0.7590064406394958
1684253239625816000,3.630816162109375,0.9717108607292175,-1.26612389087677,0.7825506329536438
1684253239635842000,3.640842041015625,0.8234069347381592,-1.644853949546814,0.6934015154838562
1684253239645867000,3.650866943359375,0.6652308702468872,-1.5307401418685913,0.7855114936828613
1684253239655893000,3.66089306640625,0.5948467254638672,-0.844970703125,1.1665219068527222
1684253239665919000,3.6709189453125,0.5391730666160583,0.12507398426532745,1.5469238758087158
1684253239675944200,3.680944091796875,0.3769027888774872,0.9228513240814209,1.6749001741409302
1684253239685970200,3.69097021484375,0.13420972228050232,1.4224570989608765,1.5893412828445435
1684253239695996200,3.70099609375,-0.09184746444225311,1.7630605697631836,1.4571400880813599
1684253239706021000,3.711021240234375,-0.20745529234409332,2.1356418132781982,1.456541895866394
1684253239716047000,3.721047119140625,-0.23531697690486908,2.528170108795166,1.7344021797180176
1684253239726073000,3.731072998046875,-0.2876952290534973,2.629835367202759,2.1810319423675537
1684253239736099000,3.74109912109375,-0.35200008749961853,2.5273633003234863,2.5863897800445557
1684253239746124000,3.7511240234375,-0.40192317962646484,2.3281891345977783,2.6142075061798096
1684253239756150000,3.76114990234375,-0.4640645384788513,1.8163020610809326,2.0921876430511475
1684253239766176000,3.771176025390625,-0.5610129833221436,0.5696065425872803,0.9294570684432983
1684253239776201000,3.781200927734375,-0.6023654341697693,-0.5516769289970398,-0.4320770800113678
1684253239786227000,3.79122705078125,-0.3914494812488556,-0.4592966139316559,-1.3043049573898315
1684253239796253000,3.8012529296875,-0.05351493880152702,0.26123350858688354,-1.7169486284255981
1684253239806278000,3.81127783203125,0.21448509395122528,0.7072796821594238,-2.02773380279541
1684253239816303900,3.821303955078125,0.3287438452243805,0.5472638607025146,-2.4532649517059326
1684253239826329900,3.831329833984375,0.3919430673122406,0.1508941501379013,-2.949742078781128
1684253239836355000,3.84135498046875,0.4519239068031311,-0.22465848922729492,-3.449835777282715
1684253239846381000,3.851381103515625,0.4686781167984009,-0.5482815504074097,-3.9186244010925293
1684253239856407000,3.861406982421875,0.42585915327072144,-0.7458280324935913,-4.4277753829956055
1684253239866433000,3.87143310546875,0.2206740528345108,-0.8837001919746399,-4.983974456787109
1684253239876458000,3.8814580078125,-0.22509461641311646,-0.9733498096466064,-5.377514839172363
1684253239886484200,3.891484130859375,-0.7164363861083984,-0.9688336253166199,-5.401589393615723
1684253239896510200,3.90151025390625,-0.9325676560401917,-0.8424782156944275,-4.9381303787231445
1684253239906535000,3.911534912109375,-0.7153077721595764,-0.4951399862766266,-3.969500780105591
1684253239916561200,3.92156103515625,-0.21422915160655975,-0.0690753310918808,-2.7544000148773193
1684253239926587100,3.931587158203125,0.41138148307800293,0.4678134024143219,-1.6298011541366577
1684253239936612000,3.941612060546875,0.8939224481582642,0.9365224242210388,-0.7497157454490662
1684253239946638000,3.95163818359375,1.1566699743270874,1.2568104267120361,-0.169525608420372
1684253239956664000,3.9616640625,1.2466100454330444,1.4064702987670898,0.23799359798431396
1684253239966689500,3.971689453125,1.2180346250534058,1.4869024753570557,0.5886096954345703
1684253239976715500,3.981715576171875,1.1059646606445312,1.4579908847808838,0.9497209787368774
1684253239986741500,3.991741455078125,0.9494709372520447,0.9087383151054382,1.260238528251648
1684253239996767500,4.001767578125,0.5030714273452759,-2.5597128868103027,0.7598900198936462
1684253240006792400,4.01179248046875,0.1702101230621338,-4.941349029541016,-0.21640169620513916
1684253240016818400,4.021818359375,0.13571231067180634,-5.425473213195801,-1.0934064388275146
1684253240026844400,4.031844482421875,0.28921079635620117,-4.881195545196533,-1.7314902544021606
1684253240036869600,4.04186962890625,0.4756481647491455,-3.808011770248413,-2.074669122695923
1684253240046895600,4.0518955078125,0.5673416256904602,-2.2732794284820557,-2.055926561355591
1684253240056921600,4.061921630859375,0.5381832718849182,-0.6042227745056152,-1.8040893077850342
1684253240066946600,4.071946533203125,0.43930700421333313,0.6567019820213318,-1.49030339717865
1684253240076972500,4.08197265625,0.38716068863868713,1.2426691055297852,-1.261294960975647
1684253240086998500,4.09199853515625,0.48778796195983887,1.0252126455307007,-1.1463007926940918
1684253240097023500,4.1020234375,0.8016043901443481,0.06309500336647034,-1.170426607131958
1684253240107049500,4.112049560546875,1.19718599319458,-0.8724710941314697,-1.2269229888916016
1684253240117075500,4.122075439453125,1.5705370903015137,-1.272426962852478,-1.1544631719589233
1684253240127100400,4.132100341796875,1.831946849822998,-1.043060064315796,-0.8922280669212341
1684253240137126400,4.14212646484375,1.9598278999328613,-0.528194010257721,-0.4900686740875244
1684253240147152400,4.15215234375,1.9988062381744385,-0.1560654491186142,-0.058470115065574646
1684253240157178600,4.1621787109375,2.054638385772705,0.09044181555509567,0.22670525312423706
1684253240167203300,4.172203369140625,2.1629364490509033,0.18522265553474426,0.3299344480037689
1684253240177229600,4.1822294921875,2.304492950439453,0.1348566859960556,0.31596922874450684
1684253240187255600,4.192255615234375,2.3956029415130615,0.06038404256105423,0.22089171409606934
1684253240197280800,4.20228076171875,2.381927013397217,0.06986937671899796,0.039964765310287476
1684253240207306500,4.212306396484375,2.2553765773773193,0.20808210968971252,-0.25498166680336
1684253240217332500,4.22233251953125,2.0753867626190186,0.5067979097366333,-0.648269772529602
1684253240227357700,4.232357666015625,1.8843016624450684,0.8366959095001221,-1.079399824142456
1684253240237383700,4.2423837890625,1.7046763896942139,1.1542832851409912,-1.4856228828430176
1684253240247409700,4.25240966796875,1.539898157119751,1.4557068347930908,-1.7871283292770386
1684253240257435600,4.262435546875,1.3597100973129272,1.6299042701721191,-1.8879708051681519
1684253240267460600,4.272460693359375,1.2030004262924194,1.6936577558517456,-1.7697981595993042
1684253240277486600,4.282486572265625,1.1198467016220093,1.676200270652771,-1.461760401725769
1684253240287512600,4.2925126953125,1.0968726873397827,1.589529037475586,-1.0639735460281372
1684253240297537500,4.30253759765625,1.109525203704834,1.3976714611053467,-0.6258901357650757
1684253240307563500,4.3125634765625,1.1492763757705688,1.1237469911575317,-0.17087280750274658
1684253240317589500,4.322589599609375,1.2185449600219727,0.8284175992012024,0.2541557848453522
1684253240327614500,4.332614501953125,1.266484022140503,0.5811399221420288,0.642358660697937
1684253240337640400,4.342640380859375,1.2435221672058105,0.4002653956413269,0.9505686163902283
1684253240347666400,4.35266650390625,1.116612195968628,0.28083592653274536,1.192568302154541
1684253240357691600,4.362691650390625,0.8872923851013184,0.20653805136680603,1.3621232509613037
1684253240367717600,4.372717529296875,0.5869607925415039,0.1519850641489029,1.4429378509521484
1684253240377743400,4.382743408203125,0.23924954235553741,0.15115173161029816,1.4788508415222168
1684253240387769300,4.392769287109375,-0.1468784511089325,0.25803717970848083,1.5340269804000854
1684253240397794600,4.402794677734375,-0.5418038964271545,0.4674933850765228,1.633387565612793
1684253240407820500,4.412820556640625,-0.8935235738754272,0.7486488819122314,1.7890112400054932
1684253240417846500,4.422846435546875,-1.165353775024414,1.0236656665802002,1.9805281162261963
1684253240427871500,4.43287158203125,-1.3646084070205688,1.2104421854019165,2.218390703201294
1684253240437897500,4.4428974609375,-1.4957809448242188,1.294508457183838,2.5151305198669434
1684253240447923500,4.45292333984375,-1.5719521045684814,1.347254991531372,2.8378443717956543
1684253240457948400,4.462948486328125,-1.576020359992981,1.492356300354004,3.1546413898468018
1684253240467974400,4.472974365234375,-1.534563422203064,1.7415099143981934,3.4788296222686768
1684253240478000600,4.483000732421875,-1.5082793235778809,2.0641472339630127,3.756446123123169
1684253240488025300,4.493025390625,-1.5063669681549072,2.4714555740356445,3.907485246658325
1684253240498051600,4.503051513671875,-1.2899941205978394,1.9558813571929932,3.4601521492004395
1684253240508077600,4.51307763671875,0.21920424699783325,-8.88104248046875,0.44767290353775024
1684253240518102500,4.5231025390625,0.9853981733322144,-5.243099689483643,3.04101300239563
1684253240528128500,4.53312841796875,0.5222390294075012,-3.3310258388519287,3.992053985595703
1684253240538154500,4.543154541015625,-0.6489190459251404,-2.723923683166504,2.662980794906616
1684253240548180500,4.553180419921875,-1.6065893173217773,-5.043758869171143,0.10101765394210815
1684253240558205700,4.563205810546875,-1.899176001548767,-2.6143569946289062,-1.0941321849822998
1684253240568231700,4.573231689453125,-1.8085299730300903,1.4456114768981934,-1.5965641736984253
1684253240578257700,4.583257568359375,-1.587298035621643,3.9313671588897705,-2.317157030105591
1684253240588282600,4.59328271484375,-1.5002156496047974,5.04950475692749,-2.8789830207824707
1684253240598308600,4.60330859375,-1.5814934968948364,5.187315940856934,-3.022820234298706
1684253240608334600,4.61333447265625,-1.8296047449111938,4.711210250854492,-2.8895044326782227
1684253240618359600,4.623359619140625,-2.108778953552246,3.532397508621216,-2.5240156650543213
1684253240628385500,4.633385498046875,-2.0608391761779785,1.2135450839996338,-1.7956117391586304
1684253240638411500,4.64341162109375,-1.688766598701477,-0.4072035253047943,-1.0167372226715088
1684253240648436500,4.6534365234375,-1.181970477104187,-0.5053135752677917,-0.29829564690589905
1684253240658462500,4.66346240234375,-0.7134102582931519,0.26405566930770874,0.41189566254615784
1684253240668488400,4.673488525390625,-0.4216119945049286,1.1698873043060303,0.7857595086097717
1684253240678514400,4.683514404296875,-0.22484488785266876,1.9076085090637207,0.6759346127510071
1684253240688539400,4.693539306640625,-0.15884695947170258,2.3460500240325928,0.3243022859096527
1684253240698565400,4.7035654296875,-0.2648329436779022,2.260126829147339,-0.02327757142484188
1684253240708591400,4.71359130859375,-0.44103193283081055,1.8392962217330933,-0.3612273633480072
1684253240718616600,4.723616455078125,-0.5633211731910706,1.5295541286468506,-0.6795901656150818
1684253240728642600,4.733642578125,-0.5648833513259888,1.6250476837158203,-0.9245248436927795
1684253240738668500,4.74366845703125,-0.5253232717514038,2.0217437744140625,-1.0449128150939941
1684253240748693500,4.753693603515625,-0.5044195652008057,2.41201114654541,-1.0337070226669312
1684253240758719500,4.763719482421875,-0.4711514711380005,2.5408458709716797,-0.9515318274497986
1684253240768745500,4.773745361328125,-0.3899173438549042,2.4141359329223633,-0.8500315546989441
1684253240778771700,4.783771728515625,-0.2828178405761719,2.1727874279022217,-0.7452327609062195
1684253240788796400,4.79379638671875,-0.16981565952301025,1.880104899406433,-0.5707400441169739
1684253240798822700,4.80382275390625,-0.07972708344459534,1.6139512062072754,-0.3620656132698059
1684253240808848600,4.8138486328125,0.0212277602404356,1.378077745437622,-0.15151530504226685
1684253240818873600,4.82387353515625,0.14034505188465118,1.1417255401611328,0.09144173562526703
1684253240828899600,4.833899658203125,0.2929913103580475,0.9491478800773621,0.34580716490745544
1684253240838925600,4.843925537109375,0.4781813621520996,0.830102264881134,0.6191081404685974
1684253240848950500,4.853950439453125,0.647537350654602,0.7779261469841003,0.903139591217041
1684253240858976500,4.8639765625,0.7768490314483643,0.7436274886131287,1.1853305101394653
1684253240869002500,4.87400244140625,0.8804819583892822,0.6595744490623474,1.424857258796692
1684253240879027700,4.88402783203125,0.9729000926017761,0.4320073127746582,1.593090534210205
1684253240889053700,4.8940537109375,1.0636156797409058,0.02974402718245983,1.6974544525146484
1684253240899079700,4.90407958984375,1.1459462642669678,-0.4858212471008301,1.7186222076416016
1684253240909104600,4.914104736328125,1.200474500656128,-0.9946426153182983,1.6401697397232056
1684253240919130600,4.924130615234375,1.1904774904251099,-1.4171826839447021,1.4965159893035889
1684253240929156600,4.934156494140625,1.1160914897918701,-1.7547061443328857,1.3184123039245605
1684253240939182600,4.9441826171875,0.9732070565223694,-1.9885015487670898,1.1358540058135986
1684253240949207600,4.95420751953125,0.7675111889839172,-2.0669615268707275,0.9789631366729736
1684253240959233500,4.964233642578125,0.5149444341659546,-1.9052846431732178,0.8567410707473755
1684253240969258800,4.9742587890625,0.23068340122699738,-1.4951213598251343,0.7655913233757019
1684253240979283700,4.98428369140625,-0.06025364249944687,-0.9394527673721313,0.6711114645004272
1684253240989309700,4.994309814453125,-0.3504582941532135,-0.37972742319107056,0.5557177662849426
1684253240999335700,5.004335693359375,-0.6045122742652893,0.06451477110385895,0.41630658507347107
1684253241009361000,5.01436083984375,-0.8005382418632507,0.3501310646533966,0.29457536339759827
1684253241019387000,5.024386962890625,-0.9333144426345825,0.4974563419818878,0.24948124587535858
1684253241029412900,5.034412841796875,-1.028703212738037,0.5903570055961609,0.3515080213546753
1684253241039437800,5.044437744140625,-1.082960844039917,0.7419600486755371,0.6343894004821777
1684253241049463800,5.0544638671875,-1.0825326442718506,1.0507344007492065,1.0791746377944946
1684253241059490000,5.064489990234375,-0.9763624668121338,1.4770992994308472,1.5759773254394531
1684253241069516000,5.07451611328125,-0.7775332927703857,1.9733819961547852,2.012333631515503
1684253241079541000,5.084541015625,-0.5418789982795715,2.60209321975708,2.3455357551574707
1684253241089567000,5.09456689453125,-0.3392110764980316,3.3443048000335693,2.5310118198394775
1684253241099593000,5.104593017578125,-0.18426614999771118,3.997041940689087,2.5548605918884277
1684253241109618000,5.114617919921875,-0.05528631806373596,4.4239349365234375,2.403824806213379
1684253241119644000,5.124643798828125,0.026127299293875694,4.47736930847168,2.0848965644836426
1684253241129670000,5.134669921875,0.028645051643252373,1.624487042427063,0.577170729637146
1684253241139694800,5.14469482421875,0.05623822286725044,-1.7900735139846802,-0.8957709670066833
1684253241149720800,5.154720947265625,0.2523603141307831,-3.309255599975586,-1.3133811950683594
1684253241159746800,5.164746826171875,0.5708191990852356,-4.828987121582031,-1.5535733699798584
1684253241169772000,5.17477197265625,0.9455169439315796,-6.229116439819336,-1.7407656908035278
1684253241179797800,5.1847978515625,1.415030837059021,-7.130770683288574,-2.148473024368286
1684253241189823700,5.19482373046875,2.0470640659332275,-7.208471775054932,-2.861767530441284
1684253241199849700,5.204849609375,2.6125519275665283,-6.804714679718018,-3.5266549587249756
1684253241209875000,5.214875,2.7120234966278076,-4.895448207855225,-3.4797768592834473
1684253241219901000,5.22490087890625,2.085615873336792,0.43390345573425293,-1.7430670261383057
1684253241229927000,5.234927001953125,1.4179397821426392,3.331124782562256,-0.7061559557914734
1684253241239952000,5.244951904296875,0.6905534863471985,3.9554996490478516,-0.4277135729789734
1684253241249977900,5.254977783203125,0.10641440004110336,3.860722780227661,-0.41044458746910095
1684253241260003800,5.26500390625,-0.12571187317371368,3.7692954540252686,-0.526073694229126
1684253241270028800,5.27502880859375,-0.14649038016796112,3.683302879333496,-0.6624243855476379
1684253241280054800,5.2850546875,-0.10335706919431686,3.109165906906128,-1.294145107269287
1684253241290080800,5.295080810546875,-0.3182390332221985,-0.04307819530367851,-3.628338098526001
1684253241300106800,5.305106689453125,-0.44155555963516235,-1.757407546043396,-4.756922721862793
1684253241310131700,5.315131591796875,-0.39160266518592834,-2.631788969039917,-4.817209720611572
1684253241320157700,5.32515771484375,-0.26439547538757324,-3.0674455165863037,-4.599957466125488
1684253241330183700,5.33518359375,-0.09062924981117249,-3.2475316524505615,-4.31189489364624
1684253241340209000,5.345208984375,0.08204904943704605,-3.0723817348480225,-3.8437273502349854
1684253241350234600,5.355234619140625,0.07160626351833344,-2.2843503952026367,-2.957068920135498
1684253241360260900,5.3652607421875,-0.16745972633361816,-1.3102535009384155,-1.8346024751663208
1684253241370285800,5.375285888671875,-0.4735914170742035,-0.5743871927261353,-0.8222141265869141
1684253241380312000,5.38531201171875,-0.6593855023384094,0.024217376485466957,-0.27547624707221985
1684253241390338000,5.395338134765625,-0.45700231194496155,-0.445028692483902,-0.7056055068969727
1684253241400363000,5.405363037109375,0.032081667333841324,-1.5897409915924072,-1.5351656675338745
1684253241410389000,5.415388916015625,0.45610085129737854,-2.1872541904449463,-2.1149516105651855
1684253241420415000,5.4254150390625,0.7032816410064697,-2.1888504028320312,-2.2079148292541504
1684253241430440000,5.43543994140625,0.7824965715408325,-1.6355575323104858,-1.9928245544433594
1684253241440466000,5.4454658203125,0.7658329606056213,-1.0162925720214844,-1.6254503726959229
1684253241450492000,5.455491943359375,0.6950101852416992,-0.5408861041069031,-1.244023323059082
1684253241460518000,5.465517822265625,0.6055569648742676,-0.3809199929237366,-0.8901146054267883
1684253241470542800,5.47554296875,0.5230351686477661,-0.362881064414978,-0.5709262490272522
1684253241480568800,5.48556884765625,0.47319674491882324,-0.3551640808582306,-0.3145933449268341
1684253241490594800,5.4955947265625,0.4520067572593689,-0.28991636633872986,-0.10303768515586853
1684253241500619800,5.505619873046875,0.43463364243507385,-0.1257108747959137,0.06272193789482117
1684253241510645800,5.515645751953125,0.4126149117946625,0.22511212527751923,0.14458005130290985
1684253241520671700,5.525671630859375,0.40083616971969604,0.8100936412811279,0.14481674134731293
1684253241530697000,5.535697021484375,0.36449334025382996,1.456990361213684,0.09931104630231857
1684253241540723000,5.545722900390625,0.2851967513561249,2.017052173614502,0.045546144247055054
1684253241550749000,5.5557490234375,0.1534256935119629,2.47019624710083,0.019019462168216705
1684253241560774000,5.56577392578125,-0.0020074951462447643,2.8165969848632812,0.01642831228673458
1684253241570799900,5.5757998046875,-0.11962973326444626,3.0491766929626465,0.0679658055305481
1684253241580825900,5.585825927734375,-0.14111988246440887,3.1481971740722656,0.1502523422241211
1684253241590851800,5.595851806640625,-0.10819442570209503,3.0789973735809326,0.20387642085552216
1684253241600876800,5.605876708984375,-0.05942840129137039,2.960156202316284,0.21481814980506897
1684253241610902800,5.61590283203125,0.013948079198598862,2.8780980110168457,0.19505083560943604
1684253241620928800,5.6259287109375,0.0974184200167656,2.892817735671997,0.17634683847427368
1684253241630953700,5.63595361328125,0.14505304396152496,3.069467067718506,0.21257595717906952
1684253241640979700,5.645979736328125,0.1316341608762741,3.522242307662964,0.3992408812046051
1684253241651005700,5.656005615234375,0.1328301876783371,3.9607677459716797,0.6493281722068787
1684253241661030700,5.66603076171875,0.13519035279750824,2.408583641052246,-0.10260864347219467
1684253241671056600,5.676056640625,0.08751896768808365,0.5822978615760803,-0.750908374786377
1684253241681083000,5.686082763671875,-0.13029369711875916,0.46865949034690857,-0.5546899437904358
1684253241691107800,5.69610791015625,-0.5090173482894897,1.1932505369186401,0.19854947924613953
1684253241701134000,5.706134033203125,-0.9838442206382751,0.5727038383483887,0.6273163557052612
1684253241711160000,5.71616015625,-1.0107154846191406,-0.4419291317462921,0.6278406977653503
1684253241721186000,5.72618603515625,-0.7365066409111023,-1.0224666595458984,0.37854233384132385
1684253241731211000,5.7362109375,-0.4573703706264496,-0.9627159833908081,-0.000953582813963294
1684253241741237000,5.746237060546875,-0.270539790391922,-0.4624088406562805,-0.43293577432632446
1684253241751263000,5.756262939453125,-0.18168795108795166,0.08905058354139328,-0.8010421395301819
1684253241761288000,5.766287841796875,-0.1860809624195099,0.7515470385551453,-1.1871052980422974
1684253241771314000,5.77631396484375,-0.19440920650959015,1.504414677619934,-1.5489155054092407
1684253241781340000,5.78633984375,-0.16523317992687225,2.1685123443603516,-1.7885383367538452
1684253241791364900,5.79636474609375,-0.07032237946987152,2.6794629096984863,-1.8482972383499146
1684253241801390800,5.806390869140625,0.0006430863868445158,3.125507354736328,-1.724165678024292
1684253241811416800,5.816416748046875,-0.0497891940176487,3.5922350883483887,-1.3518620729446411
1684253241821442800,5.82644287109375,-0.23823483288288116,4.140664100646973,-0.6095423698425293
1684253241831467800,5.8364677734375,-0.41804054379463196,4.614908218383789,0.33354103565216064
1684253241841493800,5.84649365234375,-0.40425166487693787,4.761865139007568,1.0575248003005981
1684253241851519700,5.856519775390625,-0.14989396929740906,4.473484992980957,1.4683464765548706
1684253241861545000,5.866544921875,0.15834292769432068,3.8747472763061523,1.6274933815002441
1684253241871571000,5.876571044921875,0.32658520340919495,2.3758106231689453,1.704694151878357
1684253241881597000,5.886596923828125,0.30528247356414795,0.03686666861176491,1.4764519929885864
1684253241891622000,5.896621826171875,0.31053581833839417,-1.3198151588439941,0.9935087561607361
1684253241901648000,5.90664794921875,0.41155827045440674,-1.5188570022583008,0.5037214159965515
1684253241911673900,5.916673828125,0.5477334260940552,-1.0737557411193848,0.15053273737430573
1684253241921698800,5.92669873046875,0.6579243540763855,-0.2793706953525543,-0.006608327850699425
1684253241931724800,5.936724853515625,0.7013871073722839,0.6266092658042908,-0.06449612975120544
1684253241941750800,5.946750732421875,0.6305350065231323,1.3842809200286865,-0.1277632713317871
1684253241951775700,5.956775634765625,0.3995806574821472,1.8931186199188232,-0.2256229817867279
1684253241961801700,5.9668017578125,0.07230472564697266,2.145451307296753,-0.33062177896499634
1684253241971828000,5.976827880859375,-0.21072299778461456,2.2576892375946045,-0.44093868136405945
1684253241981854000,5.98685400390625,-0.365213006734848,2.28251051902771,-0.5873796343803406
1684253241991879000,5.99687890625,-0.4096987247467041,2.2885279655456543,-0.7986618280410767
1684253242001905000,6.00690478515625,-0.38797318935394287,2.3098506927490234,-1.0677138566970825
1684253242011931000,6.016930908203125,-0.3478047251701355,2.3216445446014404,-1.3141257762908936
1684253242021955800,6.026955810546875,-0.30308204889297485,2.298935651779175,-1.4764747619628906
1684253242031981800,6.03698193359375,-0.24592900276184082,2.314911365509033,-1.5642080307006836
1684253242042007800,6.0470078125,-0.18658873438835144,2.434318780899048,-1.610228180885315
1684253242052033000,6.057032958984375,-0.12491311132907867,2.5723469257354736,-1.5727192163467407
1684253242062059000,6.06705908203125,-0.032224591821432114,2.693446159362793,-1.4717475175857544
1684253242072085000,6.0770849609375,0.041170794516801834,2.7855608463287354,-1.3491116762161255
1684253242082111000,6.087111083984375,0.04873804748058319,2.8338372707366943,-1.224443793296814
1684253242092136000,6.097135986328125,-0.02148631401360035,2.8413429260253906,-1.1322704553604126
1684253242102162000,6.107161865234375,-0.10517153888940811,2.845367193222046,-1.092939853668213
1684253242112188200,6.117188232421875,-0.1615125834941864,2.8185205459594727,-1.1224958896636963
1684253242122212900,6.127212890625,-0.192824587225914,2.752258062362671,-1.226425051689148
1684253242132239000,6.137239013671875,-0.21500499546527863,2.6386871337890625,-1.3952409029006958
1684253242142265000,6.14726513671875,-0.2209141105413437,2.52950119972229,-1.5941381454467773
1684253242152289800,6.157289794921875,-0.2196459025144577,2.456738233566284,-1.7932006120681763
1684253242162316000,6.16731591796875,-0.21188516914844513,2.4290034770965576,-1.9297237396240234
1684253242172342000,6.177342041015625,-0.1925378292798996,2.442000150680542,-2.011245012283325
1684253242182367000,6.187366943359375,-0.16315200924873352,2.4950509071350098,-2.0427353382110596
1684253242192393000,6.19739306640625,-0.11991053819656372,2.5867559909820557,-2.0399954319000244
1684253242202419000,6.2074189453125,-0.06548584997653961,2.6782820224761963,-2.0204622745513916
1684253242212445000,6.21744482421875,-0.003257365431636572,2.7422142028808594,-2.0190250873565674
1684253242222470100,6.22747021484375,0.04480970278382301,2.7797420024871826,-2.0367848873138428
1684253242232496000,6.23749609375,0.06129706650972366,2.7794477939605713,-2.055332899093628
1684253242242522000,6.247522216796875,0.06096068397164345,2.7492761611938477,-2.0718514919281006
1684253242252547000,6.257547119140625,0.06795866787433624,2.716982841491699,-2.0690348148345947
1684253242262573000,6.267572998046875,0.0961398333311081,2.680147171020508,-2.033271074295044
1684253242272599000,6.27759912109375,0.1336243599653244,2.6264278888702393,-1.9563210010528564
1684253242282624000,6.2876240234375,0.16258108615875244,2.561554193496704,-1.8463951349258423
1684253242292650000,6.29764990234375,0.16893671452999115,2.4657413959503174,-1.7138125896453857
1684253242302676000,6.307676025390625,0.14760448038578033,2.3215854167938232,-1.5965816974639893
1684253242312701000,6.317700927734375,0.09693065285682678,2.126903533935547,-1.497585415840149
1684253242322727000,6.327726806640625,0.04207002371549606,1.9161584377288818,-1.4364932775497437
1684253242332753000,6.3377529296875,-0.00048436038196086884,1.7179055213928223,-1.4032907485961914
1684253242342779000,6.34777880859375,0.01494191400706768,1.5522092580795288,-1.3880480527877808
1684253242352803800,6.357803955078125,0.07815763354301453,1.439879298210144,-1.3645250797271729
1684253242362829800,6.367829833984375,0.16042190790176392,1.3849955797195435,-1.3093829154968262
1684253242372855800,6.377855712890625,0.2326100766658783,1.3741055727005005,-1.2236899137496948
1684253242382881000,6.387881103515625,0.25726690888404846,1.3547240495681763,-1.141756534576416
1684253242392907000,6.397906982421875,0.22186152637004852,1.2704951763153076,-1.091329574584961
1684253242402933000,6.40793310546875,0.1352549046278,1.1155130863189697,-1.0708932876586914
1684253242412958000,6.4179580078125,0.04861322045326233,0.9469411373138428,-1.0581647157669067
1684253242422984000,6.42798388671875,-0.00046252249740064144,0.7929535508155823,-1.05226731300354
1684253242433010200,6.43801025390625,-0.0034955968149006367,0.6627220511436462,-1.0357226133346558
1684253242443035000,6.448034912109375,0.02027585171163082,0.5544196963310242,-1.0194090604782104
1684253242453061000,6.45806103515625,0.051413796842098236,0.4603232741355896,-1.0064266920089722
1684253242463087000,6.468087158203125,0.07939475774765015,0.37392136454582214,-1.0034570693969727
1684253242473111800,6.47811181640625,0.11648540198802948,0.30932825803756714,-1.0237815380096436
1684253242483138000,6.488137939453125,0.14237242937088013,0.2810837924480438,-1.0603837966918945
1684253242493164000,6.4981640625,0.14792777597904205,0.3048194646835327,-1.098768711090088
1684253242503190000,6.50818994140625,0.11413657665252686,0.4009753465652466,-1.1307908296585083
1684253242513215000,6.518215087890625,0.02474464662373066,0.6048246026039124,-1.1469382047653198
1684253242523241000,6.528240966796875,-0.09975309669971466,0.9482572674751282,-1.083601713180542
1684253242533267000,6.538266845703125,-0.24327297508716583,1.4340417385101318,-0.8875318169593811
1684253242543292200,6.548292236328125,-0.3298821747303009,2.035857915878296,-0.6023504734039307
1684253242553318100,6.558318115234375,-0.3087412118911743,2.5772736072540283,-0.3257082402706146
1684253242563344100,6.56834423828125,-0.20746316015720367,2.9124832153320312,-0.1689794659614563
1684253242573369000,6.578369140625,-0.09214561432600021,3.022385597229004,-0.14463472366333008
1684253242583395000,6.58839501953125,0.006000142078846693,2.991724967956543,-0.17693230509757996
1684253242593421000,6.598421142578125,0.06591673940420151,2.8946783542633057,-0.20439696311950684
1684253242603447000,6.608447021484375,0.09390591084957123,2.7902231216430664,-0.1980971395969391
1684253242613472000,6.618471923828125,0.10392392426729202,2.2071080207824707,-0.3030366003513336
1684253242623498000,6.628498046875,0.07905895262956619,-0.8237704634666443,-1.3834468126296997
1684253242633524000,6.63852392578125,0.11993634700775146,-2.662480354309082,-2.505402088165283
1684253242643549000,6.648548828125,0.30673912167549133,-2.7096774578094482,-3.2049264907836914
1684253242653575000,6.658574951171875,0.5454563498497009,-1.8311820030212402,-3.5348706245422363
1684253242663601000,6.668600830078125,0.7712054252624512,-0.6317175030708313,-3.622023105621338
1684253242673625900,6.6786259765625,0.9238293170928955,0.3677423894405365,-3.5561599731445312
1684253242683651800,6.68865185546875,0.9558951258659363,1.0247430801391602,-3.369234561920166
1684253242693677800,6.698677734375,0.8647039532661438,1.3570387363433838,-3.0887539386749268
1684253242703703000,6.708703125,0.7457656860351562,1.4646284580230713,-2.7557291984558105
1684253242713729000,6.71872900390625,0.7219855189323425,1.5596694946289062,-2.433253765106201
1684253242723755000,6.728755126953125,0.8268252611160278,1.7742422819137573,-2.145875930786133
1684253242733781000,6.738781005859375,0.9866340756416321,2.0037944316864014,-1.8138985633850098
1684253242743806000,6.748805908203125,1.188930630683899,2.2803022861480713,-1.363105297088623
1684253242753832200,6.758832275390625,1.388113021850586,2.619009494781494,-0.7898788452148438
1684253242763858200,6.768858154296875,1.607314109802246,2.564668893814087,-0.16052328050136566
1684253242773883100,6.778883056640625,1.9417743682861328,0.956253170967102,0.10869328677654266
1684253242783909000,6.7889091796875,2.2925760746002197,-0.8734840750694275,0.01454396452754736
1684253242793935000,6.79893505859375,2.416836738586426,-1.457037329673767,-0.06496977061033249
1684253242803960000,6.8089599609375,2.274214744567871,-0.6615453362464905,-0.08394681662321091
1684253242813986000,6.818986083984375,1.9470350742340088,0.825812578201294,-0.23179860413074493
1684253242824012000,6.829011962890625,1.5174064636230469,2.0030465126037598,-0.6601789593696594
1684253242834037000,6.839037109375,1.1602405309677124,2.555346727371216,-1.3434970378875732
1684253242844063000,6.84906298828125,0.9698596596717834,2.6727049350738525,-2.046696662902832
1684253242854089000,6.8590888671875,0.917605996131897,2.4944679737091064,-2.501405715942383
1684253242864115000,6.869114990234375,0.9154155254364014,2.126654624938965,-2.6290409564971924
1684253242874140000,6.879139892578125,0.9725893139839172,1.7484893798828125,-2.50351881980896
1684253242884166000,6.889165771484375,1.130033254623413,1.4522771835327148,-2.231776237487793
1684253242894191900,6.89919189453125,1.3334486484527588,1.286386489868164,-1.9408137798309326
1684253242904217000,6.909217041015625,1.5100520849227905,1.1332955360412598,-1.710726022720337
1684253242914243000,6.9192431640625,1.656765103340149,0.8723798990249634,-1.5236700773239136
1684253242924269000,6.92926904296875,1.7619596719741821,0.6079787015914917,-1.3675156831741333
1684253242934294000,6.9392939453125,1.7769609689712524,0.505735456943512,-1.2229856252670288
1684253242944320000,6.949320068359375,1.6894729137420654,0.5265765190124512,-1.1104105710983276
1684253242954346000,6.959345947265625,1.5138975381851196,0.5482493042945862,-1.0286037921905518
1684253242964371000,6.969370849609375,1.3046679496765137,0.5520491600036621,-0.9673880338668823
1684253242974397200,6.979397216796875,1.0990796089172363,0.5400010347366333,-0.916236937046051
1684253242984423200,6.989423095703125,0.9224340915679932,0.5117274522781372,-0.8497723340988159
1684253242994449400,6.999449462890625,0.7686977982521057,0.4585878551006317,-0.7327749133110046
1684253243004474000,7.00947412109375,0.6271564960479736,0.4224282205104828,-0.5709301829338074
1684253243014500400,7.019500244140625,0.4833047389984131,0.4164685904979706,-0.3818279504776001
1684253243024526300,7.0295263671875,0.34107261896133423,0.4304954409599304,-0.17585180699825287
1684253243034551300,7.03955126953125,0.19572368264198303,0.4500230848789215,0.02305808663368225
1684253243044577300,7.049577392578125,0.044988252222537994,0.4669491946697235,0.23103447258472443
1684253243054603300,7.059603271484375,-0.10379669815301895,0.501619279384613,0.4286559522151947
1684253243064628500,7.06962841796875,-0.2550623118877411,0.562735378742218,0.6241474747657776
1684253243074654500,7.079654541015625,-0.4029737710952759,0.6215446591377258,0.8087807297706604
1684253243084680200,7.08968017578125,-0.5563151836395264,0.6396796703338623,1.0032609701156616
1684253243094705400,7.099705322265625,-0.711467981338501,0.6542308926582336,1.2324645519256592
1684253243104731400,7.1097314453125,-0.8810139894485474,0.7518339157104492,1.4954966306686401
1684253243114757400,7.11975732421875,-1.0638251304626465,0.9163389801979065,1.7879810333251953
1684253243124783400,7.129783447265625,-1.2529540061950684,1.1257284879684448,2.107386827468872
1684253243134808300,7.139808349609375,-1.4516202211380005,1.3885921239852905,2.4316084384918213
1684253243144834300,7.149834228515625,-1.6488327980041504,1.6453174352645874,2.7298991680145264
1684253243154860300,7.1598603515625,-1.80989408493042,1.8030128479003906,2.8746190071105957
1684253243164885200,7.16988525390625,-1.8629450798034668,1.6979715824127197,2.7212860584259033
1684253243174911200,7.1799111328125,-1.7993924617767334,1.2833105325698853,2.249025583267212
1684253243184937200,7.189937255859375,-1.7704676389694214,0.8705798387527466,1.6176143884658813
1684253243194962200,7.199962158203125,-1.7795439958572388,0.7309337854385376,0.9607094526290894
1684253243204988200,7.20998828125,-1.793816089630127,0.6884021162986755,0.32350438833236694
1684253243215014100,7.22001416015625,-1.8240946531295776,0.5739578604698181,-0.07521554082632065
1684253243225039400,7.230039306640625,-1.8484302759170532,0.518622875213623,-0.20183295011520386
1684253243235065300,7.2400654296875,-1.7489562034606934,0.4600493311882019,0.006771659478545189
1684253243245091000,7.250091064453125,-1.3765946626663208,0.3712904155254364,0.4598487317562103
1684253243255117000,7.260116943359375,-0.9359933137893677,0.018030621111392975,0.8953416347503662
1684253243265142300,7.270142333984375,-0.5949117541313171,-0.6530738472938538,1.10335111618042
1684253243275168300,7.280168212890625,-0.3078775703907013,-1.4643638134002686,1.0472218990325928
1684253243285194200,7.2901943359375,-0.05409449711441994,-1.9433629512786865,0.890365481376648
1684253243295219200,7.30021923828125,0.11577469855546951,-1.701015830039978,0.7752319574356079
1684253243305245200,7.3102451171875,0.18645380437374115,-1.1764345169067383,0.6042395830154419
1684253243315271400,7.320271484375,0.18777179718017578,-0.9000186324119568,0.2751072347164154
1684253243325296000,7.330296142578125,0.12019971013069153,-0.8981252312660217,-0.20731467008590698
1684253243335322400,7.340322265625,-0.08535797894001007,-0.8839225769042969,-0.7463674545288086
1684253243345348400,7.350348388671875,-0.3432900905609131,-0.7315879464149475,-1.2575217485427856
1684253243355374300,7.360374267578125,-0.5645154118537903,-0.4981309771537781,-1.7028473615646362
1684253243365399300,7.3703994140625,-0.7399833798408508,-0.21071165800094604,-2.035078763961792
1684253243375425300,7.38042529296875,-0.8667959570884705,0.2658039927482605,-2.251244068145752
1684253243385451300,7.390451171875,-0.9277670383453369,0.9497987627983093,-2.32666277885437
1684253243395476200,7.400476318359375,-0.9088583588600159,1.7509008646011353,-2.249631881713867
1684253243405502200,7.410502197265625,-0.7849426865577698,2.635633945465088,-2.0066347122192383
1684253243415528200,7.420528076171875,-0.5809067487716675,3.5906410217285156,-1.6023226976394653
1684253243425553400,7.430553466796875,-0.3426344394683838,4.266376972198486,-1.1540935039520264
1684253243435579400,7.440579345703125,-0.13001403212547302,4.529843330383301,-0.7580503821372986
1684253243445605400,7.45060546875,0.03699751943349838,4.460148811340332,-0.41745397448539734
1684253243455630300,7.46063037109375,0.18505649268627167,4.221614360809326,-0.0015225568786263466
1684253243465656300,7.47065625,0.3635019361972809,3.910508871078491,0.6541272401809692
1684253243475682300,7.480682373046875,0.5080953240394592,3.3046085834503174,1.4944994449615479
1684253243485707300,7.490707275390625,0.5690906047821045,2.233175754547119,2.253618001937866
1684253243495733200,7.500733154296875,0.5511137247085571,0.7872970700263977,2.7612156867980957
1684253243505759200,7.51075927734375,0.5328510999679565,-0.7165400385856628,2.9209651947021484
1684253243515785200,7.52078515625,0.5508295893669128,-2.1027872562408447,2.765162467956543
1684253243525810200,7.53081005859375,0.5951437950134277,-3.2468652725219727,2.4395313262939453
1684253243535836200,7.540836181640625,0.640321671962738,-4.019857406616211,2.097428321838379
1684253243545862100,7.550862060546875,0.6583809852600098,-4.370058059692383,1.825147032737732
1684253243555887000,7.56088720703125,0.6367880702018738,-4.372873306274414,1.6864842176437378
1684253243565913000,7.5709130859375,0.5778012871742249,-4.001709938049316,1.6948951482772827
1684253243575939000,7.58093896484375,0.47701746225357056,-3.2397947311401367,1.8298490047454834
1684253243585964300,7.59096435546875,0.3763788342475891,-2.1709702014923096,1.9750146865844727
1684253243595990300,7.600990234375,0.34199637174606323,-1.0441796779632568,1.9665501117706299
1684253243606016300,7.611016357421875,0.40658262372016907,0.0060324533842504025,1.7849923372268677
1684253243616041200,7.621041259765625,0.5336862206459045,0.9268976449966431,1.5092172622680664
1684253243626067200,7.631067138671875,0.6252712607383728,1.6518913507461548,1.2319984436035156
1684253243636093400,7.641093505859375,0.5710368156433105,2.0624403953552246,1.0228185653686523
1684253243646119400,7.651119384765625,0.3707592189311981,2.0945379734039307,0.8306825757026672
1684253243656144400,7.661144287109375,0.07727143168449402,1.5748611688613892,0.5065401792526245
1684253243666170400,7.67117041015625,-0.22129715979099274,0.5067644119262695,-0.06441862881183624
1684253243676196400,7.6811962890625,-0.3464164733886719,-0.2156207114458084,-0.5718909502029419
1684253243686221300,7.69122119140625,-0.30573540925979614,-0.37423714995384216,-0.8611146807670593
1684253243696247300,7.701247314453125,-0.283143550157547,-0.4243546426296234,-1.0540305376052856
1684253243706273300,7.711273193359375,-0.34169885516166687,-0.5125230550765991,-1.2064100503921509
1684253243716298200,7.72129833984375,-0.4331938922405243,-0.568720281124115,-1.3308675289154053
1684253243726324200,7.73132421875,-0.5172158479690552,-0.5489911437034607,-1.3994808197021484
1684253243736350200,7.74135009765625,-0.6059925556182861,-0.29865190386772156,-1.313014030456543
1684253243746376200,7.751376220703125,-0.7059155702590942,0.18080900609493256,-1.0369676351547241
1684253243756401400,7.7614013671875,-0.7558746337890625,0.7346181273460388,-0.6678067445755005
1684253243766427400,7.771427490234375,-0.7051312923431396,1.1647744178771973,-0.3478151857852936
1684253243776453400,7.781453369140625,-0.5566097497940063,1.405516505241394,-0.11544559895992279
1684253243786478300,7.791478271484375,-0.3592796325683594,1.4998376369476318,0.10325345396995544
1684253243796504300,7.80150439453125,-0.17048200964927673,1.5055831670761108,0.37325724959373474
1684253243806530300,7.8115302734375,-0.01948331668972969,1.41754949092865,0.7310503125190735
1684253243816555300,7.82155517578125,0.10583225637674332,1.197900414466858,1.1584885120391846
1684253243826581200,7.831581298828125,0.2204769253730774,0.8225442171096802,1.571333885192871
1684253243836607200,7.841607177734375,0.3189702033996582,0.22773385047912598,1.8503365516662598
1684253243846632200,7.851632080078125,0.41405218839645386,-1.0320417881011963,1.8283995389938354
1684253243856658200,7.861658203125,0.5470246076583862,-3.294973611831665,1.2787675857543945
1684253243866684200,7.87168408203125,0.7577441930770874,-4.575252532958984,0.5372143387794495
1684253243876710100,7.881710205078125,1.0000101327896118,-4.524640083312988,-0.04814264178276062
1684253243886735000,7.891735107421875,1.1573981046676636,-3.631425619125366,-0.5661087036132812
1684253243896761000,7.901760986328125,1.1706219911575317,-2.8448994159698486,-1.265262246131897
1684253243906787300,7.911787353515625,1.067780613899231,-2.711073398590088,-2.3320934772491455
1684253243916812300,7.921812255859375,0.9317757487297058,-2.9039318561553955,-3.6745052337646484
1684253243926838300,7.93183837890625,0.7998208999633789,-3.0052168369293213,-5.137246608734131
1684253243936864300,7.9418642578125,0.5384466052055359,-2.604456663131714,-6.590283393859863
1684253243946889200,7.95188916015625,0.11679177731275558,-0.3738837242126465,-7.365981578826904
1684253243956915500,7.96191552734375,-0.29739660024642944,2.3317580223083496,-6.91805362701416
1684253243966941400,7.97194140625,-0.3886536955833435,2.538896083831787,-5.772082805633545
1684253243976966000,7.9819658203125,-0.2225680649280548,0.1442970186471939,-4.400112152099609
1684253243986991900,7.991991943359375,0.057514529675245285,-2.07216739654541,-2.9169540405273438
1684253243997017900,8.002017822265625,0.2590753436088562,-3.3824806213378906,-1.3995972871780396
1684253244007043800,8.0120439453125,0.6666955351829529,-3.0857932567596436,-0.401262104511261
1684253244017068800,8.02206884765625,1.3576821088790894,-1.3744652271270752,0.10380878299474716
1684253244027094800,8.0320947265625,2.332731246948242,0.7584869265556335,0.53703373670578
1684253244037120800,8.042120849609375,3.5352978706359863,2.226240396499634,0.8861541748046875
1684253244047145700,8.052145751953125,5.059608459472656,1.2554030418395996,0.9244757890701294
1684253244057171700,8.062171630859375,6.624018669128418,-1.0948376655578613,0.75908362865448
1684253244067197700,8.07219775390625,7.737547874450684,-2.969940185546875,0.7396851181983948
1684253244077223000,8.082222900390626,8.08954906463623,-3.769282341003418,0.9243851900100708
1684253244087249000,8.092248779296876,7.60557222366333,-3.8646183013916016,0.9835913181304932
1684253244097275000,8.10227490234375,6.375149250030518,-3.471463680267334,0.6020706295967102
1684253244107300900,8.11230078125,4.366525650024414,-0.9635194540023804,0.22844919562339783
1684253244117325800,8.122325927734375,1.96146821975708,3.7917428016662598,-0.3103519678115845
1684253244127351800,8.132351806640624,0.2844928205013275,7.058970928192139,-1.4148941040039062
1684253244137378000,8.1423779296875,-0.666428804397583,7.164119243621826,-2.254791736602783
1684253244147402800,8.15240283203125,-1.0449780225753784,5.72571325302124,-2.4744505882263184
1684253244157429000,8.162428955078125,-1.1916558742523193,4.202005863189697,-2.150362491607666
1684253244167455000,8.172455078125,-1.1380068063735962,2.8910319805145264,-1.5706613063812256
1684253244177479700,8.182479736328125,-0.8310868144035339,1.9058854579925537,-1.048282265663147
1684253244187506000,8.192505859375,-0.27918505668640137,1.2390183210372925,-0.6878182888031006
1684253244197532000,8.202531982421876,0.4848015308380127,0.9766517281532288,-0.5482286810874939
1684253244207556900,8.212556884765625,1.2958322763442993,1.1840111017227173,-0.5213125944137573
1684253244217582800,8.222582763671875,1.838966965675354,1.6764569282531738,-0.5103701949119568
1684253244227608800,8.23260888671875,1.9866770505905151,1.9627724885940552,-0.42340731620788574
1684253244237634000,8.242634033203124,1.8777590990066528,1.9925700426101685,-0.22310137748718262
1684253244247660000,8.252659912109374,1.5741571187973022,1.9764004945755005,0.009631281718611717
1684253244257686000,8.26268603515625,1.1818172931671143,1.9921448230743408,0.20240233838558197
1684253244267712000,8.2727119140625,0.8076485395431519,2.0914039611816406,0.33638858795166016
1684253244277737000,8.282737060546875,0.4867970049381256,2.2791495323181152,0.48147523403167725
1684253244287763000,8.292762939453125,0.2390773594379425,2.4904956817626953,0.679883599281311
1684253244297789000,8.302788818359375,0.0571347139775753,2.6981215476989746,0.9212453365325928
1684253244307814000,8.31281396484375,-0.08085905760526657,2.8633649349212646,1.1735575199127197
1684253244317840000,8.32283984375,-0.21550102531909943,3.0022027492523193,1.4413806200027466
1684253244327865900,8.332865966796875,-0.38480937480926514,3.156593084335327,1.725016713142395
1684253244337890800,8.342890869140625,-0.5697789788246155,3.3234939575195312,2.0096476078033447
1684253244347916800,8.352916748046875,-0.7113032341003418,3.387774705886841,2.3144805431365967
1684253244357942800,8.36294287109375,-0.7009920477867126,3.2791309356689453,2.7429256439208984
1684253244367967700,8.3729677734375,-0.5002069473266602,2.6662862300872803,3.350891351699829
1684253244377993700,8.38299365234375,0.6770846843719482,-2.79376482963562,3.517373561859131
1684253244388019700,8.393019775390625,2.4961366653442383,-10.013906478881836,4.3179216384887695
1684253244398045700,8.403045654296875,1.803627610206604,-8.034360885620117,6.005390644073486
1684253244408071000,8.41307080078125,-0.34273624420166016,-2.8797173500061035,5.52082633972168
1684253244418097000,8.423096923828124,-1.4673963785171509,-0.7776447534561157,2.9268715381622314
1684253244428123000,8.433122802734376,-1.6307947635650635,-2.7212910652160645,-2.552072286605835
1684253244438147800,8.44314794921875,-0.8234034180641174,3.953645944595337,-4.605743408203125
1684253244448173800,8.453173828125,-0.9549329876899719,6.192188262939453,-5.16715669631958
1684253244458200000,8.463199951171875,-1.5074700117111206,6.2157883644104,-4.814261436462402
1684253244468224800,8.473224853515624,-2.2538022994995117,5.4340338706970215,-4.231510162353516
1684253244478250800,8.483250732421874,-3.0030157566070557,3.98301100730896,-3.3902950286865234
1684253244488277000,8.493277099609376,-3.420625925064087,2.238248825073242,-2.5095794200897217
1684253244498303000,8.503302978515626,-3.2674849033355713,0.8585166931152344,-1.8219785690307617
1684253244508328000,8.513327880859375,-2.582700252532959,0.7234402298927307,-0.8483805060386658
1684253244518354000,8.52335400390625,-1.3809962272644043,2.354128837585449,0.9637700915336609
1684253244528380000,8.5333798828125,-0.21815837919712067,2.956691265106201,2.3436050415039062
1684253244538404900,8.54340478515625,0.5454886555671692,2.2200567722320557,3.010842800140381
1684253244548430800,8.553430908203126,0.9115415215492249,1.0701903104782104,3.324087142944336
1684253244558456800,8.563456787109375,0.9928880333900452,-0.18865111470222473,3.469676971435547
1684253244568482000,8.57348193359375,0.8556262254714966,-1.372675895690918,3.5227129459381104
1684253244578507800,8.5835078125,0.575038492679596,-2.331737995147705,3.500021457672119
1684253244588533800,8.59353369140625,0.2321641594171524,-3.0054750442504883,3.406144857406616
1684253244598559000,8.60355908203125,-0.11394105106592178,-3.425875663757324,3.264939069747925
1684253244608585000,8.6135849609375,-0.42999571561813354,-3.5895092487335205,3.1293821334838867
1684253244618611000,8.62361083984375,-0.6932976841926575,-3.420233964920044,3.0108420848846436
1684253244628636000,8.633635986328125,-0.9112682938575745,-2.983405828475952,2.9279229640960693
1684253244638662000,8.643661865234375,-1.020105004310608,-2.4170093536376953,2.886019706726074
1684253244648687900,8.65368798828125,-0.9762758016586304,-1.7023226022720337,2.743101119995117
1684253244658713900,8.6637138671875,-0.7815548181533813,-0.8662986159324646,2.4061214923858643
1684253244668738800,8.67373876953125,-0.5281591415405273,-0.16917875409126282,2.003870725631714
1684253244678764800,8.683764892578125,-0.29582732915878296,0.4468223750591278,1.6417601108551025
1684253244688790800,8.693790771484375,-0.1386529505252838,0.7956918478012085,1.3768911361694336
1684253244698815700,8.703815673828124,-0.07864394783973694,0.8170320391654968,1.266191005706787
1684253244708841700,8.713841796875,-0.08648771792650223,0.5263916254043579,1.2326182126998901
1684253244718867700,8.72386767578125,-0.10313114523887634,0.05469096451997757,1.1846792697906494
1684253244728893000,8.733892822265625,-0.09040902554988861,-0.46391844749450684,1.064152479171753
1684253244738918700,8.743918701171875,-0.00008045835420489311,-0.9169996380805969,0.8465200066566467
1684253244748944600,8.753944580078125,0.152169868350029,-1.219687581062317,0.5700393915176392
1684253244758971000,8.763970947265625,0.30779674649238586,-1.4199249744415283,0.33051782846450806
1684253244768995800,8.773995849609374,0.4367910325527191,-1.4457968473434448,0.15396878123283386
1684253244779022000,8.78402197265625,0.5346033573150635,-1.3736222982406616,0.11724325269460678
1684253244789048000,8.794048095703126,0.589516818523407,-1.198280930519104,0.23076140880584717
1684253244799072800,8.80407275390625,0.6028810739517212,-0.9364495873451233,0.44788944721221924
1684253244809099000,8.81409912109375,0.56528240442276,-0.6732703447341919,0.6778481006622314
1684253244819125000,8.824125,0.4721583425998688,-0.46520745754241943,0.8529176115989685
1684253244829150000,8.83414990234375,0.3540211319923401,-0.3236965239048004,0.9553920030593872
1684253244839176000,8.844176025390626,0.23647747933864594,-0.22706665098667145,1.0369523763656616
1684253244849202000,8.854201904296875,0.14285579323768616,-0.11859890073537827,1.1481250524520874
1684253244859227000,8.864226806640625,0.04170733690261841,-0.005182058084756136,1.2749788761138916
1684253244869252900,8.8742529296875,-0.06272608041763306,0.07271385192871094,1.3677884340286255
1684253244879278800,8.88427880859375,-0.16946423053741455,0.1452879160642624,1.4331061840057373
1684253244889304800,8.894304931640624,-0.264950156211853,0.2583611011505127,1.4849722385406494
1684253244899329800,8.904329833984375,-0.36266207695007324,0.4168367385864258,1.5071285963058472
1684253244909355800,8.914355712890625,-0.45194000005722046,0.6194741725921631,1.5283750295639038
1684253244919381800,8.9243818359375,-0.5079654455184937,0.9000483155250549,1.5421394109725952
1684253244929407000,8.934406982421875,-0.5300473570823669,1.2163426876068115,1.5533688068389893
1684253244939433000,8.944432861328124,-0.5203779935836792,1.5336663722991943,1.5561155080795288
1684253244949459000,8.954458984375,-0.47700947523117065,1.8783795833587646,1.5439411401748657
1684253244959484000,8.96448388671875,-0.4073267877101898,2.254403829574585,1.491324782371521
1684253244969510000,8.974510009765625,-0.32088613510131836,2.5397675037384033,1.3399152755737305
1684253244979536400,8.984536376953125,-0.24826227128505707,2.6274495124816895,1.0755109786987305
1684253244989561300,8.994561279296875,-0.19298294186592102,2.509131669998169,0.7135341763496399
1684253244999587300,9.00458740234375,-0.14942426979541779,2.239062547683716,0.30062249302864075
1684253245009613300,9.01461328125,-0.11550749838352203,1.8635735511779785,-0.1500457227230072
1684253245019638300,9.02463818359375,-0.10352513939142227,1.4135850667953491,-0.5799515843391418
1684253245029664300,9.034664306640625,-0.10891822725534439,0.9248219728469849,-0.9058837294578552
1684253245039690200,9.044690185546875,-0.1398889124393463,0.4157358705997467,-1.090726375579834
1684253245049716200,9.05471630859375,-0.20654737949371338,-0.30536967515945435,-1.2488651275634766
1684253245059741200,9.0647412109375,-0.3057943284511566,-1.2863115072250366,-1.440470576286316
1684253245069767200,9.07476708984375,-0.24650947749614716,-2.304224967956543,-1.5728765726089478
1684253245079793200,9.084793212890625,0.0088037746027112,-3.3957626819610596,-1.6007148027420044
1684253245089818000,9.094818115234375,0.3782859444618225,-4.453766822814941,-1.5380103588104248
1684253245099844000,9.104843994140625,0.8517709374427795,-5.123435020446777,-1.4619739055633545
1684253245109870000,9.1148701171875,1.301039695739746,-5.371335983276367,-1.3534784317016602
1684253245119895300,9.124895263671876,1.709955096244812,-5.051787376403809,-1.05633544921875
1684253245129921300,9.13492138671875,1.8630049228668213,-4.452739238739014,-0.39106497168540955
1684253245139947300,9.144947265625,1.6921024322509766,-3.696110963821411,0.6085466742515564
1684253245149973200,9.15497314453125,1.610946536064148,-2.4963881969451904,1.4897195100784302
1684253245159998200,9.164998291015625,1.7134886980056763,-1.082219123840332,1.968616247177124
1684253245170024200,9.175024169921874,1.838394045829773,0.16812187433242798,2.0994808673858643
1684253245180050200,9.18505029296875,1.8659991025924683,1.0803440809249878,2.092332124710083
1684253245190075100,9.1950751953125,1.7564661502838135,1.675315499305725,2.079317569732666
1684253245200101000,9.20510107421875,1.6448367834091187,2.342360258102417,2.0053470134735107
1684253245210127400,9.21512744140625,1.5798882246017456,3.2288801670074463,1.809499740600586
1684253245220152000,9.225152099609375,1.4770665168762207,4.808444023132324,1.2618345022201538
1684253245230178000,9.235177978515624,0.8112006187438965,7.723114967346191,-1.1904706954956055
1684253245240204300,9.245204345703126,-0.1351616382598877,7.394425392150879,-3.2419846057891846
1684253245250229200,9.255229248046875,-1.0502245426177979,5.263986110687256,-4.2980804443359375
1684253245260255200,9.265255126953125,-1.7685261964797974,2.3913142681121826,-4.61506986618042
1684253245270281200,9.27528125,-2.2861201763153076,-0.39367926120758057,-4.583915710449219
1684253245280307200,9.28530712890625,-2.6231303215026855,-2.673844575881958,-4.465749263763428
1684253245290332400,9.29533251953125,-2.7975823879241943,-4.280509948730469,-4.470123291015625
1684253245300358400,9.3053583984375,-2.754166841506958,-5.218523979187012,-4.6696953773498535
1684253245310384400,9.31538427734375,-2.6968302726745605,-4.133089065551758,-4.855745315551758
1684253245320409300,9.325409423828125,-2.8334052562713623,-1.7262084484100342,-4.356298446655273
1684253245330435300,9.335435302734375,-2.958441972732544,-0.07040449976921082,-3.4248881340026855
1684253245340461300,9.34546142578125,-2.8664934635162354,0.32494255900382996,-2.522700786590576
1684253245350486300,9.355486328125,-2.4506239891052246,-1.0038982629776,-2.0334160327911377
1684253245360512300,9.36551220703125,-1.8868610858917236,-3.3179664611816406,-1.6095889806747437
1684253245370538200,9.375538330078125,-1.3775343894958496,-5.133572101593018,-0.8469369411468506
1684253245380563200,9.385563232421875,-0.911484956741333,-5.702164173126221,-0.08019740879535675
1684253245390589200,9.395589111328125,-0.3585968613624573,-5.170921802520752,0.44328418374061584
1684253245400615200,9.405615234375,0.1836531013250351,-4.179285526275635,0.6494975686073303
1684253245410641200,9.41564111328125,0.6713461875915527,-3.476978063583374,0.5404946804046631
1684253245420666000,9.425666015625,1.2805709838867188,-3.4180374145507812,0.19727660715579987
1684253245430692000,9.435692138671875,1.7491450309753418,-3.6000380516052246,-0.3148009479045868
1684253245440718000,9.445718017578125,1.6653563976287842,-3.0232977867126465,-1.013005256652832
1684253245450743300,9.455743408203125,1.1221013069152832,-1.7178049087524414,-1.7142384052276611
1684253245460769300,9.465769287109374,0.5326663851737976,-0.09811144322156906,-2.338217258453369
1684253245470795300,9.475795166015626,0.041723571717739105,0.9748121500015259,-2.6753876209259033
1684253245480820200,9.4858203125,-0.2997299134731293,1.4043294191360474,-2.7137064933776855
1684253245490846200,9.49584619140625,-0.4763505160808563,1.605900526046753,-2.560817003250122
1684253245500872200,9.5058720703125,-0.5146477818489075,1.69157075881958,-2.2694039344787598
1684253245510897200,9.515897216796875,-0.42817413806915283,1.7091765403747559,-1.8991280794143677
1684253245520923100,9.525923095703124,-0.276676744222641,1.8150068521499634,-1.4805289506912231
1684253245530949400,9.535949462890626,-0.11810499429702759,1.9444036483764648,-0.9958795309066772
1684253245540975400,9.545975341796876,0.028175514191389084,2.1313958168029785,-0.47658902406692505
1684253245551000000,9.556,0.16460387408733368,2.4711570739746094,0.0434904471039772
1684253245561026300,9.5660263671875,0.2830621004104614,3.050036907196045,0.5940012335777283
1684253245571052300,9.57605224609375,0.37274977564811707,3.9079580307006836,1.2265905141830444
1684253245581077200,9.5860771484375,0.3982732594013214,4.755545139312744,1.9538440704345703
1684253245591103200,9.596103271484376,0.3801722526550293,5.161325931549072,2.6692657470703125
1684253245601129200,9.606129150390625,0.40911468863487244,4.769780158996582,3.0069165229797363
1684253245611154400,9.616154541015625,0.4514618515968323,2.5275375843048096,2.0067758560180664
1684253245621180400,9.626180419921875,0.19955289363861084,-2.427582025527954,-1.1365184783935547
1684253245631206400,9.636206298828125,0.020130429416894913,-1.3932057619094849,-1.9017587900161743
1684253245641231400,9.6462314453125,-0.39830145239830017,-0.9402822256088257,-0.3089112341403961
1684253245651257300,9.65625732421875,-1.189927101135254,-3.831305980682373,1.2693291902542114
1684253245661283300,9.666283447265625,-1.1651599407196045,-4.7166428565979,1.965131402015686
1684253245671309300,9.676309326171875,-0.0749158039689064,-1.6377613544464111,2.319828510284424
1684253245681334300,9.686334228515625,0.31159594655036926,-0.019345151260495186,2.288510799407959
1684253245691360300,9.6963603515625,0.26034826040267944,0.8588235974311829,1.965551733970642
1684253245701386200,9.70638623046875,0.05887371674180031,1.154843807220459,1.5268609523773193
1684253245711411200,9.7164111328125,-0.23300215601921082,1.2699366807937622,1.2573267221450806
1684253245721437200,9.726437255859375,-0.4798135459423065,1.1700767278671265,1.1463054418563843
1684253245731463200,9.736463134765625,-0.6055297255516052,0.9701099395751953,1.1161381006240845
1684253245741488000,9.746488037109375,-0.698341429233551,0.769894003868103,1.0827436447143555
1684253245751514000,9.75651416015625,-0.7296792268753052,0.6046580672264099,0.9965794682502747
1684253245761540000,9.7665400390625,-0.5948614478111267,0.5439795255661011,0.8668257594108582
1684253245771565300,9.7765654296875,-0.40779802203178406,0.5406734347343445,0.7235215902328491
1684253245781591300,9.78659130859375,-0.3526005446910858,0.39682382345199585,0.5819529891014099
1684253245791617300,9.7966171875,-0.5174223780632019,0.0778694823384285,0.4431716203689575
1684253245801643000,9.80664306640625,-0.8210262060165405,-0.23923656344413757,0.3133571743965149
1684253245811668200,9.816668212890624,-1.0951589345932007,-0.44814372062683105,0.31507596373558044
1684253245821694200,9.826694091796876,-1.2353624105453491,-0.5588340163230896,0.4391803443431854
1684253245831720400,9.836720458984376,-1.163940668106079,-0.8760345578193665,1.6807900667190552
1684253245841745200,9.8467451171875,-0.9158775210380554,-1.289467453956604,3.615006923675537
1684253245851771400,9.856771484375,-0.6086174845695496,-1.5316537618637085,4.554023742675781
1684253245861797400,9.86679736328125,-0.2907223403453827,-1.6359617710113525,4.627405643463135
1684253245871822000,9.876822021484376,0.02014990709722042,-1.9145523309707642,4.259805202484131
1684253245881848300,9.886848388671876,0.24335582554340363,-2.893282175064087,3.7679712772369385
1684253245891874300,9.896874267578125,0.3847046494483948,-4.1521687507629395,3.223773956298828
1684253245901899300,9.906899169921875,0.5240228772163391,-4.71578311920166,2.7658751010894775
1684253245911925200,9.91692529296875,0.612517774105072,-4.186064720153809,2.5123047828674316
1684253245921951200,9.926951171875,0.5620612502098083,-2.856471061706543,2.282876968383789
1684253245931977200,9.936977294921874,0.39545053243637085,-1.3116123676300049,1.8223869800567627
1684253245942002200,9.947002197265626,0.17158575356006622,-0.00911133736371994,1.07697594165802
1684253245952028200,9.957028076171875,-0.17409197986125946,0.8943261504173279,0.28134655952453613
1684253245962054100,9.96705419921875,-0.6688218116760254,1.514435887336731,-0.30612093210220337
1684253245972079400,9.977079345703125,-1.0888477563858032,2.0509836673736572,-0.5891724824905396
1684253245982105300,9.987105224609374,-1.2660540342330933,2.5365350246429443,-0.717582643032074
1684253245992131600,9.997131591796874,-1.1508359909057617,2.9732937812805176,-0.8563780784606934
1684253246002156300,10.00715625,-0.9257796406745911,3.3332228660583496,-0.9879395961761475
1684253246012182500,10.0171826171875,-0.7241412997245789,3.615605115890503,-1.0031465291976929
1684253246022208500,10.02720849609375,-0.6418038010597229,3.8042261600494385,-0.8531943559646606
1684253246032234500,10.037234375,-0.7295458316802979,3.845229148864746,-0.567720353603363
1684253246042259500,10.047259521484374,-1.0252553224563599,3.7514541149139404,-0.2973194718360901
1684253246052285400,10.057285400390626,-1.5033351182937622,3.5686306953430176,-0.2102869153022766
1684253246062311400,10.0673115234375,-2.0709266662597656,3.3163352012634277,-0.26880693435668945
1684253246072336400,10.07733642578125,-2.561974287033081,3.251319408416748,-0.4322541058063507
1684253246082362400,10.0873623046875,-2.809730291366577,3.287111520767212,-0.6443935036659241
1684253246092388400,10.097388427734375,-2.870241403579712,3.434278964996338,-0.9045454263687134
1684253246102413300,10.107413330078124,-2.775871753692627,3.5785324573516846,-1.208404302597046
1684253246112439300,10.117439208984376,-2.501544713973999,3.6149001121520996,-1.4403427839279175
1684253246122465300,10.12746533203125,-2.057868719100952,3.516444444656372,-1.5581597089767456
1684253246132490500,10.137490478515625,-1.3813049793243408,3.2584962844848633,-1.5491927862167358
1684253246142516500,10.1475166015625,-0.5963459610939026,2.8512625694274902,-1.3765678405761719
1684253246152542500,10.15754248046875,0.03205864131450653,2.2488763332366943,-1.1336205005645752
1684253246162568400,10.167568359375,0.39940494298934937,1.3399404287338257,-0.9204953908920288
1684253246172593400,10.177593505859376,0.6682407259941101,0.44804179668426514,-0.7797915935516357
1684253246182619400,10.187619384765625,0.860053300857544,-0.3378288149833679,-0.6972842216491699
1684253246192645400,10.197645263671875,1.0837149620056152,-1.0582109689712524,-0.6511218547821045
1684253246202670300,10.20767041015625,1.3623125553131104,-1.7273437976837158,-0.6337221264839172
1684253246212696300,10.2176962890625,1.5919902324676514,-2.351961374282837,-0.630744218826294
1684253246222722300,10.227722412109374,1.7265498638153076,-2.9127588272094727,-0.6557177305221558
1684253246232747300,10.237747314453125,1.7776445150375366,-3.2555899620056152,-0.798653244972229
1684253246242773200,10.247773193359375,1.7308887243270874,-3.3703157901763916,-1.111795425415039
1684253246252799200,10.25779931640625,1.633791446685791,-3.1307663917541504,-1.628152847290039
1684253246262824200,10.26782421875,1.40894615650177,-2.6384434700012207,-2.297736883163452
1684253246272850200,10.27785009765625,0.9629047513008118,-1.9327086210250854,-3.146005630493164
1684253246282876200,10.287876220703126,0.3486466109752655,-1.327223539352417,-3.83293080329895
1684253246292901400,10.2979013671875,-0.1048264428973198,-1.120814323425293,-4.031175136566162
1684253246302927400,10.30792724609375,-0.2455579936504364,-0.9200167655944824,-3.8486616611480713
1684253246312953600,10.31795361328125,-0.3262852728366852,-0.8018903732299805,-3.569143533706665
1684253246322979300,10.327979248046875,-0.3515506684780121,-0.8209589123725891,-3.272376775741577
1684253246333004500,10.338004638671874,-0.34739091992378235,-0.8863814473152161,-3.0630364418029785
1684253246343030500,10.348030517578126,-0.41930294036865234,-1.0530644655227661,-2.9865283966064453
1684253246353056500,10.358056396484375,-0.5706302523612976,-1.2360599040985107,-2.9554576873779297
1684253246363081500,10.36808154296875,-0.7322758436203003,-1.387588381767273,-2.9865870475769043
1684253246373107500,10.378107421875,-0.8820968866348267,-1.4547781944274902,-3.111215829849243
1684253246383133400,10.388133544921875,-0.9253881573677063,-1.4540867805480957,-3.3263792991638184
1684253246393158400,10.398158447265626,-0.784194827079773,-1.4471755027770996,-3.5067365169525146
1684253246403184400,10.408184326171876,-0.4505939185619354,-1.4740092754364014,-3.4457590579986572
1684253246413210400,10.41821044921875,0.05988291651010513,-1.3126765489578247,-3.116525173187256
1684253246423235300,10.4282353515625,0.6152025461196899,-0.8502781987190247,-2.565981149673462
1684253246433261300,10.43826123046875,1.1438815593719482,-0.016169795766472816,-1.7913835048675537
1684253246443287300,10.448287353515624,1.4536128044128418,0.825299859046936,-1.0525416135787964
1684253246453313300,10.458313232421874,1.5518391132354736,1.4470561742782593,-0.4713355302810669
1684253246463338500,10.46833837890625,1.543890118598938,1.5020174980163574,-0.03237654268741608
1684253246473364500,10.478364501953125,1.5252517461776733,0.9890931844711304,0.3311063349246979
1684253246483390200,10.48839013671875,1.417383074760437,0.28879714012145996,0.6188890933990479
1684253246493415400,10.49841552734375,1.2100738286972046,-0.29812538623809814,0.889883279800415
1684253246503441400,10.50844140625,0.9773688912391663,-0.6699863076210022,1.1876226663589478
1684253246513467400,10.51846728515625,0.7862540483474731,-0.7671840786933899,1.296506404876709
1684253246523492400,10.528492431640625,0.6566672921180725,-0.8530318737030029,1.0320792198181152
1684253246533518300,10.538518310546875,0.6112198233604431,-0.7809584140777588,0.3446207344532013
1684253246543544300,10.54854443359375,0.6245154142379761,-0.4240061938762665,-0.5405375957489014
1684253246553569300,10.5585693359375,0.6997243762016296,0.016788635402917862,-1.3849985599517822
1684253246563595300,10.56859521484375,0.7814101576805115,0.1312270611524582,-1.9293817281723022
1684253246573621200,10.578621337890626,1.1661301851272583,-0.45887207984924316,-1.9429454803466797
1684253246583647200,10.588647216796875,1.3604823350906372,-0.9110315442085266,-1.7152739763259888
1684253246593672200,10.598672119140625,1.1913421154022217,-0.9787964820861816,-1.3260174989700317
1684253246603698200,10.6086982421875,0.8587450385093689,-0.8278577923774719,-0.8089053630828857
1684253246613724400,10.618724365234375,0.5360640287399292,-0.7724812030792236,-0.20747216045856476
1684253246623749400,10.628749267578126,0.25124749541282654,-0.8271657228469849,0.38200125098228455
1684253246633775400,10.638775390625,-0.1051139310002327,-0.5040968060493469,0.11165357381105423
1684253246643801300,10.64880126953125,-0.39149588346481323,-0.07594814151525497,-0.42930981516838074
1684253246653826600,10.65882666015625,-0.28998619318008423,0.055986396968364716,-0.3520788550376892
1684253246663852500,10.6688525390625,-0.194251149892807,0.40334513783454895,-0.33230355381965637
1684253246673878500,10.67887841796875,-0.11480177193880081,0.7807536721229553,-0.3549182116985321
1684253246683903500,10.688903564453126,-0.02530624531209469,1.0303534269332886,-0.3828241527080536
1684253246693929500,10.698929443359376,0.11122658103704453,1.0763499736785889,-0.27425476908683777
1684253246703955500,10.70895556640625,0.14731401205062866,0.7107864022254944,0.17802323400974274
1684253246713981400,10.7189814453125,0.06917941570281982,0.14731621742248535,0.9674957990646362
1684253246724006400,10.72900634765625,-0.07749365270137787,-0.4508713185787201,1.8199489116668701
1684253246734032400,10.739032470703124,-0.2692825496196747,-0.9899945855140686,2.6303470134735107
1684253246744058400,10.749058349609374,-0.429862380027771,-1.2725975513458252,3.1672816276550293
1684253246754083300,10.759083251953125,-0.5329131484031677,-1.208577275276184,3.277789354324341
1684253246764109300,10.769109375,-0.5582238435745239,-0.697891891002655,3.0836353302001953
1684253246774135300,10.77913525390625,-0.4132001996040344,0.1627873033285141,2.6906213760375977
1684253246784160300,10.78916015625,-0.06240462511777878,1.0731431245803833,2.2392256259918213
1684253246794186200,10.799186279296874,0.0760640874505043,1.7161437273025513,2.0739736557006836
1684253246804212200,10.809212158203126,0.21506723761558533,1.5967880487442017,2.079847574234009
1684253246814237400,10.819237548828125,0.47200995683670044,1.1935487985610962,2.0927646160125732
1684253246824263400,10.829263427734375,0.5308418869972229,0.7471462488174438,2.159069061279297
1684253246834289400,10.839289306640625,0.5546765923500061,0.20870959758758545,2.2350661754608154
1684253246844315400,10.8493154296875,0.6851712465286255,-0.029399633407592773,2.13053297996521
1684253246854340400,10.85934033203125,0.8386402726173401,0.3540768027305603,1.7302590608596802
1684253246864366300,10.869366455078126,0.9811478853225708,1.5128003358840942,1.0584734678268433
1684253246874392300,10.879392333984375,0.9022482633590698,1.966760516166687,0.6421877145767212
1684253246884417300,10.889417236328125,0.8492119312286377,2.1887691020965576,0.30582937598228455
1684253246894443300,10.899443359375,0.9628417491912842,2.198946237564087,0.056217826902866364
1684253246904469200,10.90946923828125,0.9340506196022034,1.4898386001586914,-0.4432436525821686
1684253246914494200,10.919494140625,0.5935626029968262,-0.27237576246261597,-0.8878348469734192
1684253246924520200,10.929520263671876,0.22546473145484924,-2.066312551498413,-0.6285175085067749
1684253246934546400,10.93954638671875,-0.08558260649442673,-1.921852469444275,0.3314530551433563
1684253246944571100,10.949571044921875,-0.20144982635974884,-1.454020619392395,0.7623171210289001
1684253246954597400,10.959597412109375,-0.032357268035411835,-1.5104700326919556,0.4184292256832123
1684253246964623400,10.969623291015624,0.9063593149185181,-1.623999834060669,-0.1521221548318863
1684253246974649000,10.979649169921874,2.8116257190704346,-1.2729029655456543,-0.5271223783493042
1684253246984674300,10.98967431640625,4.007079601287842,-0.7786043286323547,-0.9878087639808655
1684253246994700300,10.9997001953125,4.534419059753418,-0.6362249851226807,-1.4832857847213745
1684253247004726300,11.009726318359375,4.5568976402282715,-1.0036767721176147,-1.8261072635650635
1684253247014751200,11.019751220703125,4.089550495147705,-0.9971359372138977,-1.9652087688446045
1684253247024777200,11.029777099609374,3.5133302211761475,-0.9229272603988647,-1.8478655815124512
1684253247034803200,11.03980322265625,3.0522825717926025,-0.8294099569320679,-1.568455696105957
