time,seconds_elapsed,z,y,x
1684253134037756000,0.013755859375,2.055687427520752,2.194535970687866,1.237916111946106
1684253134047782000,0.023781982421875,2.5536036491394043,2.4132275581359863,1.4294344186782837
1684253134057808000,0.033807861328125,2.8036632537841797,2.8200628757476807,1.4377741813659668
1684253134067832800,0.043832763671875,3.017043352127075,3.2319791316986084,1.3374974727630615
1684253134077858800,0.05385888671875,3.311279058456421,3.273888349533081,1.17352294921875
1684253134087884800,0.063884765625,3.6110894680023193,2.8462347984313965,0.9833941459655762
1684253134097910000,0.073909912109375,3.868389844894409,2.1464004516601562,0.72537761926651
1684253134107936000,0.08393603515625,3.99967885017395,1.22530198097229,0.37436527013778687
1684253134117962000,0.0939619140625,3.939517021179199,0.4397318661212921,-0.1363266110420227
1684253134127988000,0.103988037109375,3.6336023807525635,0.07371553778648376,-0.7883094549179077
1684253134138013000,0.114012939453125,3.208065986633301,-0.04046070575714111,-1.2343007326126099
1684253134148039000,0.124038818359375,2.7256219387054443,-0.4028591215610504,-1.3103796243667603
1684253134158065000,0.13406494140625,0.8562146425247192,-0.4658800959587097,-0.5014081001281738
1684253134168089900,0.14408984375,-0.917930543422699,-0.46256789565086365,0.2995852530002594
1684253134178115800,0.15411572265625,-1.573195219039917,-0.4220106899738312,0.6770220398902893
1684253134188141800,0.164141845703125,-2.047842502593994,0.7950566411018372,0.9514163136482239
1684253134198166800,0.174166748046875,-2.874333620071411,1.957575798034668,1.2172635793685913
1684253134208192800,0.18419287109375,-3.862151622772217,2.7277398109436035,1.5585769414901733
1684253134218219000,0.194218994140625,-4.591965198516846,3.1878550052642822,1.8990846872329712
1684253134228245000,0.204244873046875,-4.907819747924805,4.021425247192383,2.209873676300049
1684253134238270000,0.21427001953125,-4.992836952209473,5.308272361755371,2.565427780151367
1684253134248296000,0.2242958984375,-4.998409271240234,6.867302894592285,2.987668752670288
1684253134258322000,0.234322021484375,-4.980991840362549,8.144864082336426,3.565518617630005
1684253134268347100,0.24434716796875,-4.922733306884766,8.97319221496582,4.272292613983154
1684253134278373000,0.254373046875,-4.80862283706665,9.19247055053711,5.042342185974121
1684253134288399000,0.264399169921875,-4.6903557777404785,8.931676864624023,5.778446674346924
1684253134298424000,0.274424072265625,-4.662079811096191,8.437485694885254,6.396405220031738
1684253134308450000,0.284449951171875,-4.855947017669678,7.347517967224121,6.671193599700928
1684253134318476000,0.29447607421875,-5.919976234436035,5.383669376373291,5.971407890319824
1684253134328502000,0.304501953125,-7.259018898010254,4.958126544952393,5.477917194366455
1684253134338527000,0.31452685546875,-8.387263298034668,4.091187477111816,5.041628837585449
1684253134348553000,0.324552978515625,-9.073559761047363,3.0470263957977295,4.715576171875
1684253134358579000,0.334578857421875,-9.199882507324219,2.2799577713012695,4.486976146697998
1684253134368604000,0.34460400390625,-8.912949562072754,1.5766453742980957,4.263030052185059
1684253134378630000,0.3546298828125,-8.435781478881836,1.0519291162490845,3.9662973880767822
1684253134388655900,0.36465576171875,-7.947960376739502,0.8188905119895935,3.676133871078491
1684253134398680800,0.374680908203125,-7.643091201782227,0.5554477572441101,3.3640542030334473
1684253134408706800,0.384706787109375,-7.460446834564209,0.2306893914937973,3.004878044128418
1684253134418732800,0.39473291015625,-7.279193878173828,-0.07054277509450912,2.5740649700164795
1684253134428758800,0.4047587890625,-6.960729598999023,-0.3682312071323395,2.0303854942321777
1684253134438784000,0.414783935546875,-6.475411891937256,-0.4394248425960541,1.5363928079605103
1684253134448810000,0.42481005859375,-5.968709468841553,-0.4901793897151947,1.2076584100723267
1684253134458836000,0.4348359375,-5.491655349731445,-0.7138803601264954,1.0581506490707397
1684253134468861000,0.44486083984375,-4.983409404754639,-0.9028907418251038,1.079349398612976
1684253134478887000,0.454886962890625,-4.407749652862549,-1.0372915267944336,1.2408244609832764
1684253134488913000,0.464912841796875,-3.7247564792633057,-1.2331324815750122,1.5318539142608643
1684253134498937900,0.474937744140625,-2.955963373184204,-1.5595413446426392,1.8499810695648193
1684253134508963800,0.4849638671875,-2.231065511703491,-2.060614585876465,2.0165114402770996
1684253134518990000,0.494989990234375,-1.5862622261047363,-2.456819534301758,1.984552264213562
1684253134529016000,0.50501611328125,-0.9675816297531128,-2.627812385559082,1.7385605573654175
1684253134539041000,0.515041015625,-0.3396206796169281,-2.6514925956726074,1.3477979898452759
1684253134549067000,0.52506689453125,0.321988970041275,-2.606565475463867,0.9077370166778564
1684253134559093000,0.535093017578125,0.9928842186927795,-2.445375442504883,0.4983426034450531
1684253134569118000,0.545117919921875,1.6271260976791382,-2.2118260860443115,0.15044349431991577
1684253134579144000,0.55514404296875,2.1727824211120605,-1.9470946788787842,-0.16739270091056824
1684253134589170000,0.565169921875,2.6587088108062744,-1.5434285402297974,-0.45248809456825256
1684253134599195000,0.57519482421875,3.0235109329223633,-1.0551410913467407,-0.6054598689079285
1684253134609220900,0.585220947265625,3.1217474937438965,-0.6037469506263733,-0.6905359029769897
1684253134619246800,0.595246826171875,2.7013702392578125,-0.35639896988868713,-1.0363889932632446
1684253134629272800,0.60527294921875,1.7269971370697021,-0.372508704662323,-2.6629250049591064
1684253134639298000,0.615298095703125,0.8482729196548462,0.5194256901741028,-4.512638568878174
1684253134649324000,0.625323974609375,0.08834975957870483,1.7103643417358398,-4.968753814697266
1684253134659350000,0.63535009765625,-0.2522526681423187,1.7878962755203247,-4.188032627105713
1684253134669375000,0.645375,-0.17298634350299835,0.8382205963134766,-3.1019198894500732
1684253134679401000,0.65540087890625,-0.10930268466472626,0.14847664535045624,-2.1186745166778564
1684253134689427000,0.665427001953125,0.2108399122953415,0.0009883904131129384,-1.7729843854904175
1684253134699452000,0.675451904296875,1.0172092914581299,0.017901800572872162,-1.6799490451812744
1684253134709478000,0.685477783203125,1.8906947374343872,0.15916119515895844,-1.2632399797439575
1684253134719504000,0.69550390625,2.3033530712127686,0.6418753266334534,-0.8454480767250061
1684253134729529900,0.70552978515625,2.2301087379455566,1.2192020416259766,-0.5188111066818237
1684253134739554800,0.715554931640625,2.0828075408935547,1.3150914907455444,-0.2920950949192047
1684253134749580800,0.725580810546875,1.568587303161621,0.9596220850944519,0.14304278790950775
1684253134759606800,0.735606689453125,0.4587600529193878,0.6094807386398315,0.7684149146080017
1684253134769631700,0.7456318359375,-0.8110242486000061,0.5473028421401978,1.2001093626022339
1684253134779657700,0.75565771484375,-1.7773947715759277,0.8716787099838257,1.19998037815094
1684253134789683700,0.76568359375,-2.252903699874878,1.3299099206924438,0.9531869292259216
1684253134799709000,0.775708984375,-2.2013425827026367,1.3434624671936035,0.6029731035232544
1684253134809735000,0.78573486328125,-1.835656762123108,1.2915966510772705,0.3044426441192627
1684253134819761200,0.79576123046875,-1.3831515312194824,1.1846758127212524,0.08539266139268875
1684253134829785900,0.805785888671875,-1.143471598625183,0.7118246555328369,-0.08055130392313004
1684253134839812000,0.81581201171875,-1.2453908920288086,0.3520412743091583,0.0246624406427145
1684253134849838000,0.825838134765625,-1.7115100622177124,-0.09614527970552444,0.5737449526786804
1684253134859864000,0.835864013671875,-2.1262669563293457,-0.6352494955062866,1.2648502588272095
1684253134869889000,0.845888916015625,-1.9993760585784912,-1.4441367387771606,1.4691301584243774
1684253134879915000,0.8559150390625,-1.6023476123809814,-2.188004732131958,0.8911084532737732
1684253134889941000,0.86594091796875,-1.443179726600647,-2.2539589405059814,-0.194468155503273
1684253134899966000,0.875966064453125,-1.4958665370941162,-1.1338067054748535,-0.9664531350135803
1684253134909992000,0.885991943359375,-1.4852447509765625,-0.8057363629341125,-1.1386255025863647
1684253134920018000,0.896017822265625,-1.0884674787521362,-1.2444218397140503,-1.0139214992523193
1684253134930043000,0.90604296875,-0.37196531891822815,-2.1724660396575928,-0.5587800741195679
1684253134940068900,0.91606884765625,0.39871224761009216,-2.757122039794922,-0.12052609771490097
1684253134950094800,0.9260947265625,1.1568681001663208,-2.6963725090026855,0.1661434769630432
1684253134960120800,0.936120849609375,1.6915537118911743,-2.4497487545013428,0.399857759475708
1684253134970146000,0.94614599609375,1.6560802459716797,-2.2995221614837646,0.645984411239624
1684253134980172000,0.956172119140625,1.0186442136764526,-2.4031190872192383,0.9125987887382507
1684253134990198000,0.966197998046875,0.16020220518112183,-2.5316884517669678,0.9823818206787109
1684253135000223000,0.976222900390625,-0.46719321608543396,-2.800076723098755,0.8990686535835266
1684253135010249000,0.9862490234375,-0.9623845815658569,-0.6918848156929016,0.4028652608394623
1684253135020275000,0.99627490234375,-1.084955096244812,0.8226056694984436,-0.46587392687797546
1684253135030300000,1.0062998046875,-0.9355806708335876,-0.4415822923183441,-1.2082228660583496
1684253135040326000,1.016325927734375,-1.0691449642181396,-0.6756908893585205,-1.7960530519485474
1684253135050351900,1.026351806640625,-0.8995085954666138,-0.5860955119132996,-2.1150007247924805
1684253135060377900,1.0363779296875,-0.7896580696105957,-0.3382323086261749,-2.0729095935821533
1684253135070402800,1.04640283203125,-0.946316659450531,0.07129446417093277,-1.897294044494629
1684253135080428800,1.0564287109375,-1.1222728490829468,0.7610232830047607,-1.7782950401306152
1684253135090454800,1.066454833984375,-1.2167435884475708,1.7647392749786377,-1.7773314714431763
1684253135100479700,1.076479736328125,-1.1501556634902954,2.6201932430267334,-1.9219080209732056
1684253135110505700,1.086505615234375,-1.1273036003112793,3.3436055183410645,-2.233637809753418
1684253135120532000,1.096531982421875,-1.449621319770813,3.6163108348846436,-2.4242382049560547
1684253135130557000,1.106556884765625,-1.9785605669021606,3.461618185043335,-2.05834698677063
1684253135140583000,1.1165830078125,-2.2665858268737793,3.451134204864502,-1.1426748037338257
1684253135150609000,1.12660888671875,-2.1635708808898926,3.3766119480133057,-0.06411799788475037
1684253135160635000,1.136634765625,-2.0738487243652344,2.853931188583374,0.869716227054596
1684253135170660000,1.14666015625,-1.9681299924850464,1.6184947490692139,1.5411195755004883
1684253135180686000,1.15668603515625,-1.7423362731933594,-0.06691257655620575,1.8156200647354126
1684253135190712000,1.166712158203125,-1.4602015018463135,-1.2829875946044922,1.6590062379837036
1684253135200737000,1.176737060546875,-1.179930329322815,-1.6506049633026123,1.1002346277236938
1684253135210763000,1.186762939453125,-1.0687929391860962,-1.77913236618042,0.3050914406776428
1684253135220789000,1.1967890625,-1.1794430017471313,-1.885483741760254,-0.43026280403137207
1684253135230814000,1.20681396484375,-1.2873716354370117,-1.9233437776565552,-1.0231472253799438
1684253135240840000,1.21683984375,-1.470373511314392,-2.0471010208129883,-1.3504810333251953
1684253135250866000,1.226865966796875,-1.581098198890686,-2.2928977012634277,-1.359628677368164
1684253135260892000,1.236891845703125,-1.431862473487854,-2.675936460494995,-1.0224711894989014
1684253135270916900,1.246916748046875,-0.5649933815002441,-3.8695127964019775,-0.6341163516044617
1684253135280942800,1.25694287109375,0.6463567614555359,-5.4307451248168945,-0.38244912028312683
1684253135290968800,1.26696875,1.3356451988220215,-5.53134298324585,-0.18435335159301758
1684253135300993800,1.276993896484375,1.6789577007293701,-2.6715524196624756,-0.0279264934360981
1684253135311019800,1.287019775390625,1.6989431381225586,-1.591116189956665,0.21955440938472748
1684253135321045800,1.297045654296875,0.9572610855102539,-2.21765398979187,0.6147043108940125
1684253135331071000,1.307071044921875,0.5195298194885254,-3.0435261726379395,0.9301799535751343
1684253135341097000,1.317096923828125,0.3094008266925812,-2.1042442321777344,0.8901746869087219
1684253135351123000,1.327123046875,0.19529448449611664,0.19300787150859833,0.386505126953125
1684253135361148000,1.33714794921875,0.2969546914100647,3.131237030029297,-0.11270366609096527
1684253135371174000,1.347173828125,-0.289531946182251,4.978989601135254,-0.4150957763195038
1684253135381200000,1.357199951171875,-2.5573019981384277,3.695525646209717,-1.5481458902359009
1684253135391225900,1.367225830078125,-4.650012493133545,2.9452435970306396,-2.223127841949463
1684253135401250800,1.377250732421875,-6.290439605712891,3.436107873916626,-2.063657283782959
1684253135411276800,1.38727685546875,-7.802337646484375,4.162258148193359,-1.5986638069152832
1684253135421303000,1.397302978515625,-9.621065139770508,4.298208713531494,-1.1691579818725586
1684253135431327700,1.40732763671875,-11.488313674926758,3.320904493331909,-0.940991997718811
1684253135441354000,1.41735400390625,-12.57143497467041,2.726499319076538,-0.6435144543647766
1684253135451380000,1.4273798828125,-12.994153022766113,2.961211681365967,-0.21292977035045624
1684253135461405000,1.437405029296875,-13.081685066223145,2.8817296028137207,0.2063330113887787
1684253135471431000,1.447430908203125,-13.22511100769043,2.4364216327667236,0.6720735430717468
1684253135481457000,1.457456787109375,-13.45101547241211,1.8775639533996582,1.1354451179504395
1684253135491483000,1.46748291015625,-12.666146278381348,0.9245719313621521,1.4240065813064575
1684253135501508000,1.477508056640625,-9.516950607299805,0.3499637246131897,0.9848338961601257
1684253135511534000,1.4875341796875,-4.174978256225586,0.7610857486724854,-0.3900581896305084
1684253135521560000,1.49756005859375,1.665230393409729,1.57936429977417,-2.1988580226898193
1684253135531585000,1.5075849609375,6.028131008148193,1.6183545589447021,-3.604952573776245
1684253135541611000,1.517611083984375,8.088550567626953,1.0314754247665405,-4.375113010406494
1684253135551637000,1.527636962890625,8.079367637634277,0.5189464092254639,-4.6942524909973145
1684253135561662000,1.537661865234375,6.790621757507324,0.33627623319625854,-4.759938716888428
1684253135571688000,1.54768798828125,5.068295955657959,0.43342462182044983,-4.769834518432617
1684253135581714000,1.5577138671875,3.33439302444458,0.6898468136787415,-4.802913188934326
1684253135591740000,1.567739990234375,1.73048996925354,1.063551425933838,-4.726346492767334
1684253135601764900,1.577764892578125,0.4510887861251831,1.3529963493347168,-4.444056034088135
1684253135611790800,1.587790771484375,-0.41535627841949463,1.7845274209976196,-3.8006415367126465
1684253135621816800,1.59781689453125,-0.6323296427726746,3.6885788440704346,-2.03124737739563
1684253135631841800,1.607841796875,-0.5539229512214661,5.491916656494141,-0.1691969633102417
1684253135641867800,1.61786767578125,-0.5559143424034119,5.9266252517700195,0.8504140377044678
1684253135651893800,1.627893798828125,-0.45768600702285767,5.612304210662842,1.4839504957199097
1684253135661919000,1.6379189453125,-0.22366377711296082,5.064245700836182,1.9677907228469849
1684253135671945000,1.647945068359375,0.16885501146316528,4.431375026702881,2.3155627250671387
1684253135681971000,1.657970947265625,0.7361689209938049,3.7500720024108887,2.5155539512634277
1684253135691997000,1.667996826171875,1.2241966724395752,3.0675365924835205,2.5582921504974365
1684253135702022000,1.67802197265625,1.6186407804489136,2.4465713500976562,2.4323441982269287
1684253135712047900,1.6880478515625,1.9510586261749268,1.8377166986465454,2.2118141651153564
1684253135722074000,1.69807421875,2.2144975662231445,1.2435290813446045,1.9187015295028687
1684253135732098800,1.708098876953125,2.365804433822632,0.5451194047927856,1.684584617614746
1684253135742125000,1.718125,2.387631893157959,-0.09828617423772812,1.5474439859390259
1684253135752151000,1.728151123046875,2.302316665649414,-0.5573991537094116,1.4933773279190063
1684253135762176000,1.738176025390625,2.1398181915283203,-0.9225773811340332,1.4747800827026367
1684253135772202000,1.748201904296875,1.9470151662826538,-1.2294625043869019,1.4860892295837402
1684253135782228000,1.75822802734375,1.7462095022201538,-1.4956514835357666,1.5130085945129395
1684253135792254000,1.76825390625,1.5173534154891968,-1.6604106426239014,1.5371445417404175
1684253135802279000,1.77827880859375,1.259832739830017,-1.752061128616333,1.552687644958496
1684253135812305000,1.788304931640625,0.9619965553283691,-1.709555983543396,1.5919605493545532
1684253135822331000,1.798330810546875,0.6538662910461426,-1.1748565435409546,1.7352443933486938
1684253135832356000,1.808356201171875,0.37558668851852417,0.5802574753761292,2.2160274982452393
1684253135842382000,1.818382080078125,0.10033415257930756,3.094722032546997,1.7913711071014404
1684253135852407800,1.82840771484375,-0.11986745893955231,3.3975024223327637,0.11616694927215576
1684253135862433000,1.83843310546875,-0.29941242933273315,2.350368022918701,-0.9923651218414307
1684253135872459500,1.84845947265625,-0.5212204456329346,1.167759895324707,-1.2685661315917969
1684253135882485500,1.858485595703125,-0.7529113292694092,0.1324470490217209,-1.1589738130569458
1684253135892510500,1.868510498046875,-0.9413381814956665,-0.638852596282959,-0.9636616110801697
1684253135902536400,1.878536376953125,-1.0084072351455688,-1.187090516090393,-0.7855629324913025
1684253135912562400,1.8885625,-0.9789998531341553,-1.520996332168579,-0.6302140355110168
1684253135922588400,1.89858837890625,-0.8579401969909668,-1.624635100364685,-0.49012911319732666
1684253135932613400,1.90861328125,-0.6924369931221008,-1.5794668197631836,-0.32058748602867126
1684253135942639400,1.918639404296875,-0.5368487238883972,-1.420405626296997,-0.08106265962123871
1684253135952665300,1.928665283203125,-0.40573251247406006,-1.1727710962295532,0.25052621960639954
1684253135962690300,1.938690185546875,-0.2908015847206116,-0.9091953635215759,0.5530427694320679
1684253135972716300,1.94871630859375,-0.14531230926513672,-0.72031170129776,0.7463818788528442
1684253135982742300,1.9587421875,0.015793099999427795,-0.6101055145263672,0.8402117490768433
1684253135992767200,1.968767333984375,0.1654568910598755,-0.5523951053619385,0.8820918202400208
1684253136002793200,1.978793212890625,0.2701601982116699,-0.5054734349250793,0.886162281036377
1684253136012819200,1.988819091796875,0.33804789185523987,-0.4424012303352356,0.9158714413642883
1684253136022845200,1.99884521484375,0.39073488116264343,-0.5555734634399414,0.9303317070007324
1684253136032870400,2.008870361328125,0.4951733946800232,-1.1709343194961548,0.708375871181488
1684253136042896400,2.018896484375,0.6292120814323425,-1.8863204717636108,0.2671971321105957
1684253136052922400,2.02892236328125,0.7046860456466675,-2.239081859588623,-0.17293605208396912
1684253136062947300,2.038947265625,0.6677160263061523,-2.205561637878418,-0.4792829155921936
1684253136072973300,2.048973388671875,0.5400576591491699,-1.8880294561386108,-0.6613693833351135
1684253136082999300,2.058999267578125,0.36511918902397156,-1.459397792816162,-0.795436680316925
1684253136093024300,2.069024169921875,0.2062419205904007,-1.1199352741241455,-0.9728953838348389
1684253136103050200,2.07905029296875,0.08104559779167175,-0.9796357154846191,-1.277169942855835
1684253136113076200,2.089076171875,-0.04779521003365517,-1.0044852495193481,-1.726506233215332
1684253136123102500,2.0991025390625,-0.16747748851776123,-1.1156120300292969,-2.333875894546509
1684253136133127200,2.109127197265625,-0.23897165060043335,-1.2679262161254883,-3.278798818588257
1684253136143153200,2.119153076171875,-0.2733086943626404,-1.5106291770935059,-4.486661434173584
1684253136153179400,2.129179443359375,-0.27144500613212585,-1.4943026304244995,-5.332485675811768
1684253136163204000,2.1392041015625,-0.20081977546215057,-0.5649840235710144,-5.248960494995117
1684253136173230300,2.149230224609375,-0.014926344156265259,0.01742643490433693,-4.536045074462891
1684253136183256300,2.15925634765625,0.27161869406700134,-0.7891822457313538,-3.6455297470092773
1684253136193281500,2.169281494140625,0.6922926902770996,-1.7556382417678833,-2.9796128273010254
1684253136203307300,2.179307373046875,1.2181466817855835,-1.9750255346298218,-2.579744577407837
1684253136213333200,2.189333251953125,1.8019983768463135,-1.7712351083755493,-2.149062156677246
1684253136223359200,2.199359130859375,2.4691061973571777,-1.3968095779418945,-1.4893625974655151
1684253136233384400,2.209384521484375,3.031268358230591,-0.1796180009841919,-0.8662468194961548
1684253136243410400,2.219410400390625,3.3572394847869873,1.3936219215393066,-0.2954484820365906
1684253136253436400,2.2294365234375,3.598428964614868,2.5519118309020996,0.46691468358039856
1684253136263461400,2.23946142578125,4.072559833526611,2.0046589374542236,1.2066547870635986
1684253136273487400,2.2494873046875,4.765218734741211,-0.42404451966285706,1.5584615468978882
1684253136283513300,2.259513427734375,5.142452239990234,-3.1495285034179688,1.515637755393982
1684253136293538300,2.269538330078125,5.053585052490234,-4.909019470214844,1.1856443881988525
1684253136303564300,2.279564208984375,4.612159252166748,-4.982280731201172,0.4713425934314728
1684253136313590300,2.28959033203125,3.940531015396118,-3.015970230102539,-0.8600755333900452
1684253136323615200,2.299615234375,3.002929925918579,0.10380901396274567,-2.5259125232696533
1684253136333641200,2.30964111328125,1.8462296724319458,3.431889057159424,-3.82218861579895
1684253136343667200,2.319667236328125,0.8745676875114441,6.635727405548096,-3.5185916423797607
1684253136353693200,2.329693115234375,0.38590481877326965,8.035135269165039,-2.055474281311035
1684253136363718100,2.33971826171875,0.1371525377035141,6.784412384033203,-1.096146821975708
1684253136373744000,2.349744140625,-0.00721768569201231,4.075760364532471,-0.5731381773948669
1684253136383770000,2.35977001953125,-0.09889491647481918,1.3140184879302979,-0.3037615120410919
1684253136393795300,2.36979541015625,-0.1532372534275055,-0.2864564061164856,-0.29510438442230225
1684253136403821300,2.3798212890625,-0.14699164032936096,-0.5562429428100586,-0.4819936454296112
1684253136413847300,2.389847412109375,-0.017430726438760757,0.3890405595302582,-0.6503245830535889
1684253136423872300,2.399872314453125,0.16932305693626404,1.512207269668579,-0.6853387951850891
1684253136433898200,2.409898193359375,0.37780997157096863,1.994230031967163,-0.6393060684204102
1684253136443924500,2.419924560546875,0.7143152952194214,1.7659680843353271,-0.5467790365219116
1684253136453950500,2.429950439453125,1.1435604095458984,1.3421547412872314,-0.3492864668369293
1684253136463975200,2.43997509765625,1.415635347366333,0.9938250184059143,-0.049744416028261185
1684253136474001400,2.45000146484375,1.4883558750152588,0.7357974648475647,0.276611328125
1684253136484027400,2.46002734375,1.3371816873550415,0.5568270087242126,0.540730893611908
1684253136494052400,2.47005224609375,1.066463589668274,0.571449339389801,0.7005890011787415
1684253136504078300,2.480078369140625,0.746834397315979,0.7716580033302307,0.8090328574180603
1684253136514104300,2.490104248046875,0.3996961712837219,1.0290900468826294,0.9351180791854858
1684253136524129300,2.50012939453125,0.06950516253709793,1.2228963375091553,1.1161786317825317
1684253136534155300,2.5101552734375,-0.24611084163188934,1.3788838386535645,1.424836277961731
1684253136544181200,2.52018115234375,-0.5862223505973816,1.4943100214004517,1.8262889385223389
1684253136554207200,2.530207275390625,-0.9568076133728027,1.4455184936523438,2.259000301361084
1684253136564232400,2.540232421875,-1.347246766090393,1.1777409315109253,2.674226999282837
1684253136574258400,2.550258544921875,-1.6878554821014404,0.7179478406906128,3.0614616870880127
1684253136584284400,2.560284423828125,-1.920044183731079,0.2699297368526459,3.442244529724121
1684253136594309400,2.570309326171875,-2.0131630897521973,0.013785026036202908,3.852445363998413
1684253136604335400,2.58033544921875,-1.977351427078247,0.02682405151426792,4.332095623016357
1684253136614361300,2.590361328125,-1.8450547456741333,0.05214272439479828,4.900793552398682
1684253136624386300,2.60038623046875,-1.242098331451416,-2.148446559906006,4.8380889892578125
1684253136634412300,2.610412353515625,0.5069257616996765,-11.18661117553711,2.3469221591949463
1684253136644438300,2.620438232421875,0.3054928779602051,-11.485136032104492,4.285810947418213
1684253136654464300,2.63046435546875,-1.5740878582000732,-6.350821495056152,5.143702983856201
1684253136664489200,2.6404892578125,-2.8865182399749756,-5.591466903686523,0.3163187801837921
1684253136674515200,2.65051513671875,-2.8109023571014404,2.9754631519317627,-4.2860589027404785
1684253136684541200,2.660541259765625,-2.099966049194336,9.227813720703125,-4.9315185546875
1684253136694566100,2.670566162109375,-2.0584604740142822,8.928653717041016,-4.268051624298096
1684253136704592100,2.680592041015625,-2.205730438232422,7.420499324798584,-3.2952520847320557
1684253136714618000,2.6906181640625,-2.705127716064453,4.521398544311523,-2.2261769771575928
1684253136724643300,2.700643310546875,-3.246774196624756,1.2611403465270996,-1.2589261531829834
1684253136734669300,2.71066943359375,-3.391308546066284,-1.3380014896392822,-0.6046181917190552
1684253136744695600,2.720695556640625,-3.162437915802002,-2.9686968326568604,-0.20228628814220428
1684253136754720300,2.73072021484375,-2.6537609100341797,-3.8075172901153564,0.04892570525407791
1684253136764746200,2.740746337890625,-2.0142452716827393,-4.137937068939209,0.677388608455658
1684253136774772500,2.7507724609375,-1.5484962463378906,-2.7838804721832275,2.994025468826294
1684253136784798500,2.760798583984375,-1.0842088460922241,-1.1772260665893555,4.457921028137207
1684253136794823400,2.770823486328125,-0.4632510244846344,0.0700766071677208,4.494535446166992
1684253136804849400,2.780849365234375,0.18566317856311798,0.8021072149276733,3.8963565826416016
1684253136814875400,2.79087548828125,0.6134136915206909,0.6551086902618408,3.1302335262298584
1684253136824900400,2.800900390625,0.742239773273468,-0.5682279467582703,2.3192648887634277
1684253136834926300,2.81092626953125,0.5269628763198853,-1.620249629020691,1.5254720449447632
1684253136844952300,2.820952392578125,0.07475689798593521,-1.9701135158538818,0.8947423696517944
1684253136854977300,2.830977294921875,-0.4438284635543823,-1.7945997714996338,0.634317934513092
1684253136865003300,2.841003173828125,-0.9600424766540527,-1.3026256561279297,0.853714108467102
1684253136875028700,2.85102880859375,-1.2936878204345703,-0.49252259731292725,1.1777725219726562
1684253136885054700,2.8610546875,-1.3809733390808105,0.42422011494636536,1.3005632162094116
1684253136895080000,2.871079833984375,-1.2088937759399414,1.013637900352478,1.162315011024475
1684253136905106000,2.88110595703125,-0.8817769289016724,1.1087199449539185,0.8756940960884094
1684253136915132000,2.8911318359375,-0.505445659160614,0.750959038734436,0.5707533955574036
1684253136925156900,2.901156982421875,-0.11025664955377579,0.29928895831108093,0.29295170307159424
1684253136935182800,2.911182861328125,0.2690592408180237,0.051236528903245926,0.12138208001852036
1684253136945208800,2.921208740234375,0.5892040133476257,0.06372898072004318,0.08776122331619263
1684253136955233800,2.93123388671875,0.8041975498199463,0.2766106128692627,0.17527322471141815
1684253136965259800,2.941259765625,0.9236275553703308,0.5268080830574036,0.3065808415412903
1684253136975285800,2.95128564453125,0.9100006818771362,0.7826648950576782,0.3815091550350189
1684253136985311700,2.961311767578125,0.7736563682556152,0.9932799339294434,0.38504379987716675
1684253136995336700,2.971336669921875,0.5492091178894043,1.084403157234192,0.342242032289505
1684253137005362700,2.98136279296875,0.27878981828689575,1.0606772899627686,0.2502809166908264
1684253137015388700,2.991388671875,-0.0009699484799057245,0.948267936706543,0.10507020354270935
1684253137025413600,3.00141357421875,-0.21250368654727936,0.8345876932144165,-0.06453067809343338
1684253137035439600,3.011439697265625,-0.32796478271484375,0.7512160539627075,-0.2421339601278305
1684253137045465600,3.021465576171875,-0.34915655851364136,0.6879716515541077,-0.38641834259033203
1684253137055490800,3.03149072265625,-0.29036566615104675,0.6329526305198669,-0.45392122864723206
1684253137065516800,3.041516845703125,-0.1716964989900589,0.6061217188835144,-0.42534106969833374
1684253137075543000,3.05154296875,-0.023550178855657578,0.5975708365440369,-0.31551072001457214
1684253137085569000,3.061569091796875,0.12236901372671127,0.5970876216888428,-0.12903021275997162
1684253137095593700,3.07159375,0.23523645102977753,0.5590680837631226,0.07248079776763916
1684253137105620000,3.081619873046875,0.303893506526947,0.42844173312187195,0.25061678886413574
1684253137115646000,3.09164599609375,0.3317493796348572,0.21649669110774994,0.39070650935173035
1684253137125671000,3.1016708984375,0.3357769548892975,-0.034032728523015976,0.478521466255188
1684253137135697000,3.11169677734375,0.32540446519851685,-0.25265535712242126,0.5150408744812012
1684253137145723000,3.121722900390625,0.3286057710647583,-0.38173145055770874,0.505518913269043
1684253137155747800,3.131747802734375,0.3428723216056824,-0.44993793964385986,0.4634537398815155
1684253137165773800,3.14177392578125,0.35351529717445374,-0.466623991727829,0.3829403817653656
1684253137175799800,3.1517998046875,0.3476419746875763,-0.44386354088783264,0.29006609320640564
1684253137185824800,3.16182470703125,0.31620219349861145,-0.37726038694381714,0.2128198891878128
1684253137195850800,3.171850830078125,0.2568187713623047,-0.24321894347667694,0.19813494384288788
1684253137205876700,3.181876708984375,0.17051099240779877,-0.01966625265777111,0.2665086090564728
1684253137215902700,3.19190283203125,0.0742422491312027,0.29113101959228516,0.4019623100757599
1684253137225928000,3.201927978515625,-0.02315322309732437,0.630928099155426,0.546322762966156
1684253137235954000,3.211953857421875,-0.11138667911291122,0.9060102701187134,0.6469005346298218
1684253137245980000,3.22197998046875,-0.18234418332576752,1.0784976482391357,0.6728342771530151
1684253137256004900,3.2320048828125,-0.23266541957855225,1.1786203384399414,0.6455402970314026
1684253137266030800,3.24203076171875,-0.270361065864563,1.237746238708496,0.5975308418273926
1684253137276056800,3.252056884765625,-0.2909182906150818,1.2832942008972168,0.5577320456504822
1684253137286081800,3.262081787109375,-0.2968383729457855,1.3422355651855469,0.5436972379684448
1684253137296107800,3.272107666015625,-0.30888837575912476,1.4039636850357056,0.574096143245697
1684253137306133800,3.2821337890625,-0.3311827480792999,1.4381108283996582,0.6374177932739258
1684253137316159700,3.29215966796875,-0.35875844955444336,1.4086400270462036,0.6923500299453735
1684253137326184700,3.302184814453125,-0.3831009268760681,1.3026676177978516,0.7104498147964478
1684253137336210700,3.312210693359375,-0.3992958962917328,1.1414132118225098,0.6743938326835632
1684253137346236700,3.322236572265625,-0.3942696452140808,0.9494288563728333,0.612939178943634
1684253137356261600,3.33226171875,-0.36407312750816345,0.7380627989768982,0.5641245245933533
1684253137366287600,3.34228759765625,-0.3203953504562378,0.5045095086097717,0.5403513312339783
1684253137376313900,3.35231396484375,-0.2642013430595398,0.22713065147399902,0.5121799111366272
1684253137386338800,3.3623388671875,-0.20498712360858917,-0.10402271151542664,0.45642656087875366
1684253137396364800,3.37236474609375,-0.15714983642101288,-0.46257421374320984,0.3472886085510254
1684253137406390800,3.382390869140625,-0.13993611931800842,-0.8373434543609619,0.22062231600284576
1684253137416415700,3.392415771484375,-0.1670881062746048,-1.2140430212020874,0.08117945492267609
1684253137426442000,3.40244189453125,-0.2510380744934082,-1.5920255184173584,-0.08080105483531952
1684253137436468000,3.412468017578125,-0.35721641778945923,-1.9558271169662476,-0.2895526885986328
1684253137446494000,3.422493896484375,-0.45421355962753296,-2.2390480041503906,-0.5806224942207336
1684253137456519000,3.432518798828125,-0.4603566825389862,-2.4525296688079834,-1.0638784170150757
1684253137466545000,3.442544921875,-0.42564404010772705,-2.6831510066986084,-1.8197449445724487
1684253137476571000,3.45257080078125,-0.5004308819770813,-2.9870052337646484,-2.6763548851013184
1684253137486595800,3.462595947265625,-0.7476950287818909,-3.2196080684661865,-3.476256847381592
1684253137496621800,3.472621826171875,-1.1334106922149658,-3.0185980796813965,-3.9577391147613525
1684253137506647800,3.482647705078125,-1.5446457862854004,-1.388533353805542,-3.3589069843292236
1684253137516672800,3.4926728515625,-1.5403610467910767,1.379602074623108,-1.995518684387207
1684253137526698800,3.50269873046875,-1.0907784700393677,0.6450534462928772,-2.3613169193267822
1684253137536724700,3.512724853515625,-0.5550214648246765,-2.103766918182373,-3.532825231552124
1684253137546750700,3.522750732421875,0.06731604784727097,-3.9006359577178955,-4.206883907318115
1684253137556776000,3.53277587890625,0.673530638217926,-4.726263999938965,-4.3126678466796875
1684253137566801700,3.5428017578125,1.2781823873519897,-4.757288932800293,-3.985255241394043
1684253137576827600,3.55282763671875,1.8565155267715454,-3.99043869972229,-3.2684688568115234
1684253137586852900,3.562852783203125,2.4355249404907227,-2.482769727706909,-2.10825777053833
1684253137596878800,3.57287890625,3.0981175899505615,0.1369863748550415,-0.5231156945228577
1684253137606904800,3.58290478515625,3.775686740875244,2.9596800804138184,1.2909129858016968
1684253137616929800,3.5929296875,5.275684356689453,-0.9368668794631958,1.8440831899642944
1684253137626955800,3.602955810546875,7.305179595947266,-9.667428016662598,0.49060380458831787
1684253137636981800,3.612981689453125,8.05967903137207,-11.180906295776367,0.0913538932800293
1684253137647006700,3.6230068359375,7.470303535461426,-7.5700154304504395,-0.30931246280670166
1684253137657032700,3.63303271484375,5.84926700592041,0.6325498819351196,-0.8941863179206848
1684253137667058700,3.64305859375,4.118373870849609,6.0194902420043945,-2.3971192836761475
1684253137677085000,3.6530849609375,2.768242120742798,7.881721496582031,-3.6484382152557373
1684253137687109600,3.663109619140625,1.6949446201324463,7.571945667266846,-4.164490222930908
1684253137697135900,3.673135986328125,0.7570062279701233,6.592954158782959,-4.081485748291016
1684253137707161900,3.683161865234375,-0.16405412554740906,5.496522426605225,-3.684192419052124
1684253137717186800,3.693186767578125,-1.1089351177215576,4.38701868057251,-3.1733901500701904
1684253137727212800,3.703212890625,-1.8572012186050415,3.4302585124969482,-2.651052951812744
1684253137737238800,3.71323876953125,-2.152050733566284,2.6067521572113037,-2.3777318000793457
1684253137747264000,3.723263916015625,-1.7173054218292236,1.6022545099258423,-2.502624750137329
1684253137757290000,3.7332900390625,-0.7748750448226929,1.7156647443771362,-2.5406248569488525
1684253137767316000,3.74331591796875,0.5027855634689331,2.462778329849243,-2.4634602069854736
1684253137777342000,3.753342041015625,1.7907475233078003,2.6876444816589355,-2.4379327297210693
1684253137787367000,3.763366943359375,2.93845534324646,2.112834930419922,-2.356367826461792
1684253137797393000,3.773392822265625,3.7497341632843018,1.5056523084640503,-2.158367156982422
1684253137807419000,3.7834189453125,4.2948150634765625,1.307607889175415,-1.7984808683395386
1684253137817443800,3.79344384765625,4.724358081817627,1.776546835899353,-1.1539554595947266
1684253137827469800,3.8034697265625,4.881862640380859,2.9342596530914307,-0.2788340449333191
1684253137837495800,3.813495849609375,4.734487056732178,4.038699150085449,0.6947764158248901
1684253137847520800,3.823520751953125,4.254063606262207,5.113038063049316,1.7764757871627808
1684253137857546800,3.833546630859375,3.628661870956421,5.498669147491455,2.7203898429870605
1684253137867572700,3.84357275390625,3.0593137741088867,8.41286563873291,4.089231491088867
1684253137877598700,3.8535986328125,-0.4590097963809967,27.920028686523438,3.590456247329712
1684253137887623700,3.863623779296875,-2.3427953720092773,11.709324836730957,2.521653175354004
1684253137897649700,3.873649658203125,-2.77943754196167,-11.362539291381836,2.7884938716888428
1684253137907675600,3.883675537109375,-4.230950832366943,-17.748031616210938,2.9946060180664062
1684253137917700900,3.893700927734375,-4.72592830657959,-14.854341506958008,0.8730812668800354
1684253137927726800,3.903726806640625,-4.289785861968994,-6.3748931884765625,0.4576535224914551
1684253137937752800,3.9137529296875,-3.716160297393799,-4.045616149902344,1.1309688091278076
1684253137947777800,3.92377783203125,-3.703917980194092,-5.624553203582764,2.06058669090271
1684253137957803800,3.9338037109375,-3.9663875102996826,-7.478317737579346,2.6920390129089355
1684253137967829800,3.943829833984375,-4.194619655609131,-6.618859767913818,3.0288374423980713
1684253137977854700,3.953854736328125,-4.278316497802734,-3.2556357383728027,3.5344014167785645
1684253137987880700,3.963880615234375,-3.6520442962646484,-0.4190891981124878,4.423644065856934
1684253137997906700,3.97390673828125,-2.298825979232788,1.702051043510437,5.351630210876465
1684253138007932700,3.9839326171875,-0.7975248098373413,3.1953468322753906,5.986236572265625
1684253138017957600,3.99395751953125,0.3050220012664795,4.28651762008667,6.354795455932617
1684253138027983600,4.003983642578125,0.9734697937965393,4.721647262573242,6.4946770668029785
1684253138038009600,4.014009521484375,1.108872890472412,4.278588771820068,6.346742153167725
1684253138048034600,4.02403466796875,1.1212639808654785,0.4254974126815796,5.219230651855469
1684253138058060500,4.034060546875,1.3129322528839111,-7.995036602020264,2.894305467605591
1684253138068086500,4.04408642578125,0.4040573239326477,-9.089558601379395,2.040472984313965
1684253138078111700,4.05411181640625,-0.7820874452590942,-8.022244453430176,1.4131054878234863
1684253138088137700,4.0641376953125,-2.0226051807403564,-6.543560981750488,0.9171416163444519
1684253138098163700,4.074163818359375,-3.4151999950408936,-3.875950574874878,1.3030595779418945
1684253138108188700,4.084188720703125,-4.452875137329102,-1.239187479019165,1.9868937730789185
1684253138118214700,4.094214599609375,-4.543241024017334,0.6576367616653442,2.0216519832611084
1684253138128240600,4.10424072265625,-3.950183868408203,1.9503799676895142,1.7228658199310303
1684253138138267000,4.114266845703125,-3.198855400085449,2.5968258380889893,1.530508041381836
1684253138148291600,4.12429150390625,-2.604536771774292,1.6290525197982788,1.688364028930664
1684253138158317600,4.134317626953125,-2.062558889389038,0.0052279033698141575,1.6456890106201172
1684253138168343800,4.14434375,-1.4950344562530518,-0.8320592641830444,1.255677580833435
1684253138178368500,4.154368408203125,-0.9568718671798706,-1.087476372718811,0.8021649718284607
1684253138188394800,4.164394775390625,-0.4941823184490204,-1.2136048078536987,0.5239703059196472
1684253138198420700,4.174420654296875,-0.2039552628993988,-1.3533251285552979,0.4870639443397522
1684253138208445700,4.18444580078125,0.024852421134710312,-1.3214988708496094,0.5558569431304932
1684253138218471700,4.1944716796875,0.260742723941803,-1.0945690870285034,0.6107891798019409
1684253138228497700,4.20449755859375,0.5559695363044739,-0.7962148785591125,0.6146549582481384
1684253138238523600,4.214523681640625,0.9242815375328064,-0.40230199694633484,0.5508133769035339
1684253138248548900,4.224548828125,1.342969298362732,0.002618298400193453,0.4810175597667694
1684253138258574800,4.234574951171875,1.7271372079849243,0.3117433786392212,0.4239896833896637
1684253138268600600,4.2446005859375,2.0051450729370117,0.5189493298530579,0.3453826606273651
1684253138278625800,4.254625732421875,2.1239192485809326,0.5826976895332336,0.246892049908638
1684253138288651800,4.26465185546875,2.0890207290649414,0.46844127774238586,0.19717663526535034
1684253138298677800,4.274677734375,1.9049352407455444,0.18432487547397614,0.24447676539421082
1684253138308702700,4.28470263671875,1.6213313341140747,-0.13508625328540802,0.34632736444473267
1684253138318728700,4.294728759765625,1.2992851734161377,-0.3669426739215851,0.41692671179771423
1684253138328754700,4.304754638671875,0.989202618598938,-0.45990145206451416,0.4674636125564575
1684253138338779600,4.314779541015625,0.7591097354888916,-0.3897489905357361,0.5168487429618835
1684253138348805600,4.3248056640625,0.6256241798400879,-0.1200900599360466,0.5693957805633545
1684253138358831600,4.33483154296875,0.5456640720367432,0.27011868357658386,0.5836260914802551
1684253138368857600,4.344857666015625,0.48828816413879395,0.6347854733467102,0.5104489922523499
1684253138378882600,4.354882568359375,0.4276258945465088,0.9375962018966675,0.38247188925743103
1684253138388908500,4.364908447265625,0.37312403321266174,1.1810059547424316,0.23397818207740784
1684253138398934500,4.3749345703125,0.3259892761707306,1.355194091796875,0.08840739727020264
1684253138408959700,4.384959716796875,0.2818412482738495,1.4270321130752563,-0.01973538100719452
1684253138418985700,4.39498583984375,0.24454739689826965,1.4240901470184326,-0.06181385740637779
1684253138429011500,4.405011474609375,0.21926595270633698,1.3402951955795288,-0.02400839887559414
1684253138439036700,4.41503662109375,0.20959362387657166,1.183444619178772,0.09525860846042633
1684253138449062700,4.425062744140625,0.22554261982440948,0.9735110402107239,0.2570584714412689
1684253138459088600,4.435088623046875,0.2672538161277771,0.7455241680145264,0.444963663816452
1684253138469115000,4.445114990234375,0.32077986001968384,0.5394083261489868,0.6499642133712769
1684253138479139600,4.4551396484375,0.3758782744407654,0.41090893745422363,0.8497138023376465
1684253138489165800,4.465165771484375,0.39592206478118896,0.37266990542411804,1.0146822929382324
1684253138499191800,4.47519189453125,0.40871402621269226,0.4331212639808655,1.1623643636703491
1684253138509216800,4.485216796875,0.41060394048690796,0.39873433113098145,1.2771880626678467
1684253138519242800,4.49524267578125,0.3637986183166504,0.17982567846775055,1.3225300312042236
1684253138529268700,4.505268798828125,0.2512248158454895,-0.13320301473140717,1.270560622215271
1684253138539293700,4.515293701171875,0.1145990714430809,-0.39677950739860535,1.1241639852523804
1684253138549319700,4.525319580078125,-0.00969802774488926,-0.5596917271614075,0.8775869011878967
1684253138559345700,4.535345703125,-0.11299645155668259,-0.6693585515022278,0.555912435054779
1684253138569371600,4.54537158203125,-0.20518086850643158,-0.73884117603302,0.2148398458957672
1684253138579396600,4.555396728515625,-0.2944851815700531,-0.7794176340103149,-0.09783071279525757
1684253138589422600,4.565422607421875,-0.35598224401474,-0.7935464382171631,-0.33175191283226013
1684253138599448600,4.575448486328125,-0.37320730090141296,-0.7691806554794312,-0.442982017993927
1684253138609473800,4.585473876953125,-0.35323765873908997,-0.716158926486969,-0.4088471233844757
1684253138619499800,4.595499755859375,-0.28491106629371643,-0.6750386953353882,-0.269036203622818
1684253138629525800,4.60552587890625,-0.16787178814411163,-0.6870942711830139,-0.12769533693790436
1684253138639550700,4.61555078125,-0.016807975247502327,-0.7636460661888123,-0.045634545385837555
1684253138649576700,4.62557666015625,0.12934839725494385,-0.8614989519119263,0.006119714584201574
1684253138659602700,4.635602783203125,0.24952061474323273,-0.9606926441192627,0.08086691796779633
1684253138669627600,4.645627685546875,0.3308080732822418,-1.083693027496338,0.1506187468767166
1684253138679653600,4.655653564453125,0.39012518525123596,-1.3245974779129028,0.14637793600559235
1684253138689679600,4.6656796875,0.5117564797401428,-2.3702704906463623,-0.24275171756744385
1684253138699705600,4.67570556640625,0.7650518417358398,-3.9953110218048096,-1.3908900022506714
1684253138709730600,4.68573046875,0.9867234230041504,-5.010834217071533,-2.843467950820923
1684253138719756500,4.695756591796875,1.0586330890655518,-5.355021953582764,-4.3549604415893555
1684253138729782500,4.705782470703125,1.0134410858154297,-4.403966903686523,-5.384973526000977
1684253138739807500,4.715807373046875,0.8903964161872864,-2.1532340049743652,-5.720813751220703
1684253138749833500,4.72583349609375,0.6888376474380493,0.12946058809757233,-5.602989196777344
1684253138759859700,4.735859619140625,0.42439451813697815,1.673648715019226,-5.278351306915283
1684253138769884700,4.745884765625,0.07044286280870438,2.2376036643981934,-4.85424280166626
1684253138779910700,4.75591064453125,-0.338875949382782,1.8978110551834106,-4.307868480682373
1684253138789937000,4.76593701171875,-0.6241108775138855,0.9983736276626587,-3.6022403240203857
1684253138799961600,4.775961669921875,-0.7259504199028015,-0.07653941214084625,-2.7833034992218018
1684253138809987800,4.78598779296875,-0.6752102375030518,-0.9995555281639099,-2.026785373687744
1684253138820013800,4.796013916015625,-0.5556194186210632,-1.7569358348846436,-1.3861280679702759
1684253138830039800,4.806039794921875,-0.3272078335285187,-2.3918216228485107,-0.8476147651672363
1684253138840064800,4.816064697265625,0.1674969643354416,-2.7307486534118652,-0.37397369742393494
1684253138850090800,4.8260908203125,0.9844865202903748,-2.56889271736145,0.13735610246658325
1684253138860116700,4.83611669921875,1.8397250175476074,-2.9560580253601074,0.6429441571235657
1684253138870141700,4.8461416015625,2.5478439331054688,-4.651821136474609,0.8959420323371887
1684253138880167400,4.85616748046875,2.867426633834839,-5.9380717277526855,1.1361610889434814
1684253138890193400,4.866193359375,2.617950439453125,-5.571972846984863,1.4865063428878784
1684253138900218400,4.87621826171875,1.974404215812683,-3.7704017162323,1.5700243711471558
1684253138910244400,4.886244384765625,1.3406554460525513,-1.5059785842895508,1.1832987070083618
1684253138920270300,4.896270263671875,0.9264422059059143,0.20804359018802643,0.43191197514533997
1684253138930295600,4.906295654296875,0.6176149845123291,1.1272040605545044,-0.40932923555374146
1684253138940321500,4.916321533203125,0.38818421959877014,1.5708590745925903,-1.0895724296569824
1684253138950347800,4.92634765625,0.21074868738651276,1.8013066053390503,-1.4638038873672485
1684253138960373800,4.936373779296875,0.013018039055168629,1.7454721927642822,-1.4620310068130493
1684253138970398700,4.946398681640625,-0.14601993560791016,1.4603158235549927,-1.2474842071533203
1684253138980424700,4.9564248046875,-0.19848154485225677,1.1089884042739868,-0.9679116010665894
1684253138990450700,4.96645068359375,-0.14037558436393738,0.8574118614196777,-0.7271690964698792
1684253139000475600,4.9764755859375,0.0010249525075778365,0.6980786323547363,-0.516410768032074
1684253139010501600,4.986501708984375,0.16727036237716675,0.5206142663955688,-0.29872894287109375
1684253139020527600,4.996527587890625,0.31132179498672485,0.2943374514579773,-0.07683887332677841
1684253139030552600,5.006552490234375,0.386110782623291,0.09483692049980164,0.12660805881023407
1684253139040578600,5.01657861328125,0.377219557762146,-0.022853756323456764,0.32004064321517944
1684253139050604500,5.0266044921875,0.3049701452255249,-0.039834387600421906,0.5042287707328796
1684253139060630500,5.036630615234375,0.1998208463191986,0.022749630734324455,0.6836147904396057
1684253139070655500,5.046655517578125,0.05820959433913231,0.06014426797628403,0.8279248476028442
1684253139080681500,5.056681396484375,-0.09068161249160767,0.028429215773940086,0.9439816474914551
1684253139090707500,5.06670751953125,-0.2249051332473755,-0.08342288434505463,1.0293868780136108
1684253139100732700,5.076732666015625,-0.3398815393447876,-0.220859557390213,1.099900722503662
1684253139110758700,5.086758544921875,-0.4117797911167145,-0.3020666241645813,1.1891461610794067
1684253139120784600,5.09678466796875,-0.4281294643878937,-0.25554680824279785,1.3068554401397705
1684253139130809600,5.1068095703125,-0.41617777943611145,-0.10067596286535263,1.438493251800537
1684253139140835600,5.116835693359375,-0.39914339780807495,0.10888978093862534,1.5663059949874878
1684253139150861600,5.126861572265625,-0.3848804533481598,0.32134348154067993,1.6943877935409546
1684253139160886500,5.136886474609375,-0.3510569930076599,0.46414750814437866,1.8099242448806763
1684253139170912500,5.14691259765625,-0.3116627633571625,0.5577424764633179,1.8966485261917114
1684253139180938500,5.1569384765625,-0.3121650516986847,0.5733190774917603,1.9870684146881104
1684253139190964500,5.166964599609375,-0.36677253246307373,0.5557990670204163,2.0694031715393066
1684253139200989400,5.176989501953125,-0.5095696449279785,0.48474937677383423,2.152576446533203
1684253139211015400,5.187015380859375,-0.7292565107345581,0.48984506726264954,2.264334201812744
1684253139221041400,5.19704150390625,-0.9899887442588806,0.4292309880256653,2.312439203262329
1684253139231066400,5.20706640625,-1.1551021337509155,0.14691081643104553,2.0903327465057373
1684253139241092400,5.21709228515625,-0.9857362508773804,-1.840947151184082,1.1859980821609497
1684253139251118600,5.22711865234375,-0.16126388311386108,-5.599757194519043,0.068722665309906
1684253139261143600,5.2371435546875,-0.050729915499687195,-3.0226662158966064,1.4938018321990967
1684253139271169500,5.24716943359375,-0.45475274324417114,-1.5498467683792114,1.7132587432861328
1684253139281195500,5.257195556640625,-1.091930866241455,-0.6246544718742371,1.1169441938400269
1684253139291221500,5.267221435546875,-1.3563586473464966,0.0070853466168046,0.6990673542022705
1684253139301246700,5.277246826171875,-1.5125086307525635,-0.274735689163208,0.6477498412132263
1684253139311272700,5.287272705078125,-1.4598414897918701,-0.42863771319389343,0.40019845962524414
1684253139321298700,5.297298583984375,-1.2294844388961792,0.2327261120080948,-0.10613024234771729
1684253139331323600,5.30732373046875,-1.0196075439453125,1.1052604913711548,-0.604167640209198
1684253139341349600,5.317349609375,-0.926517903804779,1.7736736536026,-0.9486004114151001
1684253139351375600,5.327375732421875,-1.044554591178894,2.144230365753174,-1.085262417793274
1684253139361400600,5.337400634765625,-1.359602451324463,2.0661721229553223,-0.9260098934173584
1684253139371426600,5.347426513671875,-1.6518418788909912,1.476596474647522,-0.687366783618927
1684253139381452500,5.35745263671875,-1.7726625204086304,0.9162617921829224,-0.6414605379104614
1684253139391477500,5.3674775390625,-1.6848905086517334,0.7553580403327942,-0.6931494474411011
1684253139401503500,5.37750341796875,-1.4271132946014404,0.9064713716506958,-0.5634572505950928
1684253139411529500,5.387529541015625,-1.0583642721176147,1.2820119857788086,-0.15719811618328094
1684253139421555500,5.397555419921875,-0.7176498174667358,1.596688151359558,0.3635507822036743
1684253139431580400,5.407580322265625,-0.5854796767234802,1.6262925863265991,0.7404680252075195
1684253139441606400,5.4176064453125,-0.6931883096694946,1.3682740926742554,0.8436242341995239
1684253139451632400,5.42763232421875,-0.8769909739494324,0.9413002729415894,0.7074394226074219
1684253139461657600,5.43765771484375,-1.0111359357833862,0.4738878011703491,0.38417717814445496
1684253139471683600,5.44768359375,-1.0704011917114258,0.08866498619318008,0.019459035247564316
1684253139481709600,5.45770947265625,-1.0829765796661377,-0.19870074093341827,-0.2226681113243103
1684253139491734500,5.467734619140625,-1.0865674018859863,-0.46809831261634827,-0.21431024372577667
1684253139501760500,5.477760498046875,-1.0587174892425537,-0.6856865882873535,0.12643961608409882
1684253139511786500,5.487786376953125,-0.8927391171455383,-0.8636636734008789,0.6467321515083313
1684253139521812500,5.4978125,-0.5868127346038818,-0.8242619633674622,0.9455012679100037
1684253139531837400,5.50783740234375,-0.28108277916908264,-0.6180270910263062,0.9595028758049011
1684253139541863400,5.517863525390625,-0.050119057297706604,-0.37402108311653137,0.8336488008499146
1684253139551889700,5.5278896484375,0.07649047672748566,-0.1375490427017212,0.728513240814209
1684253139561914400,5.537914306640625,0.1233634427189827,0.0652509406208992,0.767949640750885
1684253139571940600,5.547940673828125,0.14020517468452454,0.276734858751297,1.015730381011963
1684253139581966600,5.557966552734375,0.1005922481417656,0.473387748003006,1.4247946739196777
1684253139591991600,5.567991455078125,0.021486561745405197,0.5862616300582886,1.82561194896698
1684253139602017500,5.578017578125,-0.05959257856011391,0.6092553734779358,2.0613505840301514
1684253139612043500,5.58804345703125,-0.13381817936897278,0.6197649836540222,2.137388229370117
1684253139622068700,5.59806884765625,-0.19763657450675964,0.6448377966880798,2.1191632747650146
1684253139632094700,5.6080947265625,-0.24171626567840576,0.6736330389976501,2.1033577919006348
1684253139642120700,5.61812060546875,-0.2700973153114319,0.6730737686157227,2.1173243522644043
1684253139652145700,5.628145751953125,-0.24046950042247772,0.6348206996917725,2.106985569000244
1684253139662171600,5.638171630859375,-0.14421594142913818,0.5879064798355103,2.0054662227630615
1684253139672197600,5.64819775390625,-0.020118342712521553,0.578265905380249,1.8034026622772217
1684253139682223600,5.6582236328125,0.08165302127599716,0.6002918481826782,1.6083025932312012
1684253139692248600,5.66824853515625,0.16216781735420227,0.6425226926803589,1.536797285079956
1684253139702274600,5.678274658203125,0.24114970862865448,0.6808173060417175,1.6870903968811035
1684253139712300500,5.688300537109375,0.33921512961387634,0.6378929018974304,2.072499990463257
1684253139722325500,5.698325439453125,0.43298661708831787,0.42570099234580994,2.5905508995056152
1684253139732351500,5.7083515625,0.5068731904029846,0.036960043013095856,2.9906556606292725
1684253139742377500,5.71837744140625,0.6356551647186279,-0.5792579054832458,2.764394998550415
1684253139752402400,5.72840234375,0.8599012494087219,-2.8887858390808105,1.42312490940094
1684253139762428400,5.738428466796875,1.24834406375885,-4.136276721954346,-0.6542541980743408
1684253139772454400,5.748454345703125,1.5681833028793335,-3.568023443222046,-2.7663185596466064
1684253139782480400,5.75848046875,1.7214045524597168,-2.8166263103485107,-4.630324363708496
1684253139792505600,5.768505615234375,1.6759603023529053,-2.152611255645752,-5.917619228363037
1684253139802531600,5.778531494140625,1.4354974031448364,-0.779719889163971,-6.215034008026123
1684253139812557600,5.7885576171875,0.9194290637969971,2.0792903900146484,-4.607165813446045
1684253139822582500,5.79858251953125,0.46248283982276917,3.681361675262451,-3.0300965309143066
1684253139832608500,5.8086083984375,0.28805020451545715,3.4392361640930176,-2.222073554992676
1684253139842634500,5.818634521484375,0.4798603951931,1.4373407363891602,-2.238085985183716
1684253139852659500,5.828659423828125,0.7866493463516235,-1.486086130142212,-2.9519765377044678
1684253139862685400,5.838685546875,0.9101539254188538,-3.2311291694641113,-3.6626856327056885
1684253139872712000,5.8487119140625,0.9489690065383911,-3.7697925567626953,-4.145369529724121
1684253139882737000,5.85873681640625,1.0068416595458984,-3.7618603706359863,-4.352514266967773
1684253139892763000,5.868762939453125,1.0960745811462402,-3.186591386795044,-3.8662831783294678
1684253139902788900,5.878788818359375,1.0981595516204834,-1.645920753479004,-2.683067560195923
1684253139912814800,5.88881494140625,0.8219148516654968,-0.05707594379782677,-1.5876976251602173
1684253139922839800,5.89883984375,0.4337199926376343,0.9036011099815369,-0.9649890065193176
1684253139932865800,5.90886572265625,0.313490629196167,0.8549209237098694,-0.7769692540168762
1684253139942892000,5.91889208984375,0.7146539688110352,-0.17104804515838623,-0.919468879699707
1684253139952916700,5.928916748046875,1.4699281454086304,-1.0624656677246094,-0.9923071265220642
1684253139962943000,5.93894287109375,2.273270845413208,-1.1958327293395996,-0.8160548806190491
1684253139972969000,5.948968994140625,2.8368968963623047,-0.7417356371879578,-0.4750303030014038
1684253139982994200,5.958994140625,2.9797041416168213,-0.23300957679748535,-0.1394943743944168
1684253139993020200,5.969020263671875,2.741929292678833,0.014488890767097473,0.08298049867153168
1684253140003046100,5.979046142578125,2.3101701736450195,-0.04072429612278938,0.20632001757621765
1684253140013071000,5.989071044921875,1.768120288848877,-0.15176361799240112,0.14103025197982788
1684253140023097000,5.99909716796875,1.2128819227218628,0.01624242775142193,-0.13506817817687988
1684253140033123000,6.009123046875,0.6987144947052002,0.621718168258667,-0.5111009478569031
1684253140043149000,6.019149169921875,0.2683708071708679,1.5188199281692505,-0.8091148138046265
1684253140053174000,6.029174072265625,-0.06851882487535477,2.359971523284912,-1.0565439462661743
1684253140063200000,6.039199951171875,-0.30745816230773926,2.8760476112365723,-1.281479001045227
1684253140073226000,6.04922607421875,-0.4432235658168793,3.0279715061187744,-1.4370230436325073
1684253140083251000,6.0592509765625,-0.4660085141658783,2.8786532878875732,-1.4938911199569702
1684253140093277000,6.06927685546875,-0.36090031266212463,2.596468210220337,-1.449115514755249
1684253140103303000,6.079302978515625,-0.13962650299072266,2.3227500915527344,-1.3716546297073364
1684253140113327900,6.089327880859375,0.12376811355352402,2.042618989944458,-1.2517439126968384
1684253140123353900,6.099353759765625,0.3660518527030945,1.7680385112762451,-1.0356760025024414
1684253140133379800,6.1093798828125,0.535602331161499,1.554952621459961,-0.6903338432312012
1684253140143405000,6.119405029296875,0.5836156606674194,1.4831559658050537,-0.20110952854156494
1684253140153431000,6.12943115234375,0.48298725485801697,1.5374119281768799,0.36769384145736694
1684253140163457000,6.13945703125,0.30558690428733826,1.6029962301254272,0.8685814738273621
1684253140173483000,6.14948291015625,0.11789386719465256,1.650861382484436,1.2007828950881958
1684253140183508000,6.159508056640625,-0.053662966936826706,1.6945247650146484,1.3417946100234985
1684253140193534000,6.169533935546875,-0.18625392019748688,1.7569160461425781,1.3099547624588013
1684253140203560000,6.179559814453125,-0.2608772814273834,1.9552134275436401,1.1369192600250244
1684253140213585000,6.1895849609375,-0.2841159403324127,2.32047438621521,0.879190981388092
1684253140223611000,6.19961083984375,-0.28737300634384155,2.796964645385742,0.5961166620254517
1684253140233636900,6.209636962890625,-0.29242247343063354,3.356799602508545,0.3326903283596039
1684253140243661800,6.219661865234375,-0.33214884996414185,3.9559824466705322,0.12010163813829422
1684253140253687800,6.229687744140625,-0.4524371027946472,4.5758209228515625,0.06541144102811813
1684253140263714000,6.239714111328125,-0.6588782072067261,5.063727855682373,0.23552778363227844
1684253140273738800,6.24973876953125,-0.8921306133270264,4.750290393829346,0.5843458771705627
1684253140283765000,6.259764892578125,-0.8350329995155334,1.9316933155059814,0.6414957046508789
1684253140293791000,6.269791015625,0.027188463136553764,-3.5612082481384277,-0.13864043354988098
1684253140303817000,6.27981689453125,0.8067764043807983,-6.311580181121826,-0.46201184391975403
1684253140313842200,6.28984228515625,0.9859699606895447,-6.333503723144531,-0.3659364581108093
1684253140323868200,6.2998681640625,0.7580086588859558,-4.295496940612793,-0.3810267150402069
1684253140333894000,6.309893798828125,1.0019255876541138,0.16887718439102173,1.1186702251434326
1684253140343919000,6.319919189453125,1.2920410633087158,4.153756618499756,2.7079174518585205
1684253140353945000,6.329945068359375,1.1705440282821655,4.7913818359375,2.4374358654022217
1684253140363971000,6.33997119140625,0.9791218638420105,4.362702369689941,1.3883898258209229
1684253140373996000,6.34999609375,0.7430204153060913,3.8015236854553223,0.18947888910770416
1684253140384022000,6.36002197265625,0.348402202129364,3.0876126289367676,-0.9562492370605469
1684253140394048000,6.370048095703125,-0.1082746684551239,2.3573310375213623,-1.879886269569397
1684253140404074000,6.380073974609375,-0.5438434481620789,1.7011288404464722,-2.5202152729034424
1684253140414099000,6.390098876953125,-0.9598450064659119,1.1404637098312378,-2.915814161300659
1684253140424125000,6.400125,-1.364502191543579,0.6545510292053223,-3.0785486698150635
1684253140434151000,6.41015087890625,-1.6739987134933472,0.3367398679256439,-3.0537750720977783
1684253140444176000,6.42017578125,-1.755355954170227,0.354892760515213,-2.8999881744384766
1684253140454201900,6.430201904296875,-1.5476235151290894,0.763718843460083,-2.616842269897461
1684253140464227800,6.440227783203125,-0.8610962629318237,2.9008841514587402,-1.3343080282211304
1684253140474253000,6.450253173828125,0.12569522857666016,5.874923229217529,0.5042501091957092
1684253140484279000,6.460279052734375,0.818268895149231,7.353103160858154,1.4352153539657593
1684253140494304800,6.4703046875,1.1089134216308594,7.897153377532959,1.7510268688201904
1684253140504330000,6.480330078125,1.0559096336364746,7.980268478393555,1.8111873865127563
1684253140514356000,6.49035595703125,0.8629764318466187,7.732441425323486,1.8368088006973267
1684253140524382000,6.5003818359375,0.6875665187835693,6.774106979370117,2.061190128326416
1684253140534408200,6.510408203125,0.47961997985839844,2.5478529930114746,1.9322731494903564
1684253140544433000,6.520432861328125,0.15121786296367645,-0.8682438731193542,1.2201519012451172
1684253140554459000,6.530458984375,-0.045547984540462494,-2.566624879837036,0.4474622905254364
1684253140564485000,6.540485107421875,-0.05985768139362335,-2.970623731613159,-0.1400483399629593
1684253140574509800,6.550509765625,0.11783948540687561,-2.1721630096435547,-0.45720452070236206
1684253140584536000,6.5605361328125,0.3496053218841553,-0.5564519166946411,-0.6292510628700256
1684253140594562000,6.57056201171875,0.4933822453022003,1.1748615503311157,-0.8504595756530762
1684253140604587000,6.5805869140625,0.46589574217796326,2.438760757446289,-1.1471437215805054
1684253140614613000,6.590613037109375,0.27016881108283997,3.1153252124786377,-1.4143450260162354
1684253140624639000,6.600638916015625,0.05309160426259041,3.4579012393951416,-1.5768088102340698
1684253140634664000,6.610663818359375,-0.0920032262802124,3.6375441551208496,-1.6179592609405518
1684253140644690000,6.62068994140625,-0.1404181569814682,3.71374249458313,-1.5884112119674683
1684253140654716000,6.6307158203125,-0.10802645981311798,3.7431869506835938,-1.5238850116729736
1684253140664742000,6.640741943359375,-0.007756314240396023,3.6956124305725098,-1.4085861444473267
1684253140674767000,6.65076708984375,0.12839949131011963,3.569138526916504,-1.2298939228057861
1684253140684793000,6.66079296875,0.2693241238594055,3.405380964279175,-1.005545973777771
1684253140694819000,6.670819091796875,0.3961001932621002,3.1487979888916016,-0.7375747561454773
1684253140704844000,6.680843994140625,0.49686622619628906,2.919285774230957,-0.47577962279319763
1684253140714870000,6.6908701171875,0.5684704184532166,2.7498345375061035,-0.2398797869682312
1684253140724896000,6.70089599609375,0.6114796996116638,2.6466288566589355,-0.04498140141367912
1684253140734921000,6.7109208984375,0.6187365055084229,2.608004570007324,0.10601656138896942
1684253140744947000,6.720947021484375,0.5993492603302002,2.6019506454467773,0.21667888760566711
1684253140754973000,6.730972900390625,0.5509904623031616,2.606872797012329,0.2906290292739868
1684253140764998000,6.740997802734375,0.47721076011657715,2.6164169311523438,0.32542136311531067
1684253140775023900,6.75102392578125,0.3840767741203308,2.6456236839294434,0.3133830428123474
1684253140785049900,6.7610498046875,0.28084999322891235,2.6947684288024902,0.2264081835746765
1684253140795075800,6.771075927734375,0.15821446478366852,2.730832099914551,0.06378081440925598
1684253140805100800,6.781100830078125,0.014902585186064243,2.7245442867279053,-0.19274604320526123
1684253140815126800,6.791126708984375,-0.15266147255897522,2.687225341796875,-0.5008444786071777
1684253140825152800,6.80115283203125,-0.31879156827926636,2.6492581367492676,-0.7997497320175171
1684253140835178000,6.811177978515625,-0.4488365352153778,2.6353628635406494,-1.0295004844665527
1684253140845204000,6.821203857421875,-0.5448232889175415,2.6635820865631104,-1.1774886846542358
1684253140855230200,6.831230224609375,-0.652996838092804,2.682072162628174,-1.2604466676712036
1684253140865255000,6.8412548828125,-0.7399133443832397,2.6664726734161377,-1.3285130262374878
1684253140875281700,6.85128173828125,-0.7476641535758972,2.6463353633880615,-1.4196614027023315
1684253140885308000,6.861307861328125,-0.6937018632888794,2.6079227924346924,-1.5342053174972534
1684253140895332600,6.87133251953125,-0.6119723320007324,2.5276575088500977,-1.6617423295974731
1684253140905358800,6.88135888671875,-0.5228914618492126,2.388139486312866,-1.7727100849151611
1684253140915384800,6.891384765625,-0.4222524166107178,2.1968863010406494,-1.8626943826675415
1684253140925410800,6.901410888671875,-0.33144477009773254,1.9686317443847656,-1.90119469165802
1684253140935435800,6.911435791015625,-0.2597290873527527,1.715661644935608,-1.8562641143798828
1684253140945461800,6.921461669921875,-0.19182993471622467,1.4530699253082275,-1.698880672454834
1684253140955487700,6.93148779296875,-0.1181594729423523,1.0257236957550049,-1.4709663391113281
1684253140965512700,6.9415126953125,-0.0003593349829316139,0.30258259177207947,-1.4858795404434204
1684253140975538700,6.95153857421875,0.14262333512306213,-0.01682174578309059,-1.836629033088684
1684253140985564700,6.961564697265625,0.2888428568840027,0.022028980776667595,-2.3826279640197754
1684253140995589600,6.971589599609375,0.37160545587539673,0.2554444670677185,-2.915083169937134
1684253141005615600,6.98161572265625,0.4199671447277069,0.5983054637908936,-3.200883388519287
1684253141015641600,6.9916416015625,0.4637032449245453,0.9808396697044373,-3.1052491664886475
1684253141025666800,7.001666748046875,0.5109147429466248,1.3340661525726318,-2.70332932472229
1684253141035692800,7.01169287109375,0.585213840007782,1.5453379154205322,-2.2679409980773926
1684253141045718800,7.02171875,0.6848738789558411,1.4792797565460205,-1.9752610921859741
1684253141055744800,7.031744873046875,0.8223346471786499,1.2677526473999023,-1.8383877277374268
1684253141065769700,7.041769775390625,0.9530460834503174,1.0550862550735474,-1.7902588844299316
1684253141075795700,7.051795654296875,1.0269417762756348,0.9283384680747986,-1.75835120677948
1684253141085821700,7.06182177734375,1.0921519994735718,0.9107573628425598,-1.728360652923584
1684253141095846700,7.0718466796875,1.1688262224197388,0.9169365167617798,-1.7156975269317627
1684253141105872600,7.08187255859375,1.2023756504058838,0.9161167740821838,-1.7172157764434814
1684253141115898600,7.091898681640625,1.190598964691162,0.9923839569091797,-1.6942462921142578
1684253141125923600,7.101923583984375,1.1308001279830933,1.2444452047348022,-1.5934488773345947
1684253141135949600,7.111949462890625,1.0921776294708252,1.6600474119186401,-1.3910188674926758
1684253141145975600,7.1219755859375,1.0941473245620728,2.2310802936553955,-1.0926532745361328
1684253141156001500,7.13200146484375,1.1780755519866943,2.9495296478271484,-0.67888343334198
1684253141166026500,7.142026611328125,1.3385975360870361,3.6517317295074463,-0.1877046525478363
1684253141176052500,7.152052490234375,1.5605871677398682,4.154170036315918,0.2865247130393982
1684253141186078700,7.16207861328125,1.8019593954086304,3.9579224586486816,0.49961036443710327
1684253141196103700,7.172103759765625,2.053955554962158,2.9609694480895996,0.33839499950408936
1684253141206129700,7.182129638671875,2.214928150177002,1.9679882526397705,0.1130305677652359
1684253141216155600,7.19215576171875,2.1826560497283936,1.5248079299926758,0.04574136435985565
1684253141226180900,7.202180908203125,1.968116283416748,1.7031371593475342,0.1268836259841919
1684253141236206800,7.212206787109375,1.6556565761566162,2.335419178009033,0.3246099352836609
1684253141246232800,7.22223291015625,1.2987236976623535,3.0643043518066406,0.5079326033592224
1684253141256257800,7.2322578125,0.9699122309684753,3.646253824234009,0.5754667520523071
1684253141266283800,7.24228369140625,0.7125959992408752,4.0779900550842285,0.49762997031211853
1684253141276309800,7.252309814453125,0.5418395400047302,4.3296427726745605,0.32464754581451416
1684253141286334700,7.262334716796875,0.42257916927337646,4.4037089347839355,0.07911153882741928
1684253141296360700,7.272360595703125,0.3378988206386566,4.303921699523926,-0.2192751169204712
1684253141306386700,7.28238671875,0.24509058892726898,4.097201824188232,-0.5512444972991943
1684253141316412700,7.29241259765625,0.15466415882110596,3.808504343032837,-0.8466717600822449
1684253141326437600,7.302437744140625,0.07050054520368576,3.45771861076355,-1.0778664350509644
1684253141336463600,7.312463623046875,-0.013702484779059887,3.0985846519470215,-1.2303802967071533
1684253141346489600,7.322489501953125,-0.06411745399236679,2.9207775592803955,-1.266114592552185
1684253141356514800,7.332514892578125,-0.04883261024951935,3.4926509857177734,-1.077257513999939
1684253141366540500,7.34254052734375,0.007084986194968224,4.503476619720459,-0.7200488448143005
1684253141376566500,7.35256640625,0.0034295800141990185,5.2477030754089355,-0.392850399017334
1684253141386591700,7.362591796875,-0.10351578146219254,5.528151512145996,-0.22078916430473328
1684253141396617700,7.37261767578125,-0.30353662371635437,5.442745685577393,-0.23040443658828735
1684253141406643700,7.382643798828125,-0.5640433430671692,5.1388092041015625,-0.39263731241226196
1684253141416669700,7.392669677734375,-0.8357576131820679,4.711337089538574,-0.65007483959198
1684253141426694700,7.402694580078125,-1.092565655708313,4.2371320724487305,-0.963889479637146
1684253141436720600,7.412720703125,-1.3295836448669434,3.7502074241638184,-1.2875235080718994
1684253141446746600,7.42274658203125,-1.4925533533096313,3.2759203910827637,-1.4664599895477295
1684253141456771600,7.432771484375,-1.5144248008728027,2.7966511249542236,-1.3419402837753296
1684253141466797600,7.442797607421875,-1.3564074039459229,2.2510807514190674,-0.9790896773338318
1684253141476823600,7.452823486328125,-1.0792711973190308,1.6173127889633179,-0.637725293636322
1684253141486848500,7.4628486328125,-0.7434888482093811,0.9122982025146484,-0.4489961266517639
1684253141496874500,7.47287451171875,-0.3980948328971863,0.20289723575115204,-0.3664869964122772
1684253141506900700,7.482900634765625,-0.11709964275360107,-0.45272988080978394,-0.2968706488609314
1684253141516925700,7.49292578125,0.08615255355834961,-0.822641909122467,-0.1092965379357338
1684253141526951700,7.50295166015625,0.23967525362968445,-0.6533546447753906,0.3013967275619507
1684253141536977700,7.512977783203125,0.3510265648365021,0.2678515911102295,1.0056358575820923
1684253141547003600,7.523003662109375,0.23413245379924774,1.2670717239379883,1.713756799697876
1684253141557028900,7.53302880859375,-0.00746543426066637,1.708907961845398,2.0910146236419678
1684253141567054800,7.543054931640625,-0.13733048737049103,1.7345702648162842,2.10459303855896
1684253141577080800,7.553080810546875,-0.1405312865972519,1.54297935962677,1.8028802871704102
1684253141587105800,7.563105712890625,-0.09882459044456482,1.2271652221679688,1.2829363346099854
1684253141597131800,7.5731318359375,-0.06070300191640854,0.7050268054008484,0.5909321904182434
1684253141607157800,7.58315771484375,-0.03755933791399002,0.033912062644958496,-0.09055740386247635
1684253141617182700,7.5931826171875,-0.052085720002651215,-0.4267708361148834,-0.4628087282180786
1684253141627208700,7.603208740234375,-0.11458611488342285,-0.46137169003486633,-0.46793133020401
1684253141637234700,7.613234619140625,-0.20737086236476898,-0.14631037414073944,-0.29696521162986755
1684253141647259600,7.623259765625,-0.26903635263442993,0.2879981994628906,-0.16747301816940308
1684253141657285600,7.63328564453125,-0.23649075627326965,0.5927373766899109,-0.19494295120239258
1684253141667311600,7.6433115234375,-0.08831992745399475,0.7332050204277039,-0.3855035603046417
1684253141677336600,7.653336669921875,0.0914735347032547,0.7586973309516907,-0.6683264970779419
1684253141687362600,7.663362548828125,0.2277085930109024,0.7288909554481506,-0.9030958414077759
1684253141697388500,7.673388427734375,0.3044276535511017,0.7108204960823059,-0.9570273756980896
1684253141707414500,7.68341455078125,0.3382077217102051,0.7536123991012573,-0.7690675854682922
1684253141717439700,7.693439697265625,0.40292680263519287,0.8716663122177124,-0.37110966444015503
1684253141727465700,7.7034658203125,0.542340099811554,0.9459735751152039,-0.052269347012043
1684253141737491700,7.71349169921875,0.664720892906189,0.8560051918029785,0.030396390706300735
1684253141747516700,7.7235166015625,0.6529931426048279,0.6368024945259094,-0.04493191838264465
1684253141757542700,7.733542724609375,0.5452876091003418,0.34693023562431335,-0.15164758265018463
1684253141767568600,7.743568603515625,0.4143106937408447,0.049236759543418884,-0.22762010991573334
1684253141777593600,7.753593505859375,0.29994648694992065,-0.21047063171863556,-0.268022358417511
1684253141787619600,7.76361962890625,0.2209494262933731,-0.40646544098854065,-0.27484750747680664
1684253141797645600,7.7736455078125,0.1809176504611969,-0.5549802780151367,-0.2521194815635681
1684253141807670500,7.78367041015625,0.159301295876503,-0.6884259581565857,-0.18836873769760132
1684253141817696500,7.793696533203125,0.16767561435699463,-0.8571038842201233,-0.08445218950510025
1684253141827722800,7.80372265625,0.23908933997154236,-1.083052635192871,0.06489522010087967
1684253141837748700,7.813748779296875,0.35155990719795227,-1.3426297903060913,0.24686893820762634
1684253141847773700,7.823773681640625,0.4617902934551239,-1.604783058166504,0.44855332374572754
1684253141857799700,7.833799560546875,0.5280147790908813,-1.823400616645813,0.6602738499641418
1684253141867825700,7.84382568359375,0.49786779284477234,-1.938539743423462,0.8745584487915039
1684253141877850400,7.853850341796875,0.32910090684890747,-1.9157525300979614,1.0796774625778198
1684253141887876400,7.86387646484375,0.05321685969829559,-1.7404056787490845,1.2537277936935425
1684253141897902300,7.87390234375,-0.22594909369945526,-1.4167096614837646,1.3910374641418457
1684253141907927300,7.88392724609375,-0.4345020651817322,-0.8967602849006653,1.4678624868392944
1684253141917953300,7.893953369140625,-0.5631179809570312,-0.1536937654018402,1.487271785736084
1684253141927979300,7.903979248046875,-0.582111656665802,0.7097973823547363,1.4279191493988037
1684253141938005200,7.914005126953125,-0.5064062476158142,1.5056054592132568,1.2616536617279053
1684253141948030200,7.9240302734375,-0.3833644390106201,2.0982069969177246,1.0091843605041504
1684253141958056200,7.93405615234375,-0.2849055826663971,2.454866886138916,0.708888590335846
1684253141968082200,7.944082275390625,-0.26908934116363525,2.641627550125122,0.43128952383995056
1684253141978107100,7.954107177734375,-0.3415866494178772,2.771456241607666,0.25252044200897217
1684253141988133000,7.964133056640625,-0.48726287484169006,2.902212381362915,0.22690802812576294
1684253141998159400,7.974159423828125,-0.6642898917198181,3.0403361320495605,0.3578346073627472
1684253142008184300,7.984184326171875,-0.8130356669425964,3.118732452392578,0.5829769372940063
1684253142018210300,7.994210205078125,-0.8795731067657471,2.982203960418701,0.8354412317276001
1684253142028236300,8.004236328125,-0.8265831470489502,2.514529228210449,0.9813015460968018
1684253142038261500,8.014261474609375,-0.6273863911628723,1.3593412637710571,0.7237511277198792
1684253142048287500,8.02428759765625,-0.313334196805954,-0.2518967092037201,0.06320677697658539
1684253142058313500,8.0343134765625,0.006604395806789398,-1.4463841915130615,-0.5015937089920044
1684253142068339500,8.04433935546875,0.22926568984985352,-1.9735997915267944,-0.702309787273407
1684253142078364400,8.054364501953126,0.3201180100440979,-2.011162519454956,-0.6066072583198547
1684253142088390400,8.064390380859376,0.30746665596961975,-1.7975044250488281,-0.41984689235687256
1684253142098416400,8.07441650390625,0.27155426144599915,-1.5293537378311157,-0.3141706883907318
1684253142108441300,8.08444140625,0.25727227330207825,-1.3281947374343872,-0.34624525904655457
1684253142118467300,8.09446728515625,0.24180488288402557,-1.182680368423462,-0.4615058898925781
1684253142128493300,8.104493408203124,0.18622657656669617,-1.0760905742645264,-0.5994302034378052
1684253142138518300,8.114518310546876,0.07569744437932968,-1.043994665145874,-0.7441354990005493
1684253142148544300,8.124544189453125,-0.07588542252779007,-1.1280806064605713,-0.9159136414527893
1684253142158570200,8.1345703125,-0.18959052860736847,-1.3168801069259644,-1.1777783632278442
1684253142168595200,8.14459521484375,-0.2692509889602661,-1.615054726600647,-1.5228153467178345
1684253142178621200,8.15462109375,-0.35213956236839294,-1.950852870941162,-1.912637710571289
1684253142188647200,8.164647216796874,-0.40854984521865845,-1.7018624544143677,-2.4990649223327637
1684253142198672400,8.17467236328125,-0.22424690425395966,-0.764747679233551,-4.852783203125
1684253142208698400,8.184698486328125,-0.15168695151805878,-0.24731630086898804,-6.801885604858398
1684253142218724400,8.194724365234375,-0.4638846814632416,0.3170207738876343,-7.025976657867432
1684253142228750300,8.204750244140625,-0.5838574171066284,0.6885469555854797,-6.105627536773682
1684253142238775300,8.214775390625,-0.4249139726161957,-0.36715710163116455,-4.853541374206543
1684253142248801300,8.22480126953125,-0.1206459328532219,-2.49478816986084,-3.4378411769866943
1684253142258827300,8.2348271484375,0.541089653968811,-3.7299723625183105,-2.3895974159240723
1684253142268852200,8.244852294921875,1.4911590814590454,-2.9200491905212402,-1.7014808654785156
1684253142278878200,8.254878173828125,2.546743154525757,-0.7958141565322876,-0.9927260875701904
1684253142288904200,8.264904296875,3.367832660675049,1.4148318767547607,-0.36569732427597046
1684253142298929200,8.27492919921875,3.8411779403686523,2.570993423461914,0.1169978678226471
1684253142308955100,8.284955078125,4.515130043029785,-1.4051158428192139,-0.14816401898860931
1684253142318981400,8.2949814453125,5.485739231109619,-6.152189254760742,-0.5548664331436157
1684253142329006000,8.305006103515625,6.395883083343506,-8.158478736877441,-0.7920965552330017
1684253142339032300,8.3150322265625,6.800658226013184,-7.549163818359375,-1.1886407136917114
1684253142349058300,8.325058349609375,6.5638747215271,-3.7364227771759033,-1.686820387840271
1684253142359084300,8.335084228515624,5.318551540374756,3.106635808944702,-1.7435189485549927
1684253142369109500,8.345109619140626,3.7685012817382812,6.405847072601318,-1.9817781448364258
1684253142379135500,8.355135498046875,2.417914867401123,6.454331398010254,-2.0735652446746826
1684253142389161500,8.365161376953125,1.1834465265274048,5.5527496337890625,-2.0353221893310547
1684253142399186400,8.3751865234375,0.156509667634964,4.847945690155029,-2.0731027126312256
1684253142409212400,8.38521240234375,-0.581727147102356,4.272885799407959,-2.278794527053833
1684253142419238400,8.39523828125,-0.9396090507507324,3.6473371982574463,-2.5459108352661133
1684253142429263400,8.405263427734376,-0.8400012850761414,3.0822360515594482,-2.6824073791503906
1684253142439289300,8.415289306640625,-0.4211592972278595,3.187657594680786,-2.575754165649414
1684253142449315300,8.4253154296875,0.12919306755065918,3.4461395740509033,-2.278918743133545
1684253142459340300,8.43534033203125,0.5884242057800293,3.402909517288208,-1.8345341682434082
1684253142469366300,8.4453662109375,0.8773457407951355,3.086547374725342,-1.216349482536316
1684253142479392300,8.455392333984374,0.9496458768844604,2.4955079555511475,-0.43469002842903137
1684253142489418200,8.465418212890626,0.813910961151123,1.7405750751495361,0.45445501804351807
1684253142499443200,8.475443115234375,0.5704465508460999,1.0106050968170166,1.380073070526123
1684253142509469200,8.48546923828125,0.26978445053100586,0.5054417848587036,2.20296049118042
1684253142519495200,8.4954951171875,-0.008277945220470428,0.304708868265152,2.9018702507019043
1684253142529520400,8.505520263671874,-0.2920819818973541,0.33076098561286926,3.5186283588409424
1684253142539546400,8.51554638671875,-0.6054976582527161,0.4268648624420166,4.079334259033203
1684253142549572400,8.525572265625,-0.9476014971733093,0.48693326115608215,4.602539539337158
1684253142559597300,8.535597412109375,-1.2851207256317139,0.422204852104187,5.087756156921387
1684253142569623300,8.545623291015625,-1.607170581817627,0.20829546451568604,5.50860595703125
1684253142579649300,8.555649169921875,-1.9106650352478027,-0.059565138071775436,5.835096836090088
1684253142589674200,8.56567431640625,-2.171372652053833,-0.14564143121242523,6.094533443450928
1684253142599700200,8.5757001953125,-2.3207292556762695,-0.05747348442673683,6.344744682312012
1684253142609726200,8.585726318359375,-2.240212917327881,-1.6118181943893433,5.63930606842041
1684253142619751200,8.595751220703125,-1.1623657941818237,-4.171453475952148,3.6661388874053955
1684253142629777200,8.605777099609375,-0.22494477033615112,-4.288837909698486,4.291831016540527
1684253142639803400,8.615803466796875,-0.5640808939933777,-3.9496891498565674,4.553040981292725
1684253142649829400,8.625829345703124,-1.1754875183105469,-3.4303159713745117,2.963172435760498
1684253142659854300,8.635854248046876,-1.4341728687286377,-4.479026794433594,-0.43925830721855164
1684253142669880300,8.64588037109375,-1.2170203924179077,1.4414085149765015,-2.0929653644561768
1684253142679906300,8.65590625,-1.2755329608917236,6.189066410064697,-2.533921003341675
1684253142689931500,8.665931640625,-1.7413499355316162,6.732351779937744,-2.574352264404297
1684253142699957200,8.675957275390624,-2.241933822631836,5.7161970138549805,-2.25134539604187
1684253142709983200,8.685983154296874,-2.6236367225646973,3.963535785675049,-1.7706776857376099
1684253142720008400,8.696008544921876,-2.884364604949951,1.5847598314285278,-1.4145176410675049
1684253142730034400,8.706034423828125,-2.7848477363586426,-0.7064694762229919,-1.2015047073364258
1684253142740060400,8.716060302734375,-2.3488450050354004,-2.0676729679107666,-0.9426490664482117
1684253142750085400,8.72608544921875,-1.7949683666229248,-2.291771173477173,-0.36092787981033325
1684253142760111400,8.736111328125,-1.3042947053909302,-0.6998844146728516,1.0942866802215576
1684253142770137300,8.746137451171874,-0.7922033071517944,0.9095714092254639,2.062051773071289
1684253142780163300,8.756163330078126,-0.21575847268104553,1.9254064559936523,2.260861396789551
1684253142790188300,8.766188232421875,0.35546696186065674,2.491870403289795,2.0204591751098633
1684253142800214300,8.77621435546875,0.7529488205909729,2.628150701522827,1.704712152481079
1684253142810240300,8.786240234375,0.9348539113998413,1.883693814277649,1.514636516571045
1684253142820265200,8.79626513671875,0.9008178114891052,0.36366021633148193,1.385770320892334
1684253142830291200,8.806291259765626,0.6662742495536804,-0.8705548644065857,1.1810475587844849
1684253142840317200,8.816317138671875,0.29070764780044556,-1.2600367069244385,0.8861821293830872
1684253142850342400,8.82634228515625,-0.0656467154622078,-0.7377580404281616,0.6659395098686218
1684253142860368100,8.8363681640625,-0.09648822993040085,0.4641288220882416,0.5703819394111633
1684253142870394000,8.84639404296875,0.12457118183374405,1.7115721702575684,0.37648704648017883
1684253142880418800,8.856418701171876,0.366902619600296,2.426429033279419,0.05877410247921944
1684253142890444800,8.86644482421875,0.46456578373908997,2.493011951446533,-0.2449152022600174
1684253142900470800,8.876470703125,0.443783700466156,2.217939853668213,-0.4676932096481323
1684253142910496800,8.886496826171875,0.34503182768821716,1.9450653791427612,-0.6228311061859131
1684253142920521700,8.896521728515625,0.216629296541214,1.7548631429672241,-0.7063080072402954
1684253142930547700,8.906547607421874,0.10675019770860672,1.6518243551254272,-0.6913639903068542
1684253142940573700,8.91657373046875,0.06132395938038826,1.595852017402649,-0.5756388306617737
1684253142950598700,8.9265986328125,0.08369292318820953,1.5662014484405518,-0.4044255018234253
1684253142960624600,8.936624755859375,0.1674410104751587,1.5365086793899536,-0.19106543064117432
1684253142970651000,8.94665087890625,0.28451117873191833,1.4186030626296997,0.03539620339870453
1684253142980675600,8.956675537109374,0.41164910793304443,1.2027575969696045,0.2685210108757019
1684253142990701800,8.966701904296874,0.5308977365493774,0.9040049910545349,0.501463770866394
1684253143000727800,8.976727783203126,0.6366316676139832,0.5520567893981934,0.7568452954292297
1684253143010753000,8.9867529296875,0.7286694645881653,0.19485817849636078,1.0558924674987793
1684253143020779000,8.996779052734375,0.801200807094574,-0.14698119461536407,1.4071189165115356
1684253143030805000,9.006804931640625,0.8436910510063171,-0.4133327007293701,1.7804988622665405
1684253143040830000,9.016829833984374,0.8563084006309509,-0.6443917751312256,2.1170272827148438
1684253143050856000,9.02685595703125,0.8133223056793213,-1.0396151542663574,2.2808585166931152
1684253143060882000,9.0368818359375,0.7172691822052002,-1.705828070640564,2.153674364089966
1684253143070908000,9.046907958984375,0.615585446357727,-2.4465389251708984,1.8076331615447998
1684253143080932900,9.056932861328125,0.5266516208648682,-3.034369468688965,1.3581032752990723
1684253143090958800,9.066958740234375,0.44500732421875,-3.353975534439087,0.923402726650238
1684253143100984800,9.07698486328125,0.36746692657470703,-3.4183292388916016,0.5688092708587646
1684253143111009800,9.087009765625,0.2881699502468109,-3.2540977001190186,0.31068581342697144
1684253143121035800,9.097035888671876,0.2055346667766571,-2.9568607807159424,0.11003034561872482
1684253143131061800,9.107061767578125,0.1336365044116974,-2.59602689743042,-0.06280268728733063
1684253143141086700,9.117086669921875,0.06637339293956757,-2.198922872543335,-0.19893166422843933
1684253143151112700,9.12711279296875,0.019238106906414032,-1.785170316696167,-0.3089388608932495
1684253143161138700,9.137138671875,-0.0071287513710558414,-1.368298053741455,-0.4022555649280548
1684253143171164000,9.147163818359376,-0.02137027122080326,-1.0068434476852417,-0.48271578550338745
1684253143181190000,9.15718994140625,-0.03714491054415703,-0.7176299095153809,-0.5603175163269043
1684253143191215900,9.1672158203125,-0.06349822133779526,-0.5140376091003418,-0.6376115083694458
1684253143201241900,9.177241943359375,-0.09527952969074249,-0.38618525862693787,-0.6876517534255981
1684253143211266800,9.187266845703125,-0.1341979056596756,-0.30647897720336914,-0.6919274926185608
1684253143221292800,9.197292724609374,-0.174162358045578,-0.2457871437072754,-0.6533305644989014
1684253143231318800,9.20731884765625,-0.1878265142440796,-0.18476693332195282,-0.5635764002799988
1684253143241343700,9.21734375,-0.19236838817596436,-0.08970560133457184,-0.4285774230957031
1684253143251369700,9.22736962890625,-0.18252453207969666,0.0167396143078804,-0.24099552631378174
1684253143261395700,9.237395751953125,-0.15399785339832306,0.09179955720901489,-0.030858339741826057
1684253143271420700,9.247420654296874,-0.11384057253599167,0.09859167784452438,0.19718414545059204
1684253143281446700,9.25744677734375,-0.06428112834692001,-0.012548894621431828,0.4509178400039673
1684253143291473000,9.267472900390626,0.00527797220274806,-0.2114896923303604,0.7040430307388306
1684253143301497600,9.27749755859375,0.0719645693898201,-0.41383519768714905,0.9208210110664368
1684253143311523800,9.28752392578125,0.11563614755868912,-0.5433641672134399,1.097294807434082
1684253143321549800,9.2975498046875,0.13553667068481445,-0.5720183849334717,1.2235372066497803
1684253143331575800,9.307575927734375,0.14078016579151154,-0.5306573510169983,1.3113067150115967
1684253143341600800,9.317600830078124,0.146112859249115,-0.44098174571990967,1.3784136772155762
1684253143351626800,9.327626708984376,0.17977042496204376,-0.2913541793823242,1.4400347471237183
1684253143361652700,9.33765283203125,0.27485427260398865,-0.05636432766914368,1.5195040702819824
1684253143371678000,9.347677978515625,0.4134078919887543,0.2265765517950058,1.6471887826919556
1684253143381704000,9.357703857421875,0.5478038787841797,0.5296925902366638,1.8267618417739868
1684253143391730000,9.36772998046875,0.6535284519195557,0.8302779793739319,2.041862726211548
1684253143401755000,9.3777548828125,0.7246734499931335,1.0769851207733154,2.25514554977417
1684253143411780900,9.38778076171875,0.769325852394104,1.2498834133148193,2.478302240371704
1684253143421806800,9.397806884765625,0.7811327576637268,1.3524210453033447,2.7083940505981445
1684253143431831800,9.407831787109375,0.7371988296508789,1.2668094635009766,2.8674590587615967
1684253143441857800,9.41785791015625,0.6767141819000244,0.1258970946073532,2.6173081398010254
1684253143451883800,9.4278837890625,0.7034398317337036,-2.044262647628784,1.7684022188186646
1684253143461908700,9.43790869140625,0.7884531021118164,-3.076132297515869,1.0412929058074951
1684253143471934700,9.447934814453125,0.9188052415847778,-3.2426469326019287,0.4056034982204437
1684253143481960700,9.457960693359375,1.078279733657837,-3.2471346855163574,-0.27175137400627136
1684253143491986700,9.467986572265625,1.204484462738037,-3.141233205795288,-0.968703031539917
1684253143502011600,9.47801171875,1.2666513919830322,-3.005307912826538,-1.6109158992767334
1684253143512037600,9.48803759765625,1.233708143234253,-2.886843681335449,-2.2181670665740967
1684253143522063600,9.498063720703126,1.0955612659454346,-2.7648849487304688,-2.7716410160064697
1684253143532088800,9.5080888671875,0.98112553358078,-2.4389235973358154,-3.294739007949829
1684253143542114800,9.51811474609375,0.9336017966270447,-1.8734750747680664,-3.753016233444214
1684253143552140800,9.528140869140625,0.8507875800132751,-0.935505211353302,-3.991952657699585
1684253143562165800,9.538165771484374,0.6191673278808594,0.7937465310096741,-3.729851245880127
1684253143572191700,9.548191650390624,0.3045753240585327,2.841888666152954,-2.9527571201324463
1684253143582217700,9.5582177734375,0.10362203419208527,4.2521071434021,-1.7880220413208008
1684253143592242700,9.56824267578125,0.08286136388778687,4.548655986785889,-0.7702751159667969
1684253143602268700,9.5782685546875,0.04149707779288292,4.102359771728516,-0.16258873045444489
1684253143612295000,9.588294921875,-0.08899595588445663,3.194105625152588,0.12393385171890259
1684253143622321000,9.59832080078125,-0.15344850718975067,2.1303160190582275,0.14701008796691895
1684253143632345900,9.608345947265626,-0.4129123091697693,-1.108675241470337,-0.8882312178611755
1684253143642371800,9.618371826171876,-0.7926220297813416,-4.833953380584717,-2.4804725646972656
1684253143652397800,9.628397705078125,-0.7368272542953491,-6.074042797088623,-3.143204927444458
1684253143662422800,9.6384228515625,-0.5766342878341675,-5.796462535858154,-3.335338592529297
1684253143672448800,9.64844873046875,-0.3442833125591278,-3.6346757411956787,-3.0037972927093506
1684253143682474800,9.658474853515624,-0.3327937424182892,-1.2572945356369019,-2.4100582599639893
1684253143692500000,9.6685,-0.5122263431549072,0.23532734811306,-1.7731719017028809
1684253143702526000,9.67852587890625,-0.7767045497894287,0.833495020866394,-1.251523494720459
1684253143712552000,9.688552001953125,-1.0394840240478516,0.7973545789718628,-1.0615439414978027
1684253143722577000,9.698576904296875,-1.249239444732666,0.06210563704371452,-1.2121464014053345
1684253143732603000,9.708602783203125,-1.325073480606079,-1.17543363571167,-1.5989705324172974
1684253143742628900,9.71862890625,-1.1875617504119873,-2.2751123905181885,-1.964386224746704
1684253143752654800,9.72865478515625,-0.8794559836387634,-2.7899281978607178,-2.1558797359466553
1684253143762679800,9.7386796875,-0.4508889615535736,-2.2039942741394043,-1.8948887586593628
1684253143772705800,9.748705810546875,0.021181363612413406,-1.2712793350219727,-1.3944637775421143
1684253143782731800,9.758731689453125,0.4432942867279053,-0.7864025235176086,-1.0120582580566406
1684253143792756700,9.7687568359375,0.7570338845252991,-0.8913902044296265,-0.8576767444610596
1684253143802782700,9.77878271484375,0.8957367539405823,-1.354771375656128,-0.8116985559463501
1684253143812808700,9.78880859375,0.7843407392501831,-1.7222617864608765,-0.7088134288787842
1684253143822833700,9.798833740234375,0.4175333082675934,-1.7431226968765259,-0.5111171007156372
1684253143832859600,9.808859619140625,-0.12445193529129028,-1.5082041025161743,-0.35943329334259033
1684253143842885600,9.8188857421875,-0.7049189209938049,-1.3091020584106445,-0.42443788051605225
1684253143852910800,9.828910888671874,-1.207185983657837,-1.194478988647461,-0.7085907459259033
1684253143862936800,9.838936767578126,-1.4117605686187744,-1.0112662315368652,-1.0304709672927856
1684253143872962800,9.848962890625,-1.274533748626709,-0.6789447069168091,-1.1935003995895386
1684253143882987800,9.85898779296875,-0.8243682980537415,-0.2997806966304779,-1.1095006465911865
1684253143893013800,9.869013671875,-0.27046912908554077,-0.09935040026903152,-0.8673785924911499
1684253143903039700,9.879039794921875,0.18101747334003448,-0.2516017258167267,-0.5655068755149841
1684253143913065700,9.889065673828124,0.39318299293518066,-0.6394711136817932,-0.23178644478321075
1684253143923090700,9.899090576171876,0.4431575536727905,-0.9827475547790527,0.10048405826091766
1684253143933116700,9.90911669921875,0.42392608523368835,-1.1794568300247192,0.3821548819541931
1684253143943142700,9.919142578125,0.37907472252845764,-1.2579948902130127,0.5796054601669312
1684253143953167600,9.929167724609375,0.3060300648212433,-1.2744449377059937,0.657096266746521
1684253143963193600,9.939193603515625,0.2269524484872818,-1.2491109371185303,0.623654305934906
1684253143973219600,9.949219482421874,0.14893648028373718,-1.130659818649292,0.5224051475524902
1684253143983244500,9.95924462890625,0.07331661880016327,-0.8564985990524292,0.4042767584323883
1684253143993270500,9.9692705078125,-0.00010779895819723606,-0.4833196699619293,0.28223127126693726
1684253144003296500,9.979296630859375,-0.06425052881240845,-0.11159437149763107,0.200830340385437
1684253144013321700,9.98932177734375,-0.11177437007427216,0.15581442415714264,0.19055932760238647
1684253144023347700,9.99934765625,-0.14325763285160065,0.277414470911026,0.24739082157611847
1684253144033373700,10.009373779296874,-0.17406880855560303,0.3398869037628174,0.3258094787597656
1684253144043399700,10.019399658203126,-0.21755148470401764,0.4376727342605591,0.4012397229671478
1684253144053424600,10.029424560546875,-0.2861880660057068,0.5507010817527771,0.5104048252105713
1684253144063450600,10.03945068359375,-0.358783096075058,0.6844051480293274,0.6816747188568115
1684253144073476900,10.049476806640625,-0.4160120189189911,0.8201725482940674,0.9080902934074402
1684253144083501600,10.05950146484375,-0.44423574209213257,0.9236704707145691,1.1724404096603394
1684253144093527800,10.06952783203125,-0.45453736186027527,0.9913336634635925,1.4493324756622314
1684253144103553800,10.0795537109375,-0.45807966589927673,1.0523041486740112,1.738364338874817
1684253144113578800,10.089578857421875,-0.4703691005706787,1.1619592905044556,2.0237393379211426
1684253144123604700,10.099604736328125,-0.4971027076244354,1.2912588119506836,2.3026282787323
1684253144133630700,10.109630615234375,-0.528567910194397,1.4295364618301392,2.55796480178833
1684253144143655700,10.11965576171875,-0.5422075390815735,1.5697836875915527,2.7489140033721924
1684253144153681700,10.129681640625,-0.487335205078125,1.7580742835998535,2.843021869659424
1684253144163707600,10.139707763671876,-0.3613021969795227,2.055152177810669,2.8155364990234375
1684253144173732900,10.14973291015625,-0.24278301000595093,2.4428670406341553,2.629412889480591
1684253144183758800,10.1597587890625,-0.1899518221616745,2.7485435009002686,2.2875125408172607
1684253144193784800,10.169784912109375,-0.2515510320663452,2.8487541675567627,1.8120875358581543
1684253144203810800,10.179810791015624,-0.380511075258255,2.5039613246917725,1.1734966039657593
1684253144213835800,10.189835693359376,-0.4873110353946686,1.4558789730072021,0.2689235806465149
1684253144223861800,10.19986181640625,-0.5946566462516785,0.04706224799156189,-0.6445520520210266
1684253144233887700,10.2098876953125,-0.7291281819343567,-0.6480832099914551,-1.1302952766418457
1684253144243912700,10.21991259765625,-0.8684300780296326,-0.1031024232506752,-1.0855371952056885
1684253144253938700,10.229938720703124,-0.7723653316497803,1.0147464275360107,-0.7888092994689941
1684253144263964700,10.239964599609374,-0.47012272477149963,2.105020523071289,-0.48783591389656067
1684253144273989600,10.24998974609375,-0.14275337755680084,3.1556477546691895,-0.25850310921669006
1684253144284015600,10.260015625,0.029110455885529518,3.4309654235839844,-0.0820525512099266
1684253144294041600,10.27004150390625,0.09778884798288345,3.0324177742004395,0.04544708505272865
1684253144304066600,10.280066650390625,0.1216631531715393,2.2354319095611572,0.21778059005737305
1684253144314092500,10.290092529296874,0.08007390052080154,1.1074928045272827,0.43687164783477783
1684253144324118500,10.300118408203126,-0.07608703523874283,-0.3890171945095062,0.7232180237770081
1684253144334144500,10.31014453125,-0.3425389528274536,-1.9686485528945923,1.0559077262878418
1684253144344169700,10.320169677734375,-0.6226003170013428,-3.1442995071411133,1.3523669242858887
1684253144354195700,10.33019580078125,-0.810576856136322,-3.728910207748413,1.5729917287826538
1684253144364221700,10.3402216796875,-0.8907758593559265,-3.6754817962646484,1.7460837364196777
1684253144374246700,10.35024658203125,-0.7861189246177673,-3.1534340381622314,1.8934465646743774
1684253144384272600,10.360272705078126,-0.5638333559036255,-2.612109661102295,1.8992661237716675
1684253144394299000,10.370298828125,-0.3829090893268585,-2.2576303482055664,1.7127149105072021
1684253144404323600,10.380323486328125,-0.291238397359848,-2.0062270164489746,1.4274919033050537
1684253144414349800,10.390349853515625,-0.2968371510505676,-1.7627851963043213,1.1290628910064697
1684253144424375800,10.400375732421875,-0.41066744923591614,-1.438301682472229,0.9099846482276917
1684253144434400800,10.41040087890625,-0.6394529342651367,-0.8720765709877014,0.860724151134491
1684253144444426800,10.4204267578125,-0.8579521179199219,-0.09164080768823624,0.9680615067481995
1684253144454452700,10.43045263671875,-0.9351286888122559,0.6077414751052856,1.0319771766662598
1684253144464477700,10.440477783203125,-0.8018020391464233,0.897138237953186,0.8972089886665344
1684253144474503700,10.450503662109375,-0.6148415207862854,0.8138009905815125,0.5925127267837524
1684253144484529700,10.46052978515625,-0.42997029423713684,0.6516902446746826,0.24072690308094025
1684253144494555600,10.4705556640625,-0.25084182620048523,0.4702706038951874,-0.04243344068527222
1684253144504580900,10.480580810546876,-0.10358575731515884,0.19267454743385315,-0.20081095397472382
1684253144514606600,10.490606689453125,0.005225943401455879,-0.43592655658721924,-0.052324533462524414
1684253144524632600,10.500632568359375,0.014169757254421711,-1.1257846355438232,0.4364262819290161
1684253144534657800,10.51065771484375,-0.134775772690773,-1.1728323698043823,1.164980411529541
1684253144544683800,10.520683837890624,-0.2487315684556961,-0.5089767575263977,2.067948341369629
1684253144554709800,10.530709716796874,-0.1569446474313736,0.23741380870342255,2.6875696182250977
1684253144564734700,10.540734619140625,0.05655994266271591,0.6504505276679993,2.820204019546509
1684253144574760700,10.5507607421875,0.29397886991500854,0.7714065313339233,2.6504032611846924
1684253144584786700,10.56078662109375,0.47201529145240784,0.6960398554801941,2.4616880416870117
1684253144594811600,10.570811767578125,0.5440058708190918,0.5300021171569824,2.5288093090057373
1684253144604837600,10.580837646484374,0.5822525024414062,0.252145379781723,2.805330991744995
1684253144614863600,10.590863525390626,0.668125569820404,-0.12123991549015045,2.988417863845825
1684253144624888600,10.600888671875,0.7915975451469421,-0.4343375563621521,2.9336769580841064
1684253144634914600,10.61091455078125,0.9068030118942261,-0.6462340950965881,2.625720977783203
1684253144644940500,10.6209404296875,0.9646759629249573,-0.7512891292572021,2.1628735065460205
1684253144654966500,10.630966552734375,0.9333100318908691,-0.7079965472221375,1.6986896991729736
1684253144664991700,10.64099169921875,0.8062167763710022,-0.48492950201034546,1.3133087158203125
1684253144675017500,10.651017578125,0.6061550378799438,-0.11308644711971283,1.0104944705963135
1684253144685043500,10.66104345703125,0.3442891836166382,0.28271713852882385,0.7152611613273621
1684253144695068700,10.671068603515625,0.053090900182724,0.5985710024833679,0.3968469500541687
1684253144705094700,10.6810947265625,-0.20325452089309692,0.8215890526771545,0.05873639136552811
1684253144715121000,10.691120849609375,-0.36623385548591614,0.8158259391784668,-0.3243689239025116
1684253144725145600,10.7011455078125,-0.42069849371910095,0.5250712037086487,-0.9310061931610107
1684253144735171800,10.711171875,-0.42499950528144836,0.12601247429847717,-1.8821583986282349
1684253144745197800,10.72119775390625,-0.3279036283493042,-0.25084933638572693,-3.0459253787994385
1684253144755222800,10.731222900390625,-0.14955651760101318,-0.49054262042045593,-4.223970413208008
1684253144765248800,10.741248779296875,0.023835744708776474,-0.5390718579292297,-5.2104573249816895
1684253144775274800,10.751274658203124,0.09939175844192505,-0.4757043123245239,-5.905557632446289
1684253144785299700,10.7612998046875,0.024795658886432648,-0.42468228936195374,-6.22356653213501
1684253144795325700,10.77132568359375,-0.18966977298259735,-0.7716240286827087,-5.926066875457764
1684253144805351700,10.7813515625,-0.3296624720096588,-1.4746110439300537,-4.854390621185303
1684253144815377700,10.791377685546875,-0.3564978241920471,-2.7665536403656006,-2.955489158630371
1684253144825402600,10.801402587890625,-0.3523953855037689,-4.262592792510986,-0.6812130212783813
1684253144835428600,10.8114287109375,-0.1877124160528183,-5.166513919830322,1.046252965927124
1684253144845454600,10.82145458984375,0.021119289100170135,-5.190867900848389,1.915347933769226
1684253144855479800,10.831479736328125,0.10342428833246231,-4.7628703117370605,2.3613386154174805
1684253144865505800,10.841505859375,0.1635463833808899,-4.109499454498291,2.5600459575653076
1684253144875531800,10.85153173828125,0.31525522470474243,-3.288546323776245,2.4938278198242188
1684253144885557000,10.861556884765625,0.4471035897731781,-2.393686294555664,2.4003524780273438
1684253144895583000,10.8715830078125,0.5002192854881287,-0.8773370981216431,2.365896701812744
1684253144905609000,10.88160888671875,0.39508387446403503,2.265810251235962,2.419778347015381
1684253144915634000,10.891634033203125,-0.09346184134483337,6.670421600341797,2.10858416557312
1684253144925660000,10.901659912109375,-0.7519655227661133,8.9365816116333,1.4178035259246826
1684253144935686000,10.911685791015625,-1.2426382303237915,9.561463356018066,-0.9304222464561462
1684253144945710800,10.9217109375,-1.5411005020141602,6.911930084228516,-3.9099600315093994
1684253144955736800,10.93173681640625,-1.9660965204238892,2.687535524368286,-5.734021186828613
1684253144965762800,10.9417626953125,-2.3596043586730957,-1.1242765188217163,-6.339651584625244
1684253144975788800,10.951788818359375,-2.37746524810791,-3.521721124649048,-6.281010627746582
1684253144985813800,10.961813720703125,-2.1517677307128906,-1.8864308595657349,-4.9584455490112305
1684253144995839700,10.97183984375,-1.8433048725128174,-0.15780897438526154,-2.8809375762939453
1684253145005866000,10.981865966796875,-1.2208210229873657,-0.01976427249610424,-1.3097378015518188
1684253145015891000,10.991890869140626,-0.5402226448059082,-1.2327300310134888,-0.4569942057132721
1684253145025917000,11.0019169921875,0.08874920755624771,-2.7499895095825195,-0.11666390299797058
1684253145035943000,11.01194287109375,0.6055180430412292,-3.674152135848999,0.00827883742749691
1684253145045968000,11.0219677734375,1.0099709033966064,-3.679530382156372,0.05674752593040466
1684253145055994000,11.031994140625,1.28764808177948,-2.8701651096343994,0.013755055144429207
1684253145066020000,11.04202001953125,1.4928919076919556,-1.7692431211471558,-0.12008675932884216
1684253145076045000,11.052045166015626,1.6123753786087036,-1.1573421955108643,-0.41180408000946045
1684253145086071000,11.062071044921876,1.7038360834121704,-1.327219843864441,-0.8146911263465881
1684253145096097000,11.072096923828125,1.784852385520935,-1.6727945804595947,-1.0574251413345337
1684253145106122000,11.0821220703125,1.8751581907272339,-1.6496297121047974,-0.9555591940879822
1684253145116148000,11.09214794921875,2.0102310180664062,-1.2848697900772095,-0.5720754265785217
1684253145126174000,11.102174072265624,2.181997776031494,-0.9478643536567688,-0.14919254183769226
1684253145136200000,11.112199951171876,2.376277208328247,-0.6718814969062805,0.12624303996562958
1684253145146225000,11.122224853515625,2.577646493911743,-0.49163809418678284,0.16183820366859436
1684253145156251000,11.1322509765625,2.6898295879364014,-0.3608321249485016,0.008955968543887138
1684253145166276900,11.14227685546875,2.605149507522583,-0.01572432741522789,-0.2975982129573822
1684253145176302000,11.152302001953124,2.2952120304107666,0.6103086471557617,-0.7291650772094727
1684253145186327800,11.162327880859374,1.9326595067977905,1.4662781953811646,-1.2175662517547607
1684253145196353800,11.172353759765626,1.613234043121338,2.2324302196502686,-1.6854841709136963
1684253145206379000,11.18237890625,1.4030710458755493,2.520106315612793,-2.0891757011413574
1684253145216405000,11.192405029296875,1.301843523979187,2.4265480041503906,-2.3056092262268066
1684253145226431000,11.202430908203125,1.286482334136963,2.2959067821502686,-2.35068416595459
1684253145236456000,11.2124560546875,1.2834657430648804,2.212904453277588,-2.226121187210083
1684253145246482000,11.22248193359375,1.2946817874908447,2.1464812755584717,-1.987742304801941
1684253145256508000,11.2325078125,1.342779517173767,1.9761558771133423,-1.7542542219161987
1684253145266532900,11.242532958984375,1.4015120267868042,1.6861350536346436,-1.555899739265442
1684253145276558800,11.252558837890625,1.457031011581421,1.4509341716766357,-1.4038283824920654
1684253145286584800,11.262584716796875,1.5115787982940674,1.3683720827102661,-1.2729920148849487
1684253145296610800,11.27261083984375,1.5390260219573975,1.4028048515319824,-1.1411021947860718
1684253145306635800,11.2826357421875,1.527077555656433,1.4764368534088135,-1.0118799209594727
1684253145316661800,11.292661865234376,1.4574247598648071,1.5059199333190918,-0.8938778638839722
1684253145326688000,11.30268798828125,1.349068284034729,1.4984797239303589,-0.8027271628379822
1684253145336713000,11.312712890625,1.225487232208252,1.511259913444519,-0.703001081943512
1684253145346738700,11.32273876953125,1.0842134952545166,1.490217685699463,-0.6013534069061279
1684253145356765000,11.332764892578124,0.9536259770393372,1.4656792879104614,-0.49944809079170227
1684253145366790000,11.342789794921876,0.8396899104118347,1.4931567907333374,-0.3699778616428375
1684253145376816000,11.352816162109375,0.7405508160591125,1.5805824995040894,-0.17850111424922943
1684253145386842000,11.362842041015625,0.6384729743003845,1.6085493564605713,0.10002690553665161
1684253145396867000,11.3728671875,0.5483021140098572,1.5746917724609375,0.4350839853286743
1684253145406893000,11.38289306640625,0.4670860469341278,1.5468329191207886,0.8122277855873108
1684253145416919000,11.3929189453125,0.376035213470459,1.5458488464355469,1.197166919708252
1684253145426944000,11.402944091796876,0.27914127707481384,1.5119611024856567,1.5945931673049927
1684253145436970000,11.412969970703125,0.18269303441047668,1.4496662616729736,1.9900437593460083
1684253145446996000,11.422995849609375,0.055037420243024826,1.3823174238204956,2.400956392288208
1684253145457022000,11.43302197265625,-0.07801969349384308,1.3701038360595703,2.805609703063965
1684253145467047000,11.443046875,-0.2613043189048767,1.312660574913025,3.1713271141052246
1684253145477073000,11.453072998046874,-0.5004439353942871,1.2917475700378418,3.5081522464752197
1684253145487099000,11.463098876953126,-0.7837109565734863,1.4780999422073364,3.8411343097686768
1684253145497123800,11.473123779296875,-1.1264636516571045,1.860762357711792,4.172767162322998
1684253145507149800,11.48314990234375,-1.5009115934371948,2.3051180839538574,4.4452667236328125
1684253145517175800,11.49317578125,-1.791741132736206,2.65987491607666,4.4437575340271
1684253145527201000,11.503200927734374,-1.7661850452423096,2.4018399715423584,3.7883827686309814
1684253145537227000,11.51322705078125,-1.4505468606948853,1.826210379600525,2.556168794631958
1684253145547253000,11.5232529296875,-1.1681700944900513,2.04612135887146,1.1183303594589233
1684253145557278000,11.53327783203125,-1.0634015798568726,2.6945455074310303,0.1556578129529953
1684253145567304000,11.543303955078125,-1.274966835975647,2.2334184646606445,-0.7382861971855164
1684253145577330000,11.553329833984375,-2.1730427742004395,0.25864019989967346,-0.935634970664978
1684253145587355000,11.56335498046875,-2.788119077682495,-1.117143154144287,-0.24758052825927734
1684253145597380900,11.573380859375,-2.0702266693115234,-1.3165569305419922,0.25066572427749634
1684253145607406800,11.58340673828125,-0.5478239059448242,-2.1491122245788574,-0.13062921166419983
1684253145617432800,11.593432861328125,0.5819970965385437,-2.0558152198791504,-0.3495980501174927
1684253145627457800,11.603457763671875,1.2021983861923218,-1.022779107093811,-0.40124809741973877
1684253145637483800,11.61348388671875,1.3878446817398071,-0.23695960640907288,-0.5679289698600769
1684253145647510000,11.623510009765624,1.2912826538085938,0.15366411209106445,-0.7704717516899109
1684253145657534700,11.63353466796875,1.1272965669631958,0.3910106122493744,-0.9143663048744202
1684253145667560700,11.643560791015625,0.972900927066803,0.6176192760467529,-1.038765788078308
1684253145677587000,11.6535869140625,0.8003928065299988,0.7947775721549988,-1.1642906665802002
1684253145687612000,11.66361181640625,0.5896555781364441,1.02293062210083,-1.3380122184753418
1684253145697638100,11.67363818359375,0.30360859632492065,1.2095444202423096,-1.5312730073928833
1684253145707664100,11.6836640625,-0.0905861034989357,1.425511360168457,-1.7875583171844482
1684253145717689000,11.693689208984376,-0.6829772591590881,1.5483523607254028,-1.954547643661499
1684253145727715000,11.703715087890625,-1.4332484006881714,1.457137942314148,-1.8449333906173706
1684253145737741000,11.713740966796875,-2.0420923233032227,1.402620553970337,-1.6455273628234863
1684253145747766000,11.72376611328125,-2.316437005996704,1.1028428077697754,-1.3467496633529663
1684253145757792000,11.7337919921875,-2.094897985458374,1.0199847221374512,-1.2335317134857178
1684253145767818000,11.74381787109375,-1.4270164966583252,1.093623399734497,-1.2154661417007446
1684253145777844000,11.753843994140626,-0.4724670946598053,0.6726623773574829,-0.9660412073135376
1684253145787869000,11.763868896484375,0.39674606919288635,0.46991029381752014,-0.764845609664917
1684253145797895000,11.77389501953125,1.0083931684494019,0.5818943381309509,-0.6631592512130737
1684253145807921000,11.7839208984375,1.27115797996521,0.7043782472610474,-0.5372207164764404
1684253145817945900,11.79394580078125,1.4024618864059448,0.5900301337242126,-0.27313899993896484
1684253145827971800,11.803971923828126,1.6617549657821655,-0.13261102139949799,0.15489831566810608
1684253145837997800,11.813997802734375,1.8848479986190796,-1.154251217842102,0.6425005197525024
1684253145848023000,11.82402294921875,1.8672939538955688,-2.0711379051208496,1.0453267097473145
1684253145858049000,11.834049072265625,1.5695983171463013,-2.7033064365386963,1.2977977991104126
1684253145868075000,11.844074951171875,0.9286110997200012,-2.866391897201538,1.309353232383728
1684253145878100700,11.854100830078124,0.044417139142751694,-2.5681424140930176,1.0253545045852661
1684253145888126700,11.864126708984376,-0.782773494720459,-2.0278656482696533,0.5030560493469238
1684253145898152700,11.874152587890626,-1.3305671215057373,-1.3829014301300049,-0.09975362569093704
1684253145908177700,11.884177734375,-1.5330259799957275,-0.502253532409668,-0.5695717334747314
1684253145918203600,11.89420361328125,-1.6830503940582275,1.2830729484558105,-0.5031700730323792
1684253145928229600,11.904229736328125,-1.8203390836715698,3.2838714122772217,-0.01873375102877617
1684253145938256000,11.914255859375,-1.6674174070358276,4.291743755340576,0.23839151859283447
1684253145948280600,11.924280517578126,-1.2475379705429077,4.521210670471191,0.3222692608833313
1684253145958306800,11.934306884765626,-0.7641334533691406,4.353056907653809,0.32096776366233826
1684253145968332800,11.944332763671875,-0.329754501581192,4.027420520782471,0.28518497943878174
1684253145978357800,11.954357666015625,-0.03222455829381943,3.5239150524139404,0.27615687251091003
1684253145988383700,11.9643837890625,0.08005113154649734,2.7853927612304688,0.2806108593940735
1684253145998409700,11.97440966796875,0.08123677223920822,1.7370115518569946,0.2905263304710388
1684253146008434700,11.9844345703125,0.03332765772938728,0.486412912607193,0.24206067621707916
1684253146018460700,11.994460693359375,-0.006540398579090834,-0.7806099057197571,0.05512674152851105
1684253146028486700,12.004486572265625,0.06691324710845947,-1.9383593797683716,-0.27609148621559143
1684253146038511900,12.014511962890625,0.27154308557510376,-2.9262990951538086,-0.6363855004310608
1684253146048537900,12.024537841796874,0.5721326470375061,-3.639430522918701,-0.8741090893745422
1684253146058563600,12.0345634765625,0.9001363515853882,-3.93961763381958,-0.8277405500411987
1684253146068588800,12.0445888671875,1.1407454013824463,-3.7277607917785645,-0.5331268310546875
1684253146078614800,12.05461474609375,1.2038719654083252,-3.132915735244751,-0.17297425866127014
1684253146088640800,12.064640869140625,0.6205299496650696,-0.266114741563797,-0.2394728660583496
1684253146098666800,12.074666748046875,-0.3868858516216278,3.751052141189575,-0.5636959671974182
1684253146108691700,12.084691650390624,-0.7274223566055298,5.561051845550537,-0.6834432482719421
1684253146118717700,12.0947177734375,-0.6112843155860901,5.607564449310303,-0.622103750705719
1684253146128743700,12.10474365234375,-0.4076084494590759,5.2436089515686035,-0.4325816035270691
1684253146138768600,12.1147685546875,0.06281792372465134,2.3942625522613525,-0.3650622069835663
1684253146148794600,12.124794677734375,0.42961907386779785,1.2196625471115112,-0.19924421608448029
1684253146158820600,12.134820556640625,0.6223209500312805,2.04182505607605,0.3813139796257019
1684253146168845600,12.144845458984374,0.8094305396080017,3.4493868350982666,1.4893862009048462
1684253146178871600,12.15487158203125,0.758143424987793,3.6535730361938477,2.3193883895874023
1684253146188897500,12.1648974609375,0.34060004353523254,2.047149896621704,2.3270907402038574
1684253146198922800,12.1749228515625,-0.10757695883512497,0.21490278840065002,1.8396075963974
1684253146208948700,12.18494873046875,-0.22184498608112335,-0.21583791077136993,1.3772844076156616
1684253146218974500,12.194974365234375,-0.24034729599952698,0.13506658375263214,0.8368004560470581
1684253146228999700,12.204999755859374,-0.3888615071773529,0.286912739276886,0.33267390727996826
1684253146239025700,12.215025634765626,-0.6655410528182983,-0.20350117981433868,0.17147250473499298
1684253146249051600,12.2250517578125,-0.9886964559555054,-0.7368543148040771,0.5025649070739746
1684253146259078000,12.235077880859375,-1.3089416027069092,-1.047981858253479,1.2162976264953613
1684253146269102600,12.2451025390625,-1.549932837486267,-1.533963918685913,2.060600519180298
1684253146279128800,12.25512890625,-1.7411047220230103,-2.4598562717437744,2.866593360900879
1684253146289154800,12.26515478515625,-1.9118601083755493,-3.498734474182129,3.590502977371216
1684253146299179800,12.2751796875,-2.0255792140960693,-4.284806728363037,4.269189834594727
1684253146309205800,12.285205810546875,-1.8528906106948853,-4.519806861877441,4.678740978240967
1684253146319231700,12.295231689453125,-1.214738130569458,-3.92022442817688,4.204899787902832
1684253146329256700,12.305256591796875,-0.5176582336425781,-2.80206036567688,2.6976027488708496
1684253146339282700,12.31528271484375,0.12253320962190628,-1.6745617389678955,1.2244164943695068
1684253146349308700,12.32530859375,0.6571581959724426,-0.9497953653335571,0.31303298473358154
1684253146359333600,12.335333740234375,1.0245932340621948,-0.7302030920982361,-0.03218461200594902
1684253146369359600,12.345359619140625,1.0970860719680786,-1.1636022329330444,0.22166159749031067
1684253146379385600,12.355385498046875,0.8594221472740173,-2.083374500274658,0.8161033987998962
1684253146389410800,12.365410888671875,0.5109430551528931,-2.7301268577575684,1.1762360334396362
1684253146399436800,12.375436767578124,0.2139103263616562,-2.3262710571289062,0.9501214623451233
1684253146409462800,12.385462890625,0.10001243650913239,-1.3908194303512573,0.3848419487476349
1684253146419488800,12.39548876953125,0.12634816765785217,-0.9018747210502625,-0.1603236198425293
1684253146429513700,12.405513671875,0.28765884041786194,-0.885763943195343,-0.6250962018966675
1684253146439539700,12.415539794921875,0.6076674461364746,-1.038130283355713,-0.9115071892738342
1684253146449565700,12.425565673828125,1.0767472982406616,-0.7036881446838379,-1.0570523738861084
1684253146459590700,12.435590576171874,1.594800353050232,-0.48332327604293823,-0.736568033695221
1684253146469616600,12.44561669921875,1.9245221614837646,-0.12938669323921204,-0.36089345812797546
1684253146479642600,12.455642578125,1.9021867513656616,-0.14587032794952393,-0.09552329033613205
1684253146489667600,12.46566748046875,1.6938211917877197,-0.19633115828037262,0.1625387966632843
1684253146499693600,12.475693603515625,1.4658972024917603,0.0405580960214138,0.10273831337690353
1684253146509719600,12.485719482421874,1.3359265327453613,0.6370732188224792,-0.03864860162138939
1684253146519744500,12.49574462890625,1.265647530555725,1.1413962841033936,-0.1693379133939743
1684253146529770500,12.5057705078125,1.303536057472229,1.5894252061843872,-0.1747068464756012
1684253146539796500,12.51579638671875,1.3167498111724854,1.615954875946045,0.03498273342847824
1684253146549821700,12.52582177734375,1.1978845596313477,1.3930456638336182,0.16745176911354065
1684253146559847700,12.53584765625,1.0519968271255493,1.4577758312225342,0.05125698447227478
1684253146569873700,12.545873779296874,0.9697763323783875,2.079529285430908,-0.2694321870803833
1684253146579898600,12.555898681640626,0.9504112005233765,3.279193162918091,-0.6150057911872864
1684253146589924600,12.565924560546875,1.0027161836624146,4.7525763511657715,-0.8578048944473267
1684253146599950800,12.575950927734375,0.9942594170570374,6.09871768951416,-1.016098141670227
1684253146609976800,12.585976806640625,0.7827704548835754,6.509917259216309,-1.1091545820236206
1684253146620001800,12.596001708984375,0.46538105607032776,5.1703290939331055,-1.4756582975387573
1684253146630027800,12.60602783203125,0.4930265545845032,4.195322036743164,-1.8528162240982056
