time,seconds_elapsed,z,y,x
1684252491990731800,0.022731689453125,3.913080930709839,2.7417690753936768,0.36668169498443604
1684252492000757800,0.0327578125,4.000112533569336,2.552584409713745,0.06152791529893875
1684252492010783700,0.04278369140625,3.913428544998169,2.0789337158203125,-0.3290064036846161
1684252492020809700,0.052809814453125,3.7473957538604736,1.1618080139160156,-0.9960129857063293
1684252492030835700,0.062835693359375,3.5110678672790527,-0.04991665482521057,-1.510140299797058
1684252492040862000,0.072862060546875,3.1616005897521973,-1.6353552341461182,-1.6898376941680908
1684252492050888000,0.082887939453125,2.59189772605896,-2.250685453414917,-1.6646240949630737
1684252492060914000,0.092913818359375,1.422858715057373,-0.736473023891449,-1.3302860260009766
1684252492070940000,0.10293994140625,0.5315709710121155,-0.2561419606208801,-0.977288544178009
1684252492080965600,0.112965576171875,-0.10822074115276337,0.06939992308616638,-0.7833023071289062
1684252492090992600,0.12299267578125,-0.6765890121459961,0.5446268916130066,-0.6779063940048218
1684252492101018600,0.1330185546875,-1.1893274784088135,0.8137645721435547,-0.5861266851425171
1684252492111044600,0.143044677734375,-1.6374841928482056,1.076809287071228,-0.508418619632721
1684252492121070600,0.153070556640625,-2.0139455795288086,1.285054087638855,-0.3821570873260498
1684252492131096800,0.163096923828125,-2.217076539993286,1.2794442176818848,-0.21858736872673035
1684252492141122800,0.173122802734375,-2.1985080242156982,1.0922178030014038,-0.016437731683254242
1684252492151148800,0.183148681640625,-2.0560367107391357,0.9403541684150696,0.21812675893306732
1684252492161174800,0.1931748046875,-1.8062092065811157,0.9583665132522583,0.46355223655700684
1684252492171200800,0.20320068359375,-1.446804165840149,1.256717324256897,0.7186562418937683
1684252492181227800,0.213227783203125,-1.0861029624938965,1.9697436094284058,0.9870799779891968
1684252492191253800,0.223253662109375,-0.7874618768692017,2.7854092121124268,1.2198662757873535
1684252492201279700,0.23327978515625,-0.8941488862037659,3.5169832706451416,1.3187636137008667
1684252492211306000,0.243305908203125,-1.462051510810852,4.380477428436279,1.394909143447876
1684252492221331700,0.253331787109375,-1.9577405452728271,4.716883659362793,1.4349803924560547
1684252492231357700,0.263357666015625,-2.4395716190338135,4.9280219078063965,1.5074161291122437
1684252492241383700,0.2733837890625,-2.8663997650146484,5.387451648712158,1.6608601808547974
1684252492251410000,0.283409912109375,-3.088280439376831,6.271413326263428,1.9456335306167603
1684252492261436000,0.293435791015625,-3.109487533569336,7.340701580047607,2.3605878353118896
1684252492271463000,0.303462890625,-2.897683620452881,8.012922286987305,2.8626863956451416
1684252492281489200,0.3134892578125,-2.6541569232940674,7.8802666664123535,3.442101001739502
1684252492291515100,0.32351513671875,-2.578044891357422,7.318202495574951,3.878516435623169
1684252492301541000,0.333541015625,-2.7566659450531006,6.804854393005371,4.252422332763672
1684252492311567000,0.343567138671875,-3.3028461933135986,6.734701156616211,4.716405868530273
1684252492321593000,0.353593017578125,-3.990527391433716,6.87353515625,5.285742282867432
1684252492331619000,0.363619140625,-4.673490524291992,6.939883708953857,5.855838775634766
1684252492341645000,0.37364501953125,-5.300411224365234,6.60417366027832,6.290439128875732
1684252492351671000,0.383671142578125,-5.8606696128845215,5.948482036590576,6.554410457611084
1684252492361698000,0.393697998046875,-6.25810432434082,5.049302101135254,6.707677841186523
1684252492371724000,0.40372412109375,-6.67773962020874,4.149089336395264,6.678773403167725
1684252492381750000,0.41375,-6.954947471618652,3.5363481044769287,6.510941982269287
1684252492391776000,0.42377587890625,-7.0758056640625,3.0187201499938965,6.30718469619751
1684252492401802000,0.433802001953125,-7.182821273803711,2.206918239593506,6.084794044494629
1684252492411828000,0.443827880859375,-7.394015312194824,1.2331453561782837,5.866942882537842
1684252492421854000,0.45385400390625,-7.727133750915527,0.22247709333896637,5.649497985839844
1684252492431880000,0.4638798828125,-7.805941581726074,-0.8017438054084778,5.2548322677612305
1684252492441906000,0.473906005859375,-7.446262836456299,-1.5467649698257446,4.640371799468994
1684252492451933200,0.48393310546875,-6.759646892547607,-1.6063988208770752,3.945192813873291
1684252492461959200,0.493959228515625,-5.821863651275635,-1.1958744525909424,3.294729471206665
1684252492471985200,0.503985107421875,-4.705373764038086,-0.749380350112915,2.809502124786377
1684252492482011100,0.51401123046875,-3.6272287368774414,-0.627516508102417,2.5366172790527344
1684252492492037000,0.524037109375,-2.6576333045959473,-0.7858933210372925,2.363875150680542
1684252492502063000,0.53406298828125,-1.7169897556304932,-1.1343685388565063,2.1217401027679443
1684252492512089000,0.544089111328125,-0.8881229758262634,-1.4351423978805542,1.7232431173324585
1684252492522115000,0.554114990234375,-0.16459564864635468,-1.6076979637145996,1.1685104370117188
1684252492532141000,0.56414111328125,0.5169037580490112,-1.6500743627548218,0.5125596523284912
1684252492542168000,0.57416796875,1.1051862239837646,-1.5900951623916626,-0.18145130574703217
1684252492552194000,0.584194091796875,1.5947529077529907,-1.371586561203003,-0.8245945572853088
1684252492562220000,0.594219970703125,1.890161395072937,-1.030422329902649,-1.3125476837158203
1684252492572246000,0.60424609375,2.043544292449951,-0.6473578214645386,-1.5864437818527222
1684252492582272000,0.61427197265625,2.0430002212524414,-0.31652534008026123,-1.683065414428711
1684252492592298000,0.624298095703125,1.849418044090271,-0.1777069866657257,-1.6568598747253418
1684252492602324000,0.634323974609375,1.6534227132797241,-0.16912920773029327,-1.5185000896453857
1684252492612350000,0.644349853515625,1.552916169166565,-0.17944541573524475,-1.2806315422058105
1684252492622376000,0.6543759765625,1.430938959121704,-0.05288800597190857,-0.9792336225509644
1684252492632403200,0.6644033203125,1.1056252717971802,-0.4247567057609558,-1.4519420862197876
1684252492642429200,0.67442919921875,0.642469048500061,-0.7221124768257141,-2.721012830734253
1684252492652455200,0.684455078125,0.40082845091819763,-0.5672943592071533,-3.1586930751800537
1684252492662481200,0.694481201171875,0.5358150601387024,-0.6382068991661072,-2.467161178588867
1684252492672507100,0.704507080078125,0.791327953338623,-0.4075254797935486,-1.3721877336502075
1684252492682533000,0.714533203125,0.732822060585022,0.22716014087200165,-0.6638875007629395
1684252492692559000,0.72455908203125,0.7635507583618164,1.0361793041229248,-0.18236248195171356
1684252492702585000,0.734585205078125,1.109452247619629,1.5671554803848267,0.5733640789985657
1684252492712611000,0.744611083984375,1.0067416429519653,1.6264227628707886,1.0980304479599
1684252492722638000,0.75463818359375,0.6771261692047119,1.3721204996109009,0.991340160369873
1684252492732664000,0.7646640625,0.7689312100410461,1.7057476043701172,0.8379111886024475
1684252492742690000,0.77468994140625,0.6588241457939148,2.259565591812134,1.0144717693328857
1684252492752716000,0.784716064453125,-0.8811661005020142,1.5697040557861328,0.2376917451620102
1684252492762742000,0.794741943359375,-1.8403677940368652,0.5438651442527771,-1.0090959072113037
1684252492772768000,0.80476806640625,-1.5657416582107544,-0.5185357928276062,-2.199136257171631
1684252492782794000,0.8147939453125,-1.1447910070419312,-0.7391483187675476,-3.0222668647766113
1684252492792820000,0.824820068359375,-1.280559778213501,-0.5817831158638,-1.7388534545898438
1684252492802846000,0.834845947265625,-1.4851208925247192,-1.0569040775299072,0.03911998122930527
1684252492812872000,0.844871826171875,-1.635627269744873,-1.0530717372894287,1.3520866632461548
1684252492822899200,0.854899169921875,-1.8186367750167847,-0.6045783758163452,1.6979721784591675
1684252492832925200,0.86492529296875,-2.1946310997009277,-0.09156549721956253,1.4536972045898438
1684252492842951200,0.874951171875,-2.8016886711120605,0.4143237769603729,1.1460357904434204
1684252492852977200,0.88497705078125,-3.2615253925323486,1.2929308414459229,0.9293057322502136
1684252492863003100,0.895003173828125,-3.0920398235321045,2.0500407218933105,0.8874536156654358
1684252492873029000,0.905029052734375,-2.94657826423645,1.9422379732131958,0.9185336232185364
1684252492883054800,0.915054931640625,-2.9802019596099854,0.7257257699966431,0.9673903584480286
1684252492893080800,0.925080810546875,-2.9829905033111572,0.31659209728240967,0.9253885746002197
1684252492903106800,0.93510693359375,-2.741212844848633,0.07300528883934021,0.7309671640396118
1684252492913134000,0.945134033203125,-2.485914945602417,-0.13789333403110504,0.49870797991752625
1684252492923160000,0.95516015625,-2.480043649673462,0.032299697399139404,0.2528367042541504
1684252492933186000,0.96518603515625,-2.8740179538726807,0.3589698076248169,-0.04564017429947853
1684252492943212000,0.9752119140625,-3.5794155597686768,0.39910098910331726,-0.35121312737464905
1684252492953238000,0.985238037109375,-4.613940715789795,0.11915217339992523,-0.6646848917007446
1684252492963264000,0.995263916015625,-5.549694538116455,0.02515164017677307,-0.9369568824768066
1684252492973290000,1.0052900390625,-5.893797397613525,0.5642529129981995,-1.0742478370666504
1684252492983316000,1.01531591796875,-5.6384148597717285,1.6230764389038086,-0.9840726852416992
1684252492993342000,1.025342041015625,-5.048534870147705,2.8091025352478027,-0.7543683648109436
1684252493003368200,1.0353681640625,-4.153953552246094,3.9014780521392822,-0.2915026545524597
1684252493013395000,1.04539501953125,-3.1017887592315674,4.752898216247559,0.34031885862350464
1684252493023421000,1.0554208984375,-2.2064266204833984,5.421679496765137,0.9787712693214417
1684252493033447000,1.065447021484375,-1.6230084896087646,5.872416973114014,1.5913450717926025
1684252493043473000,1.075472900390625,-1.5531452894210815,5.3399481773376465,1.9931660890579224
1684252493053499000,1.085498779296875,-2.1578471660614014,3.581728219985962,1.921364426612854
1684252493063524900,1.09552490234375,-2.2269740104675293,3.030552864074707,2.1848247051239014
1684252493073550800,1.10555078125,-2.106795072555542,2.8702404499053955,2.5057151317596436
1684252493083576800,1.115576904296875,-2.098815679550171,2.6856582164764404,2.8015990257263184
1684252493093603000,1.12560302734375,-2.412236452102661,2.216442346572876,2.87294602394104
1684252493103630000,1.135630126953125,-2.690781593322754,1.312327265739441,2.7679989337921143
1684252493113656000,1.145656005859375,-2.9419937133789062,0.41247057914733887,2.462034225463867
1684252493123682000,1.15568212890625,-2.8990731239318848,0.368262380361557,2.0229804515838623
1684252493133708000,1.1657080078125,-2.650805711746216,1.3032104969024658,1.5583875179290771
1684252493143734000,1.175734130859375,-2.3496437072753906,2.3687326908111572,1.083940029144287
1684252493153760000,1.185760009765625,-1.8429714441299438,3.4120519161224365,0.6813332438468933
1684252493163786000,1.195785888671875,-1.131956934928894,4.131385326385498,0.3719189167022705
1684252493173812200,1.205812255859375,-0.08479437977075577,4.069687843322754,0.1900738924741745
1684252493183838200,1.215838134765625,1.1727856397628784,2.348421573638916,0.4529254734516144
1684252493193865000,1.225864990234375,1.941143274307251,0.18728677928447723,0.8590452671051025
1684252493203891000,1.235890869140625,2.0387587547302246,-1.055815577507019,0.9761287569999695
1684252493213917000,1.2459169921875,1.8724621534347534,-1.512102484703064,0.884895384311676
1684252493223943000,1.25594287109375,1.650433897972107,-1.630059003829956,0.6812067031860352
1684252493233969000,1.265968994140625,1.3927249908447266,-1.6422185897827148,0.43843549489974976
1684252493243995000,1.275994873046875,1.1451021432876587,-1.5593059062957764,0.18960890173912048
1684252493254020400,1.286020263671875,0.9129727482795715,-1.4308712482452393,-0.042962249368429184
1684252493264046300,1.29604638671875,0.7271243333816528,-1.3616511821746826,-0.26716846227645874
1684252493274072300,1.306072265625,0.6037684679031372,-1.314342975616455,-0.46621617674827576
1684252493284098300,1.316098388671875,0.5545889139175415,-1.213126301765442,-0.6223437190055847
1684252493294125600,1.32612548828125,0.5624673366546631,-1.0818392038345337,-0.7688607573509216
1684252493304151600,1.336151611328125,0.5959270000457764,-0.9543776512145996,-0.899073600769043
1684252493314177500,1.346177490234375,0.6531187295913696,-0.7805413603782654,-0.9956156611442566
1684252493324203500,1.35620361328125,0.7098379135131836,-0.5807371139526367,-1.0566380023956299
1684252493334229500,1.3662294921875,0.8090445399284363,-0.44520285725593567,-1.1229289770126343
1684252493344255500,1.37625537109375,0.9684507250785828,-0.4259849786758423,-1.217517614364624
1684252493354281500,1.386281494140625,1.0834195613861084,-0.44681528210639954,-1.1828577518463135
1684252493364307500,1.396307373046875,1.176182508468628,-0.6694105267524719,-0.9870858192443848
1684252493374333400,1.40633349609375,1.2467864751815796,-1.0642318725585938,-0.5062246322631836
1684252493384360400,1.4163603515625,1.230832576751709,-1.4629122018814087,0.21472129225730896
1684252493394386400,1.426386474609375,1.079440712928772,-1.7362943887710571,0.878714919090271
1684252493404412400,1.436412353515625,0.7981310486793518,-1.8728865385055542,1.2888658046722412
1684252493414438400,1.4464384765625,0.48888808488845825,-1.9069174528121948,1.4788308143615723
1684252493424464400,1.45646435546875,0.21001888811588287,-1.873557448387146,1.5273877382278442
1684252493434490400,1.466490478515625,0.008935675024986267,-1.779172420501709,1.4808474779129028
1684252493444516400,1.476516357421875,-0.09828905016183853,-1.640949010848999,1.3510916233062744
1684252493454542300,1.486542236328125,-0.1504155993461609,-1.4446333646774292,1.1460577249526978
1684252493464568300,1.496568359375,-0.172152578830719,-1.094979166984558,0.887722373008728
1684252493474594600,1.506594482421875,-0.21189552545547485,-0.618261992931366,0.5810869336128235
1684252493484621600,1.51662158203125,-0.3097078502178192,-0.08309978246688843,0.2649153769016266
1684252493494647600,1.5266474609375,-0.4442216753959656,0.46664494276046753,-0.02312236838042736
1684252493504673500,1.536673583984375,-0.5704635381698608,0.9577480554580688,-0.21509447693824768
1684252493514699500,1.546699462890625,-0.6516185998916626,1.314834713935852,-0.27964067459106445
1684252493524725500,1.5567255859375,-0.683128833770752,1.482865810394287,-0.2153136283159256
1684252493534751500,1.56675146484375,-0.6657755970954895,1.4430168867111206,-0.07281378656625748
1684252493544777500,1.576777587890625,-0.5875779986381531,1.234390139579773,0.08228791505098343
1684252493554803700,1.5868037109375,-0.4939405918121338,0.9227631092071533,0.18736383318901062
1684252493564829700,1.59682958984375,-0.4019201397895813,0.5843850374221802,0.2334975153207779
1684252493574856400,1.6068564453125,-0.34470275044441223,0.2546045184135437,0.21209381520748138
1684252493584882400,1.61688232421875,-0.3531081974506378,-0.0717402845621109,0.1183614581823349
1684252493594908400,1.626908447265625,-0.4201735258102417,-0.4307943880558014,0.015742316842079163
1684252493604934400,1.636934326171875,-0.4873160719871521,-0.8190009593963623,0.0001332632382400334
1684252493614960400,1.64696044921875,-0.5074682235717773,-1.232643723487854,0.08257495611906052
1684252493624986400,1.656986328125,-0.47602665424346924,-1.6197816133499146,0.22043907642364502
1684252493635012400,1.667012451171875,-0.4049871563911438,-1.888552188873291,0.37506330013275146
1684252493645038600,1.67703857421875,-0.29455649852752686,-1.9933347702026367,0.5165227055549622
1684252493655064600,1.687064697265625,-0.1712094396352768,-1.9413131475448608,0.6326313018798828
1684252493665090600,1.697090576171875,-0.06080728769302368,-1.7468936443328857,0.7457493543624878
1684252493675117600,1.70711767578125,0.015455705113708973,-1.445736050605774,0.8490928411483765
1684252493685143600,1.7171435546875,0.05252078175544739,-1.0856192111968994,0.9542938470840454
1684252493695169500,1.72716943359375,0.06543023139238358,-0.7071237564086914,1.0555899143218994
1684252493705195500,1.737195556640625,0.07871274650096893,-0.20230534672737122,1.0562697649002075
1684252493715221500,1.747221435546875,0.10247897356748581,0.6003476977348328,0.6417070627212524
1684252493725247500,1.75724755859375,0.12530092895030975,1.3654183149337769,-0.14453238248825073
1684252493735273500,1.7672734375,0.11359347403049469,1.6723613739013672,-0.9675613641738892
1684252493745299500,1.777299560546875,0.06333669275045395,1.498887062072754,-1.6331981420516968
1684252493755325400,1.787325439453125,0.04735457897186279,1.099261999130249,-2.1904513835906982
1684252493765352400,1.7973525390625,0.08270297944545746,0.7814049124717712,-2.687342405319214
1684252493775378400,1.80737841796875,0.1968088299036026,0.7003201842308044,-3.08951997756958
1684252493785404400,1.817404296875,0.2918431758880615,0.7147420048713684,-3.3900532722473145
1684252493795430400,1.827430419921875,0.3427618145942688,0.6729689240455627,-3.6103310585021973
1684252493805456400,1.837456298828125,0.3405732214450836,0.5996006727218628,-3.7119336128234863
1684252493815482400,1.847482421875,0.2862875461578369,0.42374032735824585,-3.6543924808502197
1684252493825508600,1.857508544921875,0.19558534026145935,0.06628099083900452,-3.393008232116699
1684252493835534600,1.86753466796875,0.11801772564649582,-0.4300161302089691,-2.8664751052856445
1684252493845560600,1.877560546875,0.11108525097370148,-0.8305829763412476,-2.079282522201538
1684252493855586600,1.887586669921875,0.118431456387043,-0.6068831086158752,-1.3161211013793945
1684252493865613600,1.897613525390625,-0.028466375544667244,0.5684249997138977,-1.4880881309509277
1684252493875639600,1.9076396484375,-0.222483292222023,1.6060678958892822,-2.1324033737182617
1684252493885665500,1.91766552734375,-0.3176462948322296,1.9125841856002808,-2.648669481277466
1684252493895691500,1.92769140625,-0.38088369369506836,1.3917382955551147,-2.894749164581299
1684252493905717200,1.93771728515625,-0.38826891779899597,0.3244445323944092,-2.782721757888794
1684252493915743500,1.947743408203125,-0.2413378208875656,-0.7417520880699158,-2.3755810260772705
1684252493925769500,1.95776953125,0.051112689077854156,-1.2787394523620605,-1.7217682600021362
1684252493935795500,1.96779541015625,0.3410268723964691,-1.2270365953445435,-0.9844943284988403
1684252493945821400,1.977821533203125,0.538854718208313,-0.6245872378349304,-0.2541532516479492
1684252493955848400,1.987848388671875,0.5704981088638306,0.10296699404716492,0.1259017139673233
1684252493965874400,1.99787451171875,0.45142582058906555,0.6815128922462463,-0.1307433843612671
1684252493975900400,2.007900390625,0.31119096279144287,1.1099562644958496,-0.814086377620697
1684252493985926400,2.017926513671875,0.260263592004776,1.3445429801940918,-1.506591558456421
1684252493995952600,2.02795263671875,0.28697091341018677,1.3776825666427612,-1.901889681816101
1684252494005978600,2.037978515625,0.32968536019325256,1.3559237718582153,-1.9562203884124756
1684252494016004600,2.048004638671875,0.3863218128681183,1.3226946592330933,-1.7060352563858032
1684252494026030600,2.058030517578125,0.41382426023483276,1.1878907680511475,-1.2353417873382568
1684252494036056600,2.068056640625,0.40600594878196716,0.981316864490509,-0.7138723731040955
1684252494046082600,2.07808251953125,0.384197860956192,0.7522674202919006,-0.3307899832725525
1684252494056109300,2.088109375,0.33878669142723083,0.464566171169281,-0.14258652925491333
1684252494066135300,2.09813525390625,0.2661907970905304,0.13735048472881317,-0.15670020878314972
1684252494076161300,2.108161376953125,0.13630062341690063,-0.14364545047283173,-0.3194589912891388
1684252494086187500,2.1181875,-0.03448736295104027,-0.2310354858636856,-0.5362190008163452
1684252494096213500,2.128213623046875,-0.22783075273036957,-0.1451577991247177,-0.7613769769668579
1684252494106239500,2.138239501953125,-0.42582452297210693,-0.07693453133106232,-0.9306848049163818
1684252494116265500,2.148265380859375,-0.5758544206619263,-0.17438164353370667,-1.026885986328125
1684252494126291500,2.15829150390625,-0.6204748749732971,-0.3647662103176117,-1.0155282020568848
1684252494136317400,2.1683173828125,-0.561553418636322,-0.5581245422363281,-0.9225415587425232
1684252494146343400,2.178343505859375,-0.4278554916381836,-0.7111327648162842,-0.7559823989868164
1684252494156370400,2.188370361328125,-0.2585034668445587,-0.8374224901199341,-0.5440380573272705
1684252494166396400,2.198396484375,-0.06106629595160484,-0.9778144955635071,-0.31536540389060974
1684252494176422700,2.208422607421875,0.13133564591407776,-1.1210834980010986,-0.08521103858947754
1684252494186448600,2.21844873046875,0.3256385326385498,-1.1941941976547241,0.1347450166940689
1684252494196474600,2.228474609375,0.5225107073783875,-1.1912660598754883,0.3616394102573395
1684252494206500600,2.23850048828125,0.7165621519088745,-1.1804243326187134,0.6090393662452698
1684252494216526600,2.248526611328125,0.9034538269042969,-1.182636022567749,0.8933455348014832
1684252494226552600,2.258552490234375,1.0964277982711792,-1.2027106285095215,1.262681007385254
1684252494236578600,2.26857861328125,1.3093928098678589,-1.1528751850128174,1.7603548765182495
1684252494246605300,2.278605224609375,1.5327157974243164,-1.097852110862732,2.3901891708374023
1684252494256632000,2.288632080078125,1.6916011571884155,-1.275473952293396,3.067453384399414
1684252494266658000,2.298657958984375,1.6331804990768433,-1.8156461715698242,3.62961745262146
1684252494276684000,2.30868408203125,1.338343620300293,-2.6192245483398438,3.925288200378418
1684252494286710000,2.3187099609375,0.9750120043754578,-3.6741271018981934,3.4575986862182617
1684252494296736000,2.328736083984375,1.5960499048233032,-6.5827317237854,-0.6857696175575256
1684252494306762200,2.33876220703125,3.277297019958496,-8.59996223449707,-5.521007537841797
1684252494316788200,2.348788330078125,3.870399236679077,-7.789512634277344,-3.3052282333374023
1684252494326814200,2.358814208984375,2.832275629043579,-4.191788196563721,1.5380598306655884
1684252494336840200,2.368840087890625,0.5888206362724304,1.415692925453186,2.5035452842712402
1684252494346867200,2.3788671875,-1.7151273488998413,4.179971218109131,0.781744122505188
1684252494356893200,2.38889306640625,-3.2384157180786133,3.6664469242095947,-0.8013973236083984
1684252494366919200,2.398919189453125,-3.758190870285034,0.503673255443573,-0.7398678660392761
1684252494376945000,2.40894482421875,-3.4971401691436768,-1.349260926246643,0.4555426239967346
1684252494386971100,2.41897119140625,-3.1130173206329346,-2.160325050354004,1.315087914466858
1684252494396997000,2.4289970703125,-2.803098678588867,-3.0652081966400146,1.0562134981155396
1684252494407023000,2.439023193359375,-2.2869796752929688,-3.1619067192077637,-0.7918516397476196
1684252494417049000,2.449049072265625,-1.528681755065918,-2.2065296173095703,-1.3030329942703247
1684252494427075000,2.459074951171875,-0.6275532245635986,-0.6445441246032715,-0.6432380080223083
1684252494437101000,2.46910107421875,0.3802095949649811,0.5034137964248657,-0.07670434564352036
1684252494447128000,2.479128173828125,1.1076232194900513,0.3368903398513794,0.13676132261753082
1684252494457154000,2.489154052734375,1.3457707166671753,-0.7302071452140808,0.43292683362960815
1684252494467180000,2.499179931640625,1.2424917221069336,-1.5851320028305054,0.6241157054901123
1684252494477206300,2.509206298828125,0.9707008600234985,-1.8475686311721802,0.36924678087234497
1684252494487232300,2.519232177734375,0.6000834107398987,-1.6934682130813599,0.059826090931892395
1684252494497258200,2.52925830078125,0.19957959651947021,-1.4182050228118896,0.04312414303421974
1684252494507284200,2.5392841796875,-0.12449140846729279,-1.1217073202133179,0.30482232570648193
1684252494517310200,2.549310302734375,-0.32185831665992737,-0.6808518171310425,0.6346626281738281
1684252494527336200,2.559336181640625,-0.48203521966934204,-0.274903804063797,0.888419508934021
1684252494537362200,2.569362060546875,-0.6617732048034668,-0.06471889466047287,1.0642268657684326
1684252494547389000,2.579388916015625,-0.8476043343544006,-0.16473549604415894,1.109602928161621
1684252494557415000,2.589414794921875,-1.0318660736083984,-0.37634697556495667,1.0679569244384766
1684252494567441200,2.599441162109375,-1.2100954055786133,-0.5225241780281067,0.9645536541938782
1684252494577467100,2.609467041015625,-1.3424439430236816,-0.5268557667732239,0.8259713649749756
1684252494587493000,2.6194931640625,-1.4028631448745728,-0.4201791286468506,0.70311039686203
1684252494597519000,2.62951904296875,-1.3674449920654297,-0.24215619266033173,0.6705213785171509
1684252494607545000,2.639545166015625,-1.2534327507019043,-0.03441844508051872,0.762193500995636
1684252494617571000,2.649571044921875,-1.1269546747207642,0.1254415065050125,0.9058932662010193
1684252494627597000,2.65959716796875,-1.0059540271759033,0.31111735105514526,1.0115739107131958
1684252494637623000,2.669623046875,-0.9186800122261047,0.4853500723838806,1.0290802717208862
1684252494647650000,2.679650146484375,-0.8173331618309021,0.6523382663726807,0.9609414339065552
1684252494657676300,2.68967626953125,-0.7165171504020691,0.808098316192627,0.8486520648002625
1684252494667702300,2.699702392578125,-0.6517296433448792,0.841935932636261,0.7186163067817688
1684252494677728300,2.709728271484375,-0.6269631385803223,0.7219264507293701,0.5985842347145081
1684252494687754200,2.719754150390625,-0.6036332845687866,0.5732373595237732,0.5221536159515381
1684252494697780200,2.7297802734375,-0.567642867565155,0.4990127384662628,0.5145066976547241
1684252494707806200,2.73980615234375,-0.5128262042999268,0.415683776140213,0.6075676679611206
1684252494717832200,2.749832275390625,-0.43369176983833313,0.31969279050827026,0.7864079475402832
1684252494727858200,2.759858154296875,-0.3073599338531494,0.29335013031959534,0.9785369038581848
1684252494737884200,2.76988427734375,-0.18012838065624237,0.34546464681625366,1.1086771488189697
1684252494747911200,2.7799111328125,-0.09990065544843674,0.44122686982154846,1.1506909132003784
1684252494757937200,2.789937255859375,-0.07093348354101181,0.5558863282203674,1.117777943611145
1684252494767963100,2.799963134765625,-0.1235322430729866,0.6233982443809509,1.0177618265151978
1684252494777989000,2.809989013671875,-0.23331129550933838,0.6807806491851807,0.8977124094963074
1684252494788015000,2.82001513671875,-0.34758833050727844,0.7499464154243469,0.8112760782241821
1684252494798041000,2.830041015625,-0.43815740942955017,0.810583770275116,0.7719334959983826
1684252494808067000,2.840067138671875,-0.5179531574249268,0.8404950499534607,0.7794710397720337
1684252494818093000,2.850093017578125,-0.5852454304695129,0.8246989250183105,0.8254820108413696
1684252494828119000,2.860119140625,-0.6177565455436707,0.7735545635223389,0.9036287665367126
1684252494838145000,2.87014501953125,-0.6318407654762268,0.6998316049575806,0.9908189177513123
1684252494848172300,2.88017236328125,-0.6450353860855103,0.5835961103439331,1.0515198707580566
1684252494858198300,2.8901982421875,-0.6846402883529663,0.4237515330314636,1.0414080619812012
1684252494868224300,2.900224365234375,-0.7367799282073975,0.21914778649806976,0.9708564281463623
1684252494878250200,2.910250244140625,-0.7914573550224304,-0.05619388446211815,0.848202109336853
1684252494888276200,2.920276123046875,-0.8212288022041321,-0.41512542963027954,0.6938948035240173
1684252494898302000,2.930302001953125,-0.7896011471748352,-0.8724828958511353,0.4776022434234619
1684252494908328000,2.940327880859375,-0.6795369982719421,-1.2879472970962524,0.13051407039165497
1684252494918354000,2.95035400390625,-0.48160362243652344,-1.4265563488006592,-0.3502466678619385
1684252494928380000,2.9603798828125,-0.22669276595115662,-1.299363136291504,-0.8456518650054932
1684252494938406100,2.97040625,-0.0076393503695726395,-1.044958472251892,-1.2169784307479858
1684252494948433200,2.98043310546875,0.1370435357093811,-0.7513583898544312,-1.4803714752197266
1684252494958459100,2.990459228515625,0.12332606315612793,-0.20737813413143158,-1.7296348810195923
1684252494968485000,3.000485107421875,-0.12423925846815109,0.9699665307998657,-2.1662402153015137
1684252494978511000,3.010510986328125,-0.5948050022125244,2.3509085178375244,-2.643627166748047
1684252494988537000,3.020537109375,-1.0926954746246338,2.9022154808044434,-2.963104009628296
1684252494998563000,3.03056298828125,-1.3887288570404053,2.6715540885925293,-3.3185219764709473
1684252495008589000,3.040589111328125,-1.4200851917266846,2.2597286701202393,-3.853088617324829
1684252495018615000,3.050614990234375,-1.2817113399505615,1.8691866397857666,-4.416082382202148
1684252495028641300,3.060641357421875,-1.0385061502456665,1.6921736001968384,-4.740395545959473
1684252495038667300,3.070667236328125,-0.7397981286048889,1.200614333152771,-4.755855083465576
1684252495048694000,3.080694091796875,-0.5173231959342957,-0.0412752702832222,-4.072333335876465
1684252495058720000,3.090719970703125,-0.12864314019680023,-2.04618501663208,-2.6615912914276123
1684252495068746000,3.10074609375,0.5766423344612122,-3.022897243499756,-1.8927879333496094
1684252495078772000,3.11077197265625,1.1452031135559082,-3.1734189987182617,-1.7074086666107178
1684252495088798000,3.1207978515625,1.465093970298767,-2.8661351203918457,-1.7738059759140015
1684252495098824000,3.130823974609375,1.607774257659912,-2.3478875160217285,-1.954450011253357
1684252495108850000,3.140849853515625,1.730465292930603,-1.861709475517273,-2.1319210529327393
1684252495118876200,3.150876220703125,1.8694846630096436,-1.9553511142730713,-2.0407791137695312
1684252495128902100,3.160902099609375,1.974271297454834,-2.571820020675659,-1.415678858757019
1684252495138928000,3.17092822265625,2.063593864440918,-2.8180668354034424,-0.5441213846206665
1684252495148955100,3.180955078125,2.109687328338623,-2.3139028549194336,0.34754863381385803
1684252495158981000,3.190981201171875,2.1571922302246094,-1.0832273960113525,0.98603355884552
1684252495169007000,3.201007080078125,2.1757278442382812,0.4775184094905853,1.2315306663513184
1684252495179033000,3.211033203125,2.0879087448120117,1.8635255098342896,1.052003264427185
1684252495189059000,3.22105908203125,1.879470944404602,2.7190661430358887,0.6141916513442993
1684252495199085300,3.231085205078125,1.4759646654129028,2.9087560176849365,0.17906054854393005
1684252495209111300,3.241111328125,0.9695024490356445,2.5180931091308594,-0.19771575927734375
1684252495219137300,3.25113720703125,0.4680730402469635,1.7946561574935913,-0.5093716979026794
1684252495229163300,3.261163330078125,0.06458787620067596,0.8444581031799316,-0.635739803314209
1684252495239189200,3.271189208984375,-0.09317801147699356,0.000637162709608674,-0.43232056498527527
1684252495249216000,3.281216064453125,0.06341452896595001,-0.2290775328874588,-0.034857895225286484
1684252495259242000,3.291241943359375,0.42911311984062195,0.2882680296897888,0.22356721758842468
1684252495269268200,3.301268310546875,0.8245078325271606,1.0610923767089844,0.2420058697462082
1684252495279294200,3.311294189453125,1.0534932613372803,1.5804929733276367,0.12158281356096268
1684252495289320200,3.3213203125,1.0838764905929565,1.7274595499038696,0.0013576005585491657
1684252495299346200,3.33134619140625,0.9730745553970337,1.638170838356018,-0.045776281505823135
1684252495309372200,3.3413720703125,0.810387909412384,1.3604103326797485,-0.02432958036661148
1684252495319398100,3.351398193359375,0.6852789521217346,0.9084901809692383,0.012891637161374092
1684252495329424100,3.361424072265625,0.6553830504417419,0.3893471360206604,-0.0005834253970533609
1684252495339450000,3.3714501953125,0.6991543769836426,-0.11471712589263916,-0.03659398481249809
1684252495349476000,3.38147607421875,0.7467466592788696,-0.39659246802330017,-0.04011521488428116
1684252495359503400,3.39150341796875,0.7922675609588623,-0.37844204902648926,0.05454263091087341
1684252495369529300,3.401529296875,0.818220317363739,-0.12129814922809601,0.2522999346256256
1684252495379555300,3.411555419921875,0.8258272409439087,0.30003055930137634,0.5680254697799683
1684252495389581300,3.421581298828125,0.7840492129325867,0.7975165247917175,1.019463300704956
1684252495399607300,3.431607177734375,0.6516584753990173,1.3342853784561157,1.5048987865447998
1684252495409633300,3.44163330078125,0.45201197266578674,1.8871450424194336,1.9002304077148438
1684252495419659300,3.4516591796875,0.2385193258523941,2.3735344409942627,2.1890997886657715
1684252495429685000,3.46168505859375,-0.007494697812944651,2.7073400020599365,2.3812029361724854
1684252495439711000,3.4717109375,-0.3124489188194275,2.8872811794281006,2.4902052879333496
1684252495449737000,3.481737060546875,-0.6946999430656433,2.9845023155212402,2.5082199573516846
1684252495459764200,3.49176416015625,-1.0814653635025024,3.1072237491607666,2.4732394218444824
1684252495469790200,3.501790283203125,-1.43436598777771,3.2172069549560547,2.416001558303833
1684252495479816200,3.511816162109375,-1.7193573713302612,3.261523723602295,2.3584065437316895
1684252495489842200,3.52184228515625,-1.9130929708480835,3.145510673522949,2.3716049194335938
1684252495499868200,3.5318681640625,-1.9403759241104126,2.8227779865264893,2.5660743713378906
1684252495509894100,3.54189404296875,-1.8112491369247437,2.490739583969116,2.871959924697876
1684252495519920000,3.551920166015625,-1.5513222217559814,2.229707956314087,3.251999616622925
1684252495529946000,3.561946044921875,-1.2367509603500366,1.9864997863769531,3.6678006649017334
1684252495539972000,3.57197216796875,-0.9616554975509644,1.6805599927902222,4.01793909072876
1684252495549998000,3.581998046875,-0.8153669834136963,1.188770055770874,4.239985942840576
1684252495560024300,3.5920244140625,-0.830003023147583,0.3473305404186249,4.137347221374512
1684252495570051000,3.602051025390625,-0.9190087914466858,-0.7301303744316101,3.2356138229370117
1684252495580077000,3.6120771484375,-0.9021106958389282,-1.7078213691711426,1.237075686454773
1684252495590103000,3.62210302734375,-0.9069520831108093,-2.0602660179138184,-1.0115865468978882
1684252495600129000,3.63212890625,-0.8977136015892029,-1.95939040184021,-2.40868878364563
1684252495610155000,3.642155029296875,-0.8452677130699158,-1.5468553304672241,-2.0727267265319824
1684252495620181000,3.652180908203125,-0.7926344871520996,-0.4145398736000061,-1.119321584701538
1684252495630207000,3.66220703125,-0.8929693698883057,0.43886688351631165,-0.8886669874191284
1684252495640233000,3.67223291015625,-0.9858459830284119,1.005028247833252,-1.0816441774368286
1684252495650259200,3.68225927734375,-0.876752495765686,1.5644351243972778,-1.0570478439331055
1684252495660285200,3.69228515625,-0.7724969983100891,1.823690414428711,-1.038580298423767
1684252495670312200,3.702312255859375,-0.782952606678009,1.8873136043548584,-1.1598806381225586
1684252495680338200,3.712338134765625,-0.8542855978012085,2.0061774253845215,-1.3932126760482788
1684252495690364200,3.7223642578125,-0.9481164813041687,2.330434799194336,-1.5654652118682861
1684252495700390100,3.73239013671875,-1.046717882156372,3.0690197944641113,-1.6744168996810913
1684252495710416100,3.742416015625,-1.07033371925354,4.298410415649414,-1.5701323747634888
1684252495720442000,3.752442138671875,-0.92839115858078,5.748432636260986,-1.1689860820770264
1684252495730468400,3.76246826171875,-0.6302859783172607,6.9157795906066895,-0.5945435762405396
1684252495740494300,3.772494384765625,-0.35177209973335266,7.427844047546387,-0.07434744387865067
1684252495750520300,3.782520263671875,-0.1458442360162735,7.151461601257324,0.42422160506248474
1684252495760546300,3.79254638671875,-0.01694367080926895,2.0271122455596924,1.611799716949463
1684252495770573000,3.802572998046875,0.1138918399810791,-3.4454450607299805,2.375035524368286
1684252495780599000,3.81259912109375,0.06541487574577332,-4.383344650268555,2.2104289531707764
1684252495790625000,3.822625,0.014042764902114868,-3.8903069496154785,1.6282925605773926
1684252495800651000,3.832651123046875,0.04322882741689682,-3.0705246925354004,0.9359380602836609
1684252495810677000,3.842677001953125,0.16716329753398895,-2.1193058490753174,0.24350236356258392
1684252495820703200,3.852703125,0.3721373677253723,-1.3547905683517456,-0.264308899641037
1684252495830729200,3.862729248046875,0.5951464772224426,-1.5129228830337524,-0.47624221444129944
1684252495840755200,3.872755126953125,1.0377771854400635,-4.821943283081055,-0.21192607283592224
1684252495850781200,3.88278125,1.299994945526123,-7.313364028930664,0.13393385708332062
1684252495860807200,3.89280712890625,1.1188827753067017,-7.659771919250488,0.34037140011787415
1684252495870834200,3.902834228515625,0.9009317755699158,-8.125415802001953,1.2101917266845703
1684252495880860200,3.912860107421875,0.7703098058700562,-8.052427291870117,2.869579315185547
1684252495890886100,3.92288623046875,0.520087718963623,-6.154394626617432,4.172873497009277
1684252495900912000,3.932912109375,0.048702679574489594,-2.7213640213012695,4.170891761779785
1684252495910938400,3.9429384765625,-0.5292685627937317,0.7319620847702026,3.043944835662842
1684252495920964400,3.95296435546875,-1.1044515371322632,3.0690503120422363,1.3928834199905396
1684252495930990300,3.962990234375,-1.5585784912109375,4.210312366485596,-0.0668518990278244
1684252495941016300,3.973016357421875,-1.8782867193222046,4.66995096206665,-1.0449742078781128
1684252495951042000,3.9830419921875,-2.1228957176208496,4.965503215789795,-1.555521011352539
1684252495961068000,3.993068115234375,-2.193824291229248,5.05922794342041,-1.5823701620101929
1684252495971094000,4.003093994140625,-1.956057071685791,4.738414287567139,-1.114636778831482
1684252495981121000,4.01312109375,-1.4356013536453247,3.922922134399414,-0.35958346724510193
1684252495991147000,4.02314697265625,-0.8096067309379578,2.888157367706299,0.3595520555973053
1684252496001173200,4.03317333984375,-0.24392150342464447,1.8824387788772583,0.7748993635177612
1684252496011199200,4.04319921875,0.17283684015274048,1.1543192863464355,0.8110195994377136
1684252496021225200,4.05322509765625,0.388818621635437,0.6464750170707703,0.5678834915161133
1684252496031251200,4.063251220703125,0.4504851996898651,0.22243483364582062,0.19570618867874146
1684252496041277200,4.073277099609375,0.44542020559310913,-0.1216050460934639,-0.1932891309261322
1684252496051303200,4.08330322265625,0.42509976029396057,-0.4236099123954773,-0.5051751136779785
1684252496061329200,4.0933291015625,0.4274672269821167,-0.7304245233535767,-0.7196495532989502
1684252496071355100,4.103355224609375,0.45361068844795227,-1.0518766641616821,-0.8300442099571228
1684252496081381000,4.113381103515625,0.49412035942077637,-1.4145618677139282,-0.8376596570014954
1684252496091408100,4.123408203125,0.5487141013145447,-1.8250958919525146,-0.7217168211936951
1684252496101434000,4.13343408203125,0.5891714096069336,-2.2893893718719482,-0.49588993191719055
1684252496111460000,4.143460205078125,0.6011964082717896,-2.746574878692627,-0.16939784586429596
1684252496121486000,4.153486083984375,0.5491535067558289,-3.14756441116333,0.21218757331371307
1684252496131512000,4.163511962890625,0.4679553210735321,-3.3906826972961426,0.6038309931755066
1684252496141538000,4.1735380859375,0.43186506628990173,-3.488369941711426,0.9597408175468445
1684252496151564000,4.18356396484375,0.4360358417034149,-4.0541582107543945,1.2077481746673584
1684252496161590000,4.193590087890625,0.6339232921600342,-6.1850385665893555,0.7413635849952698
1684252496171616000,4.203615966796875,1.0873395204544067,-8.240819931030273,-0.48610997200012207
1684252496181642000,4.21364208984375,1.6412965059280396,-9.005833625793457,-1.6766774654388428
1684252496191668200,4.223668212890625,2.015775680541992,-8.44288158416748,-2.138894557952881
1684252496201695200,4.2336953125,2.097785711288452,-6.822120666503906,-1.9443790912628174
1684252496211721200,4.24372119140625,1.9686325788497925,-4.240411758422852,-1.4951461553573608
1684252496221747200,4.253747314453125,1.7766820192337036,-1.4990800619125366,-1.3594485521316528
1684252496231773200,4.263773193359375,1.6068059206008911,0.5746187567710876,-1.680402398109436
1684252496241799200,4.273799072265625,1.4014581441879272,1.796275019645691,-2.1083712577819824
1684252496251825200,4.2838251953125,1.1314157247543335,2.249567747116089,-2.304607391357422
1684252496261850600,4.2938505859375,0.8795995712280273,2.2870798110961914,-2.205604314804077
1684252496271876600,4.303876708984375,0.8048060536384583,2.5127010345458984,-2.028675079345703
1684252496281902600,4.313902587890625,0.902119517326355,3.090198040008545,-1.849002480506897
1684252496291928600,4.323928466796875,1.277795672416687,3.9048867225646973,-1.474757432937622
1684252496301955600,4.33395556640625,2.012101173400879,5.009592533111572,-0.7881919145584106
1684252496311981600,4.343981689453125,2.9573423862457275,5.911478042602539,0.09288667887449265
1684252496322007600,4.354007568359375,3.647444009780884,5.912752628326416,1.2172130346298218
1684252496332033500,4.364033447265625,3.6206586360931396,5.015082836151123,2.0405681133270264
1684252496342059500,4.3740595703125,2.901559352874756,3.687366247177124,1.9746167659759521
1684252496352085500,4.38408544921875,1.9345239400863647,1.6817944049835205,1.2372589111328125
1684252496362111500,4.394111572265625,1.0303720235824585,-0.18275612592697144,0.14974777400493622
1684252496372137500,4.404137451171875,0.3535526990890503,-1.1109590530395508,-0.7278042435646057
1684252496382163500,4.41416357421875,-0.006579157430678606,-1.4546399116516113,-1.2126600742340088
1684252496392189400,4.424189453125,-0.16585536301136017,-1.7164372205734253,-1.3402519226074219
1684252496402215700,4.434215576171875,-0.23738180100917816,-1.8509852886199951,-1.1898407936096191
1684252496412242700,4.44424267578125,-0.3652186095714569,-1.4885445833206177,-0.7768250107765198
1684252496422268700,4.4542685546875,-0.6718189120292664,-0.4103482961654663,-0.3160436153411865
1684252496432294700,4.464294677734375,-1.1120010614395142,1.045475959777832,-0.12869210541248322
1684252496442320600,4.474320556640625,-1.6776314973831177,2.124727964401245,-0.2365124374628067
1684252496452346600,4.4843466796875,-2.2986133098602295,2.552229881286621,-0.5502343773841858
1684252496462372600,4.49437255859375,-2.5561909675598145,2.508016586303711,-1.0288293361663818
1684252496472398600,4.504398681640625,-2.384312391281128,2.07064151763916,-1.5051621198654175
1684252496482424600,4.514424560546875,-1.9107352495193481,1.5171273946762085,-1.7911031246185303
1684252496492450800,4.524450927734375,-1.2529860734939575,1.0248140096664429,-2.0413365364074707
1684252496502476800,4.534476806640625,-0.48345091938972473,0.6518567204475403,-2.4565324783325195
1684252496512503600,4.544503662109375,0.13750715553760529,0.3553363084793091,-2.728027105331421
1684252496522529500,4.554529541015625,0.4453310966491699,0.12085849046707153,-2.3646676540374756
1684252496532555500,4.564555419921875,0.5150837898254395,-0.4635319709777832,-1.7004847526550293
1684252496542581500,4.57458154296875,0.4963492453098297,-1.340636134147644,-1.0349045991897583
1684252496552607500,4.584607421875,0.5165879130363464,-2.1496310234069824,-0.4970270097255707
1684252496562633500,4.594633544921875,0.6063989996910095,-2.579996347427368,-0.1367480456829071
1684252496572659700,4.60465966796875,0.7503105998039246,-2.530407667160034,0.06381754577159882
1684252496582685700,4.614685791015625,0.8724802136421204,-2.0595057010650635,0.14453762769699097
1684252496592711700,4.624711669921875,0.9093599319458008,-1.3694603443145752,0.1669531911611557
1684252496602737700,4.634737548828125,0.8501967191696167,-0.7676438093185425,0.14412809908390045
1684252496612763600,4.644763671875,0.7255187034606934,-0.330518901348114,0.10931499302387238
1684252496622790700,4.654790771484375,0.5640943646430969,-0.09488388895988464,0.0878453403711319
1684252496632816600,4.664816650390625,0.35649776458740234,-0.035557445138692856,0.062090177088975906
1684252496642842600,4.674842529296875,0.14423924684524536,-0.058933109045028687,0.04793718829751015
1684252496652868600,4.68486865234375,-0.07737889885902405,-0.13711339235305786,0.08255056291818619
1684252496662894800,4.694894775390625,-0.30878978967666626,-0.2864394187927246,0.19012735784053802
1684252496672920600,4.704920654296875,-0.5457592010498047,-0.4362723231315613,0.3572351336479187
1684252496682946600,4.714946533203125,-0.7904770970344543,-0.5246820449829102,0.5708986520767212
1684252496692972500,4.72497265625,-1.02271568775177,-0.4873048961162567,0.8623059988021851
1684252496702998500,4.73499853515625,-1.2149113416671753,-0.2310180515050888,1.3170381784439087
1684252496713024500,4.7450244140625,-1.367402195930481,0.12100070714950562,1.8655340671539307
1684252496723050500,4.755050537109375,-1.4739683866500854,0.4685485064983368,2.414292573928833
1684252496733077500,4.765077392578125,-1.521128535270691,0.7709209322929382,2.9038279056549072
1684252496743103500,4.775103515625,-1.5123056173324585,1.069520354270935,3.3342761993408203
1684252496753129700,4.785129638671875,-1.4669413566589355,1.441935420036316,3.657531976699829
1684252496763155700,4.79515576171875,-1.3768516778945923,1.9192886352539062,3.807851791381836
1684252496773181700,4.805181640625,-1.2150059938430786,2.457467794418335,3.726022481918335
1684252496783207700,4.815207763671875,-1.050743579864502,2.9162590503692627,3.4496757984161377
1684252496793233700,4.825233642578125,-0.868262767791748,3.2122981548309326,3.0657496452331543
1684252496803259600,4.835259765625,-0.6589134931564331,3.1692347526550293,2.655974864959717
1684252496813285600,4.84528564453125,-0.43924427032470703,2.5601906776428223,2.215935230255127
1684252496823311600,4.8553115234375,-0.2216590940952301,1.2593116760253906,1.9350805282592773
1684252496833337600,4.865337646484375,0.2065548300743103,-0.6113477349281311,1.747799277305603
1684252496843364600,4.875364501953125,0.7066712379455566,-2.5519049167633057,1.504325270652771
1684252496853390600,4.885390625,1.0209945440292358,-4.369528770446777,1.2931419610977173
1684252496863416600,4.89541650390625,1.2233690023422241,-5.5437116622924805,1.563409447669983
1684252496873442600,4.905442626953125,1.5261789560317993,-6.209343433380127,2.029093027114868
1684252496883468500,4.915468505859375,1.816792607307434,-6.50155782699585,2.173175811767578
1684252496893494500,4.92549462890625,1.93747079372406,-6.785818099975586,1.543752670288086
1684252496903520500,4.9355205078125,1.6922932863235474,-5.907956123352051,-0.6573653221130371
1684252496913546500,4.94554638671875,1.316061019897461,-4.068381309509277,-1.79771888256073
1684252496923572500,4.955572509765625,0.9822636246681213,-2.340914249420166,-2.1291942596435547
1684252496933598500,4.965598388671875,0.6669378876686096,-1.0420875549316406,-2.187349796295166
1684252496943624700,4.975624755859375,0.3691563010215759,-0.05820513144135475,-2.2002756595611572
1684252496953651700,4.985651611328125,0.16769829392433167,0.9729120135307312,-2.2902302742004395
1684252496963677700,4.995677734375,0.04694167524576187,1.9594531059265137,-2.452470541000366
1684252496973703700,5.00570361328125,-0.07924235612154007,2.974419355392456,-2.549731969833374
1684252496983729700,5.015729736328125,-0.14996837079524994,3.9406397342681885,-2.511445999145508
1684252496993755600,5.025755615234375,-0.1553002893924713,4.689077854156494,-2.2616305351257324
1684252497003781600,5.03578173828125,-0.11075777560472488,5.173616886138916,-1.775762915611267
1684252497013807600,5.0458076171875,-0.0828169584274292,5.028295993804932,-1.006271481513977
1684252497023833600,5.05583349609375,-0.09646718949079514,4.114395618438721,-0.03725619614124298
1684252497033859800,5.06585986328125,-0.15878276526927948,2.655477285385132,0.9387356042861938
1684252497043885800,5.0758857421875,-0.14879262447357178,1.0821802616119385,1.7224650382995605
1684252497053911800,5.085911865234375,-0.05103490501642227,-0.3280947804450989,2.300122022628784
1684252497063938600,5.0959384765625,0.17248673737049103,-1.455439567565918,2.6415789127349854
1684252497073964500,5.105964599609375,0.49571487307548523,-2.3921263217926025,2.770432472229004
1684252497083990500,5.115990478515625,0.8108194470405579,-3.1922333240509033,2.7562859058380127
1684252497094016500,5.1260166015625,1.0486633777618408,-3.8072075843811035,2.611947536468506
1684252497104042500,5.13604248046875,1.1608601808547974,-4.220813274383545,2.3503894805908203
1684252497114068500,5.146068359375,1.1686235666275024,-4.432117938995361,2.009979486465454
1684252497124094700,5.1560947265625,1.1071754693984985,-4.448004722595215,1.6060010194778442
1684252497134120700,5.16612060546875,1.0004346370697021,-4.290428161621094,1.1861777305603027
1684252497144146700,5.176146728515625,0.876796543598175,-3.9714691638946533,0.8112726807594299
1684252497154172700,5.186172607421875,0.7514303922653198,-3.5372817516326904,0.5455195903778076
1684252497164199700,5.19619970703125,0.6500628590583801,-2.9913408756256104,0.37187865376472473
1684252497174225700,5.2062255859375,0.5824688673019409,-2.213810443878174,0.3208788335323334
1684252497184251600,5.216251708984375,0.48395395278930664,3.4579391479492188,0.6292462944984436
1684252497194277600,5.226277587890625,0.7303591966629028,6.566243648529053,0.2789008617401123
1684252497204303600,5.2363037109375,1.0179907083511353,6.715528964996338,-0.35118207335472107
1684252497214329600,5.24632958984375,1.1221517324447632,4.734567642211914,-0.8692481517791748
1684252497224355600,5.25635546875,0.9798194766044617,1.2680801153182983,-1.0129142999649048
1684252497234381600,5.266381591796875,0.7348227500915527,-1.8756848573684692,-1.0381269454956055
1684252497244407600,5.276407470703125,0.5990317463874817,-3.8828916549682617,-1.0892125368118286
1684252497254433500,5.28643359375,0.679259717464447,-4.809338569641113,-1.201085090637207
1684252497264460000,5.2964599609375,0.7657352089881897,-5.189294815063477,-1.3514423370361328
1684252497274486000,5.306486083984375,0.8764010071754456,-5.317681789398193,-1.4716060161590576
1684252497284513000,5.316512939453125,0.9936646819114685,-5.311707496643066,-1.548358678817749
1684252497294539000,5.3265390625,1.0515544414520264,-5.209453105926514,-1.5930633544921875
1684252497304565000,5.33656494140625,1.029332160949707,-5.0568037033081055,-1.586020588874817
1684252497314591000,5.346591064453125,0.9240277409553528,-4.911323547363281,-1.5327941179275513
1684252497324617000,5.356616943359375,0.7305647730827332,-4.760115146636963,-1.4421772956848145
1684252497334643000,5.366642822265625,0.46617281436920166,-4.373504638671875,-1.1081682443618774
1684252497344669200,5.376669189453125,0.057059146463871,-3.1848490238189697,0.15951979160308838
1684252497354695200,5.386695068359375,-0.4975321888923645,-1.2213988304138184,1.9864754676818848
1684252497364721200,5.39672119140625,-0.9704618453979492,1.0602519512176514,2.840446710586548
1684252497374747100,5.4067470703125,-1.1274083852767944,4.170382499694824,2.042008876800537
1684252497384773000,5.416773193359375,-1.0901203155517578,6.62698221206665,-0.1676710695028305
1684252497394799900,5.4267998046875,-1.2523404359817505,6.598763942718506,-1.9088447093963623
1684252497404825900,5.436825927734375,-1.618211030960083,5.1255574226379395,-2.454298973083496
1684252497414851800,5.446851806640625,-1.9107774496078491,3.0521533489227295,-2.3038523197174072
1684252497424877800,5.4568779296875,-2.084033489227295,1.2426936626434326,-1.9761488437652588
1684252497434904000,5.466904052734375,-2.115917921066284,0.06420600414276123,-1.8590922355651855
1684252497444930000,5.476929931640625,-1.9911037683486938,-0.37730494141578674,-2.0700571537017822
1684252497454956000,5.4869560546875,-1.6832090616226196,-0.11775221675634384,-2.548628568649292
1684252497464982000,5.49698193359375,-1.1446259021759033,0.4144415557384491,-3.0877010822296143
1684252497475008000,5.507008056640625,-0.6214544773101807,0.8083055019378662,-3.661780834197998
1684252497485034000,5.517033935546875,-0.21084631979465485,0.03915312886238098,-4.083771228790283
1684252497495060000,5.52706005859375,-0.03252026066184044,-2.3073151111602783,-3.58677077293396
1684252497505087000,5.5370869140625,-0.1228303536772728,-3.8984129428863525,-3.012951374053955
1684252497515113000,5.547113037109375,-0.11927183717489243,-4.031401634216309,-2.8739967346191406
1684252497525139200,5.55713916015625,0.08629727363586426,-3.472296714782715,-2.893766164779663
1684252497535165200,5.567165283203125,0.41151076555252075,-2.762073278427124,-2.903319835662842
1684252497545191200,5.577191162109375,0.7120864987373352,-2.153050422668457,-2.7507877349853516
1684252497555217200,5.587217041015625,0.8642224669456482,-1.8077646493911743,-2.3196377754211426
1684252497565243000,5.597242919921875,0.8789244890213013,-1.5989162921905518,-1.5783600807189941
1684252497575268900,5.607268798828125,0.8051344156265259,-1.26776123046875,-0.65113765001297
1684252497585294800,5.617294921875,0.7144485116004944,-0.95100337266922,0.3578709065914154
1684252497595320800,5.62732080078125,0.7034565806388855,-1.0125079154968262,1.2423769235610962
1684252497605346800,5.637346923828125,0.8899455666542053,-1.8137333393096924,1.2164020538330078
1684252497615374000,5.6473740234375,1.262581467628479,-2.306640148162842,0.4274251461029053
1684252497625400000,5.657400146484375,1.595844030380249,-1.6490322351455688,-0.39980143308639526
1684252497635426000,5.667426025390625,1.7494910955429077,-0.2254921793937683,-0.9087270498275757
1684252497645452000,5.6774521484375,1.6999900341033936,1.24725341796875,-1.14142644405365
1684252497655478000,5.68747802734375,1.4820305109024048,2.480233669281006,-1.142227292060852
1684252497665504000,5.69750390625,1.1266579627990723,3.217095136642456,-0.9426150918006897
1684252497675530000,5.707530029296875,0.715495228767395,3.428189277648926,-0.6351928114891052
1684252497685556000,5.717555908203125,0.33827710151672363,3.2904510498046875,-0.32356196641921997
1684252497695582000,5.72758203125,0.0028990949504077435,2.896481990814209,-0.06922739744186401
1684252497705608000,5.73760791015625,-0.27592045068740845,2.337510824203491,0.1050599068403244
1684252497715634200,5.74763427734375,-0.47200021147727966,1.7210726737976074,0.22194606065750122
1684252497725661000,5.757660888671875,-0.554338812828064,1.1893264055252075,0.3181353807449341
1684252497735687000,5.76768701171875,-0.5525227785110474,0.7922544479370117,0.38540974259376526
1684252497745713000,5.777712890625,-0.5272577404975891,0.5516918301582336,0.42299991846084595
1684252497755739000,5.78773876953125,-0.48695558309555054,0.45033010840415955,0.40621986985206604
1684252497765764900,5.797764892578125,-0.44678759574890137,0.4307006001472473,0.37823590636253357
1684252497775790800,5.807790771484375,-0.4267558455467224,0.4518974721431732,0.37248560786247253
1684252497785816800,5.81781689453125,-0.4474717676639557,0.4928223788738251,0.39798665046691895
1684252497795842800,5.8278427734375,-0.5149107575416565,0.6031007170677185,0.4511446952819824
1684252497805869000,5.837869140625,-0.6218957304954529,0.812946617603302,0.527912437915802
1684252497815895000,5.84789501953125,-0.7411512732505798,1.207218885421753,0.6907272338867188
1684252497825921000,5.857921142578125,-0.8426768183708191,1.779565453529358,0.9722261428833008
1684252497835947000,5.867947021484375,-0.88288813829422,2.4169647693634033,1.3190491199493408
1684252497845974000,5.87797412109375,-0.8556259274482727,3.0982136726379395,1.626888632774353
1684252497856000000,5.888,-0.7791356444358826,3.713859796524048,1.9419128894805908
1684252497866026000,5.89802587890625,-0.6804354786872864,4.1655473709106445,2.270754098892212
1684252497876052000,5.908052001953125,-0.5763847231864929,4.20529842376709,2.5809566974639893
1684252497886078000,5.918077880859375,-0.4968760013580322,3.8215885162353516,2.888174533843994
1684252497896104200,5.928104248046875,-0.46479129791259766,3.266014814376831,3.1059353351593018
1684252497906130200,5.938130126953125,-0.4359307885169983,2.7579710483551025,3.2272591590881348
1684252497916156200,5.94815625,-0.3672489523887634,2.4007787704467773,3.214099645614624
1684252497926182100,5.95818212890625,-0.2701212465763092,2.1613590717315674,3.118194341659546
1684252497936208100,5.9682080078125,-0.11099710315465927,1.8898826837539673,2.9500865936279297
1684252497946234000,5.978234130859375,0.149016872048378,1.4505311250686646,2.7059192657470703
1684252497956260900,5.9882607421875,0.4187687039375305,0.9836867451667786,2.3761231899261475
1684252497966286800,5.998286865234375,0.6257078051567078,0.7881351709365845,1.9831746816635132
1684252497976312800,6.008312744140625,0.6406201720237732,0.7639328837394714,1.5121914148330688
1684252497986339000,6.018339111328125,0.38160839676856995,0.803996205329895,0.8226792812347412
1684252497996365000,6.028364990234375,0.03197075426578522,0.7556153535842896,0.15321172773838043
1684252498006391000,6.03839111328125,-0.004579051397740841,0.16007225215435028,0.007398083806037903
1684252498016417000,6.0484169921875,0.09170780330896378,-0.5521864295005798,0.014983565546572208
1684252498026443000,6.058443115234375,0.15075325965881348,-0.9698160290718079,-0.02154291421175003
1684252498036469000,6.068468994140625,0.18154844641685486,-1.141409158706665,-0.20001783967018127
1684252498046495000,6.078494873046875,0.20755350589752197,-1.295082449913025,-0.4117797613143921
1684252498056521000,6.08852099609375,0.20501071214675903,-1.460573434829712,-0.5823866724967957
1684252498066548200,6.09854833984375,0.1925736367702484,-1.6346575021743774,-0.7329200506210327
1684252498076574200,6.10857421875,0.17803357541561127,-1.7781325578689575,-0.8679050803184509
1684252498086600200,6.11860009765625,0.061917103826999664,-1.8570220470428467,-1.0040501356124878
1684252498096626000,6.1286259765625,-0.11448615789413452,-1.8861173391342163,-1.1428234577178955
1684252498106652000,6.13865185546875,-0.23196475207805634,-1.6696428060531616,-1.2993556261062622
1684252498116678000,6.148677978515625,-0.25227242708206177,-1.182320237159729,-1.3968510627746582
1684252498126703900,6.158703857421875,-0.14707109332084656,-0.4809000790119171,-1.3907335996627808
1684252498136729900,6.168729736328125,0.06617540866136551,0.2575737237930298,-1.298973798751831
1684252498146755800,6.178755859375,0.3084496855735779,0.9373435378074646,-1.116358995437622
1684252498156781800,6.18878173828125,0.517645537853241,1.498909592628479,-0.8619785904884338
1684252498166807800,6.198807861328125,0.6135534048080444,1.9602577686309814,-0.5983958840370178
1684252498176834000,6.208833984375,0.6084845662117004,2.343742609024048,-0.34159421920776367
1684252498186861000,6.218861083984375,0.5176457762718201,2.606998920440674,-0.08859879523515701
1684252498196887000,6.228886962890625,0.37156662344932556,2.8030831813812256,0.16746841371059418
1684252498206913000,6.2389130859375,0.07389156520366669,3.038585901260376,0.4464002549648285
1684252498216939000,6.24893896484375,-0.27158647775650024,3.2340586185455322,0.7605518102645874
1684252498226965000,6.258965087890625,-0.579021155834198,3.450716018676758,1.166284441947937
1684252498236991000,6.268990966796875,-0.9437801837921143,3.677680253982544,1.66219961643219
1684252498247017000,6.279016845703125,-1.2690963745117188,3.867685079574585,2.1556103229522705
1684252498257043500,6.28904345703125,-1.5391499996185303,4.009097099304199,2.5712573528289795
1684252498267069400,6.2990693359375,-1.6932628154754639,4.003478527069092,2.8536880016326904
1684252498277095400,6.309095458984375,-1.7140103578567505,3.7843003273010254,2.9374501705169678
1684252498287121400,6.319121337890625,-1.5730053186416626,3.4490766525268555,2.882378339767456
1684252498297148400,6.3291484375,-1.3152779340744019,3.1179850101470947,2.798417091369629
1684252498307174400,6.33917431640625,-0.9572274684906006,2.829789638519287,2.720576286315918
1684252498317200400,6.349200439453125,-0.5527047514915466,2.59513258934021,2.6630465984344482
1684252498327226400,6.359226318359375,-0.1459864228963852,2.3789331912994385,2.580387592315674
1684252498337252400,6.36925244140625,0.1700761914253235,2.1719720363616943,2.4257917404174805
1684252498347278300,6.3792783203125,0.3901137113571167,1.9202214479446411,2.1447622776031494
1684252498357304300,6.38930419921875,0.5185526013374329,1.3771156072616577,1.61652672290802
1684252498367330300,6.399330322265625,0.6262439489364624,0.8518308401107788,0.9854306578636169
1684252498377356300,6.409356201171875,0.8027345538139343,0.48863136768341064,0.4912446439266205
1684252498387382500,6.419382568359375,1.0768901109695435,0.12218526750802994,0.05248619243502617
1684252498397408500,6.429408447265625,1.3746451139450073,-0.2586563527584076,-0.3927631974220276
1684252498407434500,6.4394345703125,1.5934545993804932,-0.6270304322242737,-0.8432396650314331
1684252498417461500,6.44946142578125,1.6570141315460205,-0.9502577781677246,-1.2974960803985596
1684252498427487500,6.459487548828125,1.5407952070236206,-1.2633694410324097,-1.7285542488098145
1684252498437513500,6.469513427734375,1.2240259647369385,-1.6595770120620728,-2.1296727657318115
1684252498447539500,6.47953955078125,0.8221005201339722,-2.118239641189575,-2.4305737018585205
1684252498457565200,6.489565185546875,0.4771287441253662,-2.6236202716827393,-2.656773805618286
1684252498467591400,6.49959130859375,0.22289630770683289,-3.077566385269165,-2.7075047492980957
1684252498477617400,6.509617431640625,0.08070507645606995,-3.516638994216919,-2.6526927947998047
1684252498487643400,6.519643310546875,0.029565120115876198,-3.8150835037231445,-2.497462034225464
1684252498497669400,6.52966943359375,0.014854351989924908,-3.6164040565490723,-2.2431588172912598
1684252498507695400,6.5396953125,-0.09943798929452896,-2.447878360748291,-1.7419989109039307
1684252498517721300,6.549721435546875,-0.3294927477836609,0.6852042078971863,-0.12746533751487732
1684252498527747300,6.559747314453125,-0.8316656351089478,2.6519298553466797,1.1112252473831177
1684252498537774300,6.5697744140625,-1.1732884645462036,3.4919848442077637,1.908042550086975
1684252498547800300,6.57980029296875,-1.0578855276107788,3.66953182220459,2.4230422973632812
1684252498557826600,6.58982666015625,-0.8265121579170227,3.6893231868743896,2.809016704559326
1684252498567852500,6.5998525390625,-0.7169583439826965,3.622631549835205,3.137934684753418
1684252498577878500,6.60987841796875,-0.6484450697898865,3.5567026138305664,3.453226089477539
1684252498587904500,6.619904541015625,-0.4595588445663452,3.5153355598449707,3.804595470428467
1684252498597930500,6.629930419921875,-0.07313283532857895,-0.7911113500595093,4.239476203918457
1684252498607956500,6.63995654296875,0.07379135489463806,-6.237507343292236,1.075808048248291
1684252498617982500,6.649982421875,0.9483164548873901,-9.60045337677002,-1.6374002695083618
1684252498628008400,6.660008544921875,1.8830790519714355,-10.322673797607422,-2.7306389808654785
1684252498638034400,6.670034423828125,2.441725969314575,-8.53295612335205,-2.4486007690429688
1684252498648060400,6.680060302734375,2.547516107559204,-6.157367706298828,-1.8149925470352173
1684252498658087400,6.69008740234375,2.400855779647827,-4.78111457824707,-1.3356592655181885
1684252498668113400,6.700113525390625,2.1421825885772705,-4.332415580749512,-1.1339359283447266
1684252498678139400,6.710139404296875,1.775227665901184,-4.127711296081543,-1.0968077182769775
1684252498688165400,6.720165283203125,1.3421361446380615,-3.687993049621582,-1.1115264892578125
1684252498698191400,6.73019140625,0.6641768217086792,-2.5663833618164062,-1.1524693965911865
1684252498708217300,6.74021728515625,-0.15809158980846405,-0.7471590042114258,-1.0947953462600708
1684252498718243300,6.750243408203125,-0.5196234583854675,1.021035075187683,-0.7351170778274536
1684252498728269300,6.760269287109375,-0.5187131762504578,2.375873327255249,-0.3169052302837372
1684252498738295300,6.77029541015625,-0.3343105614185333,3.33168625831604,0.14685578644275665
1684252498748321300,6.7803212890625,-0.06167925149202347,3.9417288303375244,0.6661102175712585
1684252498758347500,6.790347412109375,0.22446542978286743,4.057817459106445,1.2253692150115967
1684252498768374500,6.80037451171875,0.35940951108932495,2.8761470317840576,1.4859862327575684
1684252498778400500,6.810400390625,0.49869203567504883,1.8227355480194092,1.831146478652954
1684252498788426500,6.820426513671875,0.6737549901008606,1.1362296342849731,2.1554722785949707
1684252498798452500,6.830452392578125,0.7805091738700867,1.051294207572937,1.9191373586654663
1684252498808478500,6.840478515625,0.7653352618217468,1.1938430070877075,0.9524043798446655
1684252498818504400,6.85050439453125,0.6164999604225159,1.3141180276870728,-0.2471209168434143
1684252498828530400,6.860530517578125,0.4483126401901245,1.26394784450531,-1.179109811782837
1684252498838556400,6.870556396484375,0.2802887558937073,1.1192984580993652,-1.7872672080993652
1684252498848582400,6.88058251953125,0.11441497504711151,1.0553483963012695,-2.1236610412597656
1684252498858608400,6.8906083984375,-0.03863956034183502,1.1920223236083984,-2.266594409942627
1684252498868634400,6.90063427734375,-0.1719144582748413,1.3773480653762817,-2.3487675189971924
1684252498878660400,6.910660400390625,-0.3903682231903076,1.4373136758804321,-2.4099948406219482
1684252498888687400,6.920687255859375,-0.7158291339874268,1.3452659845352173,-2.4260995388031006
1684252498898713300,6.93071337890625,-1.0584131479263306,1.1234369277954102,-2.4312264919281006
1684252498908739300,6.9407392578125,-1.3296635150909424,0.903265655040741,-2.4655261039733887
1684252498918765300,6.950765380859375,-1.5722758769989014,0.8451064825057983,-2.460698366165161
1684252498928791600,6.96079150390625,-1.8089326620101929,0.8799538016319275,-2.3951637744903564
1684252498938817500,6.970817626953125,-2.013328790664673,0.8327545523643494,-2.272688150405884
1684252498948843500,6.980843505859375,-2.071603298187256,0.6985356211662292,-2.081273078918457
1684252498958869500,6.990869384765625,-1.968756079673767,0.41598939895629883,-1.7827842235565186
1684252498968895500,7.0008955078125,-1.756596565246582,-0.10486546158790588,-1.3430054187774658
1684252498978921500,7.01092138671875,-1.4560391902923584,-0.8683929443359375,-0.7738857269287109
1684252498988947500,7.020947509765625,-1.0636905431747437,-1.77618408203125,-0.1270475536584854
1684252498998973400,7.030973388671875,-0.6802222728729248,-2.7661781311035156,0.5503828525543213
1684252499008999400,7.04099951171875,-0.4503403306007385,-3.6121273040771484,1.2494568824768066
1684252499019026400,7.0510263671875,-0.26931676268577576,-3.908299446105957,1.9406284093856812
1684252499029052400,7.061052490234375,0.06677456200122833,-2.9612925052642822,2.2248950004577637
1684252499039078400,7.071078369140625,0.7112795114517212,-1.6827601194381714,1.5032051801681519
1684252499049104400,7.0811044921875,1.5105386972427368,-0.8151772022247314,0.22562825679779053
1684252499059130400,7.09113037109375,2.1327176094055176,-0.647328794002533,-1.010854721069336
1684252499069156400,7.10115625,2.260826349258423,-0.9297063946723938,-1.9685715436935425
1684252499079182300,7.111182373046875,2.1976888179779053,-1.2826247215270996,-2.3665285110473633
1684252499089208300,7.121208251953125,1.9398213624954224,-1.468174934387207,-2.1264634132385254
1684252499099234300,7.131234375,1.5488173961639404,-1.4343054294586182,-1.4701975584030151
1684252499109260300,7.14126025390625,1.099855899810791,-1.4289932250976562,-0.6795256733894348
1684252499119286300,7.151286376953125,0.6435282826423645,-1.4267889261245728,0.0606781467795372
1684252499129312500,7.1613125,0.24155008792877197,-1.327623963356018,0.654849648475647
1684252499139339500,7.171339599609375,-0.05795406177639961,-1.0267562866210938,1.0952361822128296
1684252499149365500,7.181365478515625,-0.2627532184123993,-0.48060697317123413,1.4145190715789795
1684252499159391500,7.1913916015625,-0.364014595746994,0.29839372634887695,1.6193580627441406
1684252499169417500,7.20141748046875,-0.2744447886943817,1.2113591432571411,1.682623028755188
1684252499179443500,7.211443359375,-0.13301227986812592,1.8947629928588867,1.5925568342208862
1684252499189469400,7.221469482421875,-0.00592321902513504,2.2178878784179688,1.362107753753662
1684252499199495400,7.231495361328125,0.1304873526096344,2.387768507003784,1.0803653001785278
1684252499209521400,7.241521484375,0.29379457235336304,2.4761273860931396,0.8375954627990723
1684252499219547400,7.25154736328125,0.4593356251716614,2.3209939002990723,0.6769474744796753
1684252499229573400,7.261573486328125,0.5618013143539429,1.954466700553894,0.5799476504325867
1684252499239599400,7.271599365234375,0.6467018127441406,1.7793384790420532,0.584850013256073
1684252499249625300,7.281625244140625,0.8291364312171936,1.7265081405639648,0.7131913900375366
1684252499259652000,7.291652099609375,1.0109504461288452,1.5471954345703125,0.9348974227905273
1684252499269678000,7.301677978515625,1.0550626516342163,1.2548292875289917,1.0839532613754272
1684252499279704000,7.3117041015625,1.2575244903564453,1.2146695852279663,1.1698743104934692
1684252499289730000,7.32172998046875,1.6106170415878296,1.3686299324035645,1.309806227684021
1684252499299756000,7.331756103515625,1.944858431816101,1.4848425388336182,1.4425888061523438
1684252499309782000,7.341781982421875,2.230597734451294,1.2834585905075073,1.385488748550415
1684252499319808000,7.35180810546875,2.473569869995117,1.1315428018569946,1.0737409591674805
1684252499329834000,7.361833984375,2.6901981830596924,1.2553951740264893,0.8916961550712585
1684252499339860000,7.37185986328125,2.7745542526245117,1.2410404682159424,0.9649653434753418
1684252499349886000,7.381885986328125,2.6812260150909424,1.0627623796463013,1.0886788368225098
1684252499359912000,7.391911865234375,2.5471577644348145,0.8406822085380554,1.180802583694458
1684252499369938200,7.401938232421875,2.3877954483032227,0.6552430987358093,1.1502491235733032
1684252499379965200,7.411965087890625,2.2562954425811768,0.6401158571243286,0.9577318429946899
1684252499389991200,7.4219912109375,2.1974802017211914,0.8446242809295654,0.6537036299705505
1684252499400017000,7.432016845703125,2.1855270862579346,1.0729045867919922,0.367086797952652
1684252499410043000,7.44204296875,2.151461362838745,1.1504603624343872,0.18948550522327423
1684252499420068900,7.45206884765625,2.061145305633545,0.9877821207046509,0.09705304354429245
1684252499430094800,7.4620947265625,1.9359153509140015,0.7445725202560425,0.06591209769248962
1684252499440120800,7.472120849609375,1.7580194473266602,0.31267303228378296,0.5558825731277466
1684252499450147000,7.48214697265625,1.4416548013687134,0.007990090176463127,1.2472509145736694
1684252499460173000,7.492173095703125,1.080346703529358,-0.02244797721505165,1.8841501474380493
1684252499470199000,7.502198974609375,0.7939602732658386,0.20580492913722992,2.3449695110321045
1684252499480225000,7.51222509765625,0.6192848682403564,0.5933218002319336,2.5807461738586426
1684252499490251000,7.5222509765625,0.5188760161399841,1.0028367042541504,2.637326717376709
1684252499500278000,7.532278076171875,0.42384326457977295,1.2612799406051636,2.5673320293426514
1684252499510304000,7.542303955078125,0.37181994318962097,1.3678568601608276,2.3901891708374023
1684252499520330000,7.552330078125,0.3618232309818268,1.7062658071517944,1.9379011392593384
1684252499530356000,7.56235595703125,0.3269432485103607,1.9939274787902832,1.2223631143569946
1684252499540382200,7.57238232421875,0.13628780841827393,1.5601478815078735,0.8039376139640808
1684252499550408200,7.582408203125,-0.10723883658647537,1.0092697143554688,0.6808977723121643
1684252499560434200,7.59243408203125,-0.33444908261299133,0.7097708582878113,0.6320215463638306
1684252499570460200,7.602460205078125,-0.5058242082595825,0.6677627563476562,0.5684467554092407
1684252499580486100,7.612486083984375,-0.6398488283157349,0.8536421060562134,0.47235381603240967
1684252499590512000,7.62251220703125,-0.7625213861465454,1.0924873352050781,0.39733102917671204
1684252499600538000,7.6325380859375,-0.9308838248252869,1.299005389213562,0.394559770822525
1684252499610564000,7.642564208984375,-1.1701419353485107,1.4335863590240479,0.42548954486846924
1684252499620590800,7.6525908203125,-1.4581660032272339,1.5527989864349365,0.42160236835479736
1684252499630617000,7.6626171875,-1.7605699300765991,1.715239405632019,0.35002821683883667
1684252499640643000,7.67264306640625,-2.07438325881958,1.946492075920105,0.21979591250419617
1684252499650669000,7.6826689453125,-2.50361704826355,2.261829137802124,0.011160388588905334
1684252499660695000,7.692695068359375,-3.0164549350738525,2.5482168197631836,-0.20365017652511597
1684252499670721000,7.702720947265625,-3.6359028816223145,2.7825136184692383,-0.35878634452819824
1684252499680747000,7.7127470703125,-4.357827663421631,2.887082576751709,-0.47938278317451477
1684252499690773000,7.72277294921875,-5.095201015472412,2.9631547927856445,-0.5371501445770264
1684252499700799000,7.732799072265625,-5.779891014099121,3.1630756855010986,-0.480768620967865
1684252499710825000,7.742824951171875,-6.320950508117676,3.5639960765838623,-0.30900564789772034
1684252499720851000,7.752850830078125,-6.766571998596191,4.152520656585693,-0.09157265722751617
1684252499730877000,7.762876953125,-6.884069919586182,4.340527534484863,0.14860963821411133
1684252499740903200,7.772903076171875,-6.048681735992432,3.9252259731292725,0.6064954996109009
1684252499750930200,7.78293017578125,-4.473081111907959,3.6582767963409424,1.2175740003585815
1684252499760956200,7.7929560546875,-2.512160062789917,3.6168997287750244,1.5853458642959595
1684252499770982100,7.802982177734375,-0.4757343828678131,4.010954856872559,1.6544795036315918
1684252499781008100,7.813008056640625,1.3590099811553955,4.466400146484375,1.5023880004882812
1684252499791033900,7.823033935546875,2.6477832794189453,4.616483211517334,1.0652525424957275
1684252499801059800,7.833059814453125,3.2752132415771484,4.351227760314941,0.43975114822387695
1684252499811085800,7.8430859375,3.323219060897827,3.701087236404419,-0.21499113738536835
1684252499821111800,7.85311181640625,2.9552857875823975,2.846357583999634,-0.7767732739448547
1684252499831138000,7.863137939453125,2.3285045623779297,1.960507869720459,-1.1558934450149536
1684252499841164000,7.8731640625,1.643467903137207,1.1244324445724487,-1.3124114274978638
1684252499851190000,7.88318994140625,0.9654898643493652,0.37646570801734924,-1.2770262956619263
1684252499861216000,7.893216064453125,0.3656306862831116,-0.2730441093444824,-0.9994285702705383
1684252499871243000,7.903242919921875,-0.08896499872207642,-0.756097674369812,-0.4853830635547638
1684252499881269000,7.91326904296875,-0.43120434880256653,-0.9640437364578247,0.09611520916223526
1684252499891295000,7.923294921875,-0.7065288424491882,-0.9414118528366089,0.5607621669769287
1684252499901321000,7.933321044921875,-0.8012502789497375,-0.7172288298606873,0.8955023288726807
1684252499911347200,7.94334716796875,-0.6638578772544861,-0.29103145003318787,1.1686526536941528
1684252499921373200,7.953373291015625,-0.38917386531829834,0.34426721930503845,1.3179805278778076
1684252499931399200,7.963399169921875,-0.09837893396615982,1.1975855827331543,1.2996114492416382
1684252499941425200,7.973425048828125,0.2146410346031189,2.1690592765808105,1.1566952466964722
1684252499951451100,7.983451171875,0.5240131616592407,3.159471273422241,0.9186685681343079
1684252499961477000,7.99347705078125,0.775790274143219,4.0248284339904785,0.6074041724205017
1684252499971503000,8.003503173828125,0.8476428985595703,4.611495494842529,0.2716796100139618
1684252499981529000,8.013529052734375,0.732147216796875,4.902139663696289,0.06160016357898712
1684252499991555800,8.023555908203125,0.6266847252845764,4.90103006362915,0.04637513682246208
1684252500001582000,8.03358203125,0.7239649295806885,4.603893280029297,0.23918187618255615
1684252500011608000,8.043608154296875,0.6200429797172546,3.650786876678467,0.6257919073104858
1684252500021634000,8.053634033203124,0.3819476068019867,2.3963160514831543,0.9820411205291748
1684252500031660000,8.063659912109374,0.24191434681415558,1.5434389114379883,1.2449144124984741
1684252500041686000,8.07368603515625,0.2245180457830429,1.525997281074524,1.5784318447113037
1684252500051712000,8.0837119140625,0.2912093698978424,1.8002915382385254,1.666420817375183
1684252500061738000,8.093738037109375,0.4048246145248413,2.2386739253997803,1.4983210563659668
1684252500071764000,8.103763916015625,0.5728289484977722,2.9377377033233643,1.1651592254638672
1684252500081790000,8.1137900390625,0.7082773447036743,3.5627949237823486,0.8625971674919128
1684252500091816000,8.12381591796875,0.7295599579811096,3.653671979904175,0.7318112850189209
1684252500101842000,8.133842041015624,0.6211804747581482,3.0436620712280273,0.6581077575683594
1684252500111868200,8.1438681640625,0.4499461352825165,2.4614522457122803,0.31705179810523987
1684252500121895200,8.153895263671876,0.2886592447757721,2.3362514972686768,-0.3742520809173584
1684252500131921200,8.163921142578126,0.17388859391212463,2.693194627761841,-1.2826751470565796
1684252500141947100,8.173947021484375,0.1058909073472023,3.3598380088806152,-2.1925759315490723
1684252500151973000,8.18397314453125,0.0882243812084198,4.120484828948975,-2.9276974201202393
1684252500161999000,8.1939990234375,0.09788846224546432,4.746666431427002,-3.45182204246521
1684252500172025000,8.204025146484375,0.12990710139274597,5.112765312194824,-3.7811594009399414
1684252500182050800,8.21405078125,0.20873293280601501,5.22245454788208,-3.9553732872009277
1684252500192076800,8.224076904296876,0.34092316031455994,5.0416998863220215,-3.965400218963623
1684252500202103000,8.23410302734375,0.5301854610443115,4.605501174926758,-3.77659273147583
1684252500212129000,8.24412890625,0.7740269899368286,3.5040390491485596,-3.1607704162597656
1684252500222155000,8.254155029296875,1.0911809206008911,1.494596004486084,-2.0364677906036377
1684252500232181000,8.264180908203125,1.3206692934036255,-0.09306538850069046,-1.0631088018417358
1684252500242207000,8.27420703125,1.3151205778121948,-0.7712449431419373,-0.5320912599563599
1684252500252234000,8.28423388671875,1.1680253744125366,-0.5802084803581238,-0.4938417375087738
1684252500262260200,8.29426025390625,1.0298863649368286,0.16111919283866882,-0.817684531211853
1684252500272286200,8.3042861328125,1.01699960231781,1.095348596572876,-1.2248059511184692
1684252500282312200,8.314312255859376,1.109147310256958,2.0017714500427246,-1.4397491216659546
1684252500292338200,8.324338134765625,1.2539324760437012,2.787140130996704,-1.4025309085845947
1684252500302364200,8.3343642578125,1.4390349388122559,3.5464956760406494,-1.0628571510314941
1684252500312390100,8.34439013671875,1.6524511575698853,4.231322288513184,-0.4057312607765198
1684252500322416000,8.354416015625,1.878859043121338,4.696728706359863,0.4914887547492981
1684252500332442000,8.364442138671874,2.068885564804077,4.748262882232666,1.4166775941848755
1684252500342468000,8.374468017578126,2.114898204803467,4.288544178009033,2.2035365104675293
1684252500352494000,8.384494140625,2.0163731575012207,3.325563669204712,2.7847182750701904
1684252500362520300,8.394520263671875,1.8279516696929932,1.857504963874817,3.0955848693847656
1684252500372546300,8.40454638671875,1.7158232927322388,0.36536794900894165,2.878450870513916
1684252500382573000,8.414572998046875,1.7044262886047363,-0.5441990494728088,2.2931036949157715
1684252500392599000,8.42459912109375,1.749144434928894,-0.7472313046455383,1.690921664237976
1684252500402625000,8.434625,1.8441359996795654,-0.3583933115005493,1.1957573890686035
1684252500412651000,8.444651123046874,1.9172518253326416,0.40755337476730347,0.8534984588623047
1684252500422677000,8.454677001953126,1.9163389205932617,1.2779804468154907,0.5283022522926331
1684252500432703000,8.464702880859376,1.7568933963775635,2.008878469467163,0.06385833024978638
1684252500442729200,8.474729248046875,1.4568965435028076,2.306109666824341,-0.3436838686466217
1684252500452755200,8.484755126953125,1.1937810182571411,2.0157268047332764,-0.37565261125564575
1684252500462781200,8.49478125,1.1270464658737183,1.3225542306900024,0.15411990880966187
1684252500472807200,8.50480712890625,1.1866918802261353,1.1281367540359497,0.7895333170890808
1684252500482833200,8.514833251953124,1.2250821590423584,1.553780436515808,1.0821232795715332
1684252500492859100,8.524859130859374,1.2810215950012207,2.2244644165039062,1.145017385482788
1684252500502885000,8.534885009765626,1.3187705278396606,2.673794984817505,1.07846999168396
1684252500512912100,8.544912109375,1.3058584928512573,2.7639195919036865,0.9073319435119629
1684252500522938000,8.554938232421875,1.2579002380371094,2.5789711475372314,0.6643072962760925
1684252500532964400,8.56496435546875,1.1933197975158691,2.2103567123413086,0.42468422651290894
1684252500542990000,8.574989990234375,1.0967098474502563,1.776758074760437,0.2319003790616989
1684252500553016000,8.58501611328125,0.9250932931900024,1.3845720291137695,0.10528532415628433
1684252500563042000,8.5950419921875,0.7338308691978455,1.1096036434173584,0.040115371346473694
1684252500573068000,8.605068115234374,0.5546579360961914,0.9305999875068665,0.014508873224258423
1684252500583094000,8.615093994140626,0.4236207902431488,0.7815101146697998,0.04815152287483215
1684252500593120000,8.6251201171875,0.34436938166618347,0.647403359413147,0.14601464569568634
1684252500603146000,8.63514599609375,0.2940012812614441,0.55169278383255,0.31253838539123535
1684252500613172000,8.645171875,0.24936765432357788,0.5137600898742676,0.5132942795753479
1684252500623198000,8.655197998046875,0.1954098790884018,0.529493510723114,0.7203100323677063
1684252500633224000,8.665223876953124,0.1275104284286499,0.5879107117652893,0.8909832835197449
1684252500643251200,8.675251220703124,0.03669716417789459,0.6121659874916077,1.0103187561035156
1684252500653277200,8.685277099609374,-0.08865796774625778,0.566737174987793,1.07988703250885
1684252500663303200,8.69530322265625,-0.23390677571296692,0.4440421462059021,1.1248729228973389
1684252500673329200,8.7053291015625,-0.35908108949661255,0.25702303647994995,1.1612783670425415
1684252500683355100,8.715355224609375,-0.4325616955757141,0.034610215574502945,1.1752903461456299
1684252500693381000,8.725381103515625,-0.45455843210220337,-0.16749005019664764,1.1591426134109497
1684252500703407000,8.735406982421875,-0.3721402585506439,-0.24843096733093262,1.198426365852356
1684252500713433000,8.74543310546875,-0.14537593722343445,-0.20458897948265076,1.3399468660354614
1684252500723459000,8.755458984375,0.21722649037837982,-0.04697485268115997,1.5508955717086792
1684252500733485300,8.7654853515625,0.564746618270874,0.0027195035945624113,1.7827415466308594
1684252500743511300,8.77551123046875,0.6893525123596191,-0.587171733379364,1.9795451164245605
1684252500753537300,8.785537353515625,0.5574667453765869,-1.7785959243774414,2.1043105125427246
1684252500763563300,8.795563232421875,0.22667470574378967,-3.161851644515991,2.162238836288452
1684252500773590000,8.805590087890625,-0.18178817629814148,-4.340668201446533,2.0690460205078125
1684252500783616000,8.815615966796875,-0.39765334129333496,-5.639341354370117,1.4178471565246582
1684252500793642000,8.82564208984375,0.8610513210296631,-8.846308708190918,-2.9839487075805664
1684252500803668000,8.83566796875,2.273228406906128,-10.253765106201172,-4.494369983673096
1684252500813694000,8.84569384765625,2.790543794631958,-8.397126197814941,-4.206557273864746
1684252500823720200,8.85572021484375,2.036494255065918,-3.881908655166626,-3.320082902908325
1684252500833746200,8.86574609375,1.0953224897384644,1.4661756753921509,-1.157993197441101
1684252500843772200,8.875772216796875,0.44613251090049744,4.302600860595703,1.0772020816802979
1684252500853798100,8.885798095703125,-0.13588324189186096,5.066768169403076,2.1457090377807617
1684252500863824100,8.89582421875,-0.7228167653083801,4.703700542449951,2.290349245071411
1684252500873850000,8.90585009765625,-1.31194269657135,4.148098468780518,2.0812828540802
1684252500883876000,8.9158759765625,-1.8788801431655884,3.2782180309295654,1.8783701658248901
1684252500893902000,8.925902099609376,-2.4172065258026123,2.0855512619018555,1.7257335186004639
1684252500903929300,8.935929443359376,-2.884925365447998,0.8858293294906616,1.5198323726654053
1684252500913955300,8.945955322265625,-3.1983814239501953,0.16133429110050201,1.2988542318344116
1684252500923981300,8.955981201171875,-3.2833356857299805,0.12633316218852997,1.1052725315093994
1684252500934007000,8.966007080078125,-3.103363513946533,0.7285808324813843,1.023547887802124
1684252500944033000,8.976032958984375,-2.6856651306152344,1.6655514240264893,1.0315618515014648
1684252500954059000,8.98605908203125,-2.0884790420532227,2.4847025871276855,1.1178781986236572
1684252500964085000,8.9960849609375,-1.3831263780593872,3.022258996963501,1.343569040298462
1684252500974111000,9.006111083984376,-0.5360844135284424,2.13124418258667,2.597971200942993
1684252500984137000,9.016136962890625,0.14028845727443695,-0.059068355709314346,4.3620991706848145
1684252500994163000,9.026162841796875,0.32870128750801086,-1.469684362411499,5.192509651184082
1684252501004189000,9.03618896484375,0.24487826228141785,-2.0487773418426514,5.160027980804443
1684252501014215200,9.046215087890625,0.14585308730602264,-2.0695254802703857,4.376045227050781
1684252501024241200,9.0562412109375,0.15014104545116425,-1.7294493913650513,3.2047626972198486
1684252501034268200,9.06626806640625,0.2259252369403839,-0.8313432335853577,2.016010046005249
1684252501044294100,9.076294189453124,0.29190826416015625,0.2734292149543762,1.0333096981048584
1684252501054320000,9.086320068359376,0.35016170144081116,1.087222695350647,0.3375200033187866
1684252501064346000,9.09634619140625,0.33864620327949524,1.1202524900436401,0.024669963866472244
1684252501074372000,9.1063720703125,0.204288512468338,0.38287630677223206,0.0562841072678566
1684252501084398000,9.116398193359375,0.0452466644346714,-0.8005145192146301,0.22392423450946808
1684252501094424000,9.126424072265625,-0.06444332748651505,-2.098768949508667,0.39963966608047485
1684252501104450300,9.1364501953125,-0.07941535115242004,-3.2012174129486084,0.44520580768585205
1684252501114476300,9.146476318359374,-0.03889307379722595,-4.165633201599121,0.42500075697898865
1684252501124502300,9.156502197265626,0.08223548531532288,-5.127049922943115,0.5402961373329163
1684252501134528300,9.1665283203125,0.31198960542678833,-6.222980499267578,0.74495530128479
1684252501144554200,9.17655419921875,0.6233373284339905,-7.421626567840576,0.770954430103302
1684252501154580200,9.186580322265625,0.9655727744102478,-7.696131706237793,0.16261358559131622
1684252501164606200,9.196606201171875,1.304627537727356,-6.6835856437683105,-0.8973908424377441
1684252501174633000,9.206633056640625,1.585463047027588,-4.931941509246826,-1.9682542085647583
1684252501184659000,9.216658935546874,1.718673825263977,-3.238163709640503,-2.6195664405822754
1684252501194685200,9.226685302734374,1.7135541439056396,-1.9312961101531982,-2.78580904006958
1684252501204711200,9.236711181640626,1.5890886783599854,-1.1548296213150024,-2.5047616958618164
1684252501214737200,9.246737060546875,1.4254686832427979,-0.6307917833328247,-1.9811654090881348
1684252501224763100,9.25676318359375,1.393905758857727,0.06737934798002243,-1.5623316764831543
1684252501234789000,9.2667890625,1.2682709693908691,0.8359047770500183,-1.3947257995605469
1684252501244815000,9.276815185546875,0.9632483124732971,1.942856788635254,-1.7342114448547363
1684252501254841000,9.286841064453125,0.7671656012535095,4.0404372215271,-2.9666101932525635
1684252501264867000,9.2968671875,0.5289099216461182,5.484188079833984,-3.1685526371002197
1684252501274893000,9.30689306640625,0.33686310052871704,6.460641384124756,-3.301865577697754
1684252501284919300,9.316919189453126,0.4460045099258423,8.197561264038086,-3.5615408420562744
1684252501294945300,9.3269453125,0.7386165857315063,9.384957313537598,-4.18533992767334
1684252501304972300,9.33697216796875,0.7055853605270386,8.162867546081543,-4.898675441741943
1684252501314998300,9.346998291015625,0.15970906615257263,5.029287338256836,-5.277442455291748
1684252501325024000,9.35702392578125,-0.17983117699623108,-2.9801299571990967,-4.876166820526123
1684252501335050000,9.367050048828125,-0.7372978925704956,-6.435483932495117,-4.982447147369385
1684252501345076000,9.377075927734374,-1.1679463386535645,-6.084057331085205,-5.202462673187256
1684252501355102000,9.38710205078125,-1.2474305629730225,-3.556419610977173,-5.1660943031311035
1684252501365128000,9.3971279296875,-0.9162150025367737,0.03199975565075874,-4.640970230102539
1684252501375154200,9.407154296875,-0.08457664400339127,2.9289650917053223,-3.3867557048797607
1684252501385180200,9.41718017578125,0.9816609025001526,4.063695430755615,-1.6236209869384766
1684252501395206100,9.4272060546875,1.9841328859329224,2.9358716011047363,-0.283940851688385
1684252501405232000,9.437232177734375,2.834097146987915,0.7161979675292969,0.021648623049259186
1684252501415258000,9.447258056640624,3.3893959522247314,-0.7572672963142395,-0.23679706454277039
1684252501425284000,9.4572841796875,3.4230117797851562,-1.1361030340194702,-0.5234684944152832
1684252501435311000,9.46731103515625,3.2014212608337402,-0.9868343472480774,-0.5753467082977295
1684252501445337000,9.477337158203126,2.944345474243164,-0.5614409446716309,-0.34828317165374756
1684252501455363300,9.48736328125,2.6632750034332275,-0.10688434541225433,0.10315873473882675
1684252501465389300,9.497389404296875,2.372817039489746,0.07335440069437027,0.5535439848899841
1684252501475415300,9.507415283203125,2.0308456420898438,-0.0645422488451004,0.876289427280426
1684252501485441300,9.517441162109375,1.6194740533828735,-0.37386974692344666,0.9712657332420349
1684252501495467300,9.52746728515625,1.1965901851654053,-0.5617144107818604,0.735240638256073
1684252501505493200,9.5374931640625,0.7125436663627625,-0.32567018270492554,0.4228537082672119
1684252501515519200,9.547519287109376,0.2876293659210205,0.3626675009727478,0.40514278411865234
1684252501525545200,9.557545166015625,0.11790052056312561,1.1986593008041382,0.8547501564025879
1684252501535571200,9.5675712890625,0.1704884171485901,1.7795581817626953,1.4103796482086182
1684252501545597200,9.57759716796875,0.2839931547641754,2.017914295196533,1.6334233283996582
1684252501555623200,9.587623046875,0.3340395987033844,2.1875007152557373,1.5509644746780396
1684252501565649200,9.597649169921874,0.29083356261253357,2.4036076068878174,1.3777588605880737
1684252501575676200,9.60767626953125,0.16595859825611115,2.43705153465271,1.1212013959884644
1684252501585702100,9.6177021484375,0.0076568457297980785,2.098416328430176,0.7155018448829651
1684252501595728100,9.62772802734375,-0.01853948086500168,1.4583512544631958,0.175249382853508
1684252501605754000,9.637754150390625,0.13845865428447723,0.7710287570953369,-0.300148069858551
1684252501615780000,9.647780029296875,0.3839580714702606,0.26603519916534424,-0.5240721106529236
1684252501625806000,9.65780615234375,0.5858299136161804,0.014872763305902481,-0.45368874073028564
1684252501635832000,9.66783203125,0.6967430710792542,0.01376725547015667,-0.16142266988754272
1684252501645858000,9.677858154296874,0.6931528449058533,0.11503741890192032,0.2174479365348816
1684252501655884300,9.68788427734375,0.6015816330909729,0.2763615846633911,0.5724846720695496
1684252501665910300,9.69791015625,0.4790929853916168,0.483524352312088,0.8643074631690979
1684252501675936300,9.707936279296876,0.32902851700782776,0.6845739483833313,1.0705389976501465
1684252501685962200,9.717962158203125,0.17241282761096954,0.8025400042533875,1.197214126586914
1684252501695988200,9.72798828125,0.00014602451119571924,0.7604243159294128,1.283068060874939
1684252501706014200,9.73801416015625,-0.18130819499492645,0.597899317741394,1.3291268348693848
1684252501716041200,9.748041259765625,-0.393219918012619,0.3164823651313782,1.3528215885162354
1684252501726067000,9.75806689453125,-0.6341989636421204,0.00628668162971735,1.3731385469436646
1684252501736093000,9.768093017578124,-0.8712049126625061,-0.24918027222156525,1.4114362001419067
1684252501746119200,9.778119140625,-1.0987725257873535,-0.44569599628448486,1.4838800430297852
1684252501756145200,9.788145263671876,-1.3092063665390015,-0.6815144419670105,1.6225855350494385
1684252501766171100,9.798171142578125,-1.4812440872192383,-1.0501161813735962,1.8820605278015137
1684252501776197000,9.808197021484375,-1.5914307832717896,-1.4680436849594116,2.251497507095337
1684252501786223000,9.81822314453125,-1.6238558292388916,-1.7323158979415894,2.653393030166626
1684252501796249000,9.8282490234375,-1.6311501264572144,-1.8450859785079956,3.004359006881714
1684252501806275000,9.838275146484374,-1.6389989852905273,-1.8913346529006958,3.3162028789520264
1684252501816301000,9.848301025390626,-1.6352401971817017,-1.9304444789886475,3.6183674335479736
1684252501826327000,9.8583271484375,-1.6609280109405518,-1.9825940132141113,3.8287558555603027
1684252501836353000,9.86835302734375,-1.7251908779144287,-1.8906136751174927,3.8542139530181885
1684252501846380300,9.87838037109375,-1.7257781028747559,-1.376686453819275,3.599921703338623
1684252501856406300,9.88840625,-1.424692153930664,0.00018506834749132395,3.1366610527038574
1684252501866432300,9.898432373046875,-0.715416431427002,1.200365662574768,2.576972007751465
1684252501876458200,9.908458251953125,0.486000120639801,-2.2992382049560547,1.0737829208374023
1684252501886484200,9.918484130859374,1.137038230895996,-3.0532424449920654,-0.017198903486132622
1684252501896510200,9.92851025390625,1.3106744289398193,-1.0457614660263062,-0.7546823024749756
1684252501906536200,9.9385361328125,1.3738746643066406,0.47396084666252136,-1.2252471446990967
1684252501916562200,9.948562255859375,1.2114571332931519,0.22107481956481934,-1.4974100589752197
1684252501926588200,9.958588134765625,0.9924337267875671,-1.691948652267456,-0.9430717825889587
1684252501936614400,9.968614501953125,0.5932618379592896,-1.7750107049942017,-0.6953256726264954
1684252501946640100,9.97864013671875,0.09852135926485062,-0.42089036107063293,-0.9201058149337769
1684252501956666000,9.988666015625,-0.2954731285572052,0.5408849120140076,-1.0527710914611816
1684252501966692000,9.998692138671874,-0.4834478199481964,1.1934614181518555,-1.161607027053833
1684252501976718000,10.008718017578126,-0.5333636999130249,1.9064475297927856,-1.36469566822052
1684252501986744000,10.018744140625,-0.49775031208992004,2.531646966934204,-1.5321279764175415
1684252501996771000,10.02877099609375,-0.4199250638484955,3.077033042907715,-1.6206347942352295
1684252502006797000,10.038797119140625,-0.2799232304096222,3.5289876461029053,-1.6413185596466064
1684252502016823000,10.048822998046875,-0.09789617359638214,4.03499174118042,-1.5898535251617432
1684252502026849300,10.058849365234375,0.09174086153507233,4.617748737335205,-1.4081132411956787
1684252502036875300,10.068875244140624,0.0710919201374054,4.395793437957764,-1.0117888450622559
1684252502046901200,10.0789013671875,-0.01505015417933464,3.508687973022461,-0.6717718839645386
1684252502056927200,10.08892724609375,-0.12549319863319397,1.1291232109069824,0.14282050728797913
1684252502066953200,10.098953125,-0.2609492838382721,-1.7687885761260986,1.119500994682312
1684252502076979200,10.108979248046875,-0.23166917264461517,-3.2565810680389404,1.5837026834487915
1684252502087005200,10.119005126953125,-0.0676722303032875,-3.326829433441162,1.5802550315856934
1684252502097031200,10.12903125,0.10581167787313461,-2.6111955642700195,1.397560715675354
1684252502107057200,10.13905712890625,0.27588674426078796,-1.6382092237472534,1.1758123636245728
1684252502117083100,10.149083251953124,0.34137117862701416,-0.6770240068435669,1.0037070512771606
1684252502127110100,10.159110107421874,0.3203039765357971,0.037808891385793686,0.8985944390296936
1684252502137136000,10.16913623046875,0.27172526717185974,0.5900441408157349,0.8647467494010925
1684252502147162000,10.179162109375,0.2212492823600769,0.9884442090988159,0.8952791094779968
1684252502157188000,10.18918798828125,0.1985366940498352,1.1958731412887573,1.0107636451721191
1684252502167214000,10.199214111328125,0.18566323816776276,1.2333285808563232,1.173743724822998
1684252502177240000,10.209239990234375,0.2030034065246582,1.1177978515625,1.4092525243759155
1684252502187266000,10.21926611328125,0.26285290718078613,0.8210011124610901,1.747747778892517
1684252502197292000,10.2292919921875,0.35813283920288086,0.3788444399833679,2.186366319656372
1684252502207318000,10.239318115234376,0.46181848645210266,-0.2988208532333374,2.904778242111206
1684252502217344000,10.249343994140625,0.5300864577293396,-1.4877287149429321,4.347971439361572
1684252502227370200,10.259370361328125,0.4179175794124603,-2.2489469051361084,5.448906421661377
1684252502237396200,10.269396240234375,0.16533224284648895,-2.0222647190093994,5.791897296905518
1684252502247422200,10.279422119140625,-0.1335471272468567,3.0174612998962402,4.45955753326416
1684252502257448200,10.2894482421875,-0.3775392174720764,6.058078765869141,2.526623010635376
1684252502267474000,10.299473876953124,-0.6835864782333374,5.413825988769531,1.2138969898223877
1684252502277501200,10.309501220703124,-0.8381119966506958,2.374483346939087,0.345342755317688
1684252502287527200,10.319527099609376,-0.7629237771034241,-0.9114938974380493,-0.29821333289146423
1684252502297553200,10.32955322265625,-0.5306556224822998,-2.722909450531006,-0.6822711825370789
1684252502307579100,10.3395791015625,-0.291278213262558,-3.2041542530059814,-0.8255263566970825
1684252502317605000,10.349605224609375,-0.09671862423419952,-2.9204838275909424,-0.7994334101676941
1684252502327631000,10.359631103515625,0.020670318976044655,-2.231765031814575,-0.6107676029205322
1684252502337657000,10.369656982421875,0.028720848262310028,-1.4202998876571655,-0.3038197159767151
1684252502347683000,10.37968310546875,-0.047349147498607635,-0.6323462128639221,0.13339863717556
1684252502357709000,10.389708984375,-0.1444804072380066,0.029625680297613144,0.6257883906364441
1684252502367734800,10.39973486328125,-0.21165572106838226,0.5314198136329651,1.0176291465759277
1684252502377760800,10.4097607421875,-0.2126169502735138,0.8683483004570007,1.21309494972229
1684252502387787000,10.419787109375,-0.11869417130947113,1.0126168727874756,1.2905476093292236
1684252502397813000,10.42981298828125,0.10469776391983032,0.8971725106239319,1.3472213745117188
1684252502407840000,10.439840087890625,0.2869141697883606,0.52588951587677,1.3313350677490234
1684252502417866000,10.449865966796875,0.29622355103492737,0.04557298868894577,1.100509762763977
1684252502427892000,10.45989208984375,0.16448095440864563,-0.19519062340259552,0.6315770149230957
1684252502437918000,10.46991796875,0.026568777859210968,-0.06011808291077614,-0.0597597099840641
1684252502447944000,10.47994384765625,-0.01897100917994976,0.1794241964817047,-0.7914333939552307
1684252502457970000,10.489969970703125,-0.00826927088201046,0.5527030229568481,-1.4402318000793457
1684252502467996000,10.499995849609375,0.008797330781817436,1.135703682899475,-2.010068655014038
1684252502478022100,10.510022216796875,0.11549119651317596,1.902345061302185,-2.547844409942627
1684252502488048000,10.520048095703125,0.3387061655521393,2.772684335708618,-2.993541717529297
1684252502498074000,10.53007421875,0.6380930542945862,3.5077755451202393,-3.1817171573638916
1684252502508100000,10.54010009765625,0.8667717576026917,3.5753819942474365,-2.955408811569214
1684252502518126000,10.5501259765625,0.8763125538825989,3.068244457244873,-2.379552125930786
1684252502528152000,10.560152099609375,0.6839974522590637,2.3410089015960693,-1.809795618057251
1684252502538178000,10.570177978515625,0.47196051478385925,1.6191866397857666,-1.4284511804580688
1684252502548204000,10.5802041015625,0.3749050796031952,0.8661082983016968,-1.0517816543579102
1684252502558230800,10.590230712890625,0.4103032052516937,0.11645139008760452,-0.6732975840568542
1684252502568257000,10.600257080078125,0.3964177370071411,-0.33890971541404724,-0.3615926504135132
1684252502578283000,10.610282958984374,0.2722400426864624,-0.4981131851673126,-0.17027157545089722
1684252502588309000,10.62030908203125,0.02615515887737274,0.7403070330619812,-0.20363804697990417
1684252502598335000,10.6303349609375,-0.3583282232284546,3.4220924377441406,-0.8157194256782532
1684252502608361000,10.64036083984375,-0.6979502439498901,4.83153772354126,-1.4144583940505981
1684252502618387000,10.650386962890625,-0.9435444474220276,4.9080657958984375,-1.8875588178634644
1684252502628413000,10.660412841796875,-1.139859914779663,4.247912883758545,-2.3065764904022217
1684252502638439000,10.67043896484375,-1.3101587295532227,3.3768246173858643,-2.6927998065948486
1684252502648465000,10.68046484375,-1.4130059480667114,2.455695867538452,-3.0137901306152344
1684252502658491000,10.690490966796874,-1.3729287385940552,1.6177382469177246,-3.0138354301452637
1684252502668516900,10.700516845703126,-1.169421911239624,0.6589500308036804,-2.5058274269104004
1684252502678543000,10.710543212890625,-0.8311872482299805,-0.43342459201812744,-1.530788779258728
1684252502688569000,10.720569091796875,-0.4003288149833679,-1.1989092826843262,-0.7094441652297974
1684252502698595000,10.730594970703125,0.12103773653507233,-1.642045021057129,-0.49768945574760437
1684252502708622000,10.7406220703125,0.737690269947052,-1.7094346284866333,-0.5551236867904663
1684252502718648000,10.75064794921875,1.4903615713119507,-1.3706601858139038,-0.45329686999320984
1684252502728674000,10.760674072265624,2.2746987342834473,-0.7311001420021057,-0.31309929490089417
1684252502738700000,10.770699951171874,3.1060616970062256,-0.25678616762161255,-0.451121985912323
1684252502748726000,10.78072607421875,3.8372528553009033,0.12065912038087845,-0.7920383214950562
1684252502758752000,10.790751953125,4.396225929260254,0.4766485393047333,-1.2132307291030884
1684252502768778000,10.800778076171875,4.703526020050049,0.8531766533851624,-1.4515341520309448
1684252502778804000,10.810803955078125,4.734748363494873,1.1599923372268677,-1.485537052154541
1684252502788830000,10.820829833984375,4.404752731323242,0.8581799864768982,-1.3454664945602417
1684252502798856000,10.83085595703125,3.6793291568756104,-0.24812711775302887,-0.8669868111610413
1684252502808882000,10.8408818359375,2.977954149246216,-1.5034642219543457,-0.054861150681972504
1684252502818908000,10.850907958984376,2.455205202102661,-2.107396364212036,0.6785396933555603
1684252502828934000,10.860933837890625,1.8160459995269775,-1.5970814228057861,1.021458387374878
1684252502838959900,10.8709599609375,1.1008785963058472,-0.2724134027957916,1.178175926208496
1684252502848985900,10.88098583984375,0.4821773171424866,1.090590238571167,1.4375654458999634
1684252502859013000,10.89101318359375,-0.0024192265700548887,2.0487523078918457,1.7166582345962524
1684252502869039000,10.9010390625,-0.3445488512516022,2.503472328186035,1.9432439804077148
1684252502879065000,10.911065185546875,-0.5223031640052795,2.3581457138061523,2.116443634033203
1684252502889091000,10.921091064453124,-0.6186555027961731,1.6920899152755737,2.186795473098755
1684252502899117000,10.931116943359376,-0.7118808031082153,0.752373993396759,2.1111724376678467
1684252502909143000,10.94114306640625,-0.8285544514656067,-0.2154802531003952,1.927739143371582
1684252502919169000,10.9511689453125,-0.9801745414733887,-0.9576338529586792,1.7275880575180054
1684252502929195000,10.961195068359375,-1.1687958240509033,-1.4042731523513794,1.5795713663101196
1684252502939221000,10.971220947265625,-1.376286268234253,-1.633528232574463,1.52057945728302
1684252502949247000,10.9812470703125,-1.6191246509552002,-1.7283425331115723,1.496673583984375
1684252502959273200,10.991273193359374,-1.8726811408996582,-1.7272214889526367,1.4950262308120728
1684252502969299200,11.00129931640625,-2.124537229537964,-1.6682881116867065,1.5387835502624512
1684252502979325200,11.0113251953125,-2.407716989517212,-1.587913990020752,1.5345178842544556
1684252502989351000,11.021350830078125,-2.7460179328918457,-1.461624026298523,1.3940465450286865
1684252502999378000,11.0313779296875,-3.068695068359375,-1.3443526029586792,1.1533145904541016
1684252503009404000,11.04140380859375,-3.211061954498291,-1.5769603252410889,1.1903364658355713
1684252503019430000,11.051429931640625,-3.1354544162750244,-2.243741273880005,1.8821961879730225
1684252503029456000,11.061455810546875,-3.0357208251953125,-1.916364312171936,2.630120038986206
1684252503039481900,11.07148193359375,-2.705218553543091,0.32222387194633484,2.804112672805786
1684252503049508000,11.081508056640626,-2.1151633262634277,-0.9980552196502686,2.700415849685669
1684252503059534000,11.0915341796875,-0.4701319932937622,-7.402048110961914,1.6947144269943237
1684252503069560000,11.10156005859375,2.063746929168701,-10.69149112701416,-1.6561362743377686
1684252503079586000,11.1115859375,3.182403087615967,-15.009177207946777,-8.6880521774292
1684252503089612000,11.121612060546875,2.9300272464752197,-15.234715461730957,-8.991576194763184
1684252503099638000,11.131637939453125,3.8528313636779785,-11.480063438415527,-0.3840138912200928
1684252503109664000,11.1416640625,3.149425506591797,-4.570825576782227,1.3577706813812256
1684252503119690000,11.15168994140625,1.9256412982940674,1.6882244348526,-0.06453551352024078
1684252503129716000,11.161716064453126,0.9832431674003601,4.828980922698975,-1.184647798538208
1684252503139743000,11.171742919921876,0.20787179470062256,6.441025257110596,-1.7652003765106201
1684252503149769000,11.18176904296875,-0.4845450222492218,7.167031764984131,-1.9847323894500732
1684252503159795000,11.191794921875,-1.1526142358779907,7.73880672454834,-1.8677048683166504
1684252503169821000,11.201821044921875,-1.7002164125442505,8.144723892211914,-1.4296011924743652
1684252503179847000,11.211846923828125,-2.070173501968384,8.155434608459473,-0.6659189462661743
1684252503189873000,11.221872802734374,-2.3444199562072754,5.9846601486206055,1.2057018280029297
1684252503199899000,11.23189892578125,-2.162034034729004,3.3115739822387695,3.1954939365386963
1684252503209924900,11.2419248046875,-1.6170845031738281,2.6275644302368164,4.177702903747559
1684252503219950800,11.251950927734375,-1.1050904989242554,3.2339673042297363,4.52761173248291
1684252503229976800,11.261976806640625,-0.7269216775894165,4.201007843017578,4.612699031829834
1684252503240003000,11.272003173828125,-0.49808257818222046,4.7437591552734375,4.592238903045654
1684252503250029000,11.282029052734375,-0.4447479546070099,4.189359188079834,4.6302103996276855
1684252503260055000,11.292054931640624,-0.524836540222168,2.133648157119751,4.665129661560059
1684252503270081000,11.3020810546875,-0.5690668821334839,0.3917924165725708,4.516331195831299
1684252503280107000,11.31210693359375,-1.062530755996704,0.28723055124282837,4.473660469055176
1684252503290134000,11.322134033203126,-2.5864768028259277,1.6208316087722778,4.758692264556885
1684252503300160000,11.332159912109375,-2.9859344959259033,1.0408543348312378,4.007183074951172
1684252503310186000,11.34218603515625,-2.7691802978515625,-0.18716788291931152,2.720287561416626
1684252503320212000,11.3522119140625,-2.1397621631622314,-0.7421582341194153,1.4775583744049072
1684252503330238200,11.36223828125,-1.212917685508728,-0.7187543511390686,0.5349068641662598
1684252503340264200,11.37226416015625,-0.1416272222995758,-0.2013634890317917,-0.037553731352090836
1684252503350290200,11.382290283203124,0.9203423857688904,0.13713306188583374,-0.5359137058258057
1684252503360316200,11.392316162109376,1.7922807931900024,0.22893349826335907,-0.9577845931053162
1684252503370342100,11.402342041015626,2.4591612815856934,0.14025822281837463,-1.2455719709396362
1684252503380368000,11.412367919921875,2.9171488285064697,-0.0780244842171669,-1.4080743789672852
1684252503390393900,11.422393798828125,3.242258310317993,-0.4832870364189148,-1.4797283411026
1684252503400419800,11.432419921875,3.4611330032348633,-1.1070990562438965,-1.5614830255508423
1684252503410445800,11.44244580078125,3.5448086261749268,-1.833633303642273,-1.682544469833374
1684252503420471800,11.452471923828124,3.411316156387329,-2.620988607406616,-1.789799690246582
1684252503430497800,11.462497802734376,3.0329737663269043,-3.6549720764160156,-1.676974892616272
1684252503440525000,11.472525146484376,2.4816231727600098,-4.924201011657715,-1.0959441661834717
1684252503450551000,11.482551025390626,1.848132610321045,-5.9624786376953125,-0.026478245854377747
1684252503460577000,11.492576904296875,1.1651490926742554,-6.192771911621094,1.1570606231689453
1684252503470603000,11.50260302734375,0.524389386177063,-5.314161777496338,2.0088791847229004
1684252503480629000,11.51262890625,-0.031924743205308914,-3.5669915676116943,2.3321759700775146
1684252503490655000,11.522655029296875,-0.4599783420562744,-1.2856718301773071,2.2540183067321777
1684252503500681000,11.532680908203124,-0.6902507543563843,1.3147075176239014,1.8786306381225586
1684252503510707000,11.54270703125,-0.8347970247268677,2.705989360809326,1.588087558746338
1684252503520733000,11.55273291015625,-0.9206529855728149,2.9449710845947266,1.5283150672912598
1684252503530759200,11.56275927734375,-0.9328534603118896,2.4078173637390137,1.6176934242248535
1684252503540785200,11.57278515625,-0.8824453353881836,1.2402714490890503,1.6785004138946533
1684252503550811100,11.58281103515625,-0.7782297134399414,-0.07590218633413315,1.5543262958526611
1684252503560837000,11.592837158203125,-0.6162515878677368,-1.0029609203338623,1.1648807525634766
1684252503570863000,11.602863037109374,-0.4423527717590332,-1.2741471529006958,0.6044709086418152
1684252503580889000,11.61288916015625,-0.3082404136657715,-1.0789073705673218,0.06938555836677551
1684252503590915800,11.622915771484376,-0.21392539143562317,-0.9568986296653748,-0.2771311104297638
1684252503600941800,11.63294189453125,-0.10823824256658554,-1.0729533433914185,-0.49669837951660156
1684252503610967800,11.6429677734375,0.08972304314374924,-1.1782443523406982,-0.7121957540512085
1684252503620994000,11.652994140625,0.36089977622032166,-1.1767102479934692,-0.961513340473175
1684252503631020000,11.66302001953125,0.6366692781448364,-1.263376235961914,-1.1556227207183838
1684252503641046000,11.6730458984375,0.8826543688774109,-1.5119342803955078,-1.2371106147766113
1684252503651072000,11.683072021484374,1.0475314855575562,-1.7975462675094604,-1.2671444416046143
1684252503661098000,11.693097900390624,1.0946681499481201,-1.9354091882705688,-1.3931149244308472
1684252503671124000,11.7031240234375,1.0907448530197144,-1.7995725870132446,-1.618401050567627
1684252503681150000,11.71314990234375,1.1540485620498657,-1.2756503820419312,-1.9216461181640625
1684252503691176000,11.723176025390625,1.3882147073745728,-0.4267646074295044,-2.2351021766662598
1684252503701202000,11.733201904296875,1.673555612564087,0.4116232991218567,-2.3884499073028564
1684252503711228000,11.743227783203125,1.7882723808288574,0.9482848644256592,-2.247612953186035
1684252503721254100,11.753254150390624,1.6876041889190674,1.0241752862930298,-1.8140214681625366
1684252503731280100,11.763280029296874,1.4764381647109985,0.6452425718307495,-1.1977324485778809
1684252503741306000,11.77330615234375,1.1578898429870605,1.5185297727584839,-1.0014132261276245
1684252503751333000,11.7833330078125,0.4540374279022217,4.331646919250488,-2.2081692218780518
1684252503761359000,11.793359130859375,-0.2373218983411789,4.208527565002441,-3.1958587169647217
1684252503771384800,11.803384765625,-0.656125009059906,2.1262319087982178,-3.8912923336029053
1684252503781410800,11.813410888671875,-0.7127998471260071,-0.00625069672241807,-4.546507358551025
1684252503791436800,11.823436767578125,-0.4544609487056732,-1.1425741910934448,-5.1565680503845215
1684252503801462800,11.833462890625,-0.047382231801748276,-1.3959418535232544,-5.5924787521362305
1684252503811489000,11.843489013671874,0.4007284641265869,-1.0561935901641846,-5.821249008178711
1684252503821515000,11.853514892578126,0.7926278114318848,-0.5122112035751343,-5.782828330993652
1684252503831541000,11.863541015625,1.0244793891906738,-0.01657453551888466,-5.312443733215332
1684252503841567000,11.87356689453125,1.0294809341430664,0.18217581510543823,-4.254415035247803
1684252503851593000,11.883593017578125,0.7574686408042908,0.3929154872894287,-2.818819999694824
1684252503861619000,11.893618896484375,0.3134413957595825,1.085565447807312,-1.6311858892440796
1684252503871645000,11.90364501953125,-0.09743775427341461,1.8206669092178345,-1.0661749839782715
1684252503881671000,11.9136708984375,-0.34590503573417664,2.3173556327819824,-1.036944031715393
1684252503891697000,11.92369677734375,-0.531444787979126,2.772235870361328,-1.2280853986740112
1684252503901723000,11.933722900390626,-0.8613232374191284,3.189779043197632,-1.523234248161316
1684252503911750100,11.943750244140626,-1.4760582447052002,3.4862656593322754,-1.8856196403503418
1684252503921776000,11.953776123046875,-2.1522483825683594,3.6816418170928955,-2.1075093746185303
1684252503931802000,11.963802001953125,-2.6901586055755615,3.4136433601379395,-2.194373607635498
1684252503941828000,11.973828125,-3.1117703914642334,2.7033369541168213,-2.097118616104126
1684252503951854000,11.98385400390625,-3.5176172256469727,1.9282188415527344,-1.889907717704773
1684252503961880000,11.993880126953124,-3.9339869022369385,1.3435437679290771,-1.5947675704956055
1684252503971906000,12.003906005859376,-4.496934413909912,1.1683357954025269,-1.1645091772079468
1684252503981932000,12.01393212890625,-5.212592124938965,1.5288701057434082,-0.5757848024368286
1684252503991958000,12.0239580078125,-5.762453079223633,2.110705614089966,0.12431258708238602
1684252504001984000,12.03398388671875,-5.870222568511963,2.3203747272491455,0.6079667806625366
1684252504012010000,12.044010009765625,-5.556368827819824,2.1499340534210205,0.8247702121734619
1684252504022036000,12.054035888671875,-4.945479393005371,1.808400273323059,0.8810888528823853
1684252504032062000,12.06406201171875,-4.284181118011475,1.4628626108169556,0.8777657151222229
1684252504042088000,12.074087890625,-3.067903757095337,1.0059205293655396,0.6974322199821472
1684252504052114000,12.084114013671876,-1.5872092247009277,0.4515039622783661,0.37654662132263184
1684252504062140000,12.094139892578125,0.1332038789987564,-0.07038155943155289,0.08441551774740219
1684252504072167000,12.1041669921875,2.0419116020202637,-0.14020724594593048,-0.006217710208147764
1684252504082193000,12.11419287109375,3.8962512016296387,-0.07246582955121994,0.052392661571502686
1684252504092219000,12.124218994140625,4.715331554412842,0.0594988614320755,0.2707037031650543
1684252504102245000,12.1342451171875,4.549102783203125,0.4483613073825836,1.592500925064087
1684252504112271000,12.14427099609375,4.094199180603027,0.6153615117073059,3.0873427391052246
1684252504122297000,12.154297119140624,3.6578283309936523,0.5664055943489075,4.194607257843018
1684252504132323000,12.164322998046876,3.2546417713165283,0.7032936811447144,4.915603160858154
1684252504142349000,12.17434912109375,2.2608044147491455,5.915189266204834,3.998868465423584
1684252504152375000,12.184375,0.9247581362724304,9.285097122192383,2.1206884384155273
1684252504162401000,12.194401123046875,-0.11175686866044998,9.586749076843262,1.6149380207061768
1684252504172427000,12.204427001953125,-0.7054521441459656,8.204764366149902,1.7310116291046143
1684252504182453000,12.214452880859374,-0.3973131775856018,5.3954997062683105,1.2812888622283936
1684252504192479000,12.22447900390625,-0.11751749366521835,2.5907437801361084,1.088415265083313
1684252504202505000,12.2345048828125,0.2457084357738495,-0.8346640467643738,0.5495400428771973
1684252504212531200,12.24453125,0.8858428597450256,-3.457573413848877,0.5735787749290466
1684252504222557200,12.25455712890625,0.8888038992881775,-3.407353162765503,1.6444604396820068
1684252504232584000,12.264583984375,0.6944075226783752,-3.3208420276641846,2.6591269969940186
1684252504242610000,12.27460986328125,0.10627781599760056,-3.670828342437744,3.233186960220337
1684252504252636000,12.284635986328125,-0.553170919418335,-4.0644683837890625,3.379582405090332
1684252504262661600,12.29466162109375,-1.0380630493164062,-4.269750118255615,3.187936544418335
1684252504272687600,12.3046875,-1.2444206476211548,-4.221405506134033,3.002983808517456
1684252504282713600,12.314713623046876,-1.2612757682800293,-3.8765861988067627,3.078702926635742
1684252504292739600,12.324739501953125,-1.1198680400848389,-3.506361484527588,3.180959463119507
1684252504302765800,12.334765869140625,-1.039668321609497,-2.5014355182647705,3.157320976257324
1684252504312791800,12.344791748046875,-1.0933035612106323,-0.13877099752426147,3.0726819038391113
1684252504322817800,12.35481787109375,-1.1198034286499023,2.425445795059204,3.177908420562744
1684252504332843800,12.36484375,-0.4388735890388489,1.7901766300201416,0.6100191473960876
1684252504342869800,12.374869873046874,-0.14164131879806519,1.4547585248947144,-1.7346389293670654
1684252504352895700,12.384895751953126,-0.4021400213241577,0.42318418622016907,-1.7298673391342163
1684252504362921700,12.394921630859375,-0.4335035979747772,-1.7084035873413086,-0.976772129535675
1684252504372947700,12.40494775390625,-0.24639256298542023,-4.071796894073486,-0.3069021999835968
1684252504382973700,12.4149736328125,-0.08829478174448013,-6.666280269622803,-0.5366654396057129
1684252504393001000,12.4250009765625,0.27550554275512695,-12.199484825134277,-3.2431347370147705
1684252504403027000,12.43502685546875,1.4146791696548462,-15.793919563293457,-5.709558010101318
1684252504413052700,12.445052734375,2.442574977874756,-12.47543716430664,-4.70461368560791
1684252504423078700,12.45507861328125,2.550769329071045,-6.9069952964782715,-2.027632236480713
1684252504433104600,12.465104736328126,1.7953509092330933,-3.573218584060669,-1.0712157487869263
1684252504443130600,12.475130615234375,-1.1705703735351562,-1.4376935958862305,-1.1195242404937744
1684252504453156600,12.485156494140625,-1.85568368434906,-1.3363144397735596,-0.4754811227321625
1684252504463182600,12.4951826171875,-1.0479427576065063,-0.4370158314704895,0.4093758761882782
1684252504473208600,12.50520849609375,-0.4528452455997467,1.3444362878799438,1.1643309593200684
1684252504483234600,12.515234619140625,-0.20847123861312866,2.921250820159912,1.9571555852890015
1684252504493260800,12.5252607421875,-0.08096892386674881,3.0526578426361084,2.8431262969970703
1684252504503286800,12.535286865234376,0.32124581933021545,1.8417401313781738,3.1653122901916504
1684252504513312800,12.545312744140626,0.8052265644073486,0.7167523503303528,2.392559766769409
1684252504523338800,12.5553388671875,1.230285882949829,-0.014951656572520733,0.9153822064399719
1684252504533364700,12.56536474609375,1.755466103553772,-0.8156664967536926,-0.2260560691356659
1684252504543390700,12.575390625,2.2215991020202637,-1.6668413877487183,-0.6702297329902649
1684252504553417700,12.585417724609375,2.4728426933288574,-1.786987543106079,-0.562174916267395
1684252504563443700,12.595443603515625,2.652695655822754,-1.103232741355896,-0.2560999095439911
1684252504573469700,12.6054697265625,3.0294077396392822,-0.5362823009490967,-0.13171300292015076
1684252504583496000,12.615495849609376,3.3948967456817627,-0.3836353123188019,-0.3268109858036041
1684252504593522000,12.62552197265625,3.5229036808013916,-0.19182513654232025,-0.6169700622558594
1684252504603548000,12.6355478515625,3.538283109664917,-0.11712770164012909,-0.4832795560359955
1684252504613574000,12.645573974609375,3.630598783493042,-0.13768570125102997,-0.2651568055152893
