time,seconds_elapsed,z,y,x
1684200587433309000,0.025308837890625,-0.7936595678329468,2.5010337829589844,1.2092242240905762
1684200587443335000,0.0353349609375,-0.026504630222916603,2.777229070663452,1.3699984550476074
1684200587453361000,0.04536083984375,0.5910001397132874,3.426558017730713,1.2607166767120361
1684200587463387100,0.05538720703125,0.9520654082298279,4.035334587097168,1.0197504758834839
1684200587473412900,0.065412841796875,0.9180920124053955,4.319034099578857,0.7824887037277222
1684200587483438000,0.07543798828125,0.5400359630584717,4.400148391723633,0.6721194982528687
1684200587493464000,0.085464111328125,-0.07065138220787048,4.537502288818359,0.7487399578094482
1684200587503490000,0.095489990234375,-0.7381630539894104,4.488930702209473,0.986415445804596
1684200587513516000,0.10551611328125,-1.4950531721115112,3.5970029830932617,1.1486966609954834
1684200587523542000,0.1155419921875,-2.3792576789855957,3.8062522411346436,1.0870857238769531
1684200587533568000,0.125568115234375,-3.2718560695648193,4.871556282043457,0.7601449489593506
1684200587543593000,0.135593017578125,-3.9083058834075928,5.972217082977295,0.3431593179702759
1684200587553619000,0.145618896484375,-4.300046920776367,6.651739120483398,-0.08730606734752655
1684200587563645000,0.15564501953125,-4.4772162437438965,6.787485599517822,-0.36893999576568604
1684200587573671000,0.1656708984375,-4.637195110321045,6.625760555267334,-0.3572721481323242
1684200587583697000,0.17569677734375,-4.916384696960449,6.513493537902832,-0.23073092103004456
1684200587593723000,0.185722900390625,-5.328377723693848,6.311594009399414,-0.02755969762802124
1684200587603748900,0.195748779296875,-5.869229793548584,5.985257148742676,0.27357980608940125
1684200587613773800,0.20577392578125,-6.317081928253174,5.615915775299072,0.674274742603302
1684200587623799800,0.2157998046875,-6.519654750823975,5.280335903167725,1.1688578128814697
1684200587633825800,0.22582568359375,-6.612407684326172,5.067859172821045,1.646026849746704
1684200587643852000,0.23585205078125,-6.704227447509766,4.764983177185059,2.007808208465576
1684200587653878000,0.2458779296875,-6.798669815063477,4.370872497558594,2.2989325523376465
1684200587663903000,0.255903076171875,-6.902132511138916,3.9068615436553955,2.557816505432129
1684200587673929000,0.265928955078125,-7.029405117034912,3.359463691711426,2.781078815460205
1684200587683955000,0.275954833984375,-7.15932035446167,2.830277442932129,2.9628686904907227
1684200587693981000,0.28598095703125,-7.245927810668945,2.395724296569824,3.1054816246032715
1684200587704007000,0.2960068359375,-7.130655288696289,2.0327916145324707,3.27097487449646
1684200587714033000,0.306032958984375,-6.6879563331604,1.7303160429000854,3.505032539367676
1684200587724059000,0.316058837890625,-5.949775695800781,1.4394075870513916,3.797395944595337
1684200587734083800,0.326083740234375,-5.175656318664551,1.0079009532928467,4.002755165100098
1684200587744109800,0.33610986328125,-4.558745384216309,0.4282649755477905,3.899080276489258
1684200587754135800,0.3461357421875,-4.100839138031006,-0.2382965385913849,3.5043110847473145
1684200587764161800,0.356161865234375,-3.7173116207122803,-0.9599549770355225,2.918606758117676
1684200587774187800,0.366187744140625,-3.280320882797241,-1.7064409255981445,2.3439972400665283
1684200587784213800,0.3762138671875,-2.811994791030884,-2.315000057220459,1.9198718070983887
1684200587794238700,0.38623876953125,-2.2946603298187256,-2.791757822036743,1.5286710262298584
1684200587804264700,0.3962646484375,-1.6342920064926147,-2.9426145553588867,1.066909909248352
1684200587814291000,0.406291015625,-0.8749294281005859,-3.1847352981567383,0.568284273147583
1684200587824317000,0.41631689453125,-0.06888684630393982,-3.3422889709472656,0.1251625120639801
1684200587834343000,0.426343017578125,0.5641058087348938,-3.2237606048583984,0.32315656542778015
1684200587844369000,0.436368896484375,1.1474435329437256,-3.1282501220703125,0.8244037628173828
1684200587854393900,0.446393798828125,1.546606421470642,-3.2841291427612305,1.0104724168777466
1684200587864419800,0.456419921875,1.5877749919891357,-3.2199137210845947,0.9820134043693542
1684200587874445800,0.46644580078125,1.3246480226516724,-2.780271530151367,0.9358634948730469
1684200587884471800,0.476471923828125,1.1017951965332031,-2.0659961700439453,1.0563870668411255
1684200587894497800,0.486497802734375,0.9913246035575867,-1.6150386333465576,1.2907663583755493
1684200587904523800,0.496523681640625,0.6524317860603333,-1.3171026706695557,1.4160218238830566
1684200587914549000,0.506549072265625,0.3018958568572998,-0.8508676290512085,1.497441291809082
1684200587924575000,0.516574951171875,0.1696675717830658,-0.5380232334136963,1.5277262926101685
1684200587934600700,0.5266005859375,0.29366064071655273,-0.5232021808624268,1.395005226135254
1684200587944626700,0.536626708984375,0.4200267791748047,-0.5906294584274292,0.857327938079834
1684200587954652700,0.546652587890625,0.34922289848327637,-0.5485621690750122,-0.04238535463809967
1684200587964679000,0.556678955078125,0.19984953105449677,-0.49087417125701904,-0.9700434803962708
1684200587974703900,0.566703857421875,0.5970879793167114,-0.2665039002895355,-1.46190345287323
1684200587984730000,0.576730224609375,1.431905746459961,0.3732510507106781,-1.1022087335586548
1684200587994756000,0.586756103515625,1.4147347211837769,0.7595963478088379,-1.0347692966461182
1684200588004782000,0.596781982421875,1.332194209098816,0.8252776265144348,-1.374399185180664
1684200588014808000,0.60680810546875,1.5913549661636353,1.0098801851272583,-1.498940110206604
1684200588024833800,0.616833740234375,2.458843469619751,1.1705485582351685,-1.4194949865341187
1684200588034859000,0.62685888671875,3.621166467666626,1.2967942953109741,-1.2144523859024048
1684200588044885000,0.636885009765625,4.165586948394775,1.4489842653274536,-1.183076024055481
1684200588054911000,0.646910888671875,4.364530086517334,1.5561221837997437,-1.278865098953247
1684200588064937000,0.65693701171875,4.502732753753662,1.5486305952072144,-1.4492111206054688
1684200588074963000,0.666962890625,4.513265132904053,1.5833103656768799,-1.6518806219100952
1684200588084989000,0.676989013671875,4.305819988250732,1.5939570665359497,-1.7662930488586426
1684200588095014000,0.687013916015625,3.2362053394317627,1.7185149192810059,-1.7012053728103638
1684200588105040000,0.697039794921875,1.8000980615615845,1.9266105890274048,-1.5596742630004883
1684200588115065900,0.70706591796875,0.31586161255836487,2.1532034873962402,-1.7000048160552979
1684200588125091800,0.717091796875,-1.0170284509658813,2.3988356590270996,-2.1737797260284424
1684200588135118000,0.7271181640625,-2.17868971824646,2.3739469051361084,-2.4559826850891113
1684200588145144000,0.73714404296875,-3.1542088985443115,1.7789981365203857,-2.658384323120117
1684200588155169000,0.7471689453125,-3.7792413234710693,0.843222975730896,-2.8981516361236572
1684200588165195000,0.757195068359375,-3.9246461391448975,0.03472163528203964,-2.976196527481079
1684200588175221000,0.767220947265625,-3.895303726196289,-0.683719277381897,-2.819528102874756
1684200588185247000,0.7772470703125,-4.163059234619141,-1.6798573732376099,-2.6373252868652344
1684200588195273000,0.78727294921875,-4.533353328704834,-1.5012425184249878,-2.469024419784546
1684200588205299000,0.797298828125,-4.853071689605713,-0.39903753995895386,-2.518402576446533
1684200588215324000,0.807323974609375,-4.980161666870117,1.180492639541626,-2.6809356212615967
1684200588225350000,0.817349853515625,-4.920324802398682,3.1345880031585693,-2.789440393447876
1684200588235375900,0.8273759765625,-4.716439247131348,4.442269325256348,-2.3385560512542725
1684200588245401900,0.83740185546875,-4.443708896636963,4.260379791259766,-1.2327524423599243
1684200588255427800,0.847427734375,-3.6304354667663574,2.351546287536621,0.46083584427833557
1684200588265453800,0.857453857421875,-2.596923351287842,0.11924439668655396,2.075880527496338
1684200588275478800,0.867478759765625,-1.6550045013427734,-1.018624186515808,2.8197076320648193
1684200588285504800,0.8775048828125,-0.9396372437477112,-1.1815769672393799,2.6877493858337402
1684200588295530800,0.88753076171875,-0.21380281448364258,0.03307074308395386,2.0607569217681885
1684200588305557000,0.897556884765625,0.19348779320716858,1.1790521144866943,1.20106041431427
1684200588315583000,0.9075830078125,-0.09795869886875153,2.2011795043945312,0.3252761960029602
1684200588325609000,0.91760888671875,-0.8484853506088257,2.8729746341705322,-0.4282795786857605
1684200588335634000,0.927634033203125,-1.5256998538970947,3.358477830886841,-0.9330026507377625
1684200588345660000,0.937659912109375,-1.8460546731948853,3.205340623855591,-1.1812331676483154
1684200588355686700,0.947686767578125,-1.7419631481170654,2.148538112640381,-1.0902990102767944
1684200588365712600,0.957712646484375,-1.0677791833877563,0.7729400992393494,-0.7632561326026917
1684200588375738600,0.967738525390625,0.02903914637863636,-0.5187987685203552,-0.3345547914505005
1684200588385764600,0.9777646484375,1.013506293296814,-1.2550352811813354,0.20788659155368805
1684200588395789600,0.98778955078125,1.4042798280715942,-1.3775430917739868,0.8433732986450195
1684200588405815600,0.997815673828125,1.3785340785980225,-1.0071802139282227,1.5525407791137695
1684200588415841500,1.007841552734375,0.9129154682159424,-0.3392055630683899,2.196293830871582
1684200588425867500,1.017867431640625,0.20753826200962067,0.7334782481193542,2.6561946868896484
1684200588435893500,1.0278935546875,-0.35174447298049927,1.6869943141937256,2.8966712951660156
1684200588445919700,1.037919677734375,-0.6518843173980713,2.402571201324463,3.104719877243042
1684200588455944400,1.0479443359375,-0.5329768657684326,2.8478941917419434,3.3394622802734375
1684200588465970700,1.057970703125,-0.2610146403312683,1.714815616607666,3.322587728500366
1684200588475996700,1.06799658203125,-1.1706604957580566,-1.2320021390914917,2.3936400413513184
1684200588486022700,1.078022705078125,-2.1774168014526367,0.16313126683235168,1.491896152496338
1684200588496048600,1.088048583984375,-3.0526506900787354,1.5923858880996704,0.5080019235610962
1684200588506074600,1.09807470703125,-3.501221179962158,1.9422000646591187,-0.40898606181144714
1684200588516099600,1.108099609375,-3.562297821044922,2.0222506523132324,-0.9941655993461609
1684200588526125600,1.11812548828125,-3.3387792110443115,1.9590954780578613,-1.1443747282028198
1684200588536151600,1.128151611328125,-2.6077120304107666,1.3047869205474854,-0.900860071182251
1684200588546177500,1.138177490234375,-0.951210081577301,0.276974618434906,-0.451192706823349
1684200588556203500,1.14820361328125,1.2769689559936523,-1.0851433277130127,0.20479924976825714
1684200588566229500,1.1582294921875,2.718116521835327,-1.2039971351623535,0.8920857906341553
1684200588576254700,1.168254638671875,3.536036729812622,-0.7038189768791199,1.567651391029358
1684200588586280700,1.17828076171875,3.5976405143737793,-0.1227528303861618,2.0362868309020996
1684200588596306700,1.188306640625,2.688617467880249,-0.08543075621128082,1.9566760063171387
1684200588606332400,1.19833251953125,0.8024401664733887,-1.0245410203933716,1.0959583520889282
1684200588616358700,1.208358642578125,-0.7025371789932251,-1.4354732036590576,0.12135250121355057
1684200588626384600,1.218384521484375,-1.149915337562561,-0.8077740669250488,-0.5359957218170166
1684200588636409900,1.228409912109375,-0.9981368184089661,0.46876800060272217,-0.9350035786628723
1684200588646435800,1.238435791015625,-0.6945387125015259,1.782260775566101,-1.1399140357971191
1684200588656461800,1.2484619140625,-0.4232904314994812,2.687610626220703,-1.2302641868591309
1684200588666487800,1.25848779296875,-0.19685696065425873,3.251093626022339,-1.1019634008407593
1684200588676513800,1.268513671875,-0.040158964693546295,3.6574878692626953,-0.7989409565925598
1684200588686539800,1.278539794921875,-0.1247859075665474,4.027900695800781,-0.26760807633399963
1684200588696564700,1.288564697265625,-0.3150857985019684,4.856131076812744,0.23921436071395874
1684200588706590700,1.2985908203125,-0.5849292278289795,5.795722007751465,0.9258630275726318
1684200588716616700,1.30861669921875,-0.5858296751976013,6.306858062744141,1.5660004615783691
1684200588726642700,1.318642578125,-0.13112501800060272,6.0404534339904785,2.066965341567993
1684200588736668700,1.328668701171875,0.6157928705215454,4.949373722076416,2.4946751594543457
1684200588746694700,1.338694580078125,1.3780524730682373,2.9795587062835693,2.8051745891571045
1684200588756720600,1.348720703125,1.0253291130065918,0.113302081823349,2.2341694831848145
1684200588766745600,1.35874560546875,0.39980292320251465,-1.700495958328247,1.617762804031372
1684200588776771600,1.368771484375,-0.20977972447872162,-2.136671304702759,1.5332494974136353
1684200588786797800,1.3787978515625,0.10032375156879425,-1.3181146383285522,1.2337584495544434
1684200588796823800,1.38882373046875,0.6930174231529236,0.08691959828138351,0.5270838737487793
1684200588806849800,1.398849853515625,0.9279761910438538,1.0762912034988403,-0.5325605273246765
1684200588816874800,1.408874755859375,0.6917463541030884,0.08498411625623703,-1.5730609893798828
1684200588826900700,1.418900634765625,0.981136679649353,-2.250406265258789,-2.0958735942840576
1684200588836926700,1.4289267578125,1.1594222784042358,-4.053825855255127,-1.7952449321746826
1684200588846952700,1.43895263671875,0.6511788964271545,-4.194684982299805,-1.0364960432052612
1684200588856978700,1.448978759765625,0.20992214977741241,-3.6727747917175293,-0.44992101192474365
1684200588867004700,1.459004638671875,-0.004574429243803024,-3.1627721786499023,-0.259075403213501
1684200588877029600,1.469029541015625,-0.1434236615896225,-2.800990581512451,-0.37965643405914307
1684200588887055600,1.4790556640625,-0.2866623103618622,-2.703801155090332,-0.7000133991241455
1684200588897081600,1.48908154296875,-0.34504619240760803,-2.7604129314422607,-0.9899843335151672
1684200588907107600,1.499107666015625,-0.43450862169265747,-2.615659475326538,-0.8806079626083374
1684200588917133600,1.509133544921875,-0.5952420830726624,-2.1033363342285156,-0.3041107952594757
1684200588927159600,1.51915966796875,-0.5648669600486755,-1.4994112253189087,0.22110827267169952
1684200588937184500,1.5291845703125,-0.36510542035102844,-0.7311262488365173,0.5538968443870544
1684200588947210500,1.53921044921875,-0.00946022104471922,-0.10950059443712234,0.7055590748786926
1684200588957236500,1.549236572265625,0.34894639253616333,0.3025476634502411,0.7649550437927246
1684200588967262700,1.5592626953125,0.5946385860443115,0.44217830896377563,0.7404842972755432
1684200588977288700,1.569288818359375,0.7138807773590088,0.26483842730522156,0.670050859451294
1684200588987314700,1.579314697265625,0.7488560676574707,-0.053147800266742706,0.6023881435394287
1684200588997340700,1.589340576171875,0.728289783000946,-0.24883313477039337,0.5376176834106445
1684200589007365600,1.59936572265625,0.6254197955131531,-0.36472997069358826,0.4768869876861572
1684200589017391600,1.6093916015625,0.5058920383453369,-0.23596452176570892,0.41656026244163513
1684200589027417600,1.61941748046875,0.40913125872612,0.07510527223348618,0.37355685234069824
1684200589037443600,1.629443603515625,0.3182666003704071,0.39604735374450684,0.34387457370758057
1684200589047469600,1.639469482421875,0.24405688047409058,0.6274880766868591,0.328926146030426
1684200589057494500,1.64949462890625,0.14947178959846497,0.7099823951721191,0.30682721734046936
1684200589067520500,1.6595205078125,0.09982950985431671,0.6634436845779419,0.24369408190250397
1684200589077546500,1.66954638671875,0.11402256041765213,0.5770049095153809,0.1607523262500763
1684200589087572500,1.679572509765625,0.17936106026172638,0.6293022036552429,0.14210821688175201
1684200589097598500,1.689598388671875,0.2548757791519165,0.8081142902374268,0.1426680088043213
1684200589107624400,1.69962451171875,0.26143839955329895,0.88951575756073,0.07043136656284332
1684200589117650700,1.709650634765625,0.1865716278553009,0.744255781173706,-0.06416026502847672
1684200589127675600,1.719675537109375,0.12397070974111557,0.4707227647304535,-0.21154466271400452
1684200589137701600,1.72970166015625,0.14522406458854675,0.15482312440872192,-0.39145129919052124
1684200589147727600,1.7397275390625,0.1796262562274933,-0.1381087452173233,-0.5488423705101013
1684200589157753600,1.749753662109375,0.17280377447605133,-0.3507773280143738,-0.6234250068664551
1684200589167779600,1.759779541015625,0.1586475521326065,-0.49722400307655334,-0.6042681336402893
1684200589177805600,1.7698056640625,0.15392203629016876,-0.5648201107978821,-0.507218599319458
1684200589187830800,1.779830810546875,0.14391151070594788,-0.571370005607605,-0.3674165904521942
1684200589197856800,1.789856689453125,0.12759964168071747,-0.5373463034629822,-0.22775298357009888
1684200589207882800,1.7998828125,0.08996816724538803,-0.49396270513534546,-0.12156448513269424
1684200589217908700,1.80990869140625,0.04547446593642235,-0.4620303511619568,-0.045568257570266724
1684200589227934700,1.819934814453125,0.009866449981927872,-0.44569694995880127,0.008985317312180996
1684200589237960700,1.829960693359375,-0.005377483554184437,-0.4537186622619629,0.04748823493719101
1684200589247985700,1.839985595703125,0.0009825329761952162,-0.46481505036354065,0.06984536349773407
1684200589258011600,1.85001171875,0.01834421418607235,-0.4444863498210907,0.0676029846072197
1684200589268037600,1.86003759765625,0.05131237208843231,-0.3708835542201996,0.051859546452760696
1684200589278063600,1.870063720703125,0.07859139889478683,-0.2889452874660492,0.023830309510231018
1684200589288089900,1.88008984375,0.08449728041887283,-0.23223473131656647,0.0015340587124228477
1684200589298115800,1.89011572265625,0.07351893186569214,-0.19776570796966553,-0.02815379574894905
1684200589308140800,1.900140869140625,0.050159987062215805,-0.17001761496067047,-0.0579213872551918
1684200589318166800,1.910166748046875,0.022738216444849968,-0.15493160486221313,-0.08616022020578384
1684200589328192800,1.92019287109375,0.0010448620887473226,-0.14715753495693207,-0.10813001543283463
1684200589338218800,1.93021875,-0.017631087452173233,-0.15861818194389343,-0.11752085387706757
1684200589348243700,1.94024365234375,-0.03280128538608551,-0.1876504123210907,-0.10454124957323074
1684200589358269700,1.950269775390625,-0.022493520751595497,-0.22305794060230255,-0.07678445428609848
1684200589368294700,1.960294677734375,-0.006769117899239063,-0.26558056473731995,-0.041373033076524734
1684200589378320600,1.970320556640625,0.00048533291555941105,-0.3090513348579407,-0.0024599898606538773
1684200589388346600,1.9803466796875,0.006646333262324333,-0.3590477406978607,0.022106602787971497
1684200589398372600,1.99037255859375,0.0057272762060165405,-0.40439632534980774,0.0425996258854866
1684200589408398600,2.000398681640625,0.0025498601607978344,-0.4453634023666382,0.0615621879696846
1684200589418424600,2.010424560546875,-0.006845239549875259,-0.47704944014549255,0.08644596487283707
1684200589428449500,2.020449462890625,-0.007933852262794971,-0.4872848689556122,0.09527706354856491
1684200589438475500,2.0304755859375,-0.011829524300992489,-0.45911023020744324,0.08434584736824036
1684200589448501500,2.04050146484375,-0.01619616523385048,-0.407173216342926,0.055958740413188934
1684200589458527700,2.05052783203125,-0.03015885502099991,-0.3530407249927521,0.019008176401257515
1684200589468553700,2.0605537109375,-0.05106339976191521,-0.29939034581184387,-0.03780972212553024
1684200589478579700,2.070579833984375,-0.0659177154302597,-0.2572508752346039,-0.10593152046203613
1684200589488604700,2.080604736328125,-0.0646781325340271,-0.2735869288444519,-0.16828805208206177
1684200589498630700,2.090630615234375,-0.05800851434469223,-0.32958096265792847,-0.2213267832994461
1684200589508656600,2.10065673828125,-0.056879833340644836,-0.39095956087112427,-0.2705495357513428
1684200589518682600,2.1106826171875,-0.07564100623130798,-0.4249952733516693,-0.3207338750362396
1684200589528708600,2.12070849609375,-0.09986688196659088,-0.4565507769584656,-0.3533824384212494
1684200589538734600,2.130734619140625,-0.11991968750953674,-0.491972416639328,-0.3852471709251404
1684200589548759800,2.140759765625,-0.14348234236240387,-0.5241931676864624,-0.41091188788414
1684200589558785800,2.150785888671875,-0.16860954463481903,-0.529755711555481,-0.43251144886016846
1684200589568811800,2.160811767578125,-0.18849943578243256,-0.5153429508209229,-0.45104774832725525
1684200589578837800,2.170837646484375,-0.1937839388847351,-0.4879632592201233,-0.45989930629730225
1684200589588863500,2.180863525390625,-0.17010138928890228,-0.44960877299308777,-0.4489271640777588
1684200589598889500,2.190889404296875,-0.14783228933811188,-0.4182548522949219,-0.42733293771743774
1684200589608914700,2.200914794921875,-0.1332012116909027,-0.4295409619808197,-0.3923634886741638
1684200589618940700,2.210940673828125,-0.12636888027191162,-0.5057560801506042,-0.34369954466819763
1684200589628966700,2.220966552734375,-0.10809040814638138,-0.6288014054298401,-0.2856896221637726
1684200589638993000,2.230992919921875,-0.07711518555879593,-0.7525273561477661,-0.2395719289779663
1684200589649019000,2.241018798828125,-0.03869958966970444,-0.8323137164115906,-0.2203882783651352
1684200589659044900,2.251044921875,-0.004603935405611992,-0.8524062037467957,-0.22651195526123047
1684200589669069800,2.26106982421875,0.02518833801150322,-0.7987051010131836,-0.26545199751853943
1684200589679095800,2.271095703125,0.04842521622776985,-0.67442786693573,-0.31458786129951477
1684200589689121800,2.281121826171875,0.07583492994308472,-0.49779313802719116,-0.34556156396865845
1684200589699147800,2.291147705078125,0.10830685496330261,-0.3287132978439331,-0.34149813652038574
1684200589709173800,2.301173828125,0.1389501541852951,-0.2177581936120987,-0.2942015528678894
1684200589719199700,2.31119970703125,0.1740221232175827,-0.16067200899124146,-0.23004893958568573
1684200589729224700,2.321224609375,0.19053338468074799,-0.1351054310798645,-0.1743118017911911
1684200589739250700,2.331250732421875,0.19584426283836365,-0.16642767190933228,-0.14157621562480927
1684200589749276700,2.341276611328125,0.19433408975601196,-0.3050776422023773,-0.1302466094493866
1684200589759302700,2.351302734375,0.18921895325183868,-0.5723026990890503,-0.1358397752046585
1684200589769328600,2.36132861328125,0.17626823484897614,-0.9360228776931763,-0.20029157400131226
1684200589779354600,2.371354736328125,0.17281757295131683,-1.3060628175735474,-0.32883891463279724
1684200589789379600,2.381379638671875,0.20038914680480957,-1.6199473142623901,-0.5188366770744324
1684200589799405600,2.391405517578125,0.26609066128730774,-1.8627519607543945,-0.7554353475570679
1684200589809431800,2.401431884765625,0.3548170328140259,-2.0105440616607666,-1.0208559036254883
1684200589819457800,2.411457763671875,0.47432637214660645,-2.0104005336761475,-1.2783257961273193
1684200589829483800,2.42148388671875,0.6237636804580688,-1.6869114637374878,-1.4817273616790771
1684200589839509800,2.431509765625,0.8010089993476868,-1.0162606239318848,-1.6490694284439087
1684200589849534700,2.44153466796875,0.9833689332008362,-0.11152345687150955,-1.8253483772277832
1684200589859560700,2.451560791015625,1.144742727279663,0.9749120473861694,-1.9991406202316284
1684200589869586700,2.461586669921875,1.1894809007644653,1.7682368755340576,-2.099139928817749
1684200589879612700,2.47161279296875,1.131292462348938,2.1151123046875,-2.0211050510406494
1684200589889638700,2.481638671875,1.0713077783584595,2.073911428451538,-1.815519094467163
1684200589899664600,2.49166455078125,1.053334355354309,2.015129804611206,-1.4984245300292969
1684200589909690600,2.501690673828125,1.0340869426727295,2.0916664600372314,-1.1698532104492188
1684200589919715600,2.511715576171875,1.0372956991195679,2.143038034439087,-0.9046099185943604
1684200589929741600,2.521741455078125,1.1835787296295166,1.9484219551086426,-0.8339866995811462
1684200589939767600,2.531767578125,1.3415156602859497,1.173125147819519,-1.031351089477539
1684200589949793500,2.54179345703125,1.4603246450424194,0.19105325639247894,-1.3033661842346191
1684200589959819800,2.55181982421875,1.6363515853881836,-0.37210145592689514,-1.408964991569519
1684200589969845800,2.561845703125,1.775696039199829,-0.3194282352924347,-1.183516025543213
1684200589979870700,2.57187060546875,1.7868623733520508,-0.011165197007358074,-0.8799120187759399
1684200589989896700,2.581896728515625,1.7719972133636475,0.4329301118850708,-0.6855383515357971
1684200589999922700,2.591922607421875,1.717721700668335,1.0376203060150146,-0.5007125735282898
1684200590009948700,2.60194873046875,1.6354151964187622,1.3214179277420044,-0.5299237370491028
1684200590019974700,2.611974609375,1.5570913553237915,1.4173409938812256,-0.5233079195022583
1684200590030000600,2.622000732421875,1.3359804153442383,1.6041631698608398,-0.2851543724536896
1684200590040025600,2.632025634765625,1.19657301902771,1.5170559883117676,-0.12134973704814911
1684200590050051600,2.642051513671875,1.0000691413879395,2.4310381412506104,0.4154869318008423
1684200590060077600,2.65207763671875,0.852684736251831,3.037238121032715,0.791563093662262
1684200590070103600,2.662103515625,0.8070986270904541,2.8110008239746094,0.738214373588562
1684200590080129500,2.672129638671875,0.8029270768165588,2.227132558822632,0.46410611271858215
1684200590090155500,2.682155517578125,0.8334951400756836,1.6659502983093262,0.15829959511756897
1684200590100180700,2.6921806640625,0.8758937120437622,1.3733235597610474,0.011226793751120567
1684200590110206700,2.702206787109375,0.8808109164237976,1.2231926918029785,0.01491756085306406
1684200590120232700,2.712232666015625,0.8108592629432678,1.1133676767349243,0.07954102754592896
1684200590130258700,2.7222587890625,0.7688170075416565,1.0821821689605713,0.17911560833454132
1684200590140284700,2.73228466796875,0.7186009883880615,0.8953997492790222,0.19800487160682678
1684200590150310700,2.742310546875,0.6981148719787598,0.7902237772941589,0.25350168347358704
1684200590160336000,2.7523359375,0.6755435466766357,0.6447502374649048,0.2543698847293854
1684200590170361900,2.76236181640625,0.6417534351348877,0.5258942246437073,0.28537628054618835
1684200590180387800,2.772387939453125,0.612589955329895,0.42544615268707275,0.3402682840824127
1684200590190413800,2.782413818359375,0.5112055540084839,0.21045838296413422,0.31575167179107666
1684200590200439800,2.792439697265625,0.4453698396682739,0.216022789478302,0.3861249089241028
1684200590210465800,2.8024658203125,0.3836401402950287,0.17993205785751343,0.4326914846897125
1684200590220490800,2.81249072265625,0.3187985420227051,0.13861896097660065,0.4634704291820526
1684200590230516700,2.822516845703125,0.23812906444072723,0.05201011896133423,0.4780333340167999
1684200590240542700,2.832542724609375,0.20551252365112305,0.08737769722938538,0.5688806772232056
1684200590250568700,2.842568603515625,0.1854916214942932,0.09049724787473679,0.6556151509284973
1684200590260594700,2.8525947265625,0.13629531860351562,0.059507373720407486,0.6987849473953247
1684200590270620700,2.86262060546875,0.06188259273767471,0.06733466684818268,0.7299311757087708
1684200590280645600,2.872645751953125,-0.02551010437309742,0.05802319571375847,0.7580274939537048
1684200590290671600,2.882671630859375,-0.09174157679080963,-0.0353531688451767,0.8010239005088806
1684200590300697900,2.89269775390625,-0.14033521711826324,-0.19888457655906677,0.8451722264289856
1684200590310723800,2.902723876953125,-0.19025050103664398,-0.39121213555336,0.8696553707122803
1684200590320749800,2.912749755859375,-0.24967201054096222,-0.5574570298194885,0.8701823949813843
1684200590330775800,2.92277587890625,-0.307697594165802,-0.6901180744171143,0.8361199498176575
1684200590340801800,2.9328017578125,-0.34487614035606384,-0.7860667109489441,0.7964340448379517
1684200590350827000,2.942826904296875,-0.37144142389297485,-0.8622673153877258,0.7787328958511353
1684200590360853000,2.95285302734375,-0.40251412987709045,-0.9128900170326233,0.7843055725097656
1684200590370879000,2.96287890625,-0.43901121616363525,-0.9416898488998413,0.8052409887313843
1684200590380905000,2.972905029296875,-0.4779852330684662,-0.9881068468093872,0.8468014597892761
1684200590390931200,2.98293115234375,-0.5226941108703613,-1.0442456007003784,0.8932284116744995
1684200590400957200,2.992957275390625,-0.5665355920791626,-1.0667072534561157,0.9050129055976868
1684200590410982100,3.002982177734375,-0.5976815223693848,-1.0797040462493896,0.8814765214920044
1684200590421008100,3.013008056640625,-0.6033175587654114,-1.0646069049835205,0.8589518070220947
1684200590431034000,3.0230341796875,-0.6081359386444092,-0.9802563190460205,0.8523164391517639
1684200590441060000,3.03306005859375,-0.6115500926971436,-0.8902537226676941,0.8813307285308838
1684200590451086000,3.043086181640625,-0.6149492859840393,-0.7844135165214539,0.9226496815681458
1684200590461112000,3.053112060546875,-0.6458012461662292,-0.651487410068512,0.9557415843009949
1684200590471137000,3.063136962890625,-0.690043032169342,-0.5362205505371094,0.9722300171852112
1684200590481163000,3.0731630859375,-0.6828802227973938,-0.5093047618865967,0.9405527710914612
1684200590491189000,3.08318896484375,-0.6102818250656128,-0.5817681550979614,0.8515045046806335
1684200590501215000,3.093215087890625,-0.5265933275222778,-0.698889970779419,0.73663729429245
1684200590511241000,3.103240966796875,-0.480145663022995,-0.791775107383728,0.6070250868797302
1684200590521267000,3.113266845703125,-0.4765104353427887,-0.8282790780067444,0.49544185400009155
1684200590531292000,3.1232919921875,-0.502727746963501,-0.8296633958816528,0.4337697923183441
1684200590541318000,3.13331787109375,-0.5475807189941406,-0.7779980301856995,0.4342920184135437
1684200590551343900,3.14334375,-0.609101414680481,-0.6911056041717529,0.4849429726600647
1684200590561370000,3.1533701171875,-0.672092854976654,-0.5837013721466064,0.5458436012268066
1684200590571396000,3.16339599609375,-0.7297511100769043,-0.47692832350730896,0.5697752237319946
1684200590581422000,3.173422119140625,-0.7798070907592773,-0.3975517451763153,0.5596602559089661
1684200590591447000,3.183447021484375,-0.8296328783035278,-0.3810911774635315,0.5197057723999023
1684200590601473000,3.19347314453125,-0.8766281008720398,-0.42364501953125,0.4554154872894287
1684200590611499000,3.2034990234375,-0.9147917032241821,-0.5008765459060669,0.3772512972354889
1684200590621525000,3.21352490234375,-0.9091731905937195,-0.5373200178146362,0.30902165174484253
1684200590631551000,3.223551025390625,-0.8751572966575623,-0.4884507954120636,0.27297770977020264
1684200590641577000,3.233576904296875,-0.8230056762695312,-0.3997097611427307,0.25728291273117065
1684200590651602000,3.243601806640625,-0.7574557662010193,-0.3445269465446472,0.23677842319011688
1684200590661628000,3.2536279296875,-0.6842231154441833,-0.3294491767883301,0.19886326789855957
1684200590671654000,3.26365380859375,-0.6110990643501282,-0.3528161644935608,0.13410264253616333
1684200590681680000,3.273679931640625,-0.5159222483634949,-0.4004145562648773,0.04750916734337807
1684200590691705900,3.283705810546875,-0.3775351345539093,-0.4424417018890381,-0.010750941932201385
1684200590701731800,3.29373193359375,-0.22508834302425385,-0.39102086424827576,-0.005841138307005167
1684200590711758000,3.303758056640625,-0.10606707632541656,-0.18329408764839172,0.008045753464102745
1684200590721783000,3.313782958984375,-0.06998443603515625,0.13297253847122192,-0.009210464544594288
1684200590731809000,3.32380908203125,-0.10062496364116669,0.43499377369880676,-0.06719541549682617
1684200590741835000,3.3338349609375,-0.14765664935112,0.5942524075508118,-0.12084266543388367
1684200590751861000,3.343861083984375,-0.17792201042175293,0.6248646974563599,-0.13985517621040344
1684200590761887000,3.353886962890625,-0.18225763738155365,0.607742965221405,-0.12417343258857727
1684200590771913000,3.363912841796875,-0.18318694829940796,0.5684638619422913,-0.09367533028125763
1684200590781938200,3.373938232421875,-0.21063348650932312,0.49729034304618835,-0.0802583247423172
1684200590791964200,3.383964111328125,-0.23721376061439514,0.3768497407436371,-0.08787588030099869
1684200590801990100,3.393990234375,-0.24714308977127075,0.2253134697675705,-0.09915170073509216
1684200590812016000,3.40401611328125,-0.2481757402420044,0.03303501754999161,-0.109892338514328
1684200590822042000,3.4140419921875,-0.22932776808738708,-0.1631842851638794,-0.12209440767765045
1684200590832067800,3.42406787109375,-0.2112141102552414,-0.3142577111721039,-0.13208387792110443
1684200590842093000,3.434093017578125,-0.2055191993713379,-0.3763575553894043,-0.14646147191524506
1684200590852119000,3.444119140625,-0.21593649685382843,-0.36820539832115173,-0.1476885974407196
1684200590862145000,3.45414501953125,-0.22136534750461578,-0.3139578700065613,-0.1461428999900818
1684200590872171000,3.4641708984375,-0.2193780541419983,-0.23738671839237213,-0.14774128794670105
1684200590882197000,3.474197021484375,-0.20353758335113525,-0.1448301523923874,-0.1438160538673401
1684200590892223200,3.48422314453125,-0.17705951631069183,-0.02682173065841198,-0.12855187058448792
1684200590902248000,3.494248046875,-0.1469831019639969,0.13413706421852112,-0.14646349847316742
1684200590912274200,3.504274169921875,-0.1156931146979332,0.17656639218330383,-0.12506601214408875
1684200590922300200,3.514300048828125,-0.10654754936695099,-0.023875363171100616,-0.006722860038280487
1684200590932326100,3.524326171875,-0.10271783173084259,-0.23260262608528137,0.14297400414943695
1684200590942352100,3.53435205078125,-0.10894749313592911,-0.16553358733654022,0.24997423589229584
1684200590952378000,3.544378173828125,-0.10871843993663788,0.312366783618927,0.3008327782154083
1684200590962403000,3.554403076171875,-0.0967874825000763,1.1329516172409058,0.37617653608322144
1684200590972429000,3.564428955078125,-0.07295709103345871,1.7970402240753174,0.5561202764511108
1684200590982455000,3.574455078125,-0.01321440003812313,2.128936767578125,0.8583070039749146
1684200590992481000,3.58448095703125,0.05373581498861313,2.1875815391540527,1.116624116897583
1684200591002507000,3.594507080078125,0.09242063015699387,1.9749847650527954,1.1822865009307861
1684200591012533000,3.604532958984375,0.10660228133201599,1.6563680171966553,1.051134705543518
1684200591022559000,3.61455908203125,0.11261942237615585,1.3199764490127563,0.8095926642417908
1684200591032584000,3.624583984375,0.15112797915935516,0.9407747387886047,0.5435703992843628
1684200591042610000,3.63460986328125,0.20613424479961395,0.5576486587524414,0.3158797025680542
1684200591052636000,3.644635986328125,0.2769712507724762,0.18666532635688782,0.15089936554431915
1684200591062662100,3.654662109375,0.30955079197883606,-0.15351782739162445,0.02294965647161007
1684200591072688000,3.664688232421875,0.2876235246658325,-0.3565133512020111,-0.027964765205979347
1684200591082714000,3.674714111328125,0.2534905970096588,-0.47382986545562744,0.0015209554694592953
1684200591092739000,3.684739013671875,0.2625289559364319,-0.5574961304664612,0.09243471920490265
1684200591102765000,3.69476513671875,0.25541695952415466,-0.5388308763504028,0.22762343287467957
1684200591112791000,3.704791015625,0.21331946551799774,-0.49354052543640137,0.372029185295105
1684200591122817000,3.714817138671875,0.13121341168880463,-0.4445468783378601,0.5026071667671204
1684200591132843000,3.724843017578125,0.044154226779937744,-0.3797527849674225,0.5715312361717224
1684200591142869000,3.734868896484375,-0.02698546275496483,-0.2613033652305603,0.5682651400566101
1684200591152894000,3.74489404296875,-0.07020702213048935,-0.13122914731502533,0.45379555225372314
1684200591162920000,3.754919921875,-0.10513678193092346,-0.0036405506543815136,0.2579250931739807
1684200591172946000,3.76494580078125,-0.13259375095367432,0.02636878564953804,0.0648711621761322
1684200591182972000,3.774971923828125,-0.13149386644363403,-0.04272133484482765,-0.04700876399874687
1684200591192998000,3.784997802734375,-0.11863116919994354,-0.13665662705898285,-0.07732054591178894
1684200591203024000,3.79502392578125,-0.10689382255077362,-0.21290479600429535,-0.07196146249771118
1684200591213048800,3.805048828125,-0.09412824362516403,-0.25293833017349243,-0.06122828274965286
1684200591223074800,3.81507470703125,-0.07651649415493011,-0.2509196400642395,-0.049025945365428925
1684200591233101000,3.82510107421875,-0.06568624079227448,-0.254099577665329,-0.040881894528865814
1684200591243127000,3.835126953125,-0.07269088923931122,-0.26780661940574646,-0.03352518007159233
1684200591253153000,3.845153076171875,-0.08467202633619308,-0.282883882522583,-0.03167188540101051
1684200591263179000,3.855178955078125,-0.10887723416090012,-0.27345603704452515,-0.029469184577465057
1684200591273204000,3.865203857421875,-0.12578050792217255,-0.26037800312042236,-0.020983658730983734
1684200591283230000,3.87522998046875,-0.13929978013038635,-0.23785221576690674,-0.00566063029691577
1684200591293256000,3.885255859375,-0.1514345109462738,-0.21221952140331268,0.007900930941104889
1684200591303282000,3.895281982421875,-0.16505365073680878,-0.18670271337032318,0.02402850240468979
1684200591313308000,3.905307861328125,-0.1705453097820282,-0.18135032057762146,0.0330236479640007
1684200591323334000,3.915333984375,-0.16569596529006958,-0.19262002408504486,0.04101872444152832
1684200591333359900,3.92535986328125,-0.15513773262500763,-0.20054273307323456,0.027188822627067566
1684200591343385000,3.935385009765625,-0.1451769769191742,-0.2139698714017868,-0.005337696522474289
1684200591353410600,3.94541064453125,-0.13421089947223663,-0.2314867377281189,-0.06074950471520424
1684200591363436500,3.9554365234375,-0.12776897847652435,-0.24204963445663452,-0.11871852725744247
1684200591373462500,3.965462646484375,-0.12388961762189865,-0.25734689831733704,-0.15982437133789062
1684200591383488500,3.975488525390625,-0.1227513775229454,-0.29333794116973877,-0.16917818784713745
1684200591393514500,3.985514404296875,-0.12601739168167114,-0.340029239654541,-0.1455610692501068
1684200591403539500,3.99553955078125,-0.13733769953250885,-0.3494424521923065,-0.10213954746723175
1684200591413565400,4.0055654296875,-0.14914976060390472,-0.3556215465068817,-0.04011250659823418
1684200591423591400,4.01559130859375,-0.15667612850666046,-0.34032195806503296,0.015624525025486946
1684200591433617400,4.025617431640625,-0.15909898281097412,-0.2871987223625183,0.04809596762061119
1684200591443643400,4.035643310546875,-0.16691109538078308,-0.20421703159809113,0.06983189284801483
1684200591453669400,4.04566943359375,-0.16733506321907043,-0.14182741940021515,0.10457815229892731
1684200591463694300,4.0556943359375,-0.15885043144226074,-0.1341659426689148,0.12314406037330627
1684200591473720300,4.06572021484375,-0.14208893477916718,-0.19323019683361053,0.1025799810886383
1684200591483746300,4.075746337890625,-0.13566991686820984,-0.29052212834358215,0.04136189818382263
1684200591493772500,4.0857724609375,-0.1362023800611496,-0.38480937480926514,-0.05178220942616463
1684200591503798500,4.095798583984375,-0.1564357429742813,-0.4366547167301178,-0.14232569932937622
1684200591513824500,4.105824462890625,-0.18303142488002777,-0.4339412450790405,-0.22672057151794434
1684200591523849500,4.115849365234375,-0.20738497376441956,-0.39711427688598633,-0.2880643606185913
1684200591533875500,4.12587548828125,-0.22302135825157166,-0.3759487271308899,-0.3308754861354828
1684200591543901400,4.1359013671875,-0.22481578588485718,-0.3757364749908447,-0.3576447665691376
1684200591553927400,4.145927490234375,-0.215546116232872,-0.3678611218929291,-0.380931556224823
1684200591563953400,4.155953369140625,-0.19491486251354218,-0.3347098231315613,-0.4172719717025757
1684200591573979400,4.1659794921875,-0.1821351945400238,-0.3037111461162567,-0.45215705037117004
1684200591584005400,4.17600537109375,-0.16999198496341705,-0.2865385413169861,-0.49159419536590576
1684200591594030300,4.1860302734375,-0.171660378575325,-0.2879638373851776,-0.5413658618927002
1684200591604056300,4.196056396484375,-0.1782274693250656,-0.30497264862060547,-0.5888941884040833
1684200591614082300,4.206082275390625,-0.17517800629138947,-0.32336118817329407,-0.6313505172729492
1684200591624108300,4.2161083984375,-0.16156791150569916,-0.35414811968803406,-0.6551767587661743
1684200591634134300,4.22613427734375,-0.14744776487350464,-0.3654218316078186,-0.6453543305397034
1684200591644160500,4.236160400390625,-0.12792545557022095,-0.36657124757766724,-0.6069616675376892
1684200591654185200,4.246185302734375,-0.11443978548049927,-0.35573264956474304,-0.5419870018959045
1684200591664211500,4.25621142578125,-0.10035006701946259,-0.34813758730888367,-0.4492969810962677
1684200591674237400,4.266237548828125,-0.08943179249763489,-0.3360140919685364,-0.33495259284973145
1684200591684263400,4.276263427734375,-0.07106423377990723,-0.3156856596469879,-0.2190268188714981
1684200591694289400,4.286289306640625,-0.03572859615087509,-0.2644742727279663,-0.12370172888040543
1684200591704315400,4.2963154296875,0.012376879341900349,-0.15540343523025513,-0.04585380479693413
1684200591714340400,4.30634033203125,0.07743818312883377,-0.040250036865472794,0.011154836043715477
1684200591724366300,4.316366455078125,0.165148064494133,0.01390241552144289,0.09255141764879227
1684200591734392300,4.326392333984375,0.26346009969711304,-0.04963961988687515,0.20864222943782806
1684200591744418300,4.336418212890625,0.32749155163764954,-0.2216702401638031,0.3275585174560547
1684200591754444300,4.3464443359375,0.3224584460258484,-0.450591504573822,0.40999937057495117
1684200591764470300,4.35647021484375,0.2714080512523651,-0.6587497591972351,0.4218091368675232
1684200591774495500,4.36649560546875,0.21395167708396912,-0.8145581483840942,0.3825226426124573
1684200591784521200,4.376521240234375,0.18076549470424652,-0.9308173656463623,0.31995540857315063
1684200591794547200,4.386547119140625,0.16934306919574738,-1.0349847078323364,0.25828391313552856
1684200591804573200,4.3965732421875,0.17149916291236877,-1.1234493255615234,0.15418310463428497
1684200591814599400,4.406599365234375,0.16909588873386383,-1.1533831357955933,-0.05646314471960068
1684200591824625400,4.41662548828125,0.14759565889835358,-1.0320650339126587,-0.4395577907562256
1684200591834651400,4.4266513671875,0.12042554467916489,-0.6892961263656616,-0.9780707359313965
1684200591844676600,4.436676513671875,0.12930931150913239,-0.20992417633533478,-1.5691157579421997
1684200591854702600,4.44670263671875,0.1907147616147995,0.21463517844676971,-2.046372413635254
1684200591864728600,4.456728515625,0.27647867798805237,0.4259173274040222,-2.3380191326141357
1684200591874754300,4.46675439453125,0.34636667370796204,0.38097816705703735,-2.456393241882324
1684200591884780300,4.4767802734375,0.4074052572250366,0.13498276472091675,-2.4631898403167725
1684200591894806300,4.48680615234375,0.5026265382766724,-0.20194561779499054,-2.3945960998535156
1684200591904831500,4.49683154296875,0.6183890700340271,-0.4495428800582886,-2.2369861602783203
1684200591914857500,4.506857421875,0.7593591809272766,-0.4418488144874573,-2.000432252883911
1684200591924883500,4.516883544921875,0.8768999576568604,-0.22867396473884583,-1.6829594373703003
1684200591934909400,4.526909423828125,0.9574288129806519,-0.08203894644975662,-1.3398298025131226
1684200591944935400,4.536935302734375,0.99201899766922,-0.030976565554738045,-0.965505838394165
1684200591954961400,4.54696142578125,0.9892584085464478,-0.1936199963092804,-0.6547751426696777
1684200591964986400,4.556986328125,0.9692639708518982,-0.39494699239730835,-0.4021950960159302
1684200591975012400,4.567012451171875,0.9635676145553589,-0.5302953124046326,-0.20650739967823029
1684200591985038300,4.577038330078125,1.0135860443115234,-0.44287654757499695,-0.18044915795326233
1684200591995064600,4.587064697265625,1.1355539560317993,0.06511656194925308,-0.3778366446495056
1684200592005090600,4.597090576171875,1.2749824523925781,0.961051881313324,-0.6992868781089783
1684200592015116500,4.607116455078125,1.3609654903411865,1.7952336072921753,-0.9125012755393982
1684200592025142500,4.617142578125,1.351141333580017,2.271721839904785,-0.8390491604804993
1684200592035167500,4.62716748046875,1.250156283378601,2.2997798919677734,-0.5886064767837524
1684200592045193500,4.637193359375,1.1341739892959595,2.200129270553589,-0.2823527753353119
1684200592055219500,4.647219482421875,1.0418554544448853,2.0132927894592285,-0.11900534480810165
1684200592065245400,4.657245361328125,0.9712371826171875,1.8544056415557861,-0.12537643313407898
1684200592075271400,4.667271484375,0.9242026805877686,1.803527593612671,-0.21537216007709503
1684200592085297400,4.67729736328125,0.9278714656829834,1.7240389585494995,-0.3483496308326721
1684200592095322400,4.687322265625,1.0126312971115112,1.548950433731079,-0.4349381923675537
1684200592105348400,4.697348388671875,1.1102153062820435,1.3464951515197754,-0.42608582973480225
1684200592115374300,4.707374267578125,1.1709351539611816,1.2025049924850464,-0.3914320766925812
1684200592125400300,4.717400390625,1.1808929443359375,1.1144368648529053,-0.379683256149292
1684200592135426300,4.72742626953125,1.1425776481628418,1.1237093210220337,-0.3588944375514984
1684200592145452500,4.73745263671875,1.0941755771636963,1.119648814201355,-0.3181011974811554
1684200592155477200,4.747477294921875,1.038865566253662,1.0099046230316162,-0.2394014298915863
1684200592165503500,4.75750341796875,0.9558496475219727,0.9007949233055115,-0.1572977751493454
1684200592175529500,4.767529541015625,0.8933759331703186,0.8985938429832458,-0.08772550523281097
1684200592185555500,4.777555419921875,0.846350371837616,0.8740208745002747,-0.07772853970527649
1684200592195581400,4.78758154296875,0.8500947952270508,0.925610363483429,-0.02013954520225525
1684200592205607400,4.797607421875,0.8254165649414062,0.8387529253959656,0.012699361890554428
1684200592215632400,4.80763232421875,0.7865756750106812,0.7555691599845886,0.10864000767469406
1684200592225658400,4.817658447265625,0.6899111866950989,0.6190760135650635,0.22670193016529083
1684200592235684400,4.827684326171875,0.5415826439857483,0.39675280451774597,0.2886430621147156
1684200592245710300,4.83771044921875,0.4055076241493225,0.25188004970550537,0.3591337502002716
1684200592255736300,4.847736328125,0.3285641074180603,0.1617477685213089,0.4472215175628662
1684200592265762300,4.85776220703125,0.27430835366249084,0.025723882019519806,0.5087884664535522
1684200592275788300,4.867788330078125,0.20932582020759583,-0.07894621789455414,0.5668054223060608
1684200592285813200,4.877813232421875,0.14542913436889648,-0.04318130388855934,0.6654712557792664
1684200592295839200,4.887839111328125,0.075587198138237,-0.004363598767668009,0.7566518187522888
1684200592305865200,4.897865234375,0.0073026809841394424,0.029233243316411972,0.8367229104042053
1684200592315891500,4.907891357421875,-0.05986488237977028,0.027177663519978523,0.9003921151161194
1684200592325917400,4.91791748046875,-0.11286871135234833,-0.045851804316043854,0.9415936470031738
1684200592335943400,4.927943359375,-0.15424327552318573,-0.19472619891166687,0.9546234607696533
1684200592345968400,4.937968505859375,-0.18504327535629272,-0.3899756073951721,0.9289562106132507
1684200592355994600,4.94799462890625,-0.22891241312026978,-0.5929065942764282,0.8763433694839478
1684200592366020600,4.9580205078125,-0.2789633572101593,-0.7757645845413208,0.8125220537185669
1684200592376046600,4.968046630859375,-0.33023959398269653,-0.9445224404335022,0.7593067288398743
1684200592386072800,4.97807275390625,-0.3857768774032593,-1.081793189048767,0.7561535835266113
1684200592396098800,4.988098876953125,-0.4442364573478699,-1.1595728397369385,0.7704058885574341
1684200592406124800,4.998124755859375,-0.49593186378479004,-1.180528998374939,0.7994007468223572
1684200592416149800,5.008149658203125,-0.5415347218513489,-1.1892974376678467,0.8388863801956177
1684200592426175700,5.01817578125,-0.5834497213363647,-1.2188574075698853,0.893628716468811
1684200592436201700,5.02820166015625,-0.6430839896202087,-1.2841613292694092,0.9710025787353516
1684200592446227700,5.038227783203125,-0.7766668200492859,-1.2331324815750122,1.0697214603424072
1684200592456253700,5.048253662109375,-0.8995223045349121,-1.0868040323257446,1.1243529319763184
1684200592466279700,5.05827978515625,-0.9426780343055725,-0.9038511514663696,1.1289966106414795
1684200592476305000,5.068304931640625,-0.9167146682739258,-0.7479115128517151,1.1064128875732422
1684200592486330600,5.07833056640625,-0.8592212796211243,-0.6044526100158691,1.0753095149993896
1684200592496356600,5.088356689453125,-0.8039674758911133,-0.4920138120651245,1.0622891187667847
1684200592506382600,5.098382568359375,-0.7894785404205322,-0.41414910554885864,1.0574650764465332
1684200592516408600,5.10840869140625,-0.831762969493866,-0.3647296130657196,1.0553667545318604
1684200592526434600,5.1184345703125,-0.8863207697868347,-0.46865949034690857,1.0472686290740967
1684200592536459800,5.128459716796875,-0.9348186254501343,-0.748271644115448,1.0320751667022705
1684200592546485800,5.13848583984375,-0.9741460084915161,-0.9969711899757385,0.9931085705757141
1684200592556512000,5.148511962890625,-1.0086510181427002,-1.078357219696045,0.919267475605011
1684200592566538000,5.1585380859375,-0.9807195067405701,-1.1162422895431519,0.7815935015678406
1684200592576563700,5.168563720703125,-0.9238033294677734,-1.131108045578003,0.6343549489974976
1684200592586589700,5.178589599609375,-0.7962350249290466,-1.2413554191589355,0.468568354845047
1684200592596615000,5.188614990234375,-0.5728814005851746,-1.4267741441726685,0.4191175103187561
1684200592606641000,5.198640869140625,-0.5660629272460938,-1.434820294380188,0.3773386478424072
1684200592616667000,5.2086669921875,-0.6872784495353699,-1.2871513366699219,0.23407521843910217
1684200592626692900,5.21869287109375,-0.762891948223114,-1.0665761232376099,0.0591241717338562
1684200592636718800,5.22871875,-0.9814155697822571,-0.5723824501037598,-0.02268749661743641
1684200592646744800,5.238744873046875,-0.749351441860199,-0.2130671590566635,-0.12686209380626678
1684200592656769800,5.248769775390625,-0.3257293701171875,-0.06196974962949753,-0.2895229756832123
1684200592666795800,5.258795654296875,0.016357939690351486,-0.018588721752166748,-0.42457079887390137
1684200592676821800,5.26882177734375,0.1514742374420166,0.12017091363668442,-0.4238795042037964
1684200592686847700,5.27884765625,0.035312213003635406,0.3176634907722473,-0.3695898950099945
1684200592696873700,5.288873779296875,-0.16480660438537598,0.6029731631278992,-0.2868013381958008
1684200592706900000,5.29889990234375,-0.31470632553100586,0.9387306571006775,-0.18779830634593964
1684200592716926000,5.308926025390625,-0.41781002283096313,1.2173093557357788,-0.09969541430473328
1684200592726951000,5.318950927734375,-0.5014657974243164,1.3672280311584473,-0.024270961061120033
1684200592736977000,5.328976806640625,-0.5636445879936218,1.3460818529129028,0.03138841688632965
1684200592747003000,5.3390029296875,-0.5912114977836609,1.1401169300079346,0.06219266355037689
1684200592757028900,5.34902880859375,-0.5724229216575623,0.7102222442626953,0.09593641012907028
1684200592767054800,5.359054931640625,-0.4913605749607086,0.11160968244075775,0.15450412034988403
1684200592777080800,5.369080810546875,-0.37094810605049133,-0.47521868348121643,0.1978931874036789
1684200592787105800,5.379105712890625,-0.27056556940078735,-0.8963321447372437,0.18951861560344696
1684200592797131800,5.3891318359375,-0.20859426259994507,-1.108311653137207,0.11138428747653961
1684200592807157800,5.39915771484375,-0.15368787944316864,-1.1161237955093384,0.008214492350816727
1684200592817183700,5.409183837890625,-0.10755185037851334,-0.93995201587677,-0.10304902493953705
1684200592827209700,5.419209716796875,-0.06672639399766922,-0.6444948315620422,-0.17771047353744507
1684200592837235700,5.429235595703125,-0.036321304738521576,-0.29578182101249695,-0.23133976757526398
1684200592847261700,5.43926171875,-0.04399387165904045,0.06289217621088028,-0.2801094651222229
1684200592857286700,5.44928662109375,-0.08480256795883179,0.36740660667419434,-0.33990561962127686
1684200592867312600,5.459312744140625,-0.1399526447057724,0.6003599762916565,-0.37967991828918457
1684200592877339000,5.4693388671875,-0.17459286749362946,0.8587530851364136,-0.3914380371570587
1684200592887364900,5.47936474609375,-0.20993433892726898,1.1473116874694824,-0.33788931369781494
1684200592897390800,5.489390869140625,-0.1718701869249344,1.1625738143920898,-0.13590390980243683
1684200592907416800,5.499416748046875,-0.08569961041212082,0.920496940612793,0.17128212749958038
1684200592917441800,5.50944189453125,0.008266588672995567,0.7075645923614502,0.4240330755710602
1684200592927467800,5.5194677734375,0.06385394930839539,0.5227031707763672,0.5371093153953552
1684200592937493800,5.52949365234375,0.11908689141273499,0.2723366916179657,0.5330840349197388
1684200592947519700,5.539519775390625,0.18965081870555878,-0.08130897581577301,0.4432468116283417
1684200592957545700,5.549545654296875,0.26961302757263184,-0.3887307941913605,0.31495803594589233
1684200592967571700,5.55957177734375,0.3364546597003937,-0.6511629223823547,0.20323017239570618
1684200592977596700,5.5695966796875,0.36916378140449524,-0.8683051466941833,0.11690863966941833
1684200592987622700,5.57962255859375,0.3614637851715088,-0.9836394786834717,0.04639319330453873
1684200592997648600,5.589648681640625,0.32937267422676086,-0.995194673538208,-0.020987974479794502
1684200593007674600,5.599674560546875,0.2756732404232025,-0.8741425275802612,-0.07719133049249649
1684200593017700600,5.60970068359375,0.21634627878665924,-0.6445162296295166,-0.09874902665615082
1684200593027726800,5.619726806640625,0.15081574022769928,-0.4045476019382477,-0.057113166898489
1684200593037751600,5.62975146484375,0.07140229642391205,-0.19963736832141876,0.028161782771348953
1684200593047777800,5.63977783203125,0.012936855666339397,-0.028358031064271927,0.12526622414588928
1684200593057803800,5.6498037109375,-0.040039435029029846,0.09967689961194992,0.20947904884815216
1684200593067829800,5.659829833984375,-0.05799047276377678,0.16088351607322693,0.27599790692329407
1684200593077855700,5.669855712890625,-0.05830322578549385,0.1497415453195572,0.3327450156211853
1684200593087881700,5.6798818359375,-0.051173146814107895,0.10007786005735397,0.3599119186401367
1684200593097907700,5.68990771484375,-0.018395058810710907,0.032613784074783325,0.3399251699447632
1684200593107933000,5.699932861328125,-0.0017561600543558598,-0.03781883791089058,0.303625226020813
1684200593117959000,5.709958984375,0.00386851211078465,-0.11316663026809692,0.2967836558818817
1684200593127984600,5.719984619140625,-0.001789906295016408,-0.18118880689144135,0.3121037483215332
1684200593138010600,5.7300107421875,-0.022657271474599838,-0.1989823430776596,0.3237263560295105
1684200593148036600,5.74003662109375,-0.02833007089793682,-0.18854407966136932,0.30672767758369446
1684200593158062600,5.7500625,-0.03971131145954132,-0.18182390928268433,0.2794937193393707
1684200593168087800,5.760087890625,-0.05318717285990715,-0.16936643421649933,0.23394328355789185
1684200593178113800,5.77011376953125,-0.06246393546462059,-0.16751162707805634,0.1680687516927719
1684200593188139800,5.780139892578125,-0.06931944191455841,-0.22225290536880493,0.10288044065237045
1684200593198165800,5.790165771484375,-0.07045196741819382,-0.3042871057987213,0.05089622735977173
1684200593208191700,5.800191650390625,-0.07780043035745621,-0.3670831322669983,0.01023748330771923
1684200593218217700,5.8102177734375,-0.07636039704084396,-0.40333446860313416,-0.03184179216623306
1684200593228243700,5.82024365234375,-0.0829400047659874,-0.40102097392082214,-0.07238016277551651
1684200593238269000,5.83026904296875,-0.08749143034219742,-0.39517080783843994,-0.10426395386457443
1684200593248295000,5.840294921875,-0.08704587817192078,-0.4105244576931,-0.11654005944728851
1684200593258321000,5.85032080078125,-0.08991988003253937,-0.4164723753929138,-0.11570606380701065
1684200593268347000,5.860346923828125,-0.09360889345407486,-0.4005280137062073,-0.11997032165527344
1684200593278372900,5.870372802734375,-0.10234583169221878,-0.3689143657684326,-0.13306134939193726
1684200593288398800,5.88039892578125,-0.10141878575086594,-0.34902429580688477,-0.1562873125076294
1684200593298423800,5.890423828125,-0.10685039311647415,-0.3530976474285126,-0.19733701646327972
1684200593308449800,5.90044970703125,-0.11545134335756302,-0.38108882308006287,-0.25394195318222046
1684200593318475800,5.910475830078125,-0.12489815056324005,-0.41505107283592224,-0.3142530918121338
1684200593328501800,5.920501708984375,-0.1223074197769165,-0.42789018154144287,-0.362539678812027
1684200593338527700,5.93052783203125,-0.11624979227781296,-0.4145578444004059,-0.3802240490913391
1684200593348553700,5.9405537109375,-0.09292475879192352,-0.37879478931427,-0.36208632588386536
1684200593358579500,5.950579345703125,-0.07709171622991562,-0.34716111421585083,-0.3118286430835724
1684200593368605400,5.96060546875,-0.07279550284147263,-0.36227962374687195,-0.24630503356456757
1684200593378631400,5.97063134765625,-0.07128118723630905,-0.3761390447616577,-0.18811652064323425
1684200593388657400,5.980657470703125,-0.07131261378526688,-0.33530426025390625,-0.15577588975429535
1684200593398683400,5.990683349609375,-0.060266364365816116,-0.290181964635849,-0.13203853368759155
1684200593408709400,6.00070947265625,-0.05446014180779457,-0.24998021125793457,-0.10563835501670837
1684200593418735600,6.010735595703125,-0.05139457434415817,-0.2290208637714386,-0.08297645300626755
1684200593428760300,6.02076025390625,-0.052501384168863297,-0.22651270031929016,-0.06976450979709625
1684200593438786600,6.03078662109375,-0.06301245838403702,-0.24914376437664032,-0.06639987975358963
1684200593448812500,6.0408125,-0.07573917508125305,-0.2923641800880432,-0.07168572396039963
1684200593458838500,6.050838623046875,-0.10298226028680801,-0.3505864143371582,-0.09259095042943954
1684200593468864500,6.060864501953125,-0.13086581230163574,-0.3801533579826355,-0.12794333696365356
1684200593478890500,6.070890380859375,-0.16073766350746155,-0.37027299404144287,-0.17183692753314972
1684200593488915500,6.08091552734375,-0.18703292310237885,-0.3421870470046997,-0.23583509027957916
1684200593498941400,6.09094140625,-0.20939815044403076,-0.3428734540939331,-0.28322911262512207
1684200593508967400,6.100967529296875,-0.21642357110977173,-0.38457030057907104,-0.3064420223236084
1684200593518993400,6.110993408203125,-0.2042713612318039,-0.43280139565467834,-0.3259960114955902
1684200593529019400,6.121019287109375,-0.17193366587162018,-0.5003641843795776,-0.32959580421447754
1684200593539045400,6.13104541015625,-0.14261123538017273,-0.5885276794433594,-0.3245426416397095
1684200593549071400,6.1410712890625,-0.12329345941543579,-0.5771975517272949,-0.3461294174194336
1684200593559096300,6.151096435546875,-0.11190477013587952,-0.399477481842041,-0.41846567392349243
1684200593569122300,6.161122314453125,-0.10449372231960297,-0.10858839005231857,-0.5162798762321472
1684200593579148300,6.171148193359375,-0.07874288409948349,0.17130739986896515,-0.601062536239624
1684200593589174500,6.181174560546875,-0.0337490476667881,0.3379283547401428,-0.628558337688446
1684200593599200500,6.191200439453125,0.0355413444340229,0.37215182185173035,-0.584020733833313
1684200593609226500,6.2012265625,0.12414311617612839,0.31062427163124084,-0.4919477701187134
1684200593619251500,6.21125146484375,0.19635474681854248,0.19715243577957153,-0.37101346254348755
1684200593629277400,6.22127734375,0.2194097340106964,0.09820880740880966,-0.24608564376831055
1684200593639303400,6.231303466796875,0.22179871797561646,0.02850734256207943,-0.13960224390029907
1684200593649329400,6.241329345703125,0.2332894653081894,-0.059847019612789154,-0.06445875018835068
1684200593659355400,6.25135546875,0.2373524159193039,-0.19315138459205627,-0.0276549831032753
1684200593669381400,6.26138134765625,0.22115959227085114,-0.40306442975997925,-0.038937199860811234
1684200593679407400,6.271407470703125,0.1853085458278656,-0.7407562732696533,-0.119479238986969
1684200593689432300,6.281432373046875,0.14612466096878052,-1.1923432350158691,-0.28657713532447815
1684200593699458300,6.291458251953125,0.13392753899097443,-1.5885961055755615,-0.6273835301399231
1684200593709484300,6.301484375,0.20843160152435303,-1.565453290939331,-1.1770786046981812
1684200593719510300,6.31151025390625,0.38014131784439087,-0.9713330268859863,-1.8823060989379883
1684200593729536300,6.321536376953125,0.565721869468689,-0.08393421024084091,-2.556607246398926
1684200593739562500,6.3315625,0.694362223148346,0.6276993751525879,-2.9879398345947266
1684200593749587200,6.341587158203125,0.7634110450744629,1.1293319463729858,-3.1130571365356445
1684200593759613400,6.351613525390625,0.8223905563354492,1.5130335092544556,-2.9444425106048584
1684200593769639400,6.361639404296875,0.8452279567718506,1.665879726409912,-2.5970568656921387
1684200593779665400,6.37166552734375,0.8150193095207214,1.677276372909546,-2.078866958618164
1684200593789691400,6.38169140625,0.7398457527160645,1.4033452272415161,-1.4948519468307495
1684200593799717400,6.39171728515625,0.6412291526794434,0.9358918070793152,-0.8215768933296204
1684200593809742300,6.401742431640625,0.5271390676498413,0.36908674240112305,-0.11579868942499161
1684200593819768300,6.411768310546875,0.4809097945690155,-0.153212308883667,0.543942928314209
1684200593829794300,6.421794189453125,0.5275592803955078,-0.5005039572715759,1.0907460451126099
1684200593839820300,6.4318203125,0.677124559879303,-0.827617347240448,1.369674801826477
1684200593849846300,6.44184619140625,0.9503180384635925,-0.866462767124176,1.2165277004241943
1684200593859872300,6.451872314453125,1.3452140092849731,-0.16952237486839294,0.6596004366874695
1684200593869898200,6.461898193359375,1.6600490808486938,0.9883947372436523,0.10991624742746353
1684200593879923500,6.47192333984375,1.7003118991851807,1.8582872152328491,-0.07485689967870712
1684200593889949400,6.481949462890625,1.5067269802093506,2.2484304904937744,0.08477456867694855
1684200593899975400,6.491975341796875,1.1967535018920898,2.190707206726074,0.4166645407676697
1684200593910001400,6.50200146484375,0.9516021013259888,1.983900547027588,0.7593374252319336
1684200593920027400,6.51202734375,0.8153286576271057,1.8786643743515015,1.0370912551879883
1684200593930053400,6.522053466796875,0.7577961683273315,1.8489147424697876,1.1803282499313354
1684200593940078600,6.53207861328125,0.750316321849823,1.8447810411453247,1.1819632053375244
1684200593950104600,6.5421044921875,0.7638012766838074,1.8445701599121094,1.126251459121704
1684200593960130600,6.552130615234375,0.7772705554962158,1.7560667991638184,1.0760327577590942
1684200593970156500,6.562156494140625,0.7866160869598389,1.5520178079605103,1.0688164234161377
1684200593980182500,6.5721826171875,0.7787770628929138,1.2990739345550537,1.094339370727539
1684200593990208500,6.58220849609375,0.7381675839424133,1.0876331329345703,1.144649624824524
1684200594000234200,6.592234130859375,0.6770943999290466,0.9853071570396423,1.1892393827438354
1684200594010259500,6.602259521484375,0.5838645696640015,1.0088447332382202,1.2483829259872437
1684200594020285400,6.612285400390625,0.49683645367622375,1.0698225498199463,1.3232629299163818
1684200594030311400,6.6223115234375,0.423688143491745,1.10752534866333,1.396756649017334
1684200594040337400,6.63233740234375,0.3675077259540558,1.1327824592590332,1.4409902095794678
1684200594050363400,6.64236328125,0.3220052421092987,1.163864254951477,1.4464201927185059
1684200594060389400,6.652389404296875,0.2827600836753845,1.209643840789795,1.4175664186477661
1684200594070414300,6.662414306640625,0.2506042718887329,1.2437578439712524,1.3882935047149658
1684200594080440300,6.6724404296875,0.22588025033473969,1.2737162113189697,1.372248888015747
1684200594090466600,6.682466552734375,0.20971672236919403,1.2969828844070435,1.352622151374817
1684200594100492500,6.692492431640625,0.19168955087661743,1.358306884765625,1.3106366395950317
1684200594110518500,6.7025185546875,0.1695413738489151,1.4885884523391724,1.2538074254989624
1684200594120544500,6.71254443359375,0.1337204873561859,1.6762301921844482,1.1944388151168823
1684200594130570500,6.722570556640625,0.07487528026103973,1.862146019935608,1.1420533657073975
1684200594140595500,6.732595458984375,0.004730711225420237,1.9465430974960327,1.0972596406936646
1684200594150621400,6.742621337890625,-0.06157773733139038,1.9494107961654663,1.0612577199935913
1684200594160647400,6.7526474609375,-0.10212975740432739,1.9001233577728271,1.0209397077560425
1684200594170673400,6.76267333984375,-0.1067279726266861,1.8246655464172363,1.005588412284851
1684200594180699400,6.772699462890625,-0.10147637128829956,1.7503997087478638,1.0210856199264526
1684200594190725400,6.782725341796875,-0.08475811034440994,1.6790567636489868,1.065588355064392
1684200594200750300,6.792750244140625,-0.06613947451114655,1.6337814331054688,1.1460782289505005
1684200594210776300,6.8027763671875,-0.05032295733690262,1.6430606842041016,1.2360813617706299
1684200594220802300,6.81280224609375,-0.035512760281562805,1.704318881034851,1.306511640548706
1684200594230828300,6.822828369140625,-0.0356600321829319,1.7863727807998657,1.3441945314407349
1684200594240854500,6.8328544921875,-0.04294123873114586,1.8558474779129028,1.3562062978744507
1684200594250880500,6.842880615234375,-0.051165878772735596,1.897087574005127,1.3823158740997314
1684200594260905500,6.852905517578125,-0.07177025824785233,1.9368067979812622,1.428045630455017
1684200594270931500,6.862931396484375,-0.09571074694395065,1.941543459892273,1.4676923751831055
1684200594280957400,6.87295751953125,-0.11824292689561844,1.9167938232421875,1.5084190368652344
1684200594290983400,6.8829833984375,-0.1359255164861679,1.871437430381775,1.5370277166366577
1684200594301009400,6.893009521484375,-0.1373504400253296,1.8413128852844238,1.5642708539962769
1684200594311035400,6.903035400390625,-0.12375392764806747,1.8352528810501099,1.593454360961914
1684200594321061400,6.913061279296875,-0.10036209225654602,1.8503735065460205,1.628595232963562
1684200594331086300,6.92308642578125,-0.07881312817335129,1.8302267789840698,1.6306818723678589
1684200594341112300,6.9331123046875,-0.06058633327484131,1.7804687023162842,1.6090569496154785
1684200594351138300,6.94313818359375,-0.030422568321228027,1.6679028272628784,1.565308928489685
1684200594361164000,6.9531640625,0.02504049986600876,1.3896626234054565,1.5181069374084473
1684200594371190000,6.96318994140625,0.0856441929936409,1.0001366138458252,1.4791598320007324
1684200594381216000,6.973216064453125,0.10105132311582565,0.655735194683075,1.4461642503738403
1684200594391241000,6.983240966796875,0.06465470045804977,0.48154693841934204,1.4040751457214355
1684200594401267000,6.993266845703125,-0.05305822938680649,0.4743163585662842,1.3588793277740479
1684200594411293000,7.00329296875,-0.24401061236858368,0.5909521579742432,1.302520990371704
1684200594421319000,7.01331884765625,-0.5020318627357483,0.7826076745986938,1.2308275699615479
1684200594431345000,7.023344970703125,-0.7820195555686951,0.9890921711921692,1.1462807655334473
1684200594441371000,7.033370849609375,-0.9537492990493774,1.19122314453125,1.0650107860565186
1684200594451397000,7.043397216796875,-0.8450294733047485,1.450183391571045,0.8480693697929382
1684200594461422000,7.053422119140625,-0.5882495045661926,0.86774742603302,0.7606237530708313
1684200594471448000,7.063447998046875,-0.3545328676700592,0.2667132616043091,0.7342140078544617
1684200594481474000,7.07347412109375,-0.2191302329301834,0.5002338886260986,0.6936531066894531
1684200594491500000,7.0835,-0.22856901586055756,1.4530346393585205,0.5913128852844238
1684200594501526000,7.093526123046875,-0.35788634419441223,2.582376718521118,0.4852641820907593
1684200594511552000,7.103552001953125,-0.5119475722312927,3.479753017425537,0.4584839642047882
1684200594521577200,7.1135771484375,-0.6100843548774719,3.709927558898926,0.5148565173149109
1684200594531603200,7.123603271484375,-0.6167566776275635,3.5190625190734863,0.6885684132575989
1684200594541629200,7.133629150390625,-0.5543968677520752,3.3251800537109375,0.9387016892433167
1684200594551655200,7.1436552734375,-0.4383898079395294,3.1334519386291504,1.1866470575332642
1684200594561681200,7.15368115234375,-0.2964079976081848,2.636521339416504,1.4494876861572266
1684200594571707100,7.16370703125,-0.16337111592292786,1.8672747611999512,1.7091355323791504
1684200594581732900,7.17373291015625,-0.054445527493953705,1.2896360158920288,1.8670144081115723
1684200594591758000,7.183758056640625,0.03633178025484085,1.0688037872314453,1.8716901540756226
1684200594601784000,7.1937841796875,0.13315005600452423,1.1329337358474731,1.7616541385650635
1684200594611810000,7.20381005859375,0.21868254244327545,1.371812343597412,1.5897212028503418
1684200594621836000,7.2138359375,0.26908373832702637,1.703480839729309,1.432071566581726
1684200594631862300,7.2238623046875,0.27136901021003723,2.0258965492248535,1.301831841468811
1684200594641888300,7.23388818359375,0.24912405014038086,2.232835531234741,1.1951546669006348
1684200594651913200,7.243913330078125,0.23011015355587006,2.33083438873291,1.1138200759887695
1684200594661939200,7.253939208984375,0.20201648771762848,2.38139009475708,1.0602608919143677
1684200594671965200,7.263965087890625,0.17680621147155762,2.362473964691162,1.0394352674484253
1684200594681991200,7.2739912109375,0.16595982015132904,2.275383949279785,1.047678828239441
1684200594692017200,7.28401708984375,0.17603854835033417,2.1302998065948486,1.0881668329238892
1684200594702043100,7.294043212890625,0.18400925397872925,1.9878201484680176,1.151767373085022
1684200594712068000,7.304068115234375,0.17846694588661194,1.88369619846344,1.2419917583465576
1684200594722094000,7.314093994140625,0.15862348675727844,1.8809897899627686,1.3317714929580688
1684200594732120000,7.3241201171875,0.1129867434501648,1.9953901767730713,1.3999148607254028
1684200594742146000,7.33414599609375,0.06492513418197632,2.2056236267089844,1.4544306993484497
1684200594752172000,7.344172119140625,0.0022513647563755512,2.40891170501709,1.5020434856414795
1684200594762198000,7.354197998046875,-0.05329505354166031,2.570949077606201,1.5721328258514404
1684200594772224000,7.36422412109375,-0.11801812052726746,2.750379800796509,1.642309546470642
1684200594782249000,7.3742490234375,-0.19451439380645752,2.9853899478912354,1.6890629529953003
1684200594792275000,7.38427490234375,-0.257532000541687,3.2030773162841797,1.7214288711547852
1684200594802301200,7.39430126953125,-0.3069989085197449,3.33347225189209,1.7452324628829956
1684200594812327200,7.4043271484375,-0.33574268221855164,3.3532168865203857,1.7730337381362915
1684200594822353200,7.414353271484375,-0.3577454388141632,3.298954963684082,1.78727126121521
1684200594832379100,7.424379150390625,-0.3684883713722229,3.276837110519409,1.7644703388214111
1684200594842404000,7.434404052734375,-0.35968878865242004,3.2808923721313477,1.7061139345169067
1684200594852430000,7.44443017578125,-0.33627480268478394,3.224630117416382,1.6418495178222656
1684200594862456000,7.4544560546875,-0.29678183794021606,3.104210615158081,1.593252182006836
1684200594872482000,7.46448193359375,-0.2538953721523285,2.9557833671569824,1.5571820735931396
1684200594882508000,7.474508056640625,-0.23055052757263184,2.8295130729675293,1.5385617017745972
1684200594892534000,7.484533935546875,-0.21511003375053406,2.7345104217529297,1.528240442276001
1684200594902560000,7.49456005859375,-0.2125951498746872,2.643681526184082,1.5231239795684814
1684200594912585000,7.5045849609375,-0.21903547644615173,2.536674976348877,1.5103660821914673
1684200594922611000,7.51461083984375,-0.23424148559570312,2.453986167907715,1.4951213598251343
1684200594932637000,7.524636962890625,-0.268425315618515,2.4328575134277344,1.4551122188568115
1684200594942663000,7.534662841796875,-0.31280139088630676,2.445578098297119,1.3965120315551758
1684200594952689200,7.544689208984375,-0.334679514169693,2.4656426906585693,1.321164608001709
1684200594962715100,7.554715087890625,-0.3346404433250427,2.5102012157440186,1.2292708158493042
1684200594972741000,7.5647412109375,-0.32821130752563477,2.585719347000122,1.153212070465088
1684200594982766000,7.57476611328125,-0.3057304620742798,2.571115016937256,1.145321011543274
1684200594992792000,7.5847919921875,-0.28776875138282776,2.441128730773926,1.1764507293701172
1684200595002818000,7.594818115234375,-0.2807610034942627,2.2788443565368652,1.1989381313323975
1684200595012844000,7.604843994140625,-0.27617985010147095,2.1617467403411865,1.1536699533462524
1684200595022870000,7.6148701171875,-0.2721363604068756,2.068167209625244,1.0628995895385742
1684200595032896000,7.62489599609375,-0.26118144392967224,1.9865672588348389,0.9587910771369934
1684200595042921000,7.6349208984375,-0.2444911152124405,1.9220945835113525,0.8454387784004211
1684200595052947000,7.644947021484375,-0.21753379702568054,1.912718415260315,0.7264849543571472
1684200595062973000,7.654972900390625,-0.17377297580242157,1.960294246673584,0.6004451513290405
1684200595072999000,7.6649990234375,-0.11770304292440414,2.024932861328125,0.47170203924179077
1684200595083025000,7.67502490234375,-0.07372917234897614,2.048001289367676,0.34091728925704956
1684200595093051000,7.68505078125,-0.038004469126462936,2.0459725856781006,0.19321759045124054
1684200595103076000,7.695076171875,-0.000818450003862381,2.061688184738159,0.0719975158572197
1684200595113102000,7.70510205078125,0.025403300300240517,2.0955185890197754,0.012768286280333996
1684200595123128000,7.715128173828125,0.047082673758268356,2.0964162349700928,0.004919575992971659
1684200595133154000,7.725154052734375,0.07248656451702118,2.0698676109313965,-0.01608237810432911
1684200595143180000,7.735179931640625,0.11572611331939697,2.059455394744873,-0.10790667682886124
1684200595153206000,7.7452060546875,0.17235210537910461,2.029679775238037,-0.24626456201076508
1684200595163232000,7.75523193359375,0.23336340487003326,1.9388993978500366,-0.3904646039009094
1684200595173257200,7.76525732421875,0.2893659770488739,1.8120559453964233,-0.5052964091300964
1684200595183283200,7.775283203125,0.32538193464279175,1.6712819337844849,-0.5622889399528503
1684200595193309200,7.78530908203125,0.33433789014816284,1.5593034029006958,-0.5619707107543945
1684200595203335200,7.795335205078125,0.3228797912597656,1.5085817575454712,-0.5101518630981445
1684200595213361200,7.805361083984375,0.2925359904766083,1.524877667427063,-0.4271927773952484
1684200595223387000,7.815386962890625,0.27017632126808167,1.570821762084961,-0.3613985478878021
1684200595233412900,7.825412841796875,0.2866559624671936,1.6346662044525146,-0.346801221370697
1684200595243438000,7.83543798828125,0.33669519424438477,1.6406406164169312,-0.4316941201686859
1684200595253464000,7.845464111328125,0.41433700919151306,1.558835744857788,-0.6531564593315125
1684200595263490000,7.855489990234375,0.5240451693534851,1.3476256132125854,-0.9769220948219299
1684200595273516300,7.865516357421875,0.6643778085708618,1.023314118385315,-1.2914642095565796
1684200595283542300,7.875542236328125,0.8066022396087646,0.6424768567085266,-1.5139338970184326
1684200595293568300,7.885568359375,0.9162171483039856,0.3255183696746826,-1.6098906993865967
1684200595303593200,7.89559326171875,0.9915172457695007,0.13886184990406036,-1.6013336181640625
1684200595313619200,7.905619140625,1.0426832437515259,0.20409145951271057,-1.4826644659042358
1684200595323645200,7.915645263671875,1.0385029315948486,0.5102716088294983,-1.2088488340377808
1684200595333671200,7.925671142578125,0.9656110405921936,0.8845144510269165,-0.8370931148529053
1684200595343697200,7.935697265625,0.8711183667182922,1.1977453231811523,-0.44252321124076843
1684200595353723100,7.94572314453125,0.7746168971061707,1.3370776176452637,-0.10998788475990295
1684200595363749400,7.955749267578125,0.7057600617408752,1.2755669355392456,0.11768750846385956
1684200595373774300,7.9657744140625,0.7214553952217102,1.1608390808105469,0.25922414660453796
1684200595383800300,7.97580029296875,0.8419931530952454,1.0865002870559692,0.35666295886039734
1684200595393826300,7.985826416015625,1.0501775741577148,1.0388320684432983,0.39140307903289795
1684200595403852300,7.995852294921875,1.3220069408416748,1.103115439414978,0.31378644704818726
1684200595413878300,8.005878173828124,1.5861350297927856,1.3239543437957764,0.14546534419059753
1684200595423904500,8.015904541015624,1.74350905418396,1.5821406841278076,0.02251391112804413
1684200595433929200,8.02592919921875,1.7758134603500366,1.8262585401535034,0.03352128714323044
1684200595443955500,8.03595556640625,1.6222424507141113,1.9831682443618774,0.11699838936328888
1684200595453981400,8.0459814453125,1.3935765027999878,2.0585415363311768,0.22999151051044464
1684200595464007400,8.05600732421875,1.2477436065673828,2.0791115760803223,0.36097559332847595
1684200595474033400,8.066033447265625,1.2013499736785889,1.99723219871521,0.44238710403442383
1684200595484059400,8.076059326171874,1.200268268585205,1.7962549924850464,0.4422469139099121
1684200595494085400,8.08608544921875,1.2007890939712524,1.5351461172103882,0.41575750708580017
1684200595504110300,8.0961103515625,1.1720572710037231,1.2608413696289062,0.4195607304573059
1684200595514136300,8.10613623046875,1.10049307346344,0.9364007115364075,0.39867913722991943
1684200595524162300,8.116162353515625,1.0007593631744385,0.5768131613731384,0.34363290667533875
1684200595534188300,8.126188232421875,0.9060951471328735,0.329750657081604,0.3235052824020386
1684200595544214300,8.13621435546875,0.8197693228721619,0.2490496039390564,0.3191046416759491
1684200595554240300,8.146240234375,0.7241655588150024,0.2642948627471924,0.31009700894355774
1684200595564265200,8.15626513671875,0.6164642572402954,0.3179222047328949,0.31399640440940857
1684200595574291200,8.166291259765625,0.5027968287467957,0.39184463024139404,0.3486156463623047
1684200595584317200,8.176317138671875,0.38362741470336914,0.4533402919769287,0.43109384179115295
1684200595594343400,8.186343505859375,0.29065245389938354,0.48508545756340027,0.5381923317909241
1684200595604369400,8.196369384765624,0.2224349081516266,0.4627552926540375,0.6368221044540405
1684200595614395400,8.2063955078125,0.1775885969400406,0.37688910961151123,0.7294897437095642
1684200595624421400,8.21642138671875,0.14018695056438446,0.2578684687614441,0.8331712484359741
1684200595634446300,8.2264462890625,0.0851425975561142,0.10945849865674973,0.9337806701660156
1684200595644472300,8.236472412109375,0.016314253211021423,-0.0400741882622242,1.0229265689849854
1684200595654498300,8.246498291015625,-0.06552921235561371,-0.16403794288635254,1.092437744140625
1684200595664524300,8.256524169921875,-0.15975578129291534,-0.2712923288345337,1.1357543468475342
1684200595674550300,8.26655029296875,-0.2634960412979126,-0.3623543381690979,1.1735198497772217
1684200595684576300,8.276576171875,-0.3789573907852173,-0.46811625361442566,1.194248914718628
1684200595694601200,8.286601318359375,-0.49088022112846375,-0.5751838088035583,1.216448187828064
1684200595704627200,8.296627197265625,-0.5742452144622803,-0.7218477725982666,1.2517400979995728
1684200595714653200,8.306653076171875,-0.6023743152618408,-0.8473223447799683,1.2568438053131104
1684200595724679200,8.31667919921875,-0.4902728497982025,-0.8207115530967712,1.1644628047943115
1684200595734705200,8.326705078125,-0.293012797832489,-0.5877345204353333,0.9851064085960388
1684200595744731400,8.3367314453125,-0.09408397227525711,-0.2732637822628021,0.768651008605957
1684200595754757400,8.34675732421875,0.001264119753614068,-0.04703116416931152,0.6057009696960449
1684200595764782300,8.3567822265625,-0.0023001539520919323,0.05478905141353607,0.5531262159347534
1684200595774808300,8.366808349609375,-0.05425150319933891,0.08542472869157791,0.5505149960517883
1684200595784834300,8.376834228515625,-0.11453166604042053,0.02791886031627655,0.5302557349205017
1684200595794860300,8.3868603515625,-0.16640526056289673,-0.1715889275074005,0.49986693263053894
1684200595804886300,8.39688623046875,-0.17566289007663727,-0.38953569531440735,0.46740174293518066
1684200595814912300,8.406912353515626,-0.15565961599349976,-0.5414775013923645,0.4522739350795746
1684200595824937200,8.416937255859375,-0.12604491412639618,-0.6339977383613586,0.46624836325645447
1684200595834963200,8.426963134765625,-0.12004001438617706,-0.6674483418464661,0.4964944124221802
1684200595844989200,8.4369892578125,-0.1373801827430725,-0.6410240530967712,0.5282369256019592
1684200595855015200,8.44701513671875,-0.1692529022693634,-0.5727534294128418,0.5508666038513184
1684200595865041200,8.457041259765624,-0.2079305648803711,-0.5140289664268494,0.5620183944702148
1684200595875067100,8.467067138671876,-0.2582549750804901,-0.4874085485935211,0.5390949845314026
1684200595885093000,8.477093017578126,-0.3045046627521515,-0.461186945438385,0.492717444896698
1684200595895118300,8.487118408203125,-0.352700412273407,-0.4314762055873871,0.4677138030529022
1684200595905144300,8.497144287109375,-0.40448808670043945,-0.419660747051239,0.4693213701248169
1684200595915170300,8.50717041015625,-0.4487279951572418,-0.4304902255535126,0.4771233797073364
1684200595925196300,8.5171962890625,-0.46626922488212585,-0.4533737003803253,0.4620300233364105
1684200595935222300,8.52722216796875,-0.44923725724220276,-0.4595088064670563,0.4533228278160095
1684200595945248300,8.537248291015626,-0.401732861995697,-0.45692914724349976,0.4645165205001831
1684200595955273500,8.5472734375,-0.35281723737716675,-0.48986127972602844,0.47987762093544006
1684200595965299500,8.557299560546875,-0.31984084844589233,-0.5611160397529602,0.49980825185775757
1684200595975325400,8.567325439453125,-0.3010975122451782,-0.6330394744873047,0.5042155385017395
1684200595985351400,8.577351318359375,-0.29238444566726685,-0.6438481211662292,0.495606929063797
1684200595995377400,8.58737744140625,-0.29980963468551636,-0.5715091824531555,0.45781823992729187
1684200596005403400,8.5974033203125,-0.3257390558719635,-0.4159703254699707,0.38813990354537964
1684200596015429400,8.607429443359376,-0.35361993312835693,-0.2115253061056137,0.3122275471687317
1684200596025454300,8.617454345703125,-0.3855400085449219,-0.05445796251296997,0.23999173939228058
1684200596035480300,8.627480224609375,-0.39964357018470764,0.03470626845955849,0.17427530884742737
1684200596045506300,8.63750634765625,-0.39313632249832153,0.07610955834388733,0.12053922563791275
1684200596055532300,8.6475322265625,-0.3700357973575592,0.07698467373847961,0.08289304375648499
1684200596065558300,8.657558349609374,-0.3371914327144623,0.05261713266372681,0.06502573937177658
1684200596075584500,8.66758447265625,-0.2907927930355072,0.0647190660238266,0.08176237344741821
1684200596085609200,8.677609130859375,-0.2494395524263382,0.12524263560771942,0.11505071073770523
1684200596095635500,8.687635498046875,-0.23666304349899292,0.21080787479877472,0.1548500657081604
1684200596105661400,8.697661376953125,-0.25077155232429504,0.3228590488433838,0.1841338574886322
1684200596115687400,8.7076875,-0.2822543978691101,0.4546903073787689,0.1893986612558365
1684200596125713400,8.71771337890625,-0.3282875120639801,0.5685701370239258,0.18757109344005585
1684200596135739400,8.727739501953126,-0.3746741712093353,0.6249830722808838,0.1870267540216446
1684200596145765400,8.737765380859376,-0.41504883766174316,0.5884810090065002,0.18613208830356598
1684200596155790300,8.747790283203125,-0.43288135528564453,0.4723035395145416,0.17466025054454803
1684200596165816300,8.75781640625,-0.4273345470428467,0.3005583584308624,0.15291781723499298
1684200596175842300,8.76784228515625,-0.39864805340766907,0.07643260061740875,0.1136053130030632
1684200596185868300,8.777868408203124,-0.35481953620910645,-0.21211324632167816,0.07734989374876022
1684200596195894300,8.787894287109374,-0.3089103698730469,-0.5558596849441528,0.03783443942666054
1684200596205920300,8.797920166015626,-0.26600492000579834,-0.8506073951721191,-0.0028854033444076777
1684200596215946200,8.8079462890625,-0.23311035335063934,-1.078440546989441,-0.0517410933971405
1684200596225971200,8.81797119140625,-0.23504538834095,-1.195410966873169,-0.10509496927261353
1684200596235997200,8.8279970703125,-0.24440640211105347,-1.1515601873397827,-0.1664579212665558
1684200596246023400,8.8380234375,-0.2471722662448883,-0.9406610727310181,-0.23807395994663239
1684200596256049400,8.84804931640625,-0.2526296079158783,-0.6603452563285828,-0.31150102615356445
1684200596266075400,8.858075439453126,-0.2771098017692566,-0.40793436765670776,-0.3765732944011688
1684200596276101400,8.868101318359376,-0.3262547254562378,-0.23977622389793396,-0.43206530809402466
1684200596286126300,8.878126220703125,-0.3759967088699341,-0.12599416077136993,-0.4520636796951294
1684200596296152300,8.88815234375,-0.4126971960067749,-0.03540833294391632,-0.4151719808578491
1684200596306178300,8.89817822265625,-0.4164368212223053,0.0671016052365303,-0.3085857629776001
1684200596316204300,8.908204345703124,-0.4066915214061737,0.1918661743402481,-0.1698438674211502
1684200596326230300,8.918230224609376,-0.38858598470687866,0.4041748344898224,-0.03143118694424629
1684200596336256300,8.92825634765625,-0.34837862849235535,0.7810635566711426,0.0820290595293045
1684200596346282200,8.9382822265625,-0.3135099411010742,1.2471132278442383,0.16860246658325195
1684200596356306700,8.948306640625,-0.25658589601516724,1.523726463317871,0.2963936924934387
1684200596366332700,8.958332763671875,-0.1541176736354828,1.4618710279464722,0.4524904787540436
1684200596376358700,8.968358642578124,-0.005891984328627586,1.246246099472046,0.5227880477905273
1684200596386384600,8.978384521484376,0.10172863304615021,0.875296413898468,0.48871442675590515
1684200596396410600,8.98841064453125,0.15042108297348022,0.46206995844841003,0.38878756761550903
1684200596406436600,8.9984365234375,0.17730453610420227,0.06165871396660805,0.2857942283153534
1684200596416461800,9.0084619140625,0.23100504279136658,-0.25482282042503357,0.20179146528244019
1684200596426487800,9.01848779296875,0.2797728478908539,-0.41457414627075195,0.16933950781822205
1684200596436513500,9.028513427734374,0.31550875306129456,-0.45949554443359375,0.16693361103534698
1684200596446539800,9.038539794921874,0.33031517267227173,-0.41221052408218384,0.1639108806848526
1684200596456565800,9.048565673828126,0.3226460814476013,-0.37426021695137024,0.16722731292247772
1684200596466591700,9.058591796875,0.3017343580722809,-0.3613181710243225,0.20243622362613678
1684200596476617700,9.06861767578125,0.26942864060401917,-0.3556155562400818,0.2603764832019806
1684200596486643000,9.078642822265625,0.23913927376270294,-0.37047314643859863,0.329203337430954
1684200596496669000,9.0886689453125,0.19509777426719666,-0.37442663311958313,0.39765429496765137
1684200596506695000,9.09869482421875,0.15130650997161865,-0.33232107758522034,0.45269858837127686
1684200596516721000,9.108720947265626,0.1194726824760437,-0.25366249680519104,0.4753674268722534
1684200596526746600,9.11874658203125,0.09153170883655548,-0.1579955816268921,0.4662468731403351
1684200596536772600,9.128772705078125,0.06019189581274986,-0.06500278413295746,0.4048207998275757
1684200596546798600,9.138798583984375,0.013136979192495346,0.01168225146830082,0.29858943819999695
1684200596556823800,9.14882373046875,-0.025434382259845734,0.09052807092666626,0.1683046668767929
1684200596566849800,9.158849853515624,-0.045651622116565704,0.17179876565933228,0.04756743833422661
1684200596576875800,9.168875732421874,-0.047768037766218185,0.23561155796051025,-0.03220169246196747
1684200596586901800,9.17890185546875,-0.027504578232765198,0.23628002405166626,-0.07098930329084396
1684200596596928000,9.188927978515625,-0.01239599846303463,0.18369290232658386,-0.07084650546312332
1684200596606954000,9.1989541015625,0.008345521055161953,0.10693005472421646,-0.042179543524980545
1684200596616979000,9.20897900390625,0.02887849137187004,0.014067759737372398,0.01074305921792984
1684200596627005000,9.2190048828125,0.03502032905817032,-0.10042164474725723,0.08482447266578674
1684200596637031000,9.229031005859374,0.03040294349193573,-0.22002474963665009,0.17290720343589783
1684200596647057000,9.239056884765626,0.015268764458596706,-0.3165067732334137,0.24752216041088104
1684200596657083000,9.249082763671876,-0.006425878033041954,-0.363960325717926,0.2941160202026367
1684200596667108900,9.25910888671875,-0.03163975849747658,-0.36507073044776917,0.29713189601898193
1684200596677134800,9.269134765625,-0.050104252994060516,-0.3381565511226654,0.2704233229160309
1684200596687159800,9.279159912109375,-0.06279134005308151,-0.3099522292613983,0.22319535911083221
1684200596697185800,9.289185791015624,-0.07903742045164108,-0.26815444231033325,0.16076606512069702
1684200596707211800,9.299211669921876,-0.09856873750686646,-0.251458078622818,0.08092321455478668
1684200596717237800,9.30923779296875,-0.11338017135858536,-0.24885989725589752,0.01561664417386055
1684200596727263700,9.319263671875,-0.1159311905503273,-0.24222184717655182,-0.021136149764060974
1684200596737289700,9.329289794921875,-0.12385861575603485,-0.22086170315742493,-0.03184019401669502
1684200596747316000,9.33931591796875,-0.13437017798423767,-0.16027307510375977,-0.015811428427696228
1684200596757340700,9.349340576171874,-0.1397865116596222,-0.05144992098212242,0.019760148599743843
1684200596767367000,9.359366943359374,-0.12610334157943726,0.08289087563753128,0.08003254979848862
1684200596777393000,9.369392822265626,-0.07453043013811111,0.1682579666376114,0.14228419959545135
1684200596787419000,9.3794189453125,-0.021091140806674957,0.1797274500131607,0.18247780203819275
1684200596797444900,9.38944482421875,0.02595572918653488,0.06981906294822693,0.20335432887077332
1684200596807470800,9.399470947265625,0.0865359976887703,-0.13678665459156036,0.22255165874958038
1684200596817495800,9.409495849609375,0.12986056506633759,-0.33770671486854553,0.22282063961029053
1684200596827521800,9.419521728515624,0.14022564888000488,-0.47392722964286804,0.20637083053588867
1684200596837547800,9.4295478515625,0.09207835793495178,-0.5357024669647217,0.16085873544216156
1684200596847573800,9.43957373046875,0.0028379387222230434,-0.504034698009491,0.07086663693189621
1684200596857599700,9.449599853515625,-0.08333928883075714,-0.40025579929351807,-0.050710394978523254
1684200596867625700,9.459625732421875,-0.14960572123527527,-0.284997820854187,-0.16977261006832123
1684200596877651700,9.469651611328125,-0.1790565550327301,-0.23103603720664978,-0.25790032744407654
1684200596887676700,9.4796767578125,-0.19243325293064117,-0.24520063400268555,-0.32190850377082825
1684200596897702700,9.48970263671875,-0.18397052586078644,-0.3089143633842468,-0.36724480986595154
1684200596907728600,9.499728759765626,-0.16200408339500427,-0.3888484239578247,-0.39148998260498047
1684200596917755000,9.5097548828125,-0.14628876745700836,-0.4723387658596039,-0.3952309191226959
1684200596927780900,9.51978076171875,-0.13990576565265656,-0.5183785557746887,-0.3920050263404846
1684200596937806800,9.529806884765625,-0.13816006481647491,-0.5190651416778564,-0.38586750626564026
1684200596947831800,9.539831787109375,-0.1419571489095688,-0.5011535286903381,-0.36636272072792053
1684200596957857800,9.54985791015625,-0.14375612139701843,-0.4922333359718323,-0.34712618589401245
1684200596967883800,9.5598837890625,-0.14668366312980652,-0.4995635747909546,-0.31399625539779663
1684200596977909800,9.56990966796875,-0.15520577132701874,-0.4987449645996094,-0.27498945593833923
1684200596987935700,9.579935791015625,-0.15942862629890442,-0.4840981662273407,-0.228035107254982
1684200596997961700,9.589961669921875,-0.16291923820972443,-0.4711083173751831,-0.179951474070549
1684200597007987700,9.59998779296875,-0.16775909066200256,-0.4495464861392975,-0.12784092128276825
1684200597018012700,9.6100126953125,-0.15840473771095276,-0.40042686462402344,-0.09030712395906448
1684200597028038700,9.62003857421875,-0.12852323055267334,-0.3020628094673157,-0.05737501382827759
1684200597038064600,9.630064697265626,-0.09634771198034286,-0.16102926433086395,-0.030615568161010742
1684200597048090600,9.640090576171875,-0.06533423811197281,-0.016729148104786873,-0.0031956597231328487
1684200597058116600,9.65011669921875,-0.05167541652917862,0.09341572970151901,0.03584015369415283
1684200597068142800,9.660142822265625,-0.029066411778330803,0.14673228561878204,0.07721395790576935
1684200597078168800,9.6701689453125,0.012848814018070698,0.15622912347316742,0.09632879495620728
1684200597088193500,9.680193603515624,0.07436583936214447,0.13497325778007507,0.08665582537651062
1684200597098219800,9.6902197265625,0.14578649401664734,0.0864989310503006,0.059006620198488235
1684200597108245800,9.700245849609376,0.1845349222421646,-0.009729905053973198,0.02338247373700142
1684200597118271700,9.710271728515625,0.2265404313802719,-0.1339344084262848,-0.0056901900097727776
1684200597128297700,9.720297607421875,0.2657632827758789,-0.25147682428359985,-0.03352570906281471
1684200597138323700,9.73032373046875,0.2780705690383911,-0.3487645089626312,-0.04832196608185768
1684200597148349000,9.740348876953124,0.25151875615119934,-0.4269687533378601,-0.06069597229361534
1684200597158375000,9.750375,0.21712082624435425,-0.4815411865711212,-0.05318266153335571
1684200597168400600,9.760400634765626,0.1913416087627411,-0.5353726148605347,-0.01520523987710476
1684200597178426600,9.770426513671875,0.15928781032562256,-0.5536985993385315,0.059445030987262726
1684200597188452600,9.78045263671875,0.11840211600065231,-0.5198056697845459,0.1168336495757103
1684200597198478600,9.790478515625,0.08299672603607178,-0.4239339828491211,0.1374150812625885
1684200597208504600,9.800504638671875,0.04001720994710922,-0.3033967912197113,0.10691598057746887
1684200597218529800,9.81052978515625,-0.03034324198961258,-0.20872381329536438,0.027520760893821716
1684200597228555800,9.8205556640625,-0.11792682856321335,-0.15278983116149902,-0.09183172881603241
1684200597238581800,9.830581787109375,-0.16370336711406708,-0.11801905184984207,-0.2361239343881607
1684200597248608000,9.84060791015625,-0.1471802443265915,-0.07642368227243423,-0.3710158169269562
1684200597258633700,9.8506337890625,-0.08799467980861664,-0.049156904220581055,-0.48030874133110046
1684200597268659700,9.86065966796875,-0.027066854760050774,-0.05234843119978905,-0.5639151334762573
1684200597278685700,9.870685791015624,0.026278657838702202,-0.10845591127872467,-0.6452084183692932
1684200597288711000,9.8807109375,0.08246350288391113,-0.2436434030532837,-0.7522303462028503
1684200597298737000,9.89073681640625,0.15918971598148346,-0.4765067398548126,-0.9040467739105225
1684200597308763000,9.900762939453125,0.26762574911117554,-0.8452441096305847,-1.1302179098129272
1684200597318788900,9.910788818359375,0.39077192544937134,-1.2103142738342285,-1.4644927978515625
1684200597328814800,9.92081494140625,0.5668764710426331,-1.1155527830123901,-1.9296784400939941
1684200597338840800,9.9308408203125,0.8283085823059082,-0.5035207867622375,-2.508385419845581
1684200597348866800,9.94086669921875,1.1457633972167969,0.1482895165681839,-3.074307918548584
1684200597358892500,9.950892578125,1.3950779438018799,0.7891365885734558,-3.27706241607666
1684200597368918500,9.96091845703125,1.5275217294692993,1.368527889251709,-3.1157851219177246
1684200597378944500,9.970944580078125,1.583154320716858,1.464684247970581,-2.839170217514038
1684200597388970500,9.980970458984375,1.5467731952667236,1.2192494869232178,-2.5812735557556152
1684200597398996500,9.99099658203125,1.3989861011505127,0.906786322593689,-2.219939947128296
1684200597409022200,10.001022216796875,1.1841788291931152,0.5661600828170776,-1.6449443101882935
1684200597419048400,10.01104833984375,1.0097787380218506,0.025216929614543915,-0.9254090189933777
1684200597429073400,10.021073486328126,0.9801117181777954,-0.47711604833602905,-0.24590113759040833
1684200597439099600,10.031099609375,1.1504102945327759,-0.7789725661277771,-0.08043201267719269
1684200597449125600,10.041125732421875,1.5348137617111206,-0.29075416922569275,-0.45516276359558105
1684200597459151600,10.051151611328125,1.9429373741149902,0.8154973387718201,-0.9779175519943237
1684200597469177600,10.061177490234375,2.117327928543091,1.7953420877456665,-1.1238373517990112
1684200597479203600,10.07120361328125,2.074580192565918,2.147514581680298,-0.9386419057846069
1684200597489228500,10.081228515625,1.87607741355896,1.9900953769683838,-0.6450269818305969
1684200597499254500,10.091254638671876,1.6298527717590332,1.85662043094635,-0.33622947335243225
1684200597509280500,10.101280517578125,1.3471101522445679,1.9059449434280396,-0.17787282168865204
1684200597519306500,10.111306396484375,1.2075783014297485,2.2992167472839355,-0.09349215775728226
1684200597529332500,10.12133251953125,1.1546536684036255,2.4665441513061523,-0.1617584526538849
1684200597539358500,10.1313583984375,1.1806988716125488,2.4724860191345215,-0.21004796028137207
1684200597549384400,10.141384521484374,1.2510406970977783,2.161536931991577,-0.22595465183258057
1684200597559409400,10.151409423828126,1.2575538158416748,1.568434476852417,-0.2231665849685669
1684200597569435400,10.161435302734375,1.19346022605896,1.2508670091629028,-0.14270620048046112
1684200597579461400,10.17146142578125,1.065985083580017,1.0757663249969482,-0.15805213153362274
1684200597589487600,10.181487548828125,0.935580313205719,1.02367103099823,-0.14591041207313538
1684200597599513600,10.191513671875,0.8168965578079224,0.9556992053985596,-0.07108597457408905
1684200597609539600,10.20153955078125,0.6779136061668396,0.7581263780593872,-0.012694993987679482
1684200597619565600,10.211565673828124,0.5744213461875916,0.7319456338882446,0.09431667625904083
1684200597629590500,10.221590576171875,0.46429258584976196,0.6240136623382568,0.1478639394044876
1684200597639616500,10.231616455078125,0.41774559020996094,0.5594930052757263,0.21130123734474182
1684200597649642500,10.241642578125,0.37366506457328796,0.34289640188217163,0.2244885265827179
1684200597659668500,10.25166845703125,0.35896092653274536,0.1955586075782776,0.26745355129241943
1684200597669694500,10.261694580078125,0.33427608013153076,0.04347103834152222,0.3033859133720398
1684200597679720400,10.271720458984374,0.25830087065696716,-0.13474823534488678,0.32803797721862793
1684200597689746400,10.281746337890626,0.18076220154762268,-0.2056945413351059,0.4062868654727936
1684200597699771400,10.291771484375,0.10991918295621872,-0.25046467781066895,0.48976045846939087
1684200597709797400,10.30179736328125,0.03227438032627106,-0.25750231742858887,0.5715401768684387
1684200597719823400,10.3118232421875,-0.04875575751066208,-0.19740967452526093,0.6379154324531555
1684200597729849300,10.321849365234375,-0.12319565564393997,-0.10721126943826675,0.6804776191711426
1684200597739875600,10.33187548828125,-0.1883288323879242,-0.06210317090153694,0.6964531540870667
1684200597749901600,10.341901611328124,-0.2423584908246994,-0.1406131535768509,0.693427562713623
1684200597759926500,10.351926513671875,-0.2899366617202759,-0.33573952317237854,0.681029200553894
1684200597769952500,10.361952392578125,-0.3273180425167084,-0.5691696405410767,0.6575860977172852
1684200597779978500,10.371978515625,-0.34302854537963867,-0.7778772711753845,0.627710223197937
1684200597790004500,10.38200439453125,-0.33789777755737305,-0.9101309180259705,0.5880071520805359
1684200597800030500,10.392030517578124,-0.34820473194122314,-0.9373795986175537,0.5737472772598267
1684200597810056400,10.402056396484374,-0.39605507254600525,-0.87739497423172,0.5934718251228333
1684200597820082400,10.41208251953125,-0.475233256816864,-0.7530823349952698,0.6303137540817261
1684200597830107400,10.422107421875,-0.5485027432441711,-0.598627507686615,0.6695811748504639
1684200597840133400,10.43213330078125,-0.5900416374206543,-0.49839648604393005,0.7028275728225708
1684200597850159400,10.442159423828125,-0.5871005654335022,-0.45197680592536926,0.7399464249610901
1684200597860185300,10.452185302734375,-0.5472564697265625,-0.4441572427749634,0.7828968167304993
1684200597870211300,10.46221142578125,-0.501041829586029,-0.5405398011207581,0.8459388613700867
1684200597880237300,10.4722373046875,-0.46603408455848694,-0.7184607982635498,0.9523851275444031
1684200597890263600,10.482263671875,-0.4695938527584076,-0.9058473706245422,1.0860772132873535
1684200597900288300,10.492288330078125,-0.5101945996284485,-1.0517420768737793,1.2044025659561157
1684200597910314200,10.502314208984375,-0.5735601186752319,-1.136478304862976,1.2833997011184692
1684200597920340500,10.512340576171875,-0.6495838165283203,-1.172340989112854,1.316440463066101
1684200597930366500,10.522366455078124,-0.725648820400238,-1.1740460395812988,1.3055111169815063
1684200597940392400,10.532392333984374,-0.784601092338562,-1.1453726291656494,1.24360990524292
1684200597950418400,10.54241845703125,-0.8255401253700256,-1.1045526266098022,1.1509841680526733
1684200597960444400,10.5524443359375,-0.856583297252655,-1.0626085996627808,1.0234965085983276
1684200597970469400,10.562469482421875,-0.8521888852119446,-0.9963168501853943,0.9190901517868042
1684200597980495400,10.572495361328125,-0.841684877872467,-0.946873128414154,0.8440079092979431
1684200597990521300,10.582521240234374,-0.8373820185661316,-0.9120518565177917,0.817699670791626
1684200598000547300,10.59254736328125,-0.8574976325035095,-0.8485754132270813,0.8356315493583679
1684200598010573300,10.6025732421875,-0.8906816244125366,-0.7393558621406555,0.8500252366065979
1684200598020599300,10.612599365234376,-0.912764847278595,-0.6099581718444824,0.8032073974609375
1684200598030624500,10.62262451171875,-0.9242328405380249,-0.4955464005470276,0.7028014659881592
1684200598040650200,10.632650146484375,-0.9101923704147339,-0.40626978874206543,0.5728266835212708
1684200598050676200,10.64267626953125,-0.8433202505111694,-0.3192156255245209,0.4531756043434143
1684200598060702200,10.6527021484375,-0.6938285231590271,-0.19521458446979523,0.35367751121520996
1684200598070728400,10.662728515625,-0.4945431649684906,0.07297361642122269,0.2867615520954132
1684200598080754400,10.67275439453125,-0.3317877948284149,0.373640775680542,0.2131514996290207
1684200598090780400,10.682780517578125,-0.24702316522598267,0.4821673035621643,0.07296083867549896
1684200598100805600,10.6928056640625,-0.21482661366462708,0.38927972316741943,-0.08691990375518799
1684200598110831600,10.70283154296875,-0.20614944398403168,0.23728232085704803,-0.22807016968727112
1684200598120857600,10.712857666015625,-0.24045388400554657,0.1648286134004593,-0.3253850042819977
1684200598130883300,10.72288330078125,-0.27518031001091003,0.20875263214111328,-0.3440071940422058
1684200598140909300,10.732909423828126,-0.2815135717391968,0.3470771908760071,-0.26069071888923645
1684200598150935300,10.742935302734375,-0.30504459142684937,0.4715140163898468,-0.1111384779214859
1684200598160961300,10.752961181640625,-0.3864276111125946,0.48770442605018616,0.046606410294771194
1684200598170986500,10.762986572265625,-0.5147584676742554,0.3719090521335602,0.16738705337047577
1684200598181012500,10.773012451171875,-0.6294578909873962,0.13735806941986084,0.23144352436065674
1684200598191038500,10.78303857421875,-0.6683263778686523,-0.1701098382472992,0.25249049067497253
1684200598201064400,10.793064453125,-0.612908661365509,-0.6247255206108093,0.2542652487754822
1684200598211090400,10.80309033203125,-0.5240091681480408,-1.3056793212890625,0.23902229964733124
1684200598221116400,10.813116455078125,-0.46999257802963257,-1.9321264028549194,0.20065093040466309
1684200598231142400,10.823142333984375,-0.4449709951877594,-2.1960792541503906,0.1135251522064209
1684200598241167600,10.833167724609375,-0.44354620575904846,-2.039985418319702,-0.024061206728219986
1684200598251193600,10.843193603515624,-0.4332330822944641,-1.5824017524719238,-0.1837414652109146
1684200598261219600,10.853219482421874,-0.38879477977752686,-1.0214781761169434,-0.3195328414440155
1684200598271245600,10.86324560546875,-0.3293246924877167,-0.5107481479644775,-0.3835236728191376
1684200598281271600,10.873271484375,-0.2966032326221466,-0.13063544034957886,-0.39231637120246887
1684200598291297500,10.883297607421875,-0.3065322935581207,0.10731187462806702,-0.38516685366630554
1684200598301323500,10.893323486328125,-0.3480413854122162,0.2605767846107483,-0.363537460565567
1684200598311348500,10.903348388671875,-0.418311208486557,0.37604641914367676,-0.3360486626625061
1684200598321374500,10.91337451171875,-0.5085141062736511,0.5076915621757507,-0.29085373878479004
1684200598331400400,10.923400390625,-0.5732762217521667,0.6496796011924744,-0.2239633947610855
1684200598341426400,10.933426513671876,-0.5916197896003723,0.839862585067749,-0.08413226902484894
1684200598351452400,10.943452392578125,-0.5770940780639648,1.2126563787460327,0.15807782113552094
1684200598361478700,10.953478759765625,-0.5225080847740173,1.6367425918579102,0.46968603134155273
1684200598371504600,10.963504638671875,-0.39267992973327637,1.837973952293396,0.8031555414199829
1684200598381529600,10.973529541015624,-0.2893484830856323,1.7908519506454468,1.072040319442749
1684200598391555600,10.9835556640625,-0.2202788144350052,1.5440685749053955,1.1740342378616333
1684200598401581600,10.99358154296875,-0.15412722527980804,1.118069052696228,1.0814398527145386
1684200598411607600,11.003607666015625,-0.05616230517625809,0.6526939868927002,0.8629796504974365
1684200598421633500,11.013633544921875,0.0804634541273117,0.15801605582237244,0.6085029244422913
1684200598431659500,11.023659423828125,0.2254522740840912,-0.23016983270645142,0.3857426345348358
1684200598441685500,11.033685546875,0.3202890455722809,-0.44902920722961426,0.22151239216327667
1684200598451710500,11.04371044921875,0.3629501760005951,-0.5711848735809326,0.10932225733995438
1684200598461736400,11.053736328125,0.3815952241420746,-0.6363308429718018,0.05597994104027748
1684200598471762400,11.063762451171876,0.39250069856643677,-0.631425142288208,0.062145739793777466
1684200598481788700,11.07378857421875,0.37649962306022644,-0.5773824453353882,0.08537782728672028
1684200598491814700,11.083814697265625,0.3319380283355713,-0.4814184606075287,0.10713276267051697
1684200598501840600,11.093840576171875,0.26312512159347534,-0.32464244961738586,0.10367251932621002
1684200598511865600,11.103865478515624,0.22025541961193085,-0.1205713152885437,0.062179673463106155
1684200598521891600,11.1138916015625,0.20651617646217346,0.08098257333040237,0.013451015576720238
1684200598531917600,11.12391748046875,0.18298885226249695,0.19727234542369843,0.01687653176486492
1684200598541943600,11.133943603515625,0.1506708860397339,0.2901413142681122,0.07504023611545563
1684200598551969500,11.143969482421875,0.11594952642917633,0.338255912065506,0.15218092501163483
1684200598561995500,11.15399560546875,0.10799732804298401,0.3103310465812683,0.23231571912765503
1684200598572021500,11.164021484375,0.11750708520412445,0.2105792611837387,0.3149121403694153
1684200598582046500,11.17404638671875,0.10636495053768158,0.07335721701383591,0.3697248101234436
1684200598592072400,11.184072509765626,0.07212843745946884,-0.006921031512320042,0.3835667073726654
1684200598602098400,11.194098388671875,0.036646079272031784,-0.022610779851675034,0.3686985373497009
1684200598612124400,11.20412451171875,0.004373618867248297,0.009998410008847713,0.3467864394187927
1684200598622150400,11.214150390625,-0.022035617381334305,0.04959508776664734,0.3325049579143524
1684200598632176600,11.2241767578125,-0.028446003794670105,0.07023166120052338,0.3341986835002899
1684200598642202600,11.23420263671875,-0.0349249430000782,0.03475116193294525,0.3500644564628601
1684200598652227600,11.2442275390625,-0.045900896191596985,-0.06601699441671371,0.3618582785129547
1684200598662253600,11.254253662109376,-0.057689376175403595,-0.13797906041145325,0.354331374168396
1684200598672279600,11.264279541015625,-0.07316501438617706,-0.14169566333293915,0.3302448093891144
1684200598682305500,11.274305419921875,-0.09188144654035568,-0.0767478197813034,0.28454655408859253
1684200598692331500,11.28433154296875,-0.11915259808301926,-0.004396355710923672,0.23201094567775726
1684200598702357500,11.294357421875,-0.1424717754125595,0.04589983820915222,0.15626664459705353
1684200598712383500,11.304383544921874,-0.15827792882919312,0.06178795173764229,0.07843273133039474
1684200598722408400,11.314408447265626,-0.15384723246097565,0.008587315678596497,0.0014098514802753925
1684200598732434400,11.324434326171875,-0.1409015953540802,-0.09644201397895813,-0.06576023995876312
1684200598742460400,11.33446044921875,-0.12897729873657227,-0.20859386026859283,-0.10864751785993576
1684200598752486400,11.344486328125,-0.11227363348007202,-0.30401089787483215,-0.11806675046682358
1684200598762512400,11.354512451171875,-0.09155423939228058,-0.35527995228767395,-0.09548740088939667
1684200598772538400,11.364538330078124,-0.08735749125480652,-0.37042105197906494,-0.047375477850437164
1684200598782563300,11.374563232421876,-0.09700585901737213,-0.37841132283210754,0.011628987267613411
1684200598792589300,11.38458935546875,-0.11179781705141068,-0.41144195199012756,0.07671089470386505
1684200598802615300,11.394615234375,-0.13762354850769043,-0.4476891756057739,0.1143762469291687
1684200598812641500,11.4046416015625,-0.15383988618850708,-0.43737590312957764,0.0979728177189827
1684200598822667500,11.41466748046875,-0.15534643828868866,-0.40577030181884766,0.03681546077132225
1684200598832693500,11.424693603515625,-0.13450977206230164,-0.39139774441719055,-0.01748969778418541
1684200598842719500,11.434719482421874,-0.10874715447425842,-0.4034205675125122,-0.053616806864738464
1684200598852744700,11.44474462890625,-0.08103983104228973,-0.41589024662971497,-0.08943051844835281
1684200598862770400,11.4547705078125,-0.06541426479816437,-0.4316961169242859,-0.12779122591018677
1684200598872796400,11.46479638671875,-0.06544691324234009,-0.459670752286911,-0.1643916368484497
1684200598882822400,11.474822509765625,-0.06632841378450394,-0.4866802394390106,-0.19977065920829773
1684200598892848400,11.484848388671875,-0.05964041128754616,-0.5080103874206543,-0.22933126986026764
1684200598902874400,11.494874267578124,-0.05266851931810379,-0.532991349697113,-0.23366610705852509
1684200598912900400,11.504900390625,-0.06155615299940109,-0.5363918542861938,-0.2162608504295349
1684200598922925600,11.514925537109375,-0.0713464617729187,-0.500969648361206,-0.1913003772497177
1684200598932951600,11.52495166015625,-0.08431107550859451,-0.4545520544052124,-0.16430673003196716
1684200598942977500,11.5349775390625,-0.10108579695224762,-0.4198713004589081,-0.15395502746105194
1684200598953003500,11.54500341796875,-0.1232655793428421,-0.3870985507965088,-0.15741601586341858
1684200598963029500,11.555029541015625,-0.1483488231897354,-0.3634542226791382,-0.16222116351127625
1684200598973055500,11.565055419921874,-0.17444226145744324,-0.3323734700679779,-0.1528060883283615
1684200598983081500,11.57508154296875,-0.19608363509178162,-0.2975497245788574,-0.13726893067359924
1684200598993106700,11.585106689453125,-0.2122320830821991,-0.256119042634964,-0.1259385645389557
1684200599003132700,11.595132568359375,-0.21735414862632751,-0.1926039606332779,-0.11449044197797775
1684200599013158700,11.60515869140625,-0.18711864948272705,-0.08631321042776108,-0.1270550787448883
1684200599023184600,11.6151845703125,-0.12697835266590118,0.03660951554775238,-0.1508304476737976
1684200599033210600,11.625210693359374,-0.052508849650621414,0.13541314005851746,-0.17246495187282562
1684200599043236600,11.635236572265624,0.03688308224081993,0.22652414441108704,-0.197578564286232
1684200599053262600,11.6452626953125,0.12704350054264069,0.2965105473995209,-0.2234480232000351
1684200599063287600,11.65528759765625,0.2225969135761261,0.3704659938812256,-0.26735183596611023
1684200599073313500,11.6653134765625,0.3284956216812134,0.4407651722431183,-0.3212987780570984
1684200599083339500,11.675339599609375,0.42123061418533325,0.44281846284866333,-0.3573926091194153
1684200599093365500,11.685365478515624,0.48314493894577026,0.31364211440086365,-0.3329518437385559
1684200599103391500,11.6953916015625,0.5479825139045715,0.08893416076898575,-0.2634454667568207
1684200599113417700,11.705417724609376,0.6051048636436462,-0.17496758699417114,-0.17153093218803406
1684200599123443700,11.715443603515626,0.5709517002105713,-0.46292856335639954,-0.09798108041286469
1684200599133468700,11.72546875,0.4486871361732483,-0.7099041938781738,-0.05686720088124275
1684200599143494700,11.73549462890625,0.3066924512386322,-0.8704307675361633,-0.0359528623521328
1684200599153520600,11.745520751953125,0.20920848846435547,-0.9578503370285034,-0.04453623294830322
1684200599163546600,11.755546630859374,0.1683569699525833,-1.0298131704330444,-0.09087666869163513
1684200599173572600,11.765572509765626,0.16126275062561035,-1.074634075164795,-0.27565646171569824
1684200599183598600,11.7755986328125,0.18229159712791443,-0.9445101618766785,-0.7047442197799683
1684200599193624600,11.78562451171875,0.27054592967033386,-0.5698540210723877,-1.3610795736312866
1684200599203649500,11.7956494140625,0.4455174505710602,-0.06287286430597305,-2.072316884994507
1684200599213675500,11.805675537109375,0.6507484316825867,0.3373916745185852,-2.6586215496063232
1684200599223701500,11.815701416015624,0.7905116677284241,0.5523133277893066,-2.9941916465759277
1684200599233727500,11.8257275390625,0.880847156047821,0.7029414176940918,-3.0452957153320312
1684200599243753500,11.83575341796875,0.9011228680610657,0.9387185573577881,-2.7879507541656494
1684200599253779500,11.845779541015625,0.8577059507369995,1.1310244798660278,-2.2925946712493896
1684200599263804400,11.855804443359375,0.8097520470619202,1.0051219463348389,-1.7386178970336914
1684200599273830400,11.865830322265625,0.7869707942008972,0.4093441069126129,-1.3930349349975586
1684200599283856600,11.875856689453125,0.8115525841712952,-0.20791912078857422,-1.2016884088516235
1684200599293882600,11.885882568359374,0.8476572632789612,-0.5002621412277222,-1.0958490371704102
1684200599303908600,11.89590869140625,0.8271309733390808,-0.33100205659866333,-1.0282319784164429
1684200599313934600,11.9059345703125,0.8062671422958374,0.2189456820487976,-0.9527912735939026
1684200599323960600,11.915960693359375,0.7876063585281372,0.8806770443916321,-0.862800121307373
1684200599333985500,11.925985595703125,0.8093030452728271,1.2950268983840942,-0.7909076809883118
1684200599344011500,11.936011474609375,0.9275937080383301,1.3596669435501099,-0.7832143306732178
1684200599354037500,11.94603759765625,1.0781346559524536,1.3536639213562012,-0.8295517563819885
1684200599364063200,11.956063232421876,1.1759767532348633,1.500032901763916,-0.8225162625312805
1684200599374089200,11.966089111328126,1.1445244550704956,1.7241944074630737,-0.7346057295799255
1684200599384115200,11.976115234375,0.9974809885025024,1.8066070079803467,-0.6306974291801453
1684200599394141200,11.98614111328125,0.8672245144844055,1.746952772140503,-0.48695501685142517
1684200599404166100,11.996166259765625,0.7531567811965942,1.5059740543365479,-0.3813321888446808
1684200599414192000,12.006192138671874,0.6817053556442261,1.3218114376068115,-0.27499476075172424
1684200599424218000,12.016218017578124,0.6271824240684509,1.1935150623321533,-0.17477524280548096
1684200599434244000,12.026244140625,0.5626338720321655,1.1133109331130981,-0.09239424020051956
1684200599444270000,12.03627001953125,0.5059972405433655,1.0721696615219116,-0.012320978567004204
1684200599454296000,12.046296142578125,0.4862951934337616,1.0694847106933594,0.10486912727355957
1684200599464322000,12.056322021484375,0.43661579489707947,0.9509891867637634,0.19034434854984283
1684200599474347000,12.066346923828124,0.33446982502937317,0.8175285458564758,0.3068954050540924
1684200599484373000,12.076373046875,0.2189251333475113,0.6879844069480896,0.4658680260181427
1684200599494399000,12.08639892578125,0.11140982061624527,0.5072321891784668,0.5944815874099731
1684200599504425200,12.09642529296875,0.045146916061639786,0.2761363983154297,0.6816385984420776
1684200599514451200,12.106451171875,0.008117547258734703,0.02819274552166462,0.7344606518745422
1684200599524477200,12.116477294921875,-0.015874603763222694,-0.2235681116580963,0.7794814109802246
1684200599534503200,12.126503173828125,-0.0314168743789196,-0.41078826785087585,0.8181536197662354
1684200599544528100,12.136528076171874,-0.05907832831144333,-0.5068103671073914,0.8456110954284668
1684200599554554000,12.14655419921875,-0.09941045194864273,-0.4829372763633728,0.8525310754776001
1684200599564580000,12.156580078125,-0.13179343938827515,-0.360090970993042,0.8532437086105347
1684200599574606000,12.166606201171875,-0.15299050509929657,-0.17473815381526947,0.8585228323936462
1684200599584632000,12.176632080078125,-0.1672123223543167,0.011568876914680004,0.8406732082366943
1684200599594658000,12.186657958984375,-0.17857079207897186,0.14371153712272644,0.8135381937026978
1684200599604684000,12.19668408203125,-0.17990344762802124,0.18507443368434906,0.7760217189788818
1684200599614709200,12.206709228515624,-0.17589089274406433,0.1270381063222885,0.7321327924728394
1684200599624735200,12.2167353515625,-0.17224156856536865,0.0029323964845389128,0.68635094165802
1684200599634761200,12.22676123046875,-0.17061150074005127,-0.15103700757026672,0.638654887676239
1684200599644787200,12.236787109375,-0.16972120106220245,-0.3126203119754791,0.5905510187149048
1684200599654813200,12.246813232421875,-0.16305626928806305,-0.4446077346801758,0.5381842851638794
1684200599664839200,12.256839111328125,-0.12727057933807373,-0.4909653961658478,0.5017660856246948
1684200599674865200,12.266865234375,-0.08173904567956924,-0.453128844499588,0.4768495261669159
1684200599684890400,12.276890380859374,-0.05605871230363846,-0.32930994033813477,0.4702856242656708
1684200599694916400,12.286916259765626,-0.09060472995042801,-0.17608962953090668,0.4765380024909973
1684200599704942300,12.2969423828125,-0.15758082270622253,-0.04923607409000397,0.48879122734069824
1684200599714968300,12.30696826171875,-0.2080879807472229,0.0703645870089531,0.4913727939128876
1684200599724994300,12.316994384765625,-0.23000606894493103,0.15914557874202728,0.4646732807159424
1684200599735020300,12.327020263671875,-0.23402006924152374,0.22637134790420532,0.4228546619415283
1684200599745046000,12.3370458984375,-0.21368710696697235,0.23093441128730774,0.37466076016426086
1684200599755071200,12.3470712890625,-0.17176242172718048,0.18154913187026978,0.3371020555496216
1684200599765097200,12.35709716796875,-0.11454972624778748,0.14558419585227966,0.2923913300037384
1684200599775123200,12.367123291015625,-0.07235968858003616,0.14968322217464447,0.23219650983810425
1684200599785149200,12.377149169921875,-0.03339684382081032,0.1747419685125351,0.18861015141010284
1684200599795175200,12.387175048828125,-0.0066035445779562,0.22500118613243103,0.1777365803718567
1684200599805201400,12.397201416015625,0.004143375437706709,0.29534512758255005,0.1874387413263321
1684200599815227400,12.407227294921874,-0.01581883616745472,0.3852675259113312,0.19602108001708984
1684200599825252400,12.41725244140625,-0.051239944994449615,0.4562157392501831,0.19826427102088928
1684200599835278300,12.4272783203125,-0.06828771531581879,0.4505392014980316,0.20276963710784912
1684200599845304300,12.43730419921875,-0.07673366367816925,0.3617638051509857,0.19573597609996796
1684200599855330300,12.447330322265625,-0.0685366541147232,0.2306671142578125,0.164833664894104
