time,seconds_elapsed,z,y,x
1684201170554179300,0.038179443359375,0.7642990946769714,7.297824382781982,0.9131202697753906
1684201170564204500,0.04820458984375,1.3968226909637451,4.932362079620361,0.4528472423553467
1684201170574230500,0.05823046875,1.84697687625885,3.5766735076904297,0.2721419036388397
1684201170584256500,0.068256591796875,2.23116397857666,1.772117018699646,0.22970522940158844
1684201170594281500,0.078281494140625,2.443215847015381,0.5636277794837952,0.39744842052459717
1684201170604307500,0.088307373046875,2.427213191986084,-0.028637655079364777,0.6366317868232727
1684201170614333400,0.09833349609375,2.192361831665039,-0.280667245388031,0.7608829140663147
1684201170624359400,0.108359375,1.8623478412628174,-0.09739796072244644,0.7060436010360718
1684201170634384400,0.11838427734375,1.4200103282928467,0.6435445547103882,0.5607795715332031
1684201170644410400,0.128410400390625,0.8832945823669434,1.8795186281204224,0.4411751925945282
1684201170654436400,0.138436279296875,0.6503551006317139,1.8906008005142212,0.4386664927005768
1684201170664462300,0.14846240234375,0.4170532822608948,1.3916045427322388,0.5788446068763733
1684201170674487300,0.1584873046875,-0.015499213710427284,1.1551283597946167,0.8247299790382385
1684201170684513300,0.16851318359375,-0.6669375896453857,1.026044249534607,1.222059965133667
1684201170694539300,0.178539306640625,-1.2579056024551392,1.0926307439804077,1.4352742433547974
1684201170704565200,0.188565185546875,-1.5669485330581665,1.0774692296981812,1.3406329154968262
1684201170714590200,0.198590087890625,-1.5757957696914673,1.1980310678482056,1.11209237575531
1684201170724616200,0.2086162109375,-1.5011950731277466,1.374815821647644,1.0985804796218872
1684201170734642400,0.218642333984375,-1.3858360052108765,2.093669891357422,1.0241878032684326
1684201170744667400,0.22866748046875,-1.821298599243164,2.775176525115967,0.9066868424415588
1684201170754693600,0.238693603515625,-3.206925868988037,3.5222585201263428,0.7236765623092651
1684201170764719400,0.24871923828125,-4.266266345977783,4.266845703125,0.523840606212616
1684201170774745300,0.258745361328125,-4.683329105377197,4.608053207397461,0.2599181532859802
1684201170784770600,0.2687705078125,-4.5737833976745605,4.974562644958496,0.08141185343265533
1684201170794796500,0.278796630859375,-4.246006011962891,5.122777462005615,-0.025379840284585953
1684201170804822500,0.288822509765625,-4.037545204162598,5.365941524505615,-0.11610181629657745
1684201170814848500,0.2988486328125,-4.183618068695068,6.072766304016113,-0.19044075906276703
1684201170824873500,0.30887353515625,-4.609257698059082,7.015115737915039,-0.20802006125450134
1684201170834899500,0.3188994140625,-5.138408660888672,7.861049175262451,-0.11544432491064072
1684201170844925400,0.328925537109375,-5.586828231811523,8.448562622070312,0.09003932029008865
1684201170854951400,0.338951416015625,-5.843746662139893,8.605778694152832,0.33789172768592834
1684201170864976400,0.348976318359375,-5.663292407989502,8.348176956176758,0.6309219002723694
1684201170875002400,0.35900244140625,-5.086008071899414,7.657322883605957,1.071225881576538
1684201170885028400,0.3690283203125,-4.657078266143799,6.865959167480469,1.6568011045455933
1684201170895054300,0.379054443359375,-5.066629886627197,6.318380832672119,2.3826117515563965
1684201170905079300,0.389079345703125,-6.3365631103515625,5.740940093994141,3.3982598781585693
1684201170915105300,0.399105224609375,-7.72927188873291,4.361922264099121,4.374430179595947
1684201170925131300,0.40913134765625,-8.4231538772583,3.1815147399902344,5.0608649253845215
1684201170935156200,0.41915625,-8.383559226989746,2.7027714252471924,5.2732038497924805
1684201170945182200,0.42918212890625,-8.043551445007324,2.1413235664367676,5.001914978027344
1684201170955208200,0.439208251953125,-7.6434760093688965,1.5300393104553223,4.461808204650879
1684201170965234200,0.449234130859375,-7.313719272613525,1.28135085105896,3.9793403148651123
1684201170975259400,0.45925927734375,-7.043406963348389,1.0596578121185303,3.683600425720215
1684201170985285400,0.469285400390625,-6.71167516708374,0.4482259750366211,3.334242820739746
1684201170995311600,0.4793115234375,-6.3111443519592285,-0.38851234316825867,2.8439829349517822
1684201171005337600,0.489337646484375,-5.849257469177246,-1.1839346885681152,2.434382915496826
1684201171015362600,0.499362548828125,-5.294985294342041,-1.8402706384658813,2.1680448055267334
1684201171025388500,0.509388427734375,-4.551881313323975,-2.3266632556915283,1.9774879217147827
1684201171035414500,0.51941455078125,-3.7100746631622314,-2.673764944076538,1.8531198501586914
1684201171045440500,0.5294404296875,-2.974519729614258,-3.0413074493408203,1.6304956674575806
1684201171055465700,0.5394658203125,-2.3477869033813477,-3.2867496013641357,1.2417564392089844
1684201171065491700,0.54949169921875,-1.7040765285491943,-3.196552276611328,0.8985177278518677
1684201171075517700,0.559517578125,-1.0846755504608154,-3.2826898097991943,0.6158508658409119
1684201171085543700,0.569543701171875,-0.6466064453125,-3.2056334018707275,0.23467613756656647
1684201171095568600,0.579568603515625,-0.36850234866142273,-2.941476821899414,0.01958513632416725
1684201171105594600,0.5895947265625,-0.10474928468465805,-2.8664019107818604,-0.025256313383579254
1684201171115620600,0.59962060546875,0.21869321167469025,-2.694427251815796,0.07069604843854904
1684201171125645600,0.6096455078125,0.5977084636688232,-2.2887070178985596,0.2830992043018341
1684201171135671600,0.619671630859375,1.0143630504608154,-1.8796290159225464,0.5576215982437134
1684201171145697800,0.62969775390625,1.379866123199463,-1.6926045417785645,0.8324519395828247
1684201171155723800,0.639723876953125,1.7670849561691284,-1.5810327529907227,1.0193300247192383
1684201171165748700,0.649748779296875,2.2773685455322266,-1.5064113140106201,1.091105580329895
1684201171175774700,0.659774658203125,2.8919849395751953,-1.4462978839874268,1.0183783769607544
1684201171185800700,0.66980078125,3.3680076599121094,-1.3250231742858887,0.7446292638778687
1684201171195826700,0.67982666015625,3.801185369491577,-1.0774791240692139,0.42748329043388367
1684201171205852000,0.689851806640625,4.330554962158203,-0.7705258131027222,0.13335488736629486
1684201171215878000,0.6998779296875,4.383334159851074,-0.3501644432544708,-0.25944674015045166
1684201171225903900,0.70990380859375,4.118155002593994,-0.03174752742052078,-0.8561634421348572
1684201171235929600,0.7199296875,3.109450340270996,0.2971877455711365,-2.137855052947998
1684201171245954800,0.729954833984375,2.396062135696411,1.0407902002334595,-2.418774127960205
1684201171255980800,0.739980712890625,1.9927561283111572,1.5893638134002686,-1.4433870315551758
1684201171266006800,0.7500068359375,1.9371470212936401,2.5218281745910645,-0.1774221956729889
1684201171276031700,0.76003173828125,2.4914684295654297,3.156822681427002,0.6922357082366943
1684201171286057700,0.7700576171875,2.73797607421875,3.5155341625213623,0.8958143591880798
1684201171296083700,0.780083740234375,2.7620677947998047,3.140240430831909,0.7139270901679993
1684201171306109700,0.790109619140625,2.460475206375122,2.678675889968872,0.519027829170227
1684201171316134700,0.800134765625,2.344365119934082,2.0490169525146484,0.37879934906959534
1684201171326160600,0.81016064453125,2.417937755584717,1.407212734222412,0.30590131878852844
1684201171336186600,0.8201865234375,2.26743483543396,0.8674007654190063,0.41082826256752014
1684201171346212600,0.830212646484375,1.8153914213180542,0.372516393661499,0.5038492679595947
1684201171356237600,0.840237548828125,1.3326305150985718,-0.073798768222332,0.6008338928222656
1684201171366263600,0.850263671875,0.5016427636146545,0.02198762819170952,0.5120400190353394
1684201171376289500,0.86028955078125,-0.23474496603012085,0.3345692455768585,0.29819053411483765
1684201171386315800,0.870315673828125,-0.9132436513900757,0.5004128813743591,-0.06787718087434769
1684201171396340700,0.8803408203125,-1.62350332736969,0.5310685634613037,-0.4490266740322113
1684201171406366700,0.89036669921875,-2.348444700241089,0.5288545489311218,-0.8753584027290344
1684201171416392700,0.900392822265625,-3.015148639678955,0.6939377784729004,-1.2493336200714111
1684201171426418000,0.91041796875,-3.471346616744995,0.760438084602356,-1.5799239873886108
1684201171436444000,0.92044384765625,-3.494943141937256,0.7637683749198914,-1.8831379413604736
1684201171446470000,0.930469970703125,-3.0297183990478516,1.094309687614441,-2.0243051052093506
1684201171456495900,0.940495849609375,-3.345430850982666,1.6770739555358887,-1.7969216108322144
1684201171466520800,0.950520751953125,-4.358510494232178,1.5938540697097778,-1.2456424236297607
1684201171476546800,0.960546875,-5.117435455322266,0.278932124376297,-0.7209052443504333
1684201171486572800,0.97057275390625,-4.95408821105957,0.20614221692085266,-0.8091903328895569
1684201171496598800,0.980598876953125,-4.262886047363281,1.2014886140823364,-1.494114637374878
1684201171506623700,0.990623779296875,-3.7200052738189697,2.2431318759918213,-2.4445714950561523
1684201171516649700,1.000649658203125,-3.5475881099700928,2.5745444297790527,-3.217646360397339
1684201171526675700,1.01067578125,-3.499235153198242,3.011061429977417,-3.7320308685302734
1684201171536701700,1.02070166015625,-3.772352695465088,3.3306519985198975,-3.642003297805786
1684201171546726700,1.0307265625,-4.214748382568359,3.563168525695801,-2.624295711517334
1684201171556752600,1.040752685546875,-4.029909610748291,3.538933038711548,-0.816458523273468
1684201171566778600,1.050778564453125,-2.7104239463806152,2.3517205715179443,1.4253833293914795
1684201171576803600,1.060803466796875,-1.308771014213562,0.30713096261024475,3.1416354179382324
1684201171586829600,1.07082958984375,-0.7935177087783813,-0.9509074091911316,3.710594654083252
1684201171596855600,1.08085546875,-0.931013286113739,-1.4487223625183105,3.284496545791626
1684201171606881500,1.090881591796875,-1.1798980236053467,-1.9647202491760254,2.394747734069824
1684201171616906800,1.10090673828125,-1.4031544923782349,-2.695103168487549,1.5764607191085815
1684201171626932700,1.1109326171875,-1.2456597089767456,-3.076786756515503,1.0044347047805786
1684201171636958700,1.120958740234375,-0.8132123351097107,-2.890103340148926,0.8040434718132019
1684201171646984700,1.130984619140625,-0.4914792776107788,-2.0029542446136475,1.190024495124817
1684201171657010000,1.141010009765625,-0.6093273162841797,-0.7735535502433777,1.8725566864013672
1684201171667036000,1.151035888671875,-0.8989663124084473,0.012106356211006641,2.356510877609253
1684201171677062000,1.161061767578125,-1.0708414316177368,0.43047216534614563,2.5061123371124268
1684201171687087900,1.171087890625,-0.9177924394607544,0.6779452562332153,2.4337692260742188
1684201171697112800,1.18111279296875,0.9846752882003784,1.4582892656326294,1.8185724020004272
1684201171707138800,1.191138916015625,2.1220436096191406,2.3393523693084717,1.1388767957687378
1684201171717164800,1.201164794921875,2.28413724899292,2.790787696838379,0.6625902652740479
1684201171727190800,1.211190673828125,1.9617795944213867,2.856907844543457,0.16726849973201752
1684201171737215700,1.2212158203125,0.5831223130226135,2.645512580871582,-0.43170973658561707
1684201171747241700,1.23124169921875,-1.6694480180740356,3.458401918411255,-0.6648645997047424
1684201171757267700,1.241267822265625,-3.5568246841430664,4.320896148681641,-0.709650993347168
1684201171767292700,1.251292724609375,-4.659005165100098,4.350247383117676,-0.7433587908744812
1684201171777318700,1.261318603515625,-5.025915622711182,4.0847249031066895,-0.8950159549713135
1684201171787344600,1.2713447265625,-4.343294620513916,3.2697319984436035,-1.1047608852386475
1684201171797370600,1.28137060546875,-2.9833145141601562,1.5717438459396362,-1.3847848176956177
1684201171807395600,1.2913955078125,-1.5363132953643799,-0.2574752867221832,-1.6558902263641357
1684201171817421600,1.301421630859375,-0.3332425355911255,-1.8579472303390503,-1.8544450998306274
1684201171827447600,1.311447509765625,0.6002326011657715,-2.828037977218628,-1.9170114994049072
1684201171837473500,1.3214736328125,1.3686368465423584,-2.9999570846557617,-1.7752586603164673
1684201171847498800,1.331498779296875,2.0413742065429688,-2.7096755504608154,-1.2947471141815186
1684201171857524700,1.341524658203125,2.539827585220337,-2.101292133331299,-0.4648568630218506
1684201171867550700,1.35155078125,2.774026393890381,-1.4082846641540527,0.5064258575439453
1684201171877576700,1.36157666015625,2.6155543327331543,-0.8568891286849976,1.2055245637893677
1684201171887601700,1.3716015625,2.095566749572754,-0.3467702269554138,1.233296513557434
1684201171897628000,1.3816279296875,1.471843957901001,0.22292280197143555,0.8634265661239624
1684201171907654000,1.39165380859375,0.9239577651023865,1.0443719625473022,0.4956076443195343
1684201171917678800,1.401678955078125,0.4499478340148926,1.5570999383926392,0.24524228274822235
1684201171927704800,1.411704833984375,0.05460631474852562,1.7121249437332153,0.07496679574251175
1684201171937730800,1.421730712890625,-0.22161781787872314,1.8860119581222534,-0.017977260053157806
1684201171947756800,1.4317568359375,-0.2614785134792328,2.058727979660034,-0.0005297297611832619
1684201171957781800,1.44178173828125,-0.12159600108861923,2.2060554027557373,0.05816980451345444
1684201171967807700,1.451807861328125,-1.273321509361267,1.6599676609039307,-0.2746216058731079
1684201171977833700,1.461833740234375,-3.7416188716888428,2.0121850967407227,-0.5283446907997131
1684201171987859700,1.471859619140625,-3.88769793510437,3.2514309883117676,-0.20250475406646729
1684201171997884700,1.481884765625,-3.029829978942871,3.3060946464538574,0.08188595622777939
1684201172007910700,1.49191064453125,-2.243948221206665,3.093536138534546,0.4617655575275421
1684201172017936600,1.5019365234375,-1.6131501197814941,2.4286303520202637,0.8762509226799011
1684201172027962600,1.511962646484375,-1.2095102071762085,1.1330088376998901,1.063765287399292
1684201172037987600,1.521987548828125,-0.874941349029541,-0.1792779117822647,1.07186758518219
1684201172048013600,1.532013671875,-0.4999823570251465,-1.2439619302749634,1.0045212507247925
1684201172058039600,1.54203955078125,0.11073453724384308,-2.1893088817596436,1.1377700567245483
1684201172068064800,1.552064697265625,0.6304071545600891,-2.5942516326904297,1.5639867782592773
1684201172078090800,1.5620908203125,0.9895951151847839,-2.755784749984741,1.8666601181030273
1684201172088116700,1.57211669921875,1.1930052042007446,-1.9774227142333984,1.891632080078125
1684201172098142700,1.582142822265625,1.1857088804244995,0.06726667284965515,1.7758276462554932
1684201172108167700,1.592167724609375,1.3682876825332642,0.8188022971153259,1.1786521673202515
1684201172118193700,1.602193603515625,1.8960273265838623,-0.1766766607761383,0.04091513156890869
1684201172128220000,1.612219970703125,2.0366549491882324,-0.10981576889753342,-0.6554293036460876
1684201172138246000,1.622245849609375,1.8518654108047485,-0.09590048342943192,-1.2342947721481323
1684201172148270600,1.6322705078125,1.4331097602844238,0.10333848744630814,-1.786476492881775
1684201172158296800,1.642296875,0.8256059288978577,0.6061283946037292,-2.205629348754883
1684201172168322800,1.65232275390625,-0.21021859347820282,1.4271117448806763,-2.434497356414795
1684201172178348800,1.662348876953125,-1.841581106185913,2.735868215560913,-2.368370294570923
1684201172188373800,1.672373779296875,-3.665792226791382,4.383110046386719,-1.8032331466674805
1684201172198399700,1.682399658203125,-4.726675987243652,5.269943714141846,-0.4468737542629242
1684201172208425700,1.69242578125,-3.4823789596557617,2.860255241394043,2.5527331829071045
1684201172218450700,1.70245068359375,-2.3680999279022217,0.5638221502304077,4.906050205230713
1684201172228476700,1.7124765625,-2.276050329208374,0.024614691734313965,4.3819499015808105
1684201172238502700,1.722502685546875,-2.081800937652588,0.0626041516661644,2.440964460372925
1684201172248528600,1.732528564453125,-1.7226499319076538,-0.04592835158109665,0.6461673378944397
1684201172258553900,1.742553955078125,-1.2343950271606445,-0.7132225036621094,-0.40242674946784973
1684201172268579800,1.752579833984375,-0.4976913034915924,-1.8719613552093506,-0.7260448336601257
1684201172278605800,1.762605712890625,0.3504200279712677,-2.893099308013916,-0.5320953130722046
1684201172288631600,1.772631591796875,1.1160539388656616,-3.6172823905944824,-0.2834130525588989
1684201172298656800,1.78265673828125,1.491508960723877,-3.5846643447875977,-0.2160228192806244
1684201172308682800,1.792682861328125,1.4669355154037476,-2.7741739749908447,-0.15743966400623322
1684201172318708700,1.802708740234375,1.1907747983932495,-1.5743721723556519,-0.0008047930896282196
1684201172328734700,1.812734619140625,0.8066668510437012,-0.6899242997169495,0.10648369789123535
1684201172338759700,1.822759765625,0.41936948895454407,-0.26840347051620483,0.2364417016506195
1684201172348785700,1.83278564453125,0.17278309166431427,-0.03570413589477539,0.3974209427833557
1684201172358811600,1.842811767578125,0.002489652018994093,0.1225411593914032,0.4743229150772095
1684201172368838000,1.852837890625,-0.21438810229301453,0.3284069299697876,0.39288654923439026
1684201172378862600,1.862862548828125,-0.4614095985889435,0.5446439385414124,0.11150334030389786
1684201172388888800,1.872888916015625,-0.8210428357124329,0.8845444321632385,-0.2748570740222931
1684201172398914800,1.882914794921875,-1.1441521644592285,1.34537672996521,-0.5749101638793945
1684201172408939800,1.892939697265625,-1.3149604797363281,1.6286944150924683,-0.6314380764961243
1684201172418965800,1.9029658203125,-1.2592742443084717,1.7675178050994873,-0.41954469680786133
1684201172428991700,1.91299169921875,-1.1821558475494385,1.6192058324813843,-0.043716344982385635
1684201172439017700,1.923017822265625,-1.1416778564453125,1.1223247051239014,0.4240279495716095
1684201172449042700,1.933042724609375,-1.0562220811843872,0.4369928240776062,0.841853141784668
1684201172459068700,1.943068603515625,-1.009312391281128,-0.22232995927333832,0.9624029994010925
1684201172469094700,1.9530947265625,-1.0635374784469604,-0.6148636937141418,0.7604786157608032
1684201172479120600,1.96312060546875,-1.1234627962112427,-0.6456841826438904,0.4760519564151764
1684201172489145900,1.973145751953125,-1.1652774810791016,-0.6325074434280396,0.2562423050403595
1684201172499171800,1.983171875,-1.1324771642684937,-0.5525540113449097,0.1533750593662262
1684201172509197800,1.99319775390625,-1.013434648513794,-0.38817092776298523,0.21488569676876068
1684201172519223800,2.003223876953125,-0.8985146880149841,-0.11116673797369003,0.5042780637741089
1684201172529248800,2.013248779296875,-0.9769940376281738,0.4791460633277893,1.0475385189056396
1684201172539274800,2.023274658203125,-1.6014004945755005,1.3596646785736084,1.9944310188293457
1684201172549300700,2.03330078125,-2.5477285385131836,1.5342481136322021,3.2855916023254395
1684201172559325700,2.04332568359375,-2.881936550140381,0.21604658663272858,4.312042713165283
1684201172569351700,2.0533515625,-2.3578851222991943,-2.1574580669403076,4.3826985359191895
1684201172579377700,2.063377685546875,-1.6598074436187744,-3.715648651123047,3.4943618774414062
1684201172589403600,2.073403564453125,-1.2208245992660522,-2.950969696044922,1.4211941957473755
1684201172599428600,2.0834287109375,-0.8705454468727112,-1.1406580209732056,-0.07648547738790512
1684201172609454600,2.09345458984375,-0.5256450772285461,-0.445430725812912,-0.5970919132232666
1684201172619480600,2.10348046875,-0.12236549705266953,-0.5800145864486694,-0.8246662020683289
1684201172629506800,2.1135068359375,0.36525264382362366,-0.483388751745224,-0.9400061368942261
1684201172639531500,2.123531494140625,0.9354732632637024,-0.09390623867511749,-1.1287592649459839
1684201172649557800,2.133557861328125,1.6564921140670776,0.25387683510780334,-1.3896161317825317
1684201172659583700,2.143583740234375,2.408078670501709,0.13389798998832703,-1.6276928186416626
1684201172669609700,2.153609619140625,2.9871695041656494,-0.5230702757835388,-1.7690213918685913
1684201172679634700,2.163634765625,3.0240321159362793,-1.198115348815918,-1.8048163652420044
1684201172689660700,2.17366064453125,2.550372362136841,-1.7878233194351196,-1.979043960571289
1684201172699686700,2.183686767578125,2.245328664779663,-2.8714303970336914,-2.3826394081115723
1684201172709712600,2.193712646484375,2.0954060554504395,-3.27203369140625,-2.290573835372925
1684201172719737900,2.20373779296875,1.8526058197021484,-3.246030569076538,-2.000802516937256
1684201172729763800,2.213763916015625,1.4993572235107422,-3.5872011184692383,-1.4270514249801636
1684201172739789800,2.223789794921875,1.1290193796157837,-4.140893936157227,-0.4281768500804901
1684201172749814800,2.233814697265625,0.611137866973877,-3.9097583293914795,0.30370670557022095
1684201172759840800,2.2438408203125,0.1657838225364685,-2.6749038696289062,0.5226334929466248
1684201172769866800,2.25386669921875,-0.21534891426563263,-0.9851601123809814,0.482154905796051
1684201172779892700,2.263892822265625,-0.5155225992202759,0.47865012288093567,0.3816877007484436
1684201172789917700,2.273917724609375,-0.7973718643188477,1.2490323781967163,0.23465679585933685
1684201172799943700,2.283943603515625,-0.8872873783111572,1.343328833580017,0.13653182983398438
1684201172809969700,2.2939697265625,-0.8070266842842102,1.0936611890792847,0.22356143593788147
1684201172819995600,2.30399560546875,-0.5094906091690063,0.8035433888435364,0.36121705174446106
1684201172830020600,2.3140205078125,-0.00809406116604805,0.6071142554283142,0.5447096824645996
1684201172840046600,2.324046630859375,0.4187944233417511,0.5160389542579651,0.6515253782272339
1684201172850072600,2.334072509765625,0.6640728116035461,0.5234916806221008,0.6658802032470703
1684201172860098800,2.344098876953125,0.8409325480461121,0.5417165160179138,0.6280769109725952
1684201172870123500,2.35412353515625,1.1035102605819702,0.7558857798576355,0.6390429139137268
1684201172880149800,2.364149658203125,1.3123979568481445,1.1252739429473877,0.572819709777832
1684201172890175700,2.37417578125,1.5056520700454712,1.4381120204925537,0.3476245403289795
1684201172900201700,2.38420166015625,1.6532702445983887,1.6564291715621948,-0.004901833366602659
1684201172910227000,2.39422705078125,1.7654980421066284,1.8108744621276855,-0.3370938301086426
1684201172920252700,2.404252685546875,1.7843339443206787,1.7203139066696167,-0.7450898885726929
1684201172930278700,2.414278564453125,1.6230484247207642,1.2473645210266113,-1.2113640308380127
1684201172940304000,2.424303955078125,1.1872562170028687,0.26769667863845825,-1.5603218078613281
1684201172950329900,2.434329833984375,0.6413952708244324,-1.1780221462249756,-1.7753186225891113
1684201172960355800,2.44435595703125,0.2703322470188141,-2.6662087440490723,-1.8402811288833618
1684201172970381800,2.4543818359375,0.30104681849479675,-4.07045316696167,-1.6943342685699463
1684201172980406800,2.46440673828125,0.6077050566673279,-5.296175479888916,-1.406456470489502
1684201172990432800,2.474432861328125,0.9403520226478577,-6.167201995849609,-1.161226511001587
1684201173000458800,2.484458740234375,1.203627347946167,-6.600286483764648,-1.0810518264770508
1684201173010484700,2.494484619140625,1.4138646125793457,-6.544461727142334,-1.293405294418335
1684201173020509700,2.504509765625,1.664772629737854,-6.194432258605957,-1.9327924251556396
1684201173030535700,2.51453564453125,1.8488727807998657,-5.311396598815918,-2.5310277938842773
1684201173040561700,2.524561767578125,1.7912044525146484,-3.6026949882507324,-2.374997138977051
1684201173050587100,2.534587158203125,1.598272681236267,-1.5372960567474365,-1.5399059057235718
1684201173060612000,2.544612060546875,1.449083685874939,0.21444465219974518,-0.5383504629135132
1684201173070638000,2.55463818359375,1.3764123916625977,1.2108728885650635,0.10832027345895767
1684201173080664000,2.5646640625,1.371213436126709,1.6094751358032227,0.4150887429714203
1684201173090689300,2.574689208984375,1.414072871208191,1.6044762134552002,0.5417760014533997
1684201173100715300,2.58471533203125,1.5693026781082153,1.2066538333892822,0.5599539279937744
1684201173110741200,2.5947412109375,1.6998399496078491,0.8164727091789246,0.4568857252597809
1684201173120767200,2.604767333984375,1.5999828577041626,0.7671589851379395,0.31956514716148376
1684201173130792200,2.614792236328125,1.4530727863311768,0.9484125971794128,0.2101285606622696
1684201173140818200,2.624818115234375,1.384458065032959,1.21396803855896,0.1324172466993332
1684201173150844400,2.634844482421875,1.343381404876709,1.3798893690109253,0.07438739389181137
1684201173160870400,2.644870361328125,1.3311220407485962,1.373420238494873,0.033487629145383835
1684201173170895400,2.654895263671875,1.3209284543991089,1.198901891708374,-0.0024452421348541975
1684201173180921300,2.66492138671875,1.3044935464859009,0.9645679593086243,0.01672818511724472
1684201173190947300,2.674947265625,1.285622477531433,0.7828929424285889,0.07759219408035278
1684201173200973300,2.684973388671875,1.278530240058899,0.6912937760353088,0.18144135177135468
1684201173210998300,2.694998291015625,1.24845552444458,0.7317811846733093,0.24002443253993988
1684201173221024300,2.705024169921875,1.2220553159713745,0.8997289538383484,0.23022107779979706
1684201173231050200,2.71505029296875,1.1751340627670288,1.0235810279846191,0.17912434041500092
1684201173241076200,2.725076171875,1.085627555847168,1.0219738483428955,0.13317656517028809
1684201173251101200,2.73510107421875,0.9799104332923889,0.9195939302444458,0.11936872452497482
1684201173261127200,2.745127197265625,0.9355578422546387,0.7431318163871765,0.10574692487716675
1684201173271153200,2.755153076171875,0.9010692238807678,0.5917928814888,0.06874868273735046
1684201173281178000,2.76517822265625,0.848745584487915,0.4503108859062195,0.07308324426412582
1684201173291204000,2.7752041015625,0.7885693311691284,0.30290305614471436,0.11040424555540085
1684201173301230000,2.78522998046875,0.7180765271186829,0.17992521822452545,0.15634296834468842
1684201173311256000,2.795256103515625,0.6362636685371399,0.09182438254356384,0.17895454168319702
1684201173321281300,2.80528125,0.5611931681632996,0.01832885667681694,0.1746641844511032
1684201173331307300,2.815307373046875,0.4792228937149048,-0.04280995950102806,0.1485261172056198
1684201173341333200,2.825333251953125,0.4013882577419281,-0.06475760042667389,0.1252088099718094
1684201173351359200,2.835359130859375,0.29993146657943726,-0.050418056547641754,0.09943543374538422
1684201173361384200,2.84538427734375,0.19243831932544708,-0.04273563623428345,0.10113240033388138
1684201173371410200,2.85541015625,0.08723824471235275,-0.04473046213388443,0.1340564340353012
1684201173381436200,2.865436279296875,0.0002415650524199009,-0.04725886508822441,0.20419663190841675
1684201173391462400,2.87546240234375,-0.0858234241604805,-0.0390869602560997,0.2972969710826874
1684201173401487000,2.885487060546875,-0.17505130171775818,-0.025039849802851677,0.38689368963241577
1684201173411513300,2.895513427734375,-0.26431357860565186,-0.06674519181251526,0.45894360542297363
1684201173421539300,2.905539306640625,-0.3332950472831726,-0.16958369314670563,0.49534446001052856
1684201173431565300,2.9155654296875,-0.3879852592945099,-0.31557321548461914,0.4825877249240875
1684201173441590300,2.92559033203125,-0.40377458930015564,-0.4506396949291229,0.4648662507534027
1684201173451616300,2.9356162109375,-0.4401233196258545,-0.6401723623275757,0.4208992123603821
1684201173461642200,2.945642333984375,-0.4755702614784241,-0.7094513177871704,0.39789536595344543
1684201173471668200,2.955668212890625,-0.4899214208126068,-0.7175573110580444,0.3750758767127991
1684201173481693200,2.965693115234375,-0.5206478834152222,-0.6600753664970398,0.3667961061000824
1684201173491719200,2.97571923828125,-0.5616040229797363,-0.6188477873802185,0.3718584477901459
1684201173501745200,2.9857451171875,-0.5972562432289124,-0.6162842512130737,0.39383962750434875
1684201173511770400,2.995770263671875,-0.6473860144615173,-0.6258280277252197,0.4209586977958679
1684201173521796400,3.00579638671875,-0.7099871039390564,-0.6406959295272827,0.4348212480545044
1684201173531822000,3.015822021484375,-0.777069628238678,-0.661761462688446,0.4279136657714844
1684201173541848000,3.02584814453125,-0.837738573551178,-0.7018567323684692,0.3894892930984497
1684201173551873300,3.035873291015625,-0.8880593776702881,-0.7637077569961548,0.329190731048584
1684201173561899300,3.045899169921875,-0.9252232909202576,-0.8362442851066589,0.27050742506980896
1684201173571925200,3.05592529296875,-0.9687938094139099,-0.9093179106712341,0.22236917912960052
1684201173581951200,3.065951171875,-1.0240027904510498,-0.9498717784881592,0.21102172136306763
1684201173591976200,3.07597607421875,-1.1036146879196167,-0.9245396852493286,0.23482690751552582
1684201173602002200,3.086002197265625,-1.1841737031936646,-0.808625340461731,0.2555825114250183
1684201173612028200,3.096028076171875,-1.2548025846481323,-0.6368622183799744,0.29451850056648254
1684201173622054400,3.106054443359375,-1.2967681884765625,-0.4807320237159729,0.35462844371795654
1684201173632079000,3.1160791015625,-1.2982629537582397,-0.36102592945098877,0.38426119089126587
1684201173642105300,3.126105224609375,-1.2700222730636597,-0.2531026601791382,0.3802206516265869
1684201173652131300,3.13613134765625,-1.2297699451446533,-0.16974444687366486,0.3578745126724243
1684201173662156000,3.146156005859375,-1.1923993825912476,-0.14806737005710602,0.3253650367259979
1684201173672182300,3.156182373046875,-1.1515783071517944,-0.19202445447444916,0.29208478331565857
1684201173682208300,3.166208251953125,-1.106693148612976,-0.18596896529197693,0.24992108345031738
1684201173692234200,3.176234130859375,-1.0754529237747192,-0.0868515819311142,0.20171456038951874
1684201173702259200,3.18625927734375,-1.0601493120193481,0.008841393515467644,0.1582304686307907
1684201173712285200,3.19628515625,-1.0224756002426147,-0.021187929436564445,0.12247283011674881
1684201173722311200,3.206311279296875,-0.9321883916854858,-0.10192032903432846,0.06183132529258728
1684201173732337200,3.216337158203125,-0.7934045195579529,-0.04507754370570183,-0.02395089529454708
1684201173742362400,3.2263623046875,-0.6304603219032288,0.10776393115520477,-0.07487692683935165
1684201173752388400,3.236388427734375,-0.46472617983818054,0.1402703821659088,-0.10092465579509735
1684201173762414300,3.246414306640625,-0.32871001958847046,0.03992566838860512,-0.15244004130363464
1684201173772440300,3.2564404296875,-0.2610095143318176,-0.05711481720209122,-0.2483287751674652
1684201173782465300,3.26646533203125,-0.24348138272762299,-0.14607344567775726,-0.3693990111351013
1684201173792491300,3.2764912109375,-0.23590166866779327,-0.24281708896160126,-0.4666542112827301
1684201173802517200,3.286517333984375,-0.24297687411308289,-0.30934497714042664,-0.49136194586753845
1684201173812543200,3.296543212890625,-0.2863125205039978,-0.2919143736362457,-0.42692244052886963
1684201173822568200,3.306568115234375,-0.3809892535209656,-0.19782516360282898,-0.3081156313419342
1684201173832594200,3.31659423828125,-0.4941815733909607,-0.06702467799186707,-0.19872131943702698
1684201173842620200,3.3266201171875,-0.5959103107452393,0.039119064807891846,-0.1425456702709198
1684201173852645000,3.33664501953125,-0.6405921578407288,0.11361825466156006,-0.1433817595243454
1684201173862671000,3.346671142578125,-0.6210951805114746,0.14950302243232727,-0.17444327473640442
1684201173872697000,3.356697021484375,-0.52906334400177,0.19027286767959595,-0.19075031578540802
1684201173882723300,3.366723388671875,-0.42494702339172363,0.19213202595710754,-0.15838198363780975
1684201173892748000,3.376748046875,-0.3589331805706024,0.12408315390348434,-0.0976320430636406
1684201173902774300,3.386774169921875,-0.3189343512058258,0.04708956927061081,-0.04251260310411453
1684201173912800300,3.39680029296875,-0.2767414450645447,-0.013660693541169167,-0.005522566381841898
1684201173922826200,3.406826171875,-0.2535144090652466,-0.0541660413146019,-0.015247898176312447
1684201173932851200,3.416851318359375,-0.24975138902664185,-0.06974173337221146,-0.07091216742992401
1684201173942877200,3.426877197265625,-0.24496781826019287,-0.07585874944925308,-0.14372645318508148
1684201173952903200,3.436903076171875,-0.23302802443504333,-0.0780496820807457,-0.19591552019119263
1684201173962929200,3.44692919921875,-0.23230603337287903,-0.09607236087322235,-0.19459831714630127
1684201173972954400,3.456954345703125,-0.24733705818653107,-0.09634532779455185,-0.13742497563362122
1684201173982980400,3.46698046875,-0.2736749053001404,-0.012330854311585426,-0.04156982898712158
1684201173993006300,3.47700634765625,-0.29582691192626953,0.21997611224651337,0.059966109693050385
1684201174003032300,3.4870322265625,-0.3034057319164276,0.5873211026191711,0.17071844637393951
1684201174013057300,3.497057373046875,-0.2984636425971985,0.998264491558075,0.3051079213619232
1684201174023083300,3.507083251953125,-0.2980881333351135,1.370945930480957,0.48316019773483276
1684201174033109200,3.517109130859375,-0.3139539957046509,1.5987741947174072,0.6765568852424622
1684201174043134200,3.52713427734375,-0.23074379563331604,1.5602443218231201,0.741213321685791
1684201174053160400,3.537160400390625,-0.05208442360162735,1.3628182411193848,0.6624978184700012
1684201174063186400,3.5471865234375,0.03304858133196831,0.9943914413452148,0.4792465269565582
1684201174073212400,3.55721240234375,0.10411342978477478,0.59405916929245,0.27805936336517334
1684201174083237400,3.5672373046875,0.1756501942873001,0.31232497096061707,0.12134750932455063
1684201174093263400,3.577263427734375,0.21339964866638184,0.14829272031784058,0.04317494109272957
1684201174103289300,3.587289306640625,0.21322095394134521,0.05472548305988312,0.03198913112282753
1684201174113315300,3.5973154296875,0.17969699203968048,-0.009783229790627956,0.034699153155088425
1684201174123340300,3.60734033203125,0.17646577954292297,-0.04727441444993019,0.04160286486148834
1684201174133366300,3.6173662109375,0.190389484167099,-0.07295382022857666,0.05145172029733658
1684201174143392300,3.627392333984375,0.18422053754329681,-0.14943209290504456,0.06812576949596405
1684201174153418200,3.637418212890625,0.16143108904361725,-0.22017623484134674,0.09024423360824585
1684201174163443200,3.647443115234375,0.1310468316078186,-0.19304688274860382,0.1059371680021286
1684201174173469200,3.65746923828125,0.10906568169593811,-0.038025375455617905,0.1539372354745865
1684201174183495200,3.6674951171875,0.07954240590333939,0.125550776720047,0.23696394264698029
1684201174193521400,3.677521484375,0.07656904309988022,0.260110080242157,0.33678507804870605
1684201174203546400,3.68754638671875,0.10753335058689117,0.39989569783210754,0.45506909489631653
1684201174213572600,3.697572509765625,0.10298193991184235,0.39229121804237366,0.5246285200119019
1684201174223598600,3.7075986328125,0.0921013280749321,0.3266464173793793,0.5560764670372009
1684201174233623600,3.71762353515625,0.10126858949661255,0.29666221141815186,0.56374192237854
1684201174243649500,3.7276494140625,0.09554226696491241,0.29733359813690186,0.5483174324035645
1684201174253675500,3.737675537109375,0.07204584032297134,0.3030570447444916,0.4964350759983063
1684201174263701500,3.747701416015625,0.04296758025884628,0.30183812975883484,0.4601591229438782
1684201174273726500,3.7577265625,0.016342906281352043,0.3423159718513489,0.456678569316864
1684201174283752400,3.76775244140625,-0.010387774556875229,0.3547894358634949,0.4492504894733429
1684201174293778400,3.7777783203125,-0.046075332909822464,0.28478243947029114,0.4167368710041046
1684201174303804400,3.787804443359375,-0.07961918413639069,0.23981845378875732,0.3740730285644531
1684201174313829400,3.797829345703125,-0.08757038414478302,0.2479584813117981,0.33972853422164917
1684201174323855400,3.80785546875,-0.08378257602453232,0.28858980536460876,0.32820847630500793
1684201174333881300,3.81788134765625,-0.08832956105470657,0.31922364234924316,0.3216898739337921
1684201174343907300,3.8279072265625,-0.1102156862616539,0.33934593200683594,0.2908123731613159
1684201174353932300,3.837932373046875,-0.114869125187397,0.3456196188926697,0.2521478533744812
1684201174363958300,3.847958251953125,-0.12285168468952179,0.3299165368080139,0.20162315666675568
1684201174373984300,3.857984375,-0.1186429113149643,0.29348286986351013,0.1523212343454361
1684201174384010200,3.86801025390625,-0.10811090469360352,0.2554156482219696,0.1094515323638916
1684201174394035500,3.878035400390625,-0.09074787050485611,0.1705823838710785,0.09980332106351852
1684201174404061400,3.8880615234375,-0.07837242633104324,0.07952864468097687,0.09540671110153198
1684201174414087200,3.898087158203125,-0.05605250969529152,0.0020212826784700155,0.08662882447242737
1684201174424112400,3.9081123046875,-0.038449812680482864,-0.055651068687438965,0.058750055730342865
1684201174434138400,3.918138427734375,-0.017105812206864357,-0.1221214085817337,0.032382115721702576
1684201174444164400,3.928164306640625,-0.013167796656489372,-0.20336486399173737,-0.0035295477136969566
1684201174454189300,3.938189208984375,-0.03183528780937195,-0.26976996660232544,-0.05788297951221466
1684201174464215300,3.94821533203125,-0.04666163772344589,-0.30755171179771423,-0.11481310427188873
1684201174474241500,3.958241455078125,-0.07721557468175888,-0.29495668411254883,-0.15203413367271423
1684201174484267500,3.968267578125,-0.10653538256883621,-0.2905842959880829,-0.17394928634166718
1684201174494292500,3.97829248046875,-0.12760071456432343,-0.3611767590045929,-0.19053123891353607
1684201174504318500,3.988318359375,-0.14556586742401123,-0.4518270492553711,-0.1979777067899704
1684201174514344400,3.998344482421875,-0.15378312766551971,-0.5180267691612244,-0.19724996387958527
1684201174524370400,4.008370361328125,-0.17979396879673004,-0.5826348066329956,-0.18228593468666077
1684201174534395400,4.0183955078125,-0.2285056710243225,-0.5827865600585938,-0.19164131581783295
1684201174544421400,4.02842138671875,-0.3124200403690338,-0.5162264108657837,-0.21167521178722382
1684201174554447400,4.038447265625,-0.38981878757476807,-0.43253597617149353,-0.2212197482585907
1684201174564473300,4.048473388671875,-0.4371072053909302,-0.32776588201522827,-0.20132780075073242
1684201174574498300,4.058498291015625,-0.4339953064918518,-0.22617365419864655,-0.1537630259990692
1684201174584524300,4.068524169921875,-0.3995443880558014,-0.1645774096250534,-0.08141372352838516
1684201174594550300,4.07855029296875,-0.34978818893432617,-0.1361459642648697,-0.006781712640076876
1684201174604576300,4.088576171875,-0.3022800385951996,-0.1251998394727707,0.0471707358956337
1684201174614601500,4.0986015625,-0.25692084431648254,-0.15752659738063812,0.08321923017501831
1684201174624627500,4.10862744140625,-0.21772471070289612,-0.24051254987716675,0.09610360860824585
1684201174634653400,4.1186533203125,-0.18261098861694336,-0.3297950029373169,0.07830578833818436
1684201174644678400,4.128678466796875,-0.15821003913879395,-0.43074825406074524,0.04338642582297325
1684201174654704400,4.138704345703125,-0.14119704067707062,-0.5494315028190613,-0.008210239931941032
1684201174664730400,4.14873046875,-0.14580243825912476,-0.64726722240448,-0.05844038724899292
1684201174674756400,4.15875634765625,-0.16253933310508728,-0.7019030451774597,-0.09002947807312012
1684201174684781300,4.16878125,-0.18729156255722046,-0.6707267761230469,-0.10946282744407654
1684201174694807300,4.178807373046875,-0.2307736575603485,-0.550923764705658,-0.1366034597158432
1684201174704833500,4.18883349609375,-0.2665521800518036,-0.3782816529273987,-0.18071100115776062
1684201174714859500,4.198859619140625,-0.2663891911506653,-0.2211022973060608,-0.22460883855819702
1684201174724884200,4.20888427734375,-0.23167303204536438,-0.10426648706197739,-0.2313983142375946
1684201174734910500,4.218910400390625,-0.17883723974227905,-0.0033868239261209965,-0.21913717687129974
1684201174744936400,4.2289365234375,-0.11367633938789368,0.10790934413671494,-0.17723846435546875
1684201174754962400,4.23896240234375,-0.02792404405772686,0.18626999855041504,-0.10314878821372986
1684201174764987400,4.2489873046875,0.0802524983882904,0.18355223536491394,0.02700601890683174
1684201174775013400,4.259013427734375,0.19191515445709229,0.09346546232700348,0.16617195308208466
1684201174785039400,4.269039306640625,0.24737468361854553,-0.05602283030748367,0.22536683082580566
1684201174795065300,4.2790654296875,0.2714841663837433,-0.3092772662639618,0.18841999769210815
1684201174805090300,4.28909033203125,0.2908053994178772,-0.6614206433296204,0.05944844335317612
1684201174815116300,4.2991162109375,0.28926634788513184,-1.0081897974014282,-0.13270843029022217
1684201174825142300,4.309142333984375,0.28165608644485474,-1.2602553367614746,-0.34802740812301636
1684201174835167500,4.31916748046875,0.27057555317878723,-1.3694353103637695,-0.5281947255134583
1684201174845193500,4.329193359375,0.2563558518886566,-1.3058608770370483,-0.6448984146118164
1684201174855219500,4.339219482421875,0.23069137334823608,-1.1303945779800415,-0.7290010452270508
1684201174865245400,4.349245361328125,0.22538262605667114,-0.8643431663513184,-0.7863799333572388
1684201174875270400,4.3592705078125,0.23337677121162415,-0.5176039934158325,-0.8389667868614197
1684201174885296400,4.36929638671875,0.27078673243522644,-0.15209630131721497,-0.8770153522491455
1684201174895322400,4.379322265625,0.32921189069747925,0.16660518944263458,-0.8753937482833862
1684201174905348400,4.389348388671875,0.4143257439136505,0.34701812267303467,-0.8414738178253174
1684201174915374300,4.399374267578125,0.5415223836898804,0.36778271198272705,-0.821644127368927
1684201174925399300,4.4093994140625,0.6506637930870056,0.257092148065567,-0.8556172847747803
1684201174935425300,4.41942529296875,0.7620888352394104,-0.041214559227228165,-0.9788755178451538
1684201174945451500,4.429451416015625,0.9481167793273926,-0.5033161640167236,-1.2424039840698242
1684201174955477500,4.4394775390625,1.2103170156478882,-1.0450297594070435,-1.5984110832214355
1684201174965502500,4.44950244140625,1.5085504055023193,-1.3884360790252686,-1.9087731838226318
1684201174975528400,4.459528564453125,1.742814064025879,-1.3448561429977417,-1.972099781036377
1684201174985554400,4.469554443359375,1.8593508005142212,-1.0666911602020264,-1.6955734491348267
1684201174995580400,4.479580322265625,1.8741542100906372,-0.9502338767051697,-1.2809727191925049
1684201175005605400,4.48960546875,1.8648983240127563,-1.0394878387451172,-0.9775667786598206
1684201175015631400,4.49963134765625,1.816184639930725,-1.0069080591201782,-0.7888430953025818
1684201175025657300,4.5096572265625,1.7230714559555054,-0.8034308552742004,-0.6549326777458191
1684201175035682600,4.5196826171875,1.6162906885147095,-0.3634302020072937,-0.45123130083084106
1684201175045708500,4.52970849609375,1.646439790725708,0.042533013969659805,-0.29465794563293457
1684201175055734300,4.539734375,1.7811335325241089,0.3415369987487793,-0.1387777030467987
1684201175065760300,4.54976025390625,1.8855278491973877,0.5634408593177795,-0.025232765823602676
1684201175075785200,4.55978515625,1.8714454174041748,0.9108467102050781,0.01846882700920105
1684201175085811200,4.569811279296875,1.7569020986557007,1.3474798202514648,0.04944804683327675
1684201175095837200,4.579837158203125,1.6353423595428467,1.6601060628890991,0.07157962024211884
1684201175105863200,4.58986328125,1.5168794393539429,1.8074125051498413,0.06506313383579254
1684201175115888000,4.59988818359375,1.4430218935012817,1.7421108484268188,0.055662851780653
1684201175125914000,4.6099140625,1.355575442314148,1.578908085823059,0.07767654210329056
1684201175135940000,4.619940185546875,1.2817987203598022,1.3496506214141846,0.09752275794744492
1684201175145966000,4.629966064453125,1.2472785711288452,1.119497299194336,0.10706539452075958
1684201175155991000,4.639990966796875,1.245689868927002,0.9776073098182678,0.1234472468495369
1684201175166017000,4.65001708984375,1.268411636352539,0.9469125270843506,0.141059011220932
1684201175176043000,4.66004296875,1.2645865678787231,0.9801800847053528,0.1538447141647339
1684201175186069200,4.6700693359375,1.2254871129989624,0.9896015524864197,0.14053504168987274
1684201175196094000,4.680093994140625,1.1470428705215454,0.9217211604118347,0.11155553162097931
1684201175206120200,4.6901201171875,1.0392735004425049,0.7926124334335327,0.10974085330963135
1684201175216146200,4.700146240234375,0.9419315457344055,0.6593679785728455,0.1193065494298935
1684201175226172200,4.710172119140625,0.8319645524024963,0.5557803511619568,0.12956690788269043
1684201175236197000,4.720197021484375,0.7169471383094788,0.42929863929748535,0.1313488930463791
1684201175246223000,4.73022314453125,0.607395350933075,0.2775522470474243,0.14840057492256165
1684201175256249000,4.7402490234375,0.4997681677341461,0.17134550213813782,0.16547571122646332
1684201175266274300,4.7502744140625,0.4109538793563843,0.1478566825389862,0.1823740005493164
1684201175276300300,4.76030029296875,0.33199837803840637,0.15639036893844604,0.2083764672279358
1684201175286326300,4.770326171875,0.2581646144390106,0.15759065747261047,0.25632932782173157
1684201175296352300,4.780352294921875,0.17888030409812927,0.15630024671554565,0.29887855052948
1684201175306377200,4.790377197265625,0.08530241996049881,0.14087946712970734,0.33394306898117065
1684201175316403200,4.8004033203125,-0.03198469057679176,0.14423972368240356,0.36970219016075134
1684201175326429200,4.81042919921875,-0.17037266492843628,0.14317180216312408,0.40658724308013916
1684201175336455200,4.820455078125,-0.2965810298919678,0.1121189296245575,0.4462520480155945
1684201175346480000,4.830480224609375,-0.4146336317062378,0.01060002762824297,0.4903119206428528
1684201175356506000,4.840506103515625,-0.5135642886161804,-0.14257006347179413,0.5377305150032043
1684201175366532000,4.850531982421875,-0.6104031801223755,-0.3050982654094696,0.579459547996521
1684201175376558000,4.86055810546875,-0.706855297088623,-0.43770211935043335,0.5938237905502319
1684201175386583000,4.8705830078125,-0.8072487711906433,-0.5316384434700012,0.5713006258010864
1684201175396609000,4.880609130859375,-0.8932958841323853,-0.6177751421928406,0.5303158164024353
1684201175406635000,4.890635009765625,-0.9644835591316223,-0.7297759652137756,0.49173247814178467
1684201175416661000,4.900660888671875,-1.019156575202942,-0.85310298204422,0.4865589141845703
1684201175426686000,4.91068603515625,-1.0539875030517578,-0.9534820318222046,0.48724281787872314
1684201175436712000,4.9207119140625,-1.0769693851470947,-0.9823578000068665,0.4772769510746002
1684201175446738200,4.93073828125,-1.103397250175476,-0.9426998496055603,0.4610918462276459
1684201175456763100,4.94076318359375,-1.1453858613967896,-0.838828980922699,0.42538437247276306
1684201175466789000,4.9507890625,-1.2051045894622803,-0.7309302091598511,0.37457364797592163
1684201175476815000,4.960815185546875,-1.275606632232666,-0.6698339581489563,0.33651915192604065
1684201175486841000,4.970841064453125,-1.344172716140747,-0.6561040282249451,0.3261008560657501
1684201175496866300,4.9808662109375,-1.3944361209869385,-0.6717902421951294,0.3249937891960144
1684201175506892300,4.990892333984375,-1.3981714248657227,-0.6746315360069275,0.31440451741218567
1684201175516918300,5.000918212890625,-1.3664988279342651,-0.6628897190093994,0.28415700793266296
1684201175526944300,5.0109443359375,-1.322601079940796,-0.6251732110977173,0.2774788737297058
1684201175536969200,5.02096923828125,-1.281166672706604,-0.5577710270881653,0.2956307828426361
1684201175546995200,5.0309951171875,-1.2404251098632812,-0.4697961211204529,0.3383084535598755
1684201175557021200,5.041021240234375,-1.1996212005615234,-0.36054185032844543,0.38764676451683044
1684201175567047200,5.051047119140625,-1.1254197359085083,-0.23964446783065796,0.4256804585456848
1684201175577072000,5.061072021484375,-1.0365869998931885,-0.12190523743629456,0.43708306550979614
1684201175587098000,5.07109814453125,-0.9507434964179993,-0.018771663308143616,0.43866127729415894
1684201175597124000,5.0811240234375,-0.8750706315040588,0.017047731205821037,0.42315244674682617
1684201175607150000,5.091150146484375,-0.8298714756965637,-0.007461606524884701,0.37958580255508423
1684201175617175000,5.101175048828125,-0.7980125546455383,-0.061799582093954086,0.3344443738460541
1684201175627201000,5.111200927734375,-0.7161445617675781,-0.10547755658626556,0.2635219991207123
1684201175637227000,5.12122705078125,-0.5878479480743408,-0.01848578453063965,0.15465028584003448
1684201175647253000,5.1312529296875,-0.4283856153488159,0.22535350918769836,0.08177313953638077
1684201175657278000,5.14127783203125,-0.2602206766605377,0.3339320123195648,0.03629470244050026
1684201175667304000,5.151303955078125,-0.12585940957069397,0.22921495139598846,-0.021432243287563324
1684201175677330200,5.161330078125,-0.06404635310173035,0.035679347813129425,-0.11625079810619354
1684201175687355100,5.171355224609375,-0.0628572478890419,-0.03299771621823311,-0.2561245262622833
1684201175697381400,5.18138134765625,-0.07550320774316788,0.12373941391706467,-0.3767559826374054
1684201175707407400,5.191407470703125,-0.09685297310352325,0.4110926389694214,-0.3998970091342926
1684201175717433000,5.20143310546875,-0.1431620717048645,0.6792309880256653,-0.2809828817844391
1684201175727458300,5.211458251953125,-0.20479588210582733,0.7755092978477478,-0.03513265401124954
1684201175737484300,5.221484375,-0.3119870126247406,0.7007832527160645,0.23691193759441376
1684201175747510300,5.23151025390625,-0.44405609369277954,0.6310505270957947,0.38723912835121155
1684201175757536300,5.241536376953125,-0.5391974449157715,0.6340150833129883,0.38525769114494324
1684201175767561200,5.251561279296875,-0.5761160254478455,0.6747425198554993,0.32513734698295593
1684201175777587200,5.261587158203125,-0.5612631440162659,0.6656225323677063,0.30001580715179443
1684201175787613200,5.27161328125,-0.5170925259590149,0.5439379215240479,0.31633222103118896
1684201175797639200,5.28163916015625,-0.4626654386520386,0.31108152866363525,0.35204216837882996
1684201175807664000,5.2916640625,-0.4107274115085602,0.03269784525036812,0.38211965560913086
1684201175817690000,5.301690185546875,-0.37284162640571594,-0.20507211983203888,0.36371302604675293
1684201175827716000,5.311716064453125,-0.34542810916900635,-0.3241164982318878,0.27883490920066833
1684201175837742000,5.3217421875,-0.3364239037036896,-0.2939417362213135,0.13548915088176727
1684201175847767000,5.33176708984375,-0.3263307809829712,-0.1153048574924469,-0.009804933331906796
1684201175857793000,5.34179296875,-0.32685387134552,0.13145016133785248,-0.08697827905416489
1684201175867819000,5.351819091796875,-0.33812278509140015,0.3090212047100067,-0.11253184080123901
1684201175877845000,5.361844970703125,-0.32467395067214966,0.4691339135169983,-0.0651678517460823
1684201175887870000,5.371869873046875,-0.3370469808578491,0.5908573865890503,0.04583483561873436
1684201175897896000,5.38189599609375,-0.2570994198322296,0.7711608409881592,0.18872350454330444
1684201175907922000,5.391921875,-0.1892828345298767,1.0185844898223877,0.37411385774612427
1684201175917948200,5.4019482421875,-0.12893414497375488,1.1484320163726807,0.5041004419326782
1684201175927973000,5.41197314453125,-0.06256550550460815,1.0549161434173584,0.5233428478240967
1684201175937999400,5.421999267578125,-0.01499372348189354,0.7901023626327515,0.425468772649765
1684201175948025300,5.432025390625,-0.0014757153112441301,0.5036941170692444,0.2655448317527771
1684201175958050300,5.44205029296875,0.025909418240189552,0.26046502590179443,0.12941974401474
1684201175968076300,5.452076171875,0.04862271994352341,0.03885487839579582,0.07113698869943619
1684201175978102300,5.462102294921875,0.05535724014043808,-0.15374654531478882,0.060822680592536926
1684201175988128300,5.472128173828125,0.0373031422495842,-0.23654794692993164,0.07131526619195938
1684201175998153200,5.4821533203125,0.004862228408455849,-0.18771183490753174,0.11521631479263306
1684201176008179200,5.49217919921875,-0.0020766379311680794,-0.13148291409015656,0.16396042704582214
1684201176018205200,5.502205078125,-0.019287094473838806,-0.07889477163553238,0.1986491084098816
1684201176028231200,5.512231201171875,-0.06864053010940552,-0.039461348205804825,0.2547789514064789
1684201176038256000,5.522256103515625,-0.11621692031621933,-0.017271380871534348,0.3170919716358185
1684201176048282000,5.5322822265625,-0.13008879125118256,0.024929603561758995,0.3633425831794739
1684201176058307800,5.542307861328125,-0.15705467760562897,0.0678117647767067,0.4120054841041565
1684201176068333800,5.552333740234375,-0.17143361270427704,0.11876416206359863,0.475970596075058
1684201176078358800,5.56235888671875,-0.1699850708246231,0.18667015433311462,0.5138388872146606
1684201176088384800,5.572384765625,-0.19158916175365448,0.26090121269226074,0.5152199864387512
1684201176098410800,5.58241064453125,-0.2049979567527771,0.3422241508960724,0.5228868722915649
1684201176108436700,5.592436767578125,-0.2152860164642334,0.368852823972702,0.5019315481185913
1684201176118462000,5.6024619140625,-0.21371586620807648,0.32484889030456543,0.444036066532135
1684201176128488000,5.612488037109375,-0.20119741559028625,0.25547435879707336,0.3637191355228424
1684201176138514000,5.622513916015625,-0.19530348479747772,0.20722582936286926,0.30621784925460815
1684201176148540000,5.632539794921875,-0.18469637632369995,0.21486911177635193,0.2613574266433716
1684201176158564900,5.64256494140625,-0.17816729843616486,0.18165603280067444,0.20630019903182983
1684201176168590800,5.6525908203125,-0.17038874328136444,0.11255314201116562,0.1329287737607956
1684201176178617000,5.6626171875,-0.1447909027338028,0.014003303833305836,0.06800209730863571
1684201176188643000,5.67264306640625,-0.12889768183231354,-0.13188624382019043,-0.020072905346751213
1684201176198668000,5.68266796875,-0.13581548631191254,-0.2572283446788788,-0.0976807251572609
1684201176208694000,5.692694091796875,-0.1414901465177536,-0.3266524374485016,-0.13901804387569427
1684201176218720000,5.702719970703125,-0.15280179679393768,-0.33697670698165894,-0.14937354624271393
1684201176228745000,5.712744873046875,-0.15032319724559784,-0.3437661826610565,-0.15158610045909882
1684201176238771000,5.72277099609375,-0.13221116364002228,-0.356545090675354,-0.13978317379951477
1684201176248797000,5.732796875,-0.09644544124603271,-0.3902476727962494,-0.08606214821338654
1684201176258823000,5.742822998046875,-0.07106873393058777,-0.4451962411403656,-0.006471875123679638
1684201176268847900,5.752847900390625,-0.08238343894481659,-0.4904281795024872,0.059714071452617645
1684201176278873900,5.762873779296875,-0.11082036048173904,-0.49348708987236023,0.09988577663898468
1684201176288899800,5.77289990234375,-0.16820454597473145,-0.4764263331890106,0.08979745209217072
1684201176298925800,5.78292578125,-0.23205886781215668,-0.4322146475315094,0.051431261003017426
1684201176308950800,5.79295068359375,-0.2963947355747223,-0.34197449684143066,0.032106298953294754
1684201176318976800,5.802976806640625,-0.3389286994934082,-0.2257155478000641,0.03534974902868271
1684201176329002800,5.813002685546875,-0.3591333031654358,-0.10202663391828537,0.08402141183614731
1684201176339028700,5.82302880859375,-0.36732208728790283,0.022089164704084396,0.165054589509964
1684201176349054000,5.833053955078125,-0.3578694462776184,0.13915400207042694,0.25506117939949036
1684201176359080000,5.843079833984375,-0.3444574177265167,0.22933858633041382,0.34702831506729126
1684201176369106000,5.85310595703125,-0.30919769406318665,0.2648422420024872,0.4159988760948181
1684201176379132000,5.8631318359375,-0.26676735281944275,0.21753562986850739,0.44383543729782104
1684201176389156900,5.873156982421875,-0.22662924230098724,0.12431620061397552,0.4159688949584961
1684201176399182800,5.883182861328125,-0.19711928069591522,-0.05807638540863991,0.31038936972618103
1684201176409208800,5.893208740234375,-0.17990273237228394,-0.2777392268180847,0.1480015367269516
1684201176419235000,5.903235107421875,-0.17323757708072662,-0.47186753153800964,-0.015460904687643051
1684201176429259800,5.913259765625,-0.17610181868076324,-0.6119977235794067,-0.1632162630558014
1684201176439286000,5.9232861328125,-0.16414549946784973,-0.6987086534500122,-0.24539832770824432
1684201176449312000,5.93331201171875,-0.15140466392040253,-0.707830548286438,-0.2751234471797943
1684201176459338000,5.943337890625,-0.15568114817142487,-0.6863669157028198,-0.2905474901199341
1684201176469363000,5.953363037109375,-0.16022691130638123,-0.6887145042419434,-0.28924572467803955
1684201176479389000,5.963388916015625,-0.1666606366634369,-0.7131027579307556,-0.2772296667098999
1684201176489415000,5.973414794921875,-0.16024695336818695,-0.7257924675941467,-0.259772926568985
1684201176499439900,5.98343994140625,-0.16084399819374084,-0.7137943506240845,-0.24423538148403168
1684201176509465900,5.9934658203125,-0.16160672903060913,-0.6494827270507812,-0.2536693811416626
1684201176519491800,6.003491943359375,-0.1478997766971588,-0.5655242204666138,-0.2569872736930847
1684201176529517800,6.013517822265625,-0.11324619501829147,-0.4871806800365448,-0.24046318233013153
1684201176539543000,6.02354296875,-0.060064926743507385,-0.39067980647087097,-0.2235783487558365
1684201176549568800,6.03356884765625,0.003809124231338501,-0.2386186420917511,-0.23619933426380157
1684201176559594800,6.0435947265625,0.10017681121826172,-0.03694684058427811,-0.2459423691034317
1684201176569620700,6.053620849609375,0.23288585245609283,0.12353045493364334,-0.16972482204437256
1684201176579646000,6.06364599609375,0.39842143654823303,0.15415853261947632,0.045124053955078125
1684201176589672000,6.073671875,0.5366895794868469,0.08203692734241486,0.32513654232025146
1684201176599698000,6.083697998046875,0.5771223306655884,-0.014356989413499832,0.4658032953739166
1684201176609724000,6.093723876953125,0.5496329069137573,-0.19384925067424774,0.39666739106178284
1684201176619748900,6.103748779296875,0.5202720761299133,-0.520862340927124,0.17047478258609772
1684201176629774800,6.11377490234375,0.49369874596595764,-0.8944178223609924,-0.16206242144107819
1684201176639800800,6.12380078125,0.493925005197525,-1.1578105688095093,-0.5302044153213501
1684201176649827000,6.1338271484375,0.5127857327461243,-1.2719141244888306,-0.837300717830658
1684201176659851800,6.143851806640625,0.5460444092750549,-1.1440356969833374,-1.0276480913162231
1684201176669878000,6.1538779296875,0.5523699522018433,-0.8842554092407227,-1.0931987762451172
1684201176679904000,6.163904052734375,0.5536068677902222,-0.6353858113288879,-1.1401761770248413
1684201176689930000,6.173929931640625,0.5787990093231201,-0.38441914319992065,-1.2300610542297363
1684201176699955000,6.183954833984375,0.622003972530365,-0.19782279431819916,-1.3353042602539062
1684201176709981000,6.19398095703125,0.6670559048652649,-0.17926642298698425,-1.434687852859497
1684201176720007000,6.2040068359375,0.7542692422866821,-0.15998299419879913,-1.4937114715576172
1684201176730033000,6.214032958984375,0.8812577724456787,-0.10402944684028625,-1.4804569482803345
1684201176740057900,6.224057861328125,1.0044962167739868,-0.09073509275913239,-1.3628019094467163
1684201176750083800,6.234083740234375,1.1398229598999023,-0.18159174919128418,-1.1884520053863525
1684201176760109800,6.24410986328125,1.2324484586715698,-0.4544193148612976,-1.037950873374939
1684201176770135800,6.2541357421875,1.3215911388397217,-0.747806966304779,-0.9182674288749695
1684201176780161000,6.2641611328125,1.3266123533248901,-0.8599855303764343,-0.763043999671936
1684201176790187000,6.27418701171875,1.2658390998840332,-1.0150971412658691,-0.6286877989768982
1684201176800212700,6.284212646484375,1.2581926584243774,-1.0980421304702759,-0.527379035949707
1684201176810238000,6.294238037109375,1.2692134380340576,-1.1139403581619263,-0.49930453300476074
1684201176820264000,6.304263916015625,1.2525101900100708,-0.9735231399536133,-0.4348585903644562
1684201176830290000,6.3142900390625,1.234429955482483,-0.6506404280662537,-0.26360827684402466
1684201176840316000,6.32431591796875,1.257926344871521,-0.3926755487918854,-0.14430229365825653
1684201176850340900,6.3343408203125,1.2780742645263672,-0.07574766129255295,-0.019129451364278793
1684201176860366800,6.344366943359375,1.3432495594024658,0.37213265895843506,0.09707092493772507
1684201176870392800,6.354392822265625,1.3175777196884155,0.8503221273422241,0.18658003211021423
1684201176880418800,6.364418701171875,1.2418283224105835,1.2247086763381958,0.3009268343448639
1684201176890443800,6.37444384765625,1.144426703453064,1.3522298336029053,0.3818994462490082
1684201176900469800,6.3844697265625,1.0586704015731812,1.2842198610305786,0.42418143153190613
1684201176910496000,6.39449609375,0.9797660112380981,1.137811303138733,0.4489176869392395
1684201176920522000,6.40452197265625,0.8936922550201416,0.9629937410354614,0.4420522451400757
1684201176930547000,6.414546875,0.7947288751602173,0.8595454096794128,0.42120739817619324
1684201176940573000,6.424572998046875,0.694118082523346,0.8188539743423462,0.41467973589897156
1684201176950599000,6.434598876953125,0.5980895757675171,0.8008930683135986,0.4342036247253418
1684201176960625000,6.444625,0.4805198907852173,0.7742441296577454,0.49189215898513794
1684201176970649900,6.45464990234375,0.3738291263580322,0.7491481304168701,0.5825866460800171
1684201176980675800,6.46467578125,0.28350701928138733,0.6927363872528076,0.6900622248649597
1684201176990701800,6.474701904296875,0.17996439337730408,0.6213216185569763,0.7690627574920654
1684201177000727800,6.484727783203125,0.07379726320505142,0.5721065402030945,0.7944469451904297
1684201177010753000,6.4947529296875,-0.02169942669570446,0.5834641456604004,0.828870952129364
1684201177020779000,6.504779052734375,-0.08948229253292084,0.6136956214904785,0.8873829245567322
1684201177030805000,6.514804931640625,-0.1458345204591751,0.6571597456932068,0.9320497512817383
1684201177040831000,6.5248310546875,-0.20243608951568604,0.7577213644981384,0.9301336407661438
1684201177050856000,6.53485595703125,-0.2716521620750427,0.9157613515853882,0.8938984274864197
1684201177060882400,6.54488232421875,-0.3305271565914154,1.1190361976623535,0.8834609985351562
1684201177070908400,6.554908447265625,-0.3830297887325287,1.348372459411621,0.9130896925926208
1684201177080933400,6.564933349609375,-0.4258141815662384,1.633596420288086,0.9525121450424194
1684201177090959400,6.57495947265625,-0.47532927989959717,1.9544318914413452,0.971981406211853
1684201177100985300,6.5849853515625,-0.54280024766922,2.2329273223876953,0.9653633832931519
1684201177111011300,6.59501123046875,-0.6121665835380554,2.4213345050811768,0.9198297262191772
1684201177121036300,6.605036376953125,-0.6610725522041321,2.494499921798706,0.8342469930648804
1684201177131062300,6.615062255859375,-0.6813303828239441,2.463608980178833,0.7338758707046509
1684201177141088300,6.625088134765625,-0.6745216846466064,2.387664556503296,0.6174549460411072
1684201177151114500,6.635114501953125,-0.6555554866790771,2.271404504776001,0.46325555443763733
1684201177161139200,6.64513916015625,-0.6479329466819763,2.1011486053466797,0.3558364808559418
1684201177171165400,6.65516552734375,-0.6686030626296997,1.882499098777771,0.33288854360580444
1684201177181191400,6.66519140625,-0.7080814242362976,1.726582646369934,0.3455323576927185
1684201177191217400,6.675217529296875,-0.7835208177566528,1.6626604795455933,0.3526885211467743
1684201177201242400,6.685242431640625,-0.8781477212905884,1.6984891891479492,0.3706100881099701
1684201177211268400,6.695268310546875,-0.9540323615074158,1.815042495727539,0.4428483545780182
1684201177221294300,6.70529443359375,-0.9879737496376038,1.946413516998291,0.5560381412506104
1684201177231320300,6.7153203125,-0.9330159425735474,2.126905679702759,0.7328802943229675
1684201177241345300,6.72534521484375,-0.7736496925354004,2.4286251068115234,0.9532855153083801
1684201177251371300,6.735371337890625,-0.5488978028297424,2.569335699081421,1.0957798957824707
1684201177261397200,6.745397216796875,-0.30113905668258667,2.5771095752716064,1.2205095291137695
1684201177271423200,6.75542333984375,-0.11324692517518997,2.5236613750457764,1.2915784120559692
1684201177281448400,6.765448486328125,0.01923411339521408,2.4211318492889404,1.4192301034927368
1684201177291474400,6.775474365234375,0.06929727643728256,2.2535665035247803,1.5844944715499878
1684201177301500400,6.78550048828125,0.023048145696520805,2.107002019882202,1.7158942222595215
1684201177311526400,6.7955263671875,-0.09579861909151077,2.0003974437713623,1.780517578125
1684201177321551400,6.80555126953125,-0.20570869743824005,1.9248307943344116,1.8012162446975708
1684201177331577300,6.815577392578125,-0.27601560950279236,1.852170705795288,1.754210352897644
1684201177341603300,6.825603271484375,-0.3738139271736145,1.748319387435913,1.5598710775375366
1684201177351629300,6.83562939453125,-0.47728782892227173,1.7333545684814453,1.1831732988357544
1684201177361654300,6.845654296875,-0.4753212034702301,2.029270887374878,0.6384572386741638
1684201177371680300,6.85568017578125,-0.1365058720111847,1.964926838874817,0.4708130657672882
1684201177381706200,6.865706298828125,0.34101831912994385,1.5156606435775757,0.9775403141975403
1684201177391731200,6.875731201171875,0.5485142469406128,1.4348808526992798,1.3590532541275024
1684201177401757200,6.885757080078125,0.3837409019470215,1.6294411420822144,1.3374439477920532
1684201177411783400,6.895783447265625,-0.041711341589689255,2.3838346004486084,1.2076518535614014
1684201177421809400,6.905809326171875,-0.38772445917129517,3.3441381454467773,1.1810356378555298
1684201177431834400,6.91583447265625,-0.4998863935470581,4.013941764831543,1.3350859880447388
1684201177441860400,6.9258603515625,-0.507046639919281,4.2642669677734375,1.594056248664856
1684201177451886300,6.93588623046875,-0.4017402231693268,4.34035062789917,1.8354099988937378
1684201177461912300,6.945912353515625,-0.1785992681980133,4.388785362243652,2.0108237266540527
1684201177471937500,6.9559375,0.009182879701256752,4.186258792877197,2.0295310020446777
1684201177481963500,6.965963623046875,0.11690711975097656,3.610107183456421,1.9168062210083008
1684201177491989200,6.9759892578125,0.20937341451644897,2.8690683841705322,1.759059190750122
1684201177502015200,6.98601513671875,0.2865079343318939,2.1586060523986816,1.5315158367156982
1684201177512040400,6.99604052734375,0.35018330812454224,1.6888809204101562,1.1916866302490234
1684201177522066400,7.00606640625,0.3288370966911316,1.7467291355133057,0.893070638179779
1684201177532092400,7.016092529296875,0.20492634177207947,2.2882373332977295,0.83748859167099
1684201177542118400,7.026118408203125,0.044229015707969666,2.9181082248687744,0.9623884558677673
1684201177552143400,7.036143310546875,-0.04763513058423996,3.3482775688171387,1.0957419872283936
1684201177562169300,7.04616943359375,-0.09452968835830688,3.5552027225494385,1.1756293773651123
1684201177572195300,7.0561953125,-0.14170783758163452,3.45330548286438,1.1737236976623535
1684201177582221300,7.06622119140625,-0.16828638315200806,3.1180057525634766,1.1102302074432373
1684201177592246300,7.076246337890625,-0.1485568881034851,2.74408221244812,0.9950794577598572
1684201177602272300,7.086272216796875,-0.08752945810556412,2.4156391620635986,0.8591632843017578
1684201177612298200,7.09629833984375,-0.013967351987957954,2.1574673652648926,0.7237897515296936
1684201177622324500,7.106324462890625,0.036543071269989014,1.9776062965393066,0.6271523833274841
1684201177632349200,7.11634912109375,0.03760301321744919,1.938387155532837,0.6048414707183838
1684201177642375200,7.126375244140625,-0.005992084741592407,2.066558837890625,0.6429406404495239
1684201177652401400,7.1364013671875,-0.04770251363515854,2.290276527404785,0.7241385579109192
1684201177662426000,7.146426025390625,-0.06749608367681503,2.555013418197632,0.8285635709762573
1684201177672452400,7.156452392578125,-0.06376685947179794,2.83720326423645,0.9424901604652405
1684201177682478300,7.166478271484375,-0.05420008674263954,3.1143617630004883,1.041183352470398
1684201177692504300,7.17650439453125,-0.03830314427614212,3.315474033355713,1.1137467622756958
1684201177702529500,7.186529541015625,-0.018856359645724297,3.4717679023742676,1.1772756576538086
1684201177712555500,7.196555419921875,-0.027649851515889168,3.5740549564361572,1.2154645919799805
1684201177722581500,7.20658154296875,-0.03953125700354576,3.6507503986358643,1.2516916990280151
1684201177732607500,7.216607421875,-0.05022145062685013,3.6822617053985596,1.269783854484558
1684201177742632400,7.226632568359375,-0.050164010375738144,3.729332208633423,1.2754172086715698
1684201177752658400,7.236658447265625,-0.04442330077290535,3.8577890396118164,1.28019118309021
1684201177762684400,7.246684326171875,-0.03408190980553627,4.008859634399414,1.2877190113067627
1684201177772710400,7.25671044921875,-0.013028822839260101,4.075850963592529,1.2759015560150146
1684201177782735400,7.2667353515625,0.02456563338637352,4.0981364250183105,1.2374063730239868
1684201177792761300,7.27676123046875,0.08285290747880936,4.046680450439453,1.1775071620941162
1684201177802787300,7.286787353515625,0.1263720691204071,3.8148419857025146,1.074334740638733
1684201177812813300,7.296813232421875,0.16137292981147766,3.471003770828247,0.9473357796669006
1684201177822838300,7.30683837890625,0.196258082985878,3.1369709968566895,0.8289794325828552
1684201177832864300,7.3168642578125,0.22516536712646484,2.795311212539673,0.7364883422851562
1684201177842890200,7.32689013671875,0.24860413372516632,2.515545606613159,0.6905649304389954
1684201177852916200,7.336916259765625,0.26520708203315735,2.354515314102173,0.6823616027832031
1684201177862941200,7.346941162109375,0.2508656084537506,2.2796225547790527,0.6809121370315552
1684201177872967200,7.35696728515625,0.2259370982646942,2.2604689598083496,0.6881301403045654
1684201177882993400,7.366993408203125,0.15090975165367126,2.348900556564331,0.7263410091400146
1684201177893019400,7.377019287109375,0.06526701152324677,2.4753267765045166,0.79018235206604
1684201177903044400,7.38704443359375,-0.03275658190250397,2.613363027572632,0.8320299386978149
1684201177913070300,7.3970703125,-0.1292378455400467,2.718698024749756,0.8238511085510254
1684201177923096300,7.407096435546875,-0.1730526089668274,2.7557454109191895,0.7992171049118042
1684201177933122300,7.417122314453125,-0.17766334116458893,2.701124906539917,0.7398310303688049
1684201177943147500,7.4271474609375,-0.15742267668247223,2.5558834075927734,0.6636875867843628
1684201177953173500,7.437173583984375,-0.11597111076116562,2.367960214614868,0.6054807305335999
1684201177963199500,7.447199462890625,-0.08336719125509262,2.189565420150757,0.5565515160560608
1684201177973225500,7.4572255859375,-0.05424738675355911,2.034883737564087,0.5079147219657898
1684201177983250400,7.46725048828125,-0.013399157673120499,1.8758065700531006,0.4463706910610199
1684201177993276400,7.4772763671875,0.026340797543525696,1.7614986896514893,0.3572693169116974
1684201178003302400,7.487302490234375,0.039207153022289276,1.7277859449386597,0.22259284555912018
1684201178013327400,7.497327392578125,0.022838566452264786,1.746368646621704,0.02154681831598282
1684201178023353300,7.507353271484375,0.014517247676849365,1.695970892906189,-0.2017144113779068
1684201178033379300,7.51737939453125,0.024622345343232155,1.6053158044815063,-0.43806222081184387
1684201178043405300,7.5274052734375,0.07760880887508392,1.5061118602752686,-0.7357913851737976
1684201178053430300,7.53743017578125,0.19089728593826294,1.3250735998153687,-0.971275806427002
1684201178063456300,7.547456298828125,0.37094298005104065,1.0735422372817993,-1.0208171606063843
1684201178073482200,7.557482177734375,0.5747177004814148,0.9541164636611938,-0.8594942688941956
1684201178083508200,7.56750830078125,0.7164483070373535,0.9276249408721924,-0.6475523114204407
1684201178093533200,7.577533203125,0.7775066494941711,0.8221286535263062,-0.5623359680175781
1684201178103559200,7.58755908203125,0.8056380152702332,0.7074667811393738,-0.5830028057098389
1684201178113585200,7.597585205078125,0.8403592109680176,0.626602292060852,-0.6184417605400085
1684201178123611100,7.607611083984375,0.8775601387023926,0.539701521396637,-0.6332709193229675
1684201178133636400,7.61763623046875,0.9530580639839172,0.42986080050468445,-0.5820596218109131
1684201178143662300,7.627662353515625,1.0472233295440674,0.3226119875907898,-0.43993204832077026
1684201178153688300,7.637688232421875,1.113004207611084,0.3037831783294678,-0.18466749787330627
1684201178163714000,7.647714111328125,1.1737897396087646,0.3942357897758484,0.1495319902896881
1684201178173739300,7.6577392578125,1.1903458833694458,0.5095388889312744,0.45643094182014465
1684201178183765200,7.66776513671875,1.2030279636383057,0.5562343597412109,0.6849198341369629
1684201178193791200,7.677791259765625,1.348921537399292,0.5504116415977478,0.8450855016708374
1684201178203817500,7.6878173828125,1.5615332126617432,0.4674318730831146,0.961811363697052
1684201178213842200,7.69784228515625,1.7366262674331665,0.2064782977104187,1.0628175735473633
1684201178223868400,7.707868408203125,1.8140190839767456,-0.07354669272899628,1.0075479745864868
1684201178233894400,7.717894287109375,1.769919514656067,-0.03858551010489464,0.7990373969078064
1684201178243920400,7.72792041015625,1.6422163248062134,0.5504910349845886,0.6433691382408142
1684201178253945300,7.7379453125,1.53769850730896,1.523808240890503,0.6539751887321472
1684201178263971300,7.747971435546875,1.4273838996887207,2.226442575454712,0.8634481430053711
1684201178273997300,7.757997314453125,1.3277918100357056,2.3700766563415527,1.0433489084243774
1684201178284023300,7.768023193359375,1.1936848163604736,2.08927321434021,0.9722030162811279
1684201178294048300,7.77804833984375,1.0553724765777588,1.691288948059082,0.8179945349693298
1684201178304074200,7.78807421875,0.9607611894607544,1.3967959880828857,0.7015179991722107
1684201178314100200,7.798100341796875,0.8997641801834106,1.3024804592132568,0.6347576379776001
1684201178324126200,7.808126220703125,0.8689157962799072,1.2686699628829956,0.5992518067359924
1684201178334151200,7.818151123046875,0.8638536334037781,1.2095650434494019,0.6036340594291687
1684201178344177200,7.82817724609375,0.8426212668418884,1.1130354404449463,0.619142472743988
1684201178354203100,7.838203125,0.8115437626838684,1.031199336051941,0.6254326105117798
1684201178364228400,7.848228271484375,0.798507034778595,0.9813336133956909,0.6300424933433533
1684201178374254300,7.85825439453125,0.7825576663017273,0.9484710097312927,0.6337093710899353
1684201178384280300,7.8682802734375,0.7521615028381348,0.8692585229873657,0.6399231553077698
1684201178394306300,7.878306396484375,0.7137613892555237,0.7825087308883667,0.6383146047592163
1684201178404331300,7.888331298828125,0.6859213709831238,0.6999013423919678,0.6153408885002136
1684201178414357200,7.898357177734375,0.6705951690673828,0.6026504039764404,0.6034946441650391
1684201178424383200,7.90838330078125,0.6606588363647461,0.4970048666000366,0.6088337898254395
1684201178434408200,7.918408203125,0.6453869342803955,0.39423295855522156,0.6114000678062439
1684201178444434200,7.92843408203125,0.628089427947998,0.30305081605911255,0.606246292591095
1684201178454460400,7.93846044921875,0.6018975377082825,0.25069358944892883,0.6034010052680969
1684201178464486400,7.948486328125,0.5851876735687256,0.2607511878013611,0.5835209488868713
1684201178474511000,7.958510986328125,0.5887885093688965,0.25672101974487305,0.5410270094871521
1684201178484537300,7.968537353515625,0.6033945679664612,0.21281763911247253,0.5014052391052246
1684201178494563300,7.978563232421875,0.5989068746566772,0.1753416359424591,0.4680512845516205
1684201178504589300,7.98858935546875,0.5717369914054871,0.15592187643051147,0.44843071699142456
1684201178514614300,7.9986142578125,0.5196858048439026,0.09205394238233566,0.42240098118782043
1684201178524640300,8.00864013671875,0.47043097019195557,-0.0025329638738185167,0.39475730061531067
1684201178534666200,8.018666259765626,0.42401233315467834,-0.1282229870557785,0.38896411657333374
1684201178544692200,8.028692138671875,0.3722776770591736,-0.22354339063167572,0.39499831199645996
1684201178554717200,8.03871728515625,0.2909031808376312,-0.282973974943161,0.4008282423019409
1684201178564743200,8.0487431640625,0.19291967153549194,-0.30997559428215027,0.4190613031387329
1684201178574769200,8.05876904296875,0.11255239695310593,-0.2932314872741699,0.4730584919452667
1684201178584795100,8.068795166015626,0.061769191175699234,-0.21120639145374298,0.4903508126735687
1684201178594820400,8.0788203125,0.006088088266551495,-0.05586020648479462,0.46217936277389526
1684201178604846300,8.088846435546875,-0.057644620537757874,0.10468915849924088,0.4413093030452728
1684201178614872300,8.098872314453125,-0.12581035494804382,0.17787602543830872,0.45525306463241577
1684201178624898300,8.108898193359375,-0.19670116901397705,0.20703649520874023,0.477046400308609
1684201178634923300,8.11892333984375,-0.25896936655044556,0.21645236015319824,0.4789915680885315
1684201178644949200,8.12894921875,-0.30828291177749634,0.21035230159759521,0.46697863936424255
1684201178654975200,8.138975341796876,-0.3485371172428131,0.20488163828849792,0.45410412549972534
1684201178665001200,8.149001220703125,-0.376420795917511,0.20019660890102386,0.45295289158821106
1684201178675026200,8.159026123046875,-0.3853040337562561,0.2060992419719696,0.46476322412490845
1684201178685052200,8.16905224609375,-0.38663992285728455,0.2150629311800003,0.4640830159187317
1684201178695078400,8.179078369140624,-0.37159839272499084,0.19800883531570435,0.4521925449371338
1684201178705104400,8.1891044921875,-0.3445707857608795,0.17689666152000427,0.4450063407421112
1684201178715129300,8.19912939453125,-0.31777751445770264,0.189730703830719,0.4374496042728424
1684201178725155300,8.2091552734375,-0.2935689091682434,0.1915539801120758,0.4169895350933075
1684201178735181300,8.219181396484375,-0.2769179940223694,0.1582825779914856,0.3732183575630188
1684201178745207300,8.229207275390625,-0.28081899881362915,0.12399943917989731,0.31691116094589233
1684201178755232300,8.239232177734374,-0.3058236837387085,0.0979904755949974,0.2513023018836975
1684201178765258200,8.24925830078125,-0.3407536745071411,0.05516069009900093,0.20235079526901245
1684201178775284200,8.2592841796875,-0.36360597610473633,0.0031036133877933025,0.18242289125919342
1684201178785309400,8.269309326171875,-0.3807756006717682,-0.05516211315989494,0.17252981662750244
1684201178795335200,8.279335205078125,-0.39460086822509766,-0.09504934400320053,0.14627611637115479
1684201178805361200,8.289361083984375,-0.4046868085861206,-0.11117737740278244,0.11726263165473938
1684201178815387100,8.29938720703125,-0.4149000346660614,-0.11427223682403564,0.10258142650127411
1684201178825412400,8.309412353515626,-0.4151303470134735,-0.1277494579553604,0.09135544300079346
1684201178835438300,8.319438232421875,-0.40309658646583557,-0.16079901158809662,0.07971689850091934
1684201178845464300,8.32946435546875,-0.4008941054344177,-0.18556317687034607,0.05907750502228737
1684201178855490300,8.339490234375,-0.41758549213409424,-0.2190130054950714,0.022015627473592758
1684201178865515300,8.349515380859375,-0.44869735836982727,-0.24311253428459167,-0.012480668723583221
1684201178875541200,8.359541259765624,-0.5021510124206543,-0.23128649592399597,-0.052514638751745224
1684201178885567200,8.369567138671876,-0.5609960556030273,-0.19189879298210144,-0.1177622377872467
1684201178895593200,8.37959326171875,-0.609889566898346,-0.15041179955005646,-0.20260494947433472
1684201178905618200,8.3896181640625,-0.6399359703063965,-0.12482113391160965,-0.281196266412735
1684201178915644200,8.39964404296875,-0.6429319977760315,-0.1400323212146759,-0.32110080122947693
1684201178925670100,8.409670166015625,-0.6097115874290466,-0.2022600769996643,-0.3514286279678345
1684201178935696400,8.4196962890625,-0.5511302947998047,-0.2599502503871918,-0.38048452138900757
1684201178945721000,8.42972119140625,-0.48760339617729187,-0.33112695813179016,-0.405543714761734
1684201178955747300,8.439747314453125,-0.42897629737854004,-0.4042222201824188,-0.4204012453556061
1684201178965773300,8.449773193359375,-0.40613117814064026,-0.46698758006095886,-0.43629077076911926
1684201178975799300,8.45979931640625,-0.424609512090683,-0.5091148018836975,-0.45379918813705444
1684201178985824300,8.46982421875,-0.47159019112586975,-0.5674685835838318,-0.47356829047203064
1684201178995850200,8.479850341796874,-0.5531324744224548,-0.6899881362915039,-0.5097244381904602
1684201179005876200,8.489876220703126,-0.6491495966911316,-0.8469952940940857,-0.5552065372467041
1684201179015902200,8.499902099609375,-0.7433171272277832,-0.9930822253227234,-0.5989846587181091
1684201179025927400,8.509927490234375,-0.8150359988212585,-1.0856627225875854,-0.6658312678337097
1684201179035953400,8.519953369140625,-0.8739848136901855,-1.1012084484100342,-0.719319760799408
1684201179045979100,8.529979248046875,-0.8959514498710632,-1.0648967027664185,-0.7178385257720947
1684201179056005000,8.540005126953124,-0.8878700733184814,-0.9515726566314697,-0.6501894593238831
1684201179066030300,8.5500302734375,-0.8746198415756226,-0.748695433139801,-0.5313109159469604
1684201179076056300,8.560056396484375,-0.8625146746635437,-0.471021443605423,-0.4092680811882019
1684201179086082300,8.570082275390625,-0.862382173538208,-0.15088661015033722,-0.2860092520713806
1684201179096108300,8.5801083984375,-0.8619954586029053,0.21663440763950348,-0.1794111728668213
1684201179106133200,8.59013330078125,-0.8229659795761108,0.6284578442573547,-0.0942121297121048
1684201179116159200,8.6001591796875,-0.7866745591163635,0.949804425239563,-0.034451328217983246
1684201179126185200,8.610185302734376,-0.7092950344085693,1.4812228679656982,0.137059286236763
1684201179136211200,8.620211181640625,-0.5490917563438416,2.4888925552368164,0.5636603832244873
1684201179146236200,8.630236083984375,-0.37439537048339844,3.6808485984802246,1.1925655603408813
1684201179156262100,8.64026220703125,-0.19317418336868286,3.9726405143737793,1.6734744310379028
1684201179166288100,8.6502880859375,-0.053908608853816986,2.5658175945281982,1.490549087524414
1684201179176313000,8.66031298828125,-0.022991705685853958,1.3653151988983154,0.7242491841316223
1684201179186339000,8.670339111328126,0.07550002634525299,1.5176961421966553,0.23390699923038483
1684201179196365000,8.680364990234375,0.2453090399503708,1.8181777000427246,0.11739690601825714
1684201179206391300,8.690391357421875,0.3634212911128998,1.7085864543914795,0.12992650270462036
1684201179216416000,8.700416015625,0.39992764592170715,1.3896143436431885,0.17100362479686737
1684201179226442200,8.710442138671874,0.3536843955516815,1.0522593259811401,0.2597930133342743
1684201179236468200,8.72046826171875,0.28019580245018005,0.8013150095939636,0.32676300406455994
1684201179246494200,8.730494140625,0.22672884166240692,0.6462295055389404,0.3877323567867279
1684201179256519400,8.74051953125,0.20926117897033691,0.5234820246696472,0.4374876618385315
1684201179266545400,8.75054541015625,0.213019460439682,0.3189593553543091,0.4734417796134949
1684201179276571400,8.7605712890625,0.22231201827526093,0.0900084376335144,0.47781601548194885
1684201179286597400,8.770597412109375,0.21987800300121307,-0.10404212027788162,0.4760162830352783
1684201179296622300,8.780622314453124,0.1948578655719757,-0.19623036682605743,0.4663487374782562
1684201179306648300,8.7906484375,0.15872222185134888,-0.15282036364078522,0.43759968876838684
1684201179316674300,8.80067431640625,0.1298958957195282,-0.026952169835567474,0.4146653413772583
1684201179326700300,8.8107001953125,0.09210722148418427,0.21558304131031036,0.4201003909111023
1684201179336725200,8.820725341796875,0.053163815289735794,0.4142388701438904,0.46214210987091064
1684201179346751200,8.830751220703124,0.022958625108003616,0.39545542001724243,0.5210387110710144
1684201179356777200,8.840777099609374,0.006832384504377842,0.23921146988868713,0.5350533127784729
1684201179366803200,8.85080322265625,0.009423651732504368,0.0839318037033081,0.4795026481151581
1684201179376828200,8.860828125,0.012769115157425404,0.015150878578424454,0.3833252489566803
1684201179386854100,8.870854248046875,0.013869084417819977,-0.026722434908151627,0.2907485365867615
1684201179396880100,8.880880126953125,0.003953336738049984,-0.10543455183506012,0.22097980976104736
1684201179406906000,8.890906005859375,-0.01676037162542343,-0.2323683202266693,0.18044286966323853
1684201179416931000,8.90093115234375,-0.06190788000822067,-0.31262773275375366,0.16824452579021454
1684201179426957000,8.91095703125,-0.10408589243888855,-0.3203428387641907,0.2021196186542511
1684201179436983000,8.920983154296875,-0.1586383432149887,-0.337654709815979,0.23578304052352905
1684201179447009300,8.93100927734375,-0.1957462877035141,-0.3617742955684662,0.2753593921661377
1684201179457034000,8.941033935546875,-0.21586300432682037,-0.44355812668800354,0.27281925082206726
1684201179467060200,8.951060302734374,-0.19858743250370026,-0.5426809191703796,0.20296655595302582
1684201179477086200,8.961086181640624,-0.1478416919708252,-0.5697237253189087,0.08543859422206879
1684201179487112200,8.9711123046875,-0.11925093829631805,-0.45983049273490906,-0.05063328146934509
1684201179497137400,8.981137451171875,-0.16665945947170258,-0.22470267117023468,-0.19025643169879913
1684201179507163400,8.991163330078125,-0.2839301526546478,-0.060177192091941833,-0.2507334053516388
1684201179517189400,9.001189453125,-0.39967086911201477,-0.24193207919597626,-0.15031757950782776
1684201179527215400,9.01121533203125,-0.4258995056152344,-0.6375519633293152,0.050633788108825684
1684201179537240300,9.021240234375,-0.32761022448539734,-0.8096616864204407,0.09541644155979156
1684201179547266300,9.031266357421876,-0.2007894665002823,-0.554309606552124,-0.10280194878578186
1684201179557292300,9.041292236328125,-0.18144026398658752,-0.20009294152259827,-0.2803479731082916
1684201179567317200,9.051317138671875,-0.16039542853832245,0.16893908381462097,-0.25682592391967773
1684201179577343200,9.06134326171875,-0.12300597876310349,0.6329879760742188,-0.14906935393810272
1684201179587369200,9.071369140625,-0.09464278072118759,1.0643450021743774,-0.057649169117212296
1684201179597395200,9.081395263671874,-0.07762011885643005,1.1578909158706665,0.024930929765105247
1684201179607420200,9.091420166015626,-0.045505378395318985,0.7985966801643372,0.08565574884414673
1684201179617446100,9.101446044921875,-0.011066975072026253,0.21439659595489502,0.11145751178264618
1684201179627472100,9.11147216796875,0.004285756032913923,-0.28300172090530396,0.11613462120294571
1684201179637498000,9.121498046875,-0.009656424634158611,-0.5017044544219971,0.11733517795801163
1684201179647523000,9.131523193359374,-0.05064355209469795,-0.49933499097824097,0.13414084911346436
1684201179657549000,9.141549072265626,-0.11388963460922241,-0.37145161628723145,0.14910754561424255
1684201179667575000,9.151574951171876,-0.18676090240478516,-0.20925647020339966,0.12270206958055496
1684201179677601300,9.161601318359375,-0.24990633130073547,-0.09872916340827942,0.06279505789279938
1684201179687626200,9.171626220703125,-0.285744845867157,-0.12273921817541122,-0.006562048103660345
1684201179697652200,9.18165234375,-0.322731614112854,-0.24424035847187042,-0.08186639100313187
1684201179707678200,9.19167822265625,-0.34665054082870483,-0.4112507998943329,-0.15835340321063995
1684201179717704200,9.2017041015625,-0.3555518686771393,-0.5605886578559875,-0.21252235770225525
1684201179727729400,9.2117294921875,-0.34056633710861206,-0.656562089920044,-0.23809266090393066
1684201179737755400,9.22175537109375,-0.3230608403682709,-0.732921838760376,-0.23786576092243195
1684201179747781400,9.231781494140625,-0.33334964513778687,-0.7914827466011047,-0.23588889837265015
1684201179757807400,9.241807373046875,-0.3727518916130066,-0.767164409160614,-0.2183314710855484
1684201179767832300,9.251832275390624,-0.4325302243232727,-0.6516724824905396,-0.20031385123729706
1684201179777858300,9.2618583984375,-0.4786044955253601,-0.5228756666183472,-0.16241493821144104
1684201179787884300,9.27188427734375,-0.508023738861084,-0.44584304094314575,-0.13115635514259338
1684201179797910300,9.28191015625,-0.5409151315689087,-0.41069385409355164,-0.12481643259525299
1684201179807935200,9.291935302734375,-0.5620279908180237,-0.3936288356781006,-0.11375173926353455
1684201179817961200,9.301961181640625,-0.556186854839325,-0.3819418251514435,-0.07786617428064346
1684201179827987200,9.3119873046875,-0.5359947681427002,-0.35596704483032227,-0.029081907123327255
1684201179838013200,9.32201318359375,-0.49417033791542053,-0.2751409113407135,-0.000020961742848157883
1684201179848038100,9.3320380859375,-0.43230485916137695,-0.1682938039302826,0.036446113139390945
1684201179858064100,9.342064208984375,-0.35639944672584534,-0.10283996909856796,0.1075301393866539
1684201179868090000,9.352090087890625,-0.28419479727745056,-0.09298285841941833,0.1876741498708725
1684201179878116000,9.3621162109375,-0.21044465899467468,-0.1207263395190239,0.2348397970199585
1684201179888141000,9.37214111328125,-0.14900116622447968,-0.195355623960495,0.2176533043384552
1684201179898167000,9.3821669921875,-0.09534326940774918,-0.3130095601081848,0.1732562780380249
1684201179908193000,9.392193115234376,-0.041374098509550095,-0.40919119119644165,0.09169333428144455
1684201179918219300,9.40221923828125,-0.0004319904837757349,-0.4509247839450836,-0.012202971614897251
1684201179928244200,9.412244140625,0.03551112115383148,-0.48247379064559937,-0.1261618733406067
1684201179938270200,9.422270263671875,0.06823204457759857,-0.5052307844161987,-0.22987735271453857
1684201179948296200,9.432296142578124,0.0895879864692688,-0.5238686203956604,-0.3244742155075073
1684201179958322200,9.442322265625,0.11492875963449478,-0.5208605527877808,-0.38802868127822876
1684201179968347400,9.452347412109376,0.13212372362613678,-0.4930770993232727,-0.40943998098373413
1684201179978373400,9.462373291015625,0.1478092074394226,-0.44538283348083496,-0.3896108567714691
1684201179988399400,9.4723994140625,0.1691238284111023,-0.3693142533302307,-0.3413621485233307
1684201179998424300,9.48242431640625,0.1902616024017334,-0.2889679968357086,-0.2930172383785248
1684201180008450300,9.4924501953125,0.21094684302806854,-0.2539837658405304,-0.2549261152744293
1684201180018476300,9.502476318359374,0.2349400520324707,-0.27508825063705444,-0.2541402280330658
1684201180028502300,9.512502197265626,0.24784772098064423,-0.3547459840774536,-0.31229159235954285
1684201180038527200,9.52252734375,0.25533413887023926,-0.45691683888435364,-0.41185811161994934
1684201180048553200,9.53255322265625,0.2616514265537262,-0.5787947177886963,-0.54554682970047
1684201180058579200,9.5425791015625,0.2675117254257202,-0.6791532635688782,-0.7085954546928406
1684201180068605000,9.55260498046875,0.2767803966999054,-0.7145512104034424,-0.8859081864356995
1684201180078629600,9.562629638671876,0.30395954847335815,-0.7401189208030701,-1.0814322233200073
1684201180088656000,9.57265576171875,0.364421546459198,-0.7876518368721008,-1.3063733577728271
1684201180098681900,9.582681884765625,0.434279203414917,-0.8304352164268494,-1.5666714906692505
1684201180108707800,9.592707763671875,0.5401203632354736,-0.7923496961593628,-1.8544418811798096
1684201180118733000,9.602733154296875,0.7049724459648132,-0.6867948174476624,-2.1272034645080566
1684201180128758800,9.6127587890625,0.8968531489372253,-0.5207298994064331,-2.260575294494629
1684201180138784800,9.62278466796875,1.0594936609268188,-0.3905197083950043,-2.188110828399658
1684201180148810800,9.632810791015626,1.1967699527740479,-0.33676421642303467,-1.955916404724121
1684201180158836000,9.6428359375,1.2665705680847168,-0.33029142022132874,-1.666601538658142
1684201180168862000,9.652862060546875,1.3057348728179932,-0.4064428508281708,-1.4152328968048096
1684201180178888000,9.662887939453125,1.315293312072754,-0.5452041625976562,-1.1849274635314941
1684201180188914000,9.672913818359374,1.3718191385269165,-0.6607649922370911,-0.9414784908294678
1684201180198939000,9.68293896484375,1.4800363779067993,-0.7342892289161682,-0.7564513683319092
1684201180208964900,9.69296484375,1.5915290117263794,-0.7725673913955688,-0.6801923513412476
1684201180218990800,9.702990966796875,1.6145893335342407,-0.7273868918418884,-0.6399013996124268
1684201180229016800,9.713016845703125,1.5352754592895508,-0.6073338389396667,-0.5838236808776855
1684201180239041800,9.723041748046874,1.41996431350708,-0.3137562870979309,-0.5132791996002197
1684201180249067800,9.73306787109375,1.3209258317947388,0.053677789866924286,-0.41569823026657104
1684201180259093800,9.74309375,1.2661856412887573,0.5873326659202576,-0.16262441873550415
1684201180269119700,9.75311962890625,1.2404987812042236,1.0820966958999634,0.19762569665908813
1684201180279144700,9.763144775390625,1.2039767503738403,1.2639330625534058,0.41986408829689026
1684201180289170700,9.773170654296875,1.171983242034912,1.1340709924697876,0.4691336750984192
1684201180299197000,9.783197021484375,1.1910823583602905,0.7810248136520386,0.40013355016708374
1684201180309223000,9.793222900390624,1.2564865350723267,0.47613033652305603,0.2806321084499359
1684201180319248000,9.803247802734376,1.337382197380066,0.4114498794078827,0.175553098320961
1684201180329273900,9.81327392578125,1.3817487955093384,0.5836359858512878,0.10470928251743317
1684201180339299800,9.8232998046875,1.3686140775680542,0.811738133430481,0.06940695643424988
1684201180349325800,9.833325927734375,1.295322060585022,0.9247440099716187,0.11330201476812363
1684201180359351000,9.84335107421875,1.2904272079467773,0.9880266189575195,0.15135858952999115
1684201180369377000,9.853376953125,1.250010371208191,1.0863943099975586,0.1825023889541626
1684201180379402800,9.86340283203125,1.1661388874053955,1.146066665649414,0.21971102058887482
1684201180389428700,9.8734287109375,1.06883704662323,1.1464660167694092,0.27489355206489563
1684201180399454000,9.883453857421875,0.9709439277648926,1.0853080749511719,0.3158414959907532
1684201180409480000,9.89347998046875,0.8824424147605896,0.9353049397468567,0.33076366782188416
1684201180419506000,9.903505859375,0.7890262007713318,0.7298250198364258,0.33251896500587463
1684201180429532000,9.913531982421874,0.7092817425727844,0.5485897660255432,0.3630247116088867
1684201180439556900,9.923556884765626,0.6395572423934937,0.4082057476043701,0.42152851819992065
1684201180449582800,9.933582763671875,0.5619085431098938,0.30301356315612793,0.486030638217926
1684201180459608800,9.94360888671875,0.4804794490337372,0.25762608647346497,0.5132686495780945
1684201180469634800,9.953634765625,0.4129088819026947,0.21413205564022064,0.4945971667766571
1684201180479659800,9.96365966796875,0.3384932279586792,0.1606810837984085,0.488810658454895
1684201180489685800,9.973685791015624,0.27316492795944214,0.0963112935423851,0.5212305784225464
1684201180499711700,9.983711669921876,0.20033758878707886,-0.02764633484184742,0.5908421277999878
1684201180509737700,9.99373779296875,0.1329861581325531,-0.14390400052070618,0.6818055510520935
1684201180519762700,10.0037626953125,0.07730317860841751,-0.21809060871601105,0.7746103405952454
1684201180529788700,10.01378857421875,0.007826310582458973,-0.25527438521385193,0.8617551326751709
1684201180539815000,10.02381494140625,-0.05635081231594086,-0.2275330126285553,0.9289913773536682
1684201180549841000,10.0338408203125,-0.11838648468255997,-0.15152259171009064,0.9679043889045715
1684201180559865900,10.043865966796876,-0.17751558125019073,-0.05339495837688446,0.9808254837989807
1684201180569891800,10.053891845703125,-0.24390818178653717,-0.0015384190483018756,0.983940601348877
1684201180579917800,10.063917724609375,-0.30642056465148926,-0.016104046255350113,0.9768858551979065
1684201180589943000,10.073943115234375,-0.3836439549922943,-0.10971298068761826,0.9179501533508301
1684201180599969000,10.083968994140625,-0.4546113610267639,-0.23682965338230133,0.8271174430847168
1684201180609995000,10.0939951171875,-0.5128825902938843,-0.35873284935951233,0.7397538423538208
1684201180620021000,10.10402099609375,-0.5686848759651184,-0.4777204990386963,0.6640779972076416
1684201180630046000,10.1140458984375,-0.6038169860839844,-0.5969278216362,0.6096067428588867
1684201180640072000,10.124072021484375,-0.6163080334663391,-0.7057472467422485,0.565951406955719
1684201180650098000,10.134097900390625,-0.6282526850700378,-0.7009060978889465,0.5104778409004211
1684201180660124000,10.1441240234375,-0.6472343802452087,-0.6066696047782898,0.4272191524505615
1684201180670148900,10.15414892578125,-0.6892032027244568,-0.5067201256752014,0.3593774139881134
1684201180680174800,10.1641748046875,-0.7549909949302673,-0.478271484375,0.34995967149734497
1684201180690200800,10.174200927734375,-0.8276230692863464,-0.4874171018600464,0.3551815450191498
1684201180700226800,10.184226806640625,-0.896331787109375,-0.4868471920490265,0.3357343375682831
1684201180710252800,10.194252685546875,-0.9817002415657043,-0.472645103931427,0.31095609068870544
1684201180720277800,10.20427783203125,-1.0618597269058228,-0.505293071269989,0.3014989197254181
1684201180730303700,10.2143037109375,-1.1293457746505737,-0.5331038236618042,0.29698118567466736
1684201180740329700,10.224329833984376,-1.1804544925689697,-0.46085381507873535,0.3097662329673767
1684201180750354700,10.234354736328125,-1.2093759775161743,-0.2891942262649536,0.3470304608345032
1684201180760380700,10.244380615234375,-1.196163535118103,-0.10184750705957413,0.39792612195014954
1684201180770407000,10.254406982421875,-1.1642189025878906,0.03643597289919853,0.4308875501155853
1684201180780433000,10.264432861328125,-1.1434686183929443,0.08886482566595078,0.4359818994998932
1684201180790457900,10.274457763671874,-1.134045958518982,0.045915015041828156,0.42390385270118713
1684201180800483800,10.28448388671875,-1.1293814182281494,-0.00544591061770916,0.4107598066329956
1684201180810509800,10.294509765625,-1.117004632949829,-0.04578643664717674,0.38980549573898315
1684201180820535800,10.304535888671875,-1.0906569957733154,-0.11228370666503906,0.35372498631477356
1684201180830561000,10.31456103515625,-1.0465503931045532,-0.1904890388250351,0.29542219638824463
1684201180840587000,10.3245869140625,-0.9924725890159607,-0.20945847034454346,0.2267635017633438
1684201180850613000,10.334613037109374,-0.9106738567352295,-0.1401243805885315,0.16233333945274353
1684201180860639000,10.344638916015626,-0.7973177433013916,-0.06752155721187592,0.08663244545459747
1684201180870664000,10.354663818359375,-0.641531765460968,-0.08425051718950272,0.04125573858618736
1684201180880690000,10.36468994140625,-0.49330663681030273,-0.07629965245723724,0.014540242031216621
1684201180890716000,10.3747158203125,-0.3826330602169037,0.06422106921672821,0.005583173595368862
1684201180900742000,10.384741943359375,-0.2990257740020752,0.2190234363079071,0.032163117080926895
1684201180910766800,10.394766845703124,-0.26218897104263306,0.3497457206249237,0.07123184949159622
1684201180920792800,10.404792724609376,-0.2581268548965454,0.4635591208934784,0.08453034609556198
1684201180930818800,10.41481884765625,-0.291014164686203,0.5630358457565308,0.04837372899055481
1684201180940844800,10.4248447265625,-0.3388615846633911,0.6245338320732117,-0.0042575267143547535
1684201180950869800,10.434869873046875,-0.3826543986797333,0.6782402396202087,-0.026715748012065887
1684201180960895700,10.444895751953124,-0.41779133677482605,0.7527812719345093,-0.009716257452964783
1684201180970921700,10.454921630859374,-0.44092273712158203,0.8508569598197937,0.046089693903923035
1684201180980947700,10.46494775390625,-0.4508478045463562,0.9157842993736267,0.09825675934553146
1684201180990972700,10.47497265625,-0.4608585238456726,0.9213875532150269,0.12482207268476486
1684201181000998700,10.48499853515625,-0.4722374379634857,0.8631842136383057,0.11051370203495026
1684201181011025000,10.49502490234375,-0.482749879360199,0.7349410057067871,0.09973768889904022
1684201181021051000,10.50505078125,-0.4835898280143738,0.5599015951156616,0.0937434509396553
1684201181031075800,10.515075927734374,-0.47756001353263855,0.40606212615966797,0.07857929170131683
1684201181041101800,10.525101806640626,-0.45958447456359863,0.26632848381996155,0.029259949922561646
1684201181051127800,10.5351279296875,-0.4112601578235626,0.16576972603797913,-0.03243669867515564
1684201181061153800,10.54515380859375,-0.3465581238269806,0.12608276307582855,-0.08721393346786499
1684201181071179000,10.555178955078125,-0.29279130697250366,0.10863606631755829,-0.12871775031089783
1684201181081205000,10.565205078125,-0.24691195785999298,0.08855237066745758,-0.15098603069782257
1684201181091231000,10.57523095703125,-0.1918761432170868,0.05566087365150452,-0.13756226003170013
1684201181101257000,10.585257080078126,-0.1494104415178299,0.02529258280992508,-0.09966441988945007
1684201181111282000,10.595281982421875,-0.11714468896389008,-0.01863071322441101,-0.04695923253893852
1684201181121308000,10.605307861328125,-0.12434666603803635,-0.10213971883058548,-0.004144925158470869
1684201181131334000,10.615333984375,-0.1225394681096077,-0.1323646605014801,0.03524061664938927
1684201181141359900,10.62535986328125,-0.12380819767713547,-0.14208786189556122,0.042452991008758545
1684201181151384800,10.635384765625,-0.1460927277803421,-0.11191177368164062,0.04709053039550781
1684201181161410800,10.645410888671876,-0.16761000454425812,0.0027077500708401203,0.07974515110254288
1684201181171436800,10.655436767578125,-0.1975361555814743,0.22741319239139557,0.17192181944847107
1684201181181462800,10.665462890625,-0.19047345221042633,0.5790796279907227,0.3344569504261017
1684201181191487700,10.67548779296875,-0.16278712451457977,1.0151032209396362,0.574796199798584
1684201181201513700,10.685513671875,-0.16317540407180786,1.3312504291534424,0.819861114025116
1684201181211539700,10.695539794921874,-0.10896988213062286,1.4561139345169067,0.963061511516571
1684201181221566000,10.70556591796875,-0.01922348514199257,1.317873239517212,0.9300833344459534
1684201181231590700,10.715590576171875,0.021249419078230858,1.0529794692993164,0.7173852920532227
1684201181241617000,10.725616943359375,0.0965801253914833,0.8052657246589661,0.4708425998687744
1684201181251643000,10.735642822265625,0.18803778290748596,0.5056556463241577,0.24815481901168823
1684201181261667800,10.745667724609374,0.2524103820323944,0.15227337181568146,0.06662256270647049
1684201181271693800,10.75569384765625,0.2884359061717987,-0.1994175910949707,-0.05183245241641998
1684201181281719800,10.7657197265625,0.3227563500404358,-0.49730122089385986,-0.09573306888341904
1684201181291745800,10.775745849609375,0.34366145730018616,-0.766452968120575,-0.1237393319606781
1684201181301771000,10.78577099609375,0.3315941393375397,-0.9179359674453735,-0.14941805601119995
1684201181311797000,10.795796875,0.3020531237125397,-0.9343776106834412,-0.1389094591140747
1684201181321823000,10.805822998046875,0.2563282549381256,-0.8492254614830017,-0.05760793760418892
1684201181331849000,10.815848876953124,0.18111640214920044,-0.6957659125328064,0.058184005320072174
1684201181341874000,10.8258740234375,0.11602316051721573,-0.480393648147583,0.1319975107908249
1684201181351900000,10.83589990234375,0.07238549739122391,-0.25232160091400146,0.2006455659866333
1684201181361926000,10.84592578125,0.008936213329434395,-0.13280504941940308,0.2526608109474182
1684201181371951900,10.855951904296875,-0.04572025313973427,-0.07462947815656662,0.2578222155570984
1684201181381976800,10.865976806640624,-0.07664940506219864,-0.08305385708808899,0.22656521201133728
1684201181392002800,10.8760029296875,-0.09176738560199738,-0.16786888241767883,0.1746070832014084
1684201181402028800,10.88602880859375,-0.09554028511047363,-0.27058595418930054,0.11436159163713455
1684201181412054800,10.8960546875,-0.0944514200091362,-0.3605552017688751,0.07103132456541061
1684201181422079700,10.906079833984375,-0.08665501326322556,-0.41319602727890015,0.021875761449337006
1684201181432105700,10.916105712890625,-0.08494626730680466,-0.43423616886138916,-0.024592941626906395
1684201181442131700,10.926131591796874,-0.082109734416008,-0.4316907227039337,-0.030200758948922157
1684201181452157700,10.93615771484375,-0.06863543391227722,-0.4127878248691559,0.006941385567188263
1684201181462182700,10.9461826171875,-0.06171547994017601,-0.3931691348552704,0.05354537069797516
1684201181472208600,10.956208740234375,-0.06985986232757568,-0.40713512897491455,0.07906515896320343
1684201181482235000,10.96623486328125,-0.08727826923131943,-0.41444551944732666,0.0827469751238823
1684201181492260900,10.9762607421875,-0.10068055242300034,-0.4113198518753052,0.05842870846390724
1684201181502286000,10.9862861328125,-0.11219899356365204,-0.3795965313911438,0.031061803922057152
1684201181512311800,10.996311767578124,-0.1281316876411438,-0.36832505464553833,0.03154042735695839
1684201181522337800,11.006337890625,-0.14673146605491638,-0.3655361831188202,0.05044647678732872
1684201181532363800,11.01636376953125,-0.17569296061992645,-0.396940678358078,0.06589919328689575
1684201181542389000,11.026388916015625,-0.19959217309951782,-0.4333876073360443,0.06563128530979156
1684201181552415000,11.0364150390625,-0.222984179854393,-0.4621383845806122,0.05965076759457588
1684201181562441000,11.04644091796875,-0.24452568590641022,-0.45672523975372314,0.034166183322668076
1684201181572467000,11.056467041015624,-0.24915623664855957,-0.414896696805954,0.006475918926298618
1684201181582492000,11.066491943359376,-0.2528652250766754,-0.35361576080322266,-0.02760721743106842
1684201181592518000,11.076517822265625,-0.25201210379600525,-0.3055074214935303,-0.052958808839321136
1684201181602543900,11.0865439453125,-0.24762855470180511,-0.30666935443878174,-0.0738435834646225
1684201181612569900,11.09656982421875,-0.22935591638088226,-0.3049260377883911,-0.07842335850000381
1684201181622594800,11.1065947265625,-0.20426681637763977,-0.3174053728580475,-0.066752590239048
1684201181632620800,11.116620849609374,-0.17387662827968597,-0.3388040363788605,-0.04444761201739311
1684201181642646800,11.126646728515626,-0.15296228229999542,-0.35236406326293945,-0.015271883457899094
1684201181652672800,11.1366728515625,-0.1450289487838745,-0.32912924885749817,0.025417594239115715
1684201181662697700,11.14669775390625,-0.1480415165424347,-0.3122977912425995,0.04181148111820221
1684201181672723700,11.1567236328125,-0.15663452446460724,-0.3190177381038666,0.026726223528385162
1684201181682749700,11.166749755859374,-0.18951204419136047,-0.355265736579895,0.001978797372430563
1684201181692776000,11.17677587890625,-0.23307210206985474,-0.4172435998916626,-0.02318333089351654
1684201181702800600,11.186800537109375,-0.2748720049858093,-0.45334088802337646,-0.03381387144327164
1684201181712827000,11.196826904296875,-0.312753826379776,-0.43198156356811523,-0.020016517490148544
1684201181722852900,11.206852783203125,-0.3398565351963043,-0.38392749428749084,0.012311062775552273
1684201181732878800,11.21687890625,-0.3687380254268646,-0.3090991675853729,0.05681419000029564
1684201181742904000,11.226904052734374,-0.3973779082298279,-0.2492227852344513,0.09543295949697495
1684201181752930000,11.236929931640624,-0.4254995286464691,-0.2175380438566208,0.10796242952346802
1684201181762956000,11.2469560546875,-0.4435783922672272,-0.20616848766803741,0.09691830724477768
1684201181772981800,11.256981689453125,-0.45475131273269653,-0.21057505905628204,0.08075602352619171
1684201181783007000,11.267007080078125,-0.4525912404060364,-0.2188071608543396,0.06563511490821838
1684201181793033000,11.277032958984375,-0.4478665292263031,-0.19586342573165894,0.05184866487979889
1684201181803059000,11.287058837890624,-0.44946151971817017,-0.138603076338768,0.051820967346429825
1684201181813085000,11.2970849609375,-0.44631877541542053,-0.07750838994979858,0.05933859571814537
1684201181823110000,11.30710986328125,-0.44501274824142456,-0.001536927535198629,0.03587215393781662
1684201181833135900,11.317135986328125,-0.43243685364723206,0.076007179915905,-0.028559401631355286
1684201181843161900,11.327161865234375,-0.4137718379497528,0.10585029423236847,-0.09666547924280167
1684201181853187800,11.337187744140625,-0.38696014881134033,0.06741998344659805,-0.12665827572345734
1684201181863212800,11.347212890625,-0.34303128719329834,0.003900667419657111,-0.13538305461406708
1684201181873238800,11.35723876953125,-0.287932813167572,0.013495379127562046,-0.1705724149942398
1684201181883264800,11.3672646484375,-0.22005601227283478,0.09765473008155823,-0.20956428349018097
1684201181893290800,11.377290771484375,-0.1303393840789795,0.15622968971729279,-0.18009060621261597
1684201181903315700,11.387315673828125,-0.012541381642222404,0.14462177455425262,-0.07346375286579132
1684201181913341700,11.397341796875,0.1243094652891159,0.1344355195760727,0.06153489649295807
1684201181923367700,11.40736767578125,0.21192985773086548,0.15835097432136536,0.13895832002162933
1684201181933394000,11.417393798828124,0.24656984210014343,0.16472947597503662,0.14459624886512756
1684201181943418600,11.427418701171876,0.2632713317871094,0.09929294139146805,0.06960109621286392
1684201181953444900,11.43744482421875,0.26931920647621155,-0.06725814938545227,-0.07604372501373291
1684201181963470800,11.447470947265625,0.2820565700531006,-0.2766507863998413,-0.2645835280418396
1684201181973496800,11.457496826171875,0.318651020526886,-0.46175849437713623,-0.4788356423377991
1684201181983522000,11.46752197265625,0.385189026594162,-0.5754589438438416,-0.6662388443946838
1684201181993548000,11.477548095703124,0.45562008023262024,-0.7121386528015137,-0.785071611404419
1684201182003574000,11.487573974609376,0.5215591192245483,-0.9695358872413635,-0.893706738948822
1684201182013600000,11.49760009765625,0.6140340566635132,-1.2978872060775757,-1.0579071044921875
1684201182023625000,11.507625,0.7711169123649597,-1.5762146711349487,-1.3706151247024536
1684201182033651000,11.51765087890625,0.9669784307479858,-1.6900514364242554,-1.7871607542037964
1684201182043677000,11.527677001953125,1.224814772605896,-1.636123776435852,-2.1763856410980225
1684201182053703000,11.537702880859374,1.411134958267212,-1.4041110277175903,-2.240631103515625
1684201182063729000,11.54772900390625,1.4698888063430786,-1.0558714866638184,-1.960749626159668
1684201182073755000,11.5577548828125,1.487072229385376,-0.8053898215293884,-1.4811763763427734
1684201182083780900,11.56778076171875,1.4634699821472168,-0.8217355012893677,-0.9648269414901733
1684201182093806800,11.577806884765625,1.4447674751281738,-0.990142822265625,-0.5574624538421631
1684201182103831800,11.587831787109375,1.5116407871246338,-1.192676067352295,-0.3296215832233429
1684201182113857800,11.59785791015625,1.6063868999481201,-1.4216587543487549,-0.30798470973968506
1684201182123884000,11.607884033203124,1.8393820524215698,-1.2833884954452515,-0.21328216791152954
1684201182133910000,11.617909912109376,2.099307060241699,-0.9510585069656372,-0.12735138833522797
1684201182143935000,11.62793505859375,2.236356258392334,-0.20030221343040466,-0.08322706818580627
1684201182153961000,11.6379609375,2.2206294536590576,0.8087995052337646,-0.08996669203042984
1684201182163987000,11.647987060546875,2.081407308578491,1.7839412689208984,-0.034018732607364655
1684201182174013000,11.658012939453124,1.8984006643295288,2.348971128463745,0.05687198415398598
1684201182184038000,11.668037841796876,1.7231616973876953,2.2937726974487305,0.11268864572048187
1684201182194064000,11.67806396484375,1.5552685260772705,1.8808413743972778,0.11451791971921921
1684201182204089900,11.68808984375,1.4470951557159424,1.4707646369934082,0.02016824670135975
1684201182214115800,11.69811572265625,1.4190828800201416,1.155997633934021,-0.1166633814573288
1684201182224140800,11.708140869140625,1.4691932201385498,0.9500404000282288,-0.1964615434408188
1684201182234166800,11.718166748046874,1.505043625831604,0.8002517223358154,-0.22089412808418274
1684201182244192800,11.72819287109375,1.5065269470214844,0.6249800324440002,-0.2184930294752121
1684201182254218800,11.73821875,1.453979730606079,0.46703699231147766,-0.21271300315856934
1684201182264244000,11.748243896484375,1.345655918121338,0.31808558106422424,-0.17523273825645447
1684201182274269700,11.758269775390625,1.270517349243164,0.28241103887557983,-0.11306403577327728
1684201182284295700,11.768295654296875,1.23562490940094,0.3786563277244568,-0.034720491617918015
1684201182294321000,11.77832080078125,1.155949592590332,0.542020320892334,-0.012234268710017204
1684201182304347000,11.788346923828126,1.012954592704773,0.726421058177948,0.003945766016840935
1684201182314372900,11.798372802734375,0.8933676481246948,0.8496067523956299,0.01071185152977705
1684201182324398800,11.80839892578125,0.8062777519226074,0.8623561263084412,0.03758687525987625
1684201182334423800,11.818423828125,0.6604527235031128,0.8715413808822632,0.06460213661193848
1684201182344449800,11.82844970703125,0.5406272411346436,0.7730608582496643,0.12113145738840103
1684201182354475800,11.838475830078124,0.42994630336761475,0.6669325232505798,0.1758795827627182
1684201182364502000,11.848501953125,0.3221849501132965,0.6141574382781982,0.22153308987617493
1684201182374526700,11.858526611328125,0.21515634655952454,0.5645913481712341,0.2494463473558426
1684201182384553000,11.868552978515625,0.11083527654409409,0.4825361371040344,0.2733553946018219
1684201182394579000,11.878578857421875,-0.0031511210836470127,0.37003812193870544,0.3065658211708069
1684201182404605000,11.88860498046875,-0.1168087050318718,0.24072301387786865,0.3536638021469116
1684201182414630000,11.8986298828125,-0.23477917909622192,0.12399798631668091,0.3884410560131073
1684201182424656000,11.90865576171875,-0.3514789044857025,0.05332541838288307,0.4104752540588379
1684201182434681900,11.918681884765626,-0.46236515045166016,-0.0176484864205122,0.417527973651886
1684201182444707800,11.928707763671875,-0.5567262768745422,-0.13146933913230896,0.43686679005622864
1684201182454732800,11.93873291015625,-0.6414824724197388,-0.2953442931175232,0.4737064242362976
1684201182464758800,11.9487587890625,-0.7062351107597351,-0.45582398772239685,0.5014235377311707
1684201182474784800,11.95878466796875,-0.7641366720199585,-0.5693819522857666,0.5065882205963135
1684201182484810800,11.968810791015626,-0.8069339394569397,-0.6249973177909851,0.48300066590309143
1684201182494836000,11.9788359375,-0.8547803163528442,-0.652188777923584,0.4500373303890228
1684201182504862000,11.988862060546875,-0.9027416706085205,-0.6857845187187195,0.43424665927886963
1684201182514888000,11.998887939453125,-0.9560574889183044,-0.7395912408828735,0.44957250356674194
1684201182524913700,12.00891357421875,-0.9964648485183716,-0.8022234439849854,0.475460022687912
1684201182534939000,12.01893896484375,-1.0220955610275269,-0.8764878511428833,0.482700377702713
1684201182544964900,12.02896484375,-1.0357937812805176,-0.9542366862297058,0.46962904930114746
1684201182554990800,12.038990966796876,-1.0548057556152344,-1.003890872001648,0.4484226405620575
1684201182565016800,12.049016845703125,-1.098023533821106,-0.9874975085258484,0.423205703496933
1684201182575041800,12.059041748046875,-1.1664612293243408,-0.8875440955162048,0.3821934461593628
1684201182585067800,12.06906787109375,-1.2597124576568604,-0.7125669717788696,0.31697794795036316
1684201182595094000,12.079093994140624,-1.3500251770019531,-0.506170928478241,0.2337208390235901
1684201182605120000,12.0891201171875,-1.4336448907852173,-0.3303636908531189,0.1473286896944046
1684201182615145000,12.09914501953125,-1.5038080215454102,-0.21430984139442444,0.08037156611680984
1684201182625171000,12.1091708984375,-1.5437320470809937,-0.19988082349300385,0.043048154562711716
1684201182635197000,12.119197021484375,-1.5491435527801514,-0.1974976658821106,0.030382754281163216
1684201182645223000,12.129222900390625,-1.533421277999878,-0.19798262417316437,0.022001519799232483
1684201182655248000,12.139247802734374,-1.509845495223999,-0.1961980164051056,0.042031511664390564
1684201182665273900,12.14927392578125,-1.4711253643035889,-0.12150833755731583,0.09935925155878067
1684201182675299800,12.1592998046875,-1.4321043491363525,0.06484324485063553,0.1620219200849533
1684201182685325800,12.169325927734375,-1.3864330053329468,0.3836806118488312,0.19961963593959808
1684201182695350800,12.179350830078125,-1.3635205030441284,0.7395008206367493,0.18234692513942719
1684201182705376800,12.189376708984375,-1.339770793914795,0.9480788111686707,0.160264790058136
1684201182715402800,12.19940283203125,-1.245955467224121,0.8319879174232483,0.17517878115177155
1684201182725428700,12.2094287109375,-1.0355340242385864,0.40841373801231384,0.21359887719154358
1684201182735454000,12.219453857421875,-0.7568175196647644,0.027311692014336586,0.1452191025018692
1684201182745480000,12.22947998046875,-0.44873932003974915,-0.17316468060016632,-0.034451063722372055
1684201182755506000,12.239505859375,-0.15346413850784302,-0.39313066005706787,-0.1502930223941803
1684201182765532000,12.249531982421875,0.027962900698184967,-0.5801383256912231,-0.12274342030286789
1684201182775556900,12.259556884765624,0.07922574877738953,-0.5326327681541443,-0.07166730612516403
1684201182785582800,12.269582763671876,0.06825646013021469,-0.3076649010181427,-0.11499559879302979
1684201182795608800,12.27960888671875,0.08853811025619507,-0.07649338245391846,-0.20377413928508759
1684201182805634800,12.289634765625,0.10700792819261551,0.04722083359956741,-0.25894924998283386
1684201182815659800,12.29965966796875,0.06898737698793411,0.08429878950119019,-0.26840510964393616
1684201182825685800,12.309685791015625,-0.02339501492679119,0.13495610654354095,-0.237796351313591
1684201182835712000,12.3197119140625,-0.09887479990720749,0.28118565678596497,-0.1767047643661499
1684201182845738000,12.329738037109376,-0.14954543113708496,0.49878403544425964,-0.11195985972881317
1684201182855763000,12.339762939453125,-0.18062302470207214,0.7268561124801636,-0.07502884417772293
1684201182865789000,12.349788818359375,-0.22714178264141083,0.9041414260864258,-0.03187951073050499
1684201182875815000,12.35981494140625,-0.23928005993366241,1.0534676313400269,0.032479602843523026
1684201182885841000,12.3698408203125,-0.205746591091156,1.1598135232925415,0.11568314582109451
1684201182895865900,12.379865966796874,-0.15994596481323242,1.1394699811935425,0.20573925971984863
1684201182905891800,12.389891845703126,-0.10105256736278534,0.9799991250038147,0.3132753074169159
1684201182915917800,12.399917724609375,-0.04331040009856224,0.7190605401992798,0.4010821580886841
1684201182925943800,12.40994384765625,-0.0034165128599852324,0.5324685573577881,0.41921961307525635
1684201182935968800,12.41996875,0.06174110621213913,0.4767552316188812,0.35142841935157776
1684201182945994800,12.429994873046875,0.08047511428594589,0.49690550565719604,0.2071218490600586
1684201182956020700,12.440020751953124,0.0990002378821373,0.5938945412635803,0.07284305989742279
1684201182966046700,12.450046630859376,0.11100150644779205,0.729449987411499,0.012837778776884079
1684201182976072000,12.460072021484375,0.1018838882446289,0.9771829843521118,0.07357154041528702
1684201182986098000,12.470097900390625,0.06408671289682388,1.2539712190628052,0.23668670654296875
1684201182996124000,12.4801240234375,0.017535164952278137,0.8855780959129333,0.27541953325271606
1684201183006150000,12.49014990234375,-0.03713846579194069,0.3527064323425293,0.2652907371520996
1684201183016174800,12.5001748046875,0.006295491941273212,0.06388813257217407,0.340859055519104
