time,seconds_elapsed,z,y,x
1684200785360361500,0.027361572265625,-0.969469428062439,3.345472812652588,-0.0672619491815567
1684200785370387500,0.037387451171875,-1.377798318862915,3.7100276947021484,-0.052313096821308136
1684200785380413400,0.047413330078125,-1.904065728187561,4.198082447052002,-0.12381424754858017
1684200785390439400,0.057439453125,-2.6069769859313965,5.145656108856201,0.1453610360622406
1684200785400465400,0.06746533203125,-3.2734930515289307,5.9901299476623535,0.5548295378684998
1684200785410491400,0.077491455078125,-3.9126193523406982,6.600537300109863,1.039597511291504
1684200785420517400,0.087517333984375,-4.75400972366333,6.4411773681640625,1.2651264667510986
1684200785430543400,0.09754345703125,-5.70397424697876,6.325170040130615,1.4116836786270142
1684200785440569300,0.1075693359375,-6.610949993133545,5.97126579284668,1.4139167070388794
1684200785450596600,0.1175966796875,-7.231921672821045,5.5536208152771,1.3149720430374146
1684200785460622600,0.12762255859375,-7.604541778564453,5.21135139465332,1.0563334226608276
1684200785470648600,0.137648681640625,-7.895744800567627,5.06308650970459,0.6608589291572571
1684200785480674600,0.147674560546875,-8.182720184326172,4.9271039962768555,0.3168281614780426
1684200785490700500,0.157700439453125,-8.512866973876953,4.670153617858887,0.13380907475948334
1684200785500726500,0.1677265625,-8.72825813293457,4.368173122406006,0.18075110018253326
1684200785510752500,0.17775244140625,-8.741823196411133,3.8058154582977295,0.4115728735923767
1684200785520778500,0.187778564453125,-8.786642074584961,2.8657875061035156,0.6054934859275818
1684200785530804500,0.197804443359375,-8.845294952392578,1.6923054456710815,0.5407373905181885
1684200785540830000,0.207829833984375,-8.686638832092285,0.811207115650177,0.2669107913970947
1684200785550856000,0.21785595703125,-8.180765151977539,0.48537445068359375,0.090120330452919
1684200785560882000,0.2278818359375,-7.493513107299805,0.5778172016143799,0.26620811223983765
1684200785570908700,0.23790869140625,-6.800220489501953,0.9311113357543945,0.8602216243743896
1684200785580934700,0.2479345703125,-6.239690780639648,1.2699363231658936,1.7931294441223145
1684200785590960600,0.257960693359375,-5.861154079437256,1.397507667541504,2.767813205718994
1684200785600986600,0.267986572265625,-5.695913314819336,1.2627553939819336,3.3765110969543457
1684200785611012900,0.278012939453125,-5.747865200042725,1.0084096193313599,3.5680510997772217
1684200785621038800,0.288038818359375,-5.780124187469482,0.6896679997444153,3.4435904026031494
1684200785631064800,0.29806494140625,-5.604304790496826,0.14940527081489563,2.937566041946411
1684200785641090800,0.3080908203125,-5.141025543212891,-0.6100077033042908,1.927838921546936
1684200785651116800,0.31811669921875,-4.367887496948242,-1.5488585233688354,0.8072207570075989
1684200785661142800,0.328142822265625,-3.308769941329956,-1.9595398902893066,0.02120809257030487
1684200785671168800,0.338168701171875,-2.0486884117126465,-2.2980077266693115,-0.43902236223220825
1684200785681194800,0.34819482421875,-0.8425577282905579,-2.9259281158447266,-0.8237779140472412
1684200785691220700,0.358220703125,0.07424234598875046,-3.3977901935577393,-1.064545750617981
1684200785701248000,0.368248046875,0.5847551226615906,-3.6047918796539307,-0.7795982360839844
1684200785711274000,0.37827392578125,0.7522439360618591,-3.9183123111724854,-0.11907194554805756
1684200785721300000,0.388300048828125,0.874325692653656,-4.097316265106201,0.3411458730697632
1684200785731326000,0.398325927734375,1.0324902534484863,-3.8633525371551514,0.5664746165275574
1684200785741352000,0.40835205078125,1.0355966091156006,-3.2473132610321045,0.791600227355957
1684200785751378000,0.4183779296875,0.9025205373764038,-2.5299289226531982,1.121700406074524
1684200785761404000,0.42840380859375,0.7991246581077576,-1.8577779531478882,1.535498857498169
1684200785771430000,0.438429931640625,0.8270476460456848,-1.339164137840271,1.9751322269439697
1684200785781456000,0.448455810546875,0.9675095081329346,-0.9148699045181274,2.353184223175049
1684200785791481900,0.45848193359375,1.187672734260559,-0.8408936858177185,2.552515745162964
1684200785801507800,0.4685078125,1.4398328065872192,-0.7772834897041321,2.48279070854187
1684200785811533800,0.478533935546875,1.7871543169021606,-0.8552001118659973,2.2993454933166504
1684200785821559800,0.488559814453125,2.2283577919006348,-0.7755847573280334,1.9837344884872437
1684200785831586800,0.4985869140625,2.6040313243865967,-0.5924423336982727,1.5711311101913452
1684200785841612800,0.50861279296875,2.421043634414673,-0.40286365151405334,0.6361310482025146
1684200785851638800,0.518638671875,1.8637770414352417,-0.04685016721487045,-0.5909614562988281
1684200785861664800,0.528664794921875,1.5104438066482544,0.5477700233459473,-1.072259545326233
1684200785871690800,0.538690673828125,1.3604044914245605,1.4525508880615234,-0.6053336262702942
1684200785881716700,0.548716796875,1.2486590147018433,2.1982028484344482,-0.1577513962984085
1684200785891743000,0.558742919921875,1.235093116760254,2.5671226978302,0.12814825773239136
1684200785901769000,0.56876904296875,1.5400843620300293,2.6072030067443848,0.2631566822528839
1684200785911795000,0.578794921875,2.1537256240844727,2.856938600540161,0.5475332736968994
1684200785921821000,0.588821044921875,2.2227256298065186,3.2600769996643066,0.6427373886108398
1684200785931847000,0.598846923828125,1.91579270362854,3.118618965148926,0.03391584753990173
1684200785941873000,0.608872802734375,1.7473289966583252,3.071228265762329,0.007628710009157658
1684200785951899000,0.61889892578125,1.4591842889785767,3.3595409393310547,0.41802290081977844
1684200785961925600,0.628925537109375,1.1317439079284668,3.4832537174224854,0.8540046215057373
1684200785971951600,0.63895166015625,0.7960814833641052,3.1171109676361084,1.0192114114761353
1684200785981977900,0.648977783203125,0.5569444894790649,2.492492437362671,0.8023605942726135
1684200785992003800,0.65900390625,0.7576102614402771,2.025556802749634,0.47328341007232666
1684200786002029800,0.66902978515625,1.2492296695709229,1.8453407287597656,0.23352544009685516
1684200786012055800,0.679055908203125,2.295461654663086,1.4522459506988525,0.14294973015785217
1684200786022081800,0.689081787109375,2.563206911087036,0.9972524046897888,0.11917991191148758
1684200786032107800,0.699107666015625,2.9008755683898926,0.17481179535388947,0.4721300005912781
1684200786042133800,0.7091337890625,2.344944953918457,-0.49396035075187683,1.2416784763336182
1684200786052159700,0.71915966796875,1.2732313871383667,0.19363828003406525,1.503554344177246
1684200786062185700,0.729185791015625,0.3135417401790619,1.2712918519973755,1.3705949783325195
1684200786072211700,0.739211669921875,-0.45287978649139404,1.5053954124450684,1.0307490825653076
1684200786082237700,0.74923779296875,-0.9967517256736755,1.0705007314682007,0.5837504863739014
1684200786092265000,0.759264892578125,-1.3094069957733154,0.6515805125236511,-0.01367269828915596
1684200786102291000,0.769291015625,-1.588180661201477,0.3596198558807373,-0.6973668336868286
1684200786112317000,0.77931689453125,-2.104090929031372,0.4583696126937866,-1.4167933464050293
1684200786122343000,0.789343017578125,-2.564345359802246,0.8496947884559631,-2.0915610790252686
1684200786132369000,0.799368896484375,-3.1871964931488037,1.0786514282226562,-2.605769157409668
1684200786142395000,0.809394775390625,-3.6682729721069336,1.8174200057983398,-3.002030372619629
1684200786152420900,0.8194208984375,-4.185693740844727,0.8426820039749146,-3.261253833770752
1684200786162446800,0.82944677734375,-4.51757287979126,0.03285234421491623,-3.0561444759368896
1684200786172472800,0.839472900390625,-4.199080944061279,0.3087611496448517,-2.5497701168060303
1684200786182498800,0.849498779296875,-3.119912624359131,0.9628683924674988,-1.7549697160720825
1684200786192524800,0.85952490234375,-1.8910526037216187,1.093553900718689,-0.841609001159668
1684200786202550800,0.86955078125,-1.283408284187317,1.093405842781067,0.00459328293800354
1684200786212576800,0.87957666015625,-1.08846914768219,1.3869128227233887,0.5049216151237488
1684200786222603800,0.889603759765625,-0.9280205965042114,1.67144775390625,0.5525859594345093
1684200786232629800,0.899629638671875,-0.9810832738876343,1.5443552732467651,0.49491870403289795
1684200786242655700,0.90965576171875,-2.03170108795166,0.41345858573913574,0.9380569458007812
1684200786252681700,0.919681640625,-2.915524482727051,0.04265548661351204,1.3432390689849854
1684200786262708000,0.9297080078125,-3.1650326251983643,-0.21228688955307007,1.4237180948257446
1684200786272734000,0.93973388671875,-2.966404914855957,-0.22940008342266083,0.9952973127365112
1684200786282760000,0.949760009765625,-2.789271354675293,0.0762559026479721,0.026030415669083595
1684200786292786000,0.959785888671875,-3.036223888397217,0.34280771017074585,-1.2428470849990845
1684200786302812000,0.96981201171875,-3.6693851947784424,0.8692383170127869,-2.5602378845214844
1684200786312838000,0.979837890625,-4.195109844207764,1.4275548458099365,-3.566862106323242
1684200786322863900,0.98986376953125,-3.7960927486419678,1.5849716663360596,-3.6804683208465576
1684200786332889900,0.999889892578125,-1.865272045135498,-0.6495281457901001,-1.4943370819091797
1684200786342915800,1.009915771484375,0.9890447854995728,-2.245593309402466,2.2507007122039795
1684200786352942800,1.01994287109375,1.922264575958252,-1.6969727277755737,3.5806403160095215
1684200786362968800,1.02996875,1.7163951396942139,-1.326790452003479,3.3738443851470947
1684200786372994800,1.039994873046875,1.2591856718063354,-1.247843623161316,2.7204151153564453
1684200786383020800,1.050020751953125,0.7232481241226196,-0.951827347278595,2.1703438758850098
1684200786393046800,1.060046875,0.3917202949523926,-0.38438844680786133,1.7552008628845215
1684200786403072800,1.07007275390625,0.4326232075691223,-0.051730573177337646,1.4865306615829468
1684200786413098800,1.0800986328125,0.7612878680229187,0.06994366645812988,1.2790955305099487
1684200786423124700,1.090124755859375,1.018007516860962,0.08166464418172836,1.062394380569458
1684200786433150700,1.100150634765625,0.8747908473014832,-0.08581329882144928,0.7511195540428162
1684200786443176700,1.1101767578125,0.4066590666770935,-0.386067658662796,0.37642985582351685
1684200786453202700,1.12020263671875,-0.03716735914349556,-0.5115467309951782,0.012815162539482117
1684200786463229000,1.13022900390625,-0.21541105210781097,0.15297585725784302,-0.05747939646244049
1684200786473255000,1.1402548828125,-0.48246803879737854,0.8623884320259094,-0.06935709714889526
1684200786483282000,1.150281982421875,-1.1831711530685425,1.1435797214508057,-0.2321639060974121
1684200786493308000,1.160307861328125,-2.0233154296875,1.1913442611694336,-0.36120712757110596
1684200786503334000,1.170333984375,-2.9441006183624268,0.9315404891967773,-0.4166542887687683
1684200786513360000,1.18035986328125,-2.907971143722534,1.1545543670654297,-0.037375401705503464
1684200786523385900,1.1903857421875,-2.9350218772888184,0.6219803094863892,0.07856692373752594
1684200786533411800,1.200411865234375,-3.0370945930480957,0.2534903883934021,0.09038177132606506
1684200786543438600,1.2104384765625,-2.8191580772399902,0.21287180483341217,0.008812418207526207
1684200786553464600,1.220464599609375,-2.272024154663086,0.018422696739435196,-0.17368336021900177
1684200786563490600,1.230490478515625,-1.4588005542755127,-0.08003780245780945,-0.21257565915584564
1684200786573516500,1.2405166015625,-0.702278733253479,-0.09170138090848923,-0.1041027083992958
1684200786583542500,1.25054248046875,-0.1953115463256836,-0.17370449006557465,-0.012941384688019753
1684200786593568500,1.260568603515625,0.1261061578989029,-0.5655508041381836,-0.11214253306388855
1684200786603594500,1.270594482421875,0.29780158400535583,-1.0712038278579712,-0.3737648129463196
1684200786613621800,1.280621826171875,0.4865315556526184,-1.2842137813568115,-0.5391317009925842
1684200786623647700,1.290647705078125,0.7287407517433167,-1.2730528116226196,-0.5508115887641907
1684200786633673700,1.300673828125,1.054120421409607,-1.163204312324524,-0.4407641291618347
1684200786643699700,1.31069970703125,1.3780972957611084,-0.9588019251823425,-0.22199581563472748
1684200786653725700,1.3207255859375,1.505523681640625,-0.7424381971359253,-0.07514060288667679
1684200786663751700,1.330751708984375,1.3832367658615112,-0.5425074100494385,-0.1191481277346611
1684200786673777700,1.340777587890625,1.0404058694839478,-0.10966570675373077,-0.34918850660324097
1684200786683803600,1.3508037109375,0.5776070356369019,0.17608001828193665,-0.5905753374099731
1684200786693829600,1.36082958984375,-0.0061986432410776615,0.2939421832561493,-0.7795247435569763
1684200786703855600,1.370855712890625,-0.5177517533302307,0.6961446404457092,-0.76789790391922
1684200786713881900,1.3808818359375,-1.0490641593933105,0.6911509037017822,-0.8544018864631653
1684200786723907600,1.390907470703125,-1.3811553716659546,0.587953507900238,-0.8887535333633423
1684200786733933600,1.40093359375,-1.4369392395019531,0.6459230780601501,-0.7149657011032104
1684200786743959600,1.41095947265625,-1.331928014755249,0.9688474535942078,-0.394650936126709
1684200786753986600,1.420986572265625,-1.2246735095977783,1.3379900455474854,-0.04864080250263214
1684200786764012500,1.431012451171875,-1.299118995666504,1.403113842010498,0.19967608153820038
1684200786774038500,1.44103857421875,-1.5662119388580322,1.3419357538223267,0.35853445529937744
1684200786784064500,1.451064453125,-1.870670199394226,1.1949478387832642,0.45172661542892456
1684200786794090500,1.461090576171875,-2.0869088172912598,1.152358889579773,0.566476583480835
1684200786804116700,1.47111669921875,-2.1597886085510254,1.5446871519088745,0.891278088092804
1684200786814142700,1.481142822265625,-2.011976957321167,1.7657899856567383,1.235487699508667
1684200786824168700,1.491168701171875,-1.8234299421310425,1.6162935495376587,1.4529480934143066
1684200786834194700,1.501194580078125,-1.7267502546310425,1.2243928909301758,1.569618821144104
1684200786844220700,1.511220703125,-1.9904699325561523,0.8293119072914124,1.5474989414215088
1684200786854246700,1.52124658203125,-2.081117868423462,0.5058563351631165,1.5750058889389038
1684200786864272600,1.531272705078125,-2.2368369102478027,0.16628873348236084,1.5185949802398682
1684200786874298600,1.541298583984375,-2.658236265182495,-0.16099804639816284,1.5161395072937012
1684200786884324600,1.55132470703125,-2.910417318344116,-0.3810708224773407,1.5221301317214966
1684200786894351600,1.5613515625,-2.989773988723755,-0.36068540811538696,1.5650653839111328
1684200786904377600,1.571377685546875,-3.1090281009674072,-0.06377048790454865,1.6427360773086548
1684200786914403600,1.581403564453125,-3.350454807281494,0.4332033395767212,1.828773856163025
1684200786924429600,1.5914296875,-3.7571442127227783,1.2118860483169556,2.0439419746398926
1684200786934455600,1.60145556640625,-4.3695855140686035,2.0088233947753906,2.3295843601226807
1684200786944481500,1.6114814453125,-5.075057029724121,2.714005470275879,2.938871383666992
1684200786954507500,1.621507568359375,-5.4990034103393555,3.235898971557617,3.760723352432251
1684200786964533500,1.631533447265625,-4.660763740539551,4.136449813842773,4.486526966094971
1684200786974559500,1.6415595703125,-2.48732328414917,5.376330375671387,4.867071628570557
1684200786984585500,1.65158544921875,0.1405443400144577,5.59543514251709,3.8819706439971924
1684200786994611700,1.66161181640625,1.5826820135116577,3.6083576679229736,1.5373717546463013
1684200787004637700,1.6716376953125,1.5499541759490967,0.6800305247306824,-0.8223437070846558
1684200787014663700,1.68166357421875,0.9269862174987793,-1.344105839729309,-2.2068240642547607
1684200787024689700,1.691689697265625,0.552581787109375,-1.9771220684051514,-2.5306453704833984
1684200787034716700,1.701716552734375,0.6496534943580627,-1.757582187652588,-2.240108013153076
1684200787044742700,1.71174267578125,0.9879163503646851,-1.1759148836135864,-1.6646993160247803
1684200787054768600,1.7217685546875,1.3427895307540894,-0.5636104941368103,-1.061078429222107
1684200787064794600,1.731794677734375,1.6800028085708618,-0.0918414518237114,-0.5566909313201904
1684200787074820600,1.741820556640625,2.060291051864624,0.18954122066497803,-0.1845317780971527
1684200787084846800,1.751846923828125,2.50288724899292,0.2373388409614563,0.004621909931302071
1684200787094872800,1.761872802734375,2.9242236614227295,-0.03228757902979851,-0.02691710740327835
1684200787104898800,1.77189892578125,3.2565548419952393,-1.1143171787261963,-0.30053070187568665
1684200787114924500,1.781924560546875,3.3574085235595703,-2.6084365844726562,-0.6046496033668518
1684200787124950500,1.791950439453125,3.2063043117523193,-3.139578342437744,-0.551638126373291
1684200787134976500,1.8019765625,2.9397709369659424,-3.111684799194336,-0.47016164660453796
1684200787145002500,1.81200244140625,2.4660027027130127,-2.982353925704956,-0.8318411111831665
1684200787155028500,1.822028564453125,1.8282153606414795,-2.667968511581421,-1.6108686923980713
1684200787165055500,1.832055419921875,1.3181666135787964,-2.1020076274871826,-2.4147071838378906
1684200787175081700,1.842081787109375,1.1432055234909058,-1.3425991535186768,-3.1254262924194336
1684200787185107700,1.852107666015625,1.1463228464126587,-0.33700793981552124,-3.68143367767334
1684200787195133700,1.8621337890625,1.2367863655090332,0.7305150628089905,-4.072021007537842
1684200787205159700,1.87215966796875,1.3434168100357056,1.5570272207260132,-4.336429595947266
1684200787215185700,1.882185546875,1.4087010622024536,1.8466044664382935,-4.347129821777344
1684200787225211600,1.892211669921875,1.4709984064102173,1.4967496395111084,-3.984795570373535
1684200787235237600,1.902237548828125,1.5856983661651611,0.832019567489624,-3.2721705436706543
1684200787245263600,1.912263671875,1.6396467685699463,0.2407110333442688,-2.555475950241089
1684200787255289600,1.92228955078125,1.6072862148284912,0.15588882565498352,-1.984452247619629
1684200787265315600,1.932315673828125,1.465422511100769,0.6085403561592102,-1.6249902248382568
1684200787275341600,1.942341552734375,1.2493780851364136,1.364775538444519,-1.403457522392273
1684200787285367800,1.952367919921875,1.09945809841156,1.9136347770690918,-1.1888424158096313
1684200787295393800,1.962393798828125,1.1253349781036377,2.16884183883667,-0.9910436272621155
1684200787305420500,1.972420654296875,1.3093018531799316,1.8968064785003662,-0.9805213212966919
1684200787315446500,1.982446533203125,1.402072548866272,1.4845020771026611,-1.1090033054351807
1684200787325472500,1.992472412109375,1.4404603242874146,1.4849671125411987,-1.137298345565796
1684200787335498500,2.00249853515625,1.506766676902771,1.7375932931900024,-1.115239143371582
1684200787345524500,2.0125244140625,1.5418592691421509,2.060309886932373,-1.1476727724075317
1684200787355550500,2.022550537109375,1.513698697090149,2.28647518157959,-1.2191472053527832
1684200787365576700,2.03257666015625,1.4547487497329712,2.3851842880249023,-1.2239893674850464
1684200787375602700,2.042602783203125,1.3870935440063477,2.3440659046173096,-1.1150490045547485
1684200787385628700,2.052628662109375,1.2939168214797974,2.2447946071624756,-0.92584228515625
1684200787395654700,2.062654541015625,1.1966091394424438,2.2576277256011963,-0.7077928185462952
1684200787405680600,2.0726806640625,1.1023699045181274,2.2834620475769043,-0.5856243371963501
1684200787415706600,2.08270654296875,1.073935866355896,2.232515335083008,-0.5587087869644165
1684200787425732600,2.092732666015625,1.068617820739746,2.05251407623291,-0.6000834703445435
1684200787435758600,2.102758544921875,1.0225582122802734,1.8577916622161865,-0.6489633917808533
1684200787445785600,2.11278564453125,0.9299591183662415,1.7492423057556152,-0.6893739700317383
1684200787455811800,2.122811767578125,0.8180035352706909,1.6828144788742065,-0.6955626606941223
1684200787465837800,2.132837890625,0.7333438992500305,1.6328891515731812,-0.6891504526138306
1684200787475863800,2.14286376953125,0.6573657989501953,1.5373785495758057,-0.6832854151725769
1684200787485889800,2.152889892578125,0.6150995492935181,1.339218258857727,-0.5899174809455872
1684200787495915800,2.162915771484375,0.6014511585235596,0.9954579472541809,-0.3522380590438843
1684200787505941500,2.17294140625,0.5309796333312988,0.5548937320709229,-0.12065557390451431
1684200787515967500,2.182967529296875,0.46418917179107666,0.26252633333206177,0.020937781780958176
1684200787525993500,2.192993408203125,0.4060411751270294,0.10553206503391266,0.061373475939035416
1684200787536019500,2.20301953125,0.3198242485523224,0.031790997833013535,0.03287605196237564
1684200787546045200,2.213045166015625,0.2619582712650299,0.022287921980023384,0.011188988573849201
1684200787556071200,2.2230712890625,0.24971383810043335,0.007264496758580208,0.0632772222161293
1684200787566097200,2.23309716796875,0.2382749617099762,-0.014848900027573109,0.20759747922420502
1684200787576123400,2.243123291015625,0.17190206050872803,0.031122853979468346,0.4339347183704376
1684200787586150400,2.253150390625,0.08127447962760925,0.15716733038425446,0.6617777943611145
1684200787596176400,2.26317626953125,-0.028404347598552704,0.26557233929634094,0.8470368981361389
1684200787606202400,2.273202392578125,-0.1428317129611969,0.2184244841337204,0.9888161420822144
1684200787616228400,2.283228271484375,-0.2401803731918335,-0.03370949998497963,1.0888288021087646
1684200787626254300,2.29325439453125,-0.32871729135513306,-0.4552077353000641,1.148244857788086
1684200787636280300,2.3032802734375,-0.3864324986934662,-0.932632327079773,1.1834275722503662
1684200787646306300,2.313306396484375,-0.39983606338500977,-1.3848514556884766,1.2012029886245728
1684200787656332500,2.32333251953125,-0.365001916885376,-1.7714476585388184,1.2184057235717773
1684200787666358500,2.333358642578125,-0.3056454360485077,-2.025059461593628,1.2490260601043701
1684200787676384500,2.343384521484375,-0.25004127621650696,-2.1223092079162598,1.288465142250061
1684200787686410500,2.353410400390625,-0.2233506441116333,-2.0764105319976807,1.326289415359497
1684200787696436500,2.3634365234375,-0.22546866536140442,-1.9012984037399292,1.364856481552124
1684200787706462500,2.37346240234375,-0.2730259597301483,-1.634887933731079,1.3901689052581787
1684200787716488400,2.383488525390625,-0.3434050679206848,-1.2444727420806885,1.4156551361083984
1684200787726514400,2.393514404296875,-0.3976825475692749,-0.8410294055938721,1.3822675943374634
1684200787736541200,2.403541259765625,-0.3862115144729614,-0.5938776731491089,1.2258459329605103
1684200787746567400,2.4135673828125,-0.3784334063529968,-0.5989534854888916,1.0779954195022583
1684200787756593400,2.423593505859375,-0.46923840045928955,-0.7374942898750305,1.064334511756897
1684200787766619400,2.433619384765625,-0.6539973020553589,-0.8533251881599426,1.1764860153198242
1684200787776645400,2.443645263671875,-0.8286694884300232,-0.923000693321228,1.358071208000183
1684200787786671400,2.45367138671875,-0.9662577509880066,-0.9828060865402222,1.5722522735595703
1684200787796697300,2.463697265625,-1.074796199798584,-1.0513825416564941,1.7537611722946167
1684200787806723300,2.473723388671875,-1.1548571586608887,-1.1115418672561646,1.8533438444137573
1684200787816749300,2.483749267578125,-1.1919989585876465,-1.163515329360962,1.8398029804229736
1684200787826775300,2.493775390625,-1.1521995067596436,-1.224854588508606,1.7051992416381836
1684200787836801300,2.50380126953125,-1.0233062505722046,-1.3074942827224731,1.4792251586914062
1684200787846827300,2.5138271484375,-0.9040529727935791,-1.4290553331375122,1.2563533782958984
1684200787856853500,2.523853515625,-0.8504233360290527,-1.587612271308899,1.07969331741333
1684200787866879500,2.53387939453125,-0.8478521108627319,-1.6675349473953247,0.939995288848877
1684200787876906500,2.543906494140625,-0.845222532749176,-1.5867280960083008,0.7871527075767517
1684200787886932500,2.553932373046875,-0.7782978415489197,-1.3005969524383545,0.5204583406448364
1684200787896958500,2.56395849609375,-0.5520561933517456,-0.8342953324317932,0.1290288120508194
1684200787906984400,2.573984375,-0.3037116527557373,-0.24559932947158813,-0.14222851395606995
1684200787917010400,2.584010498046875,-0.1446242481470108,0.19491146504878998,-0.19162483513355255
1684200787927036200,2.5940361328125,-0.10498026013374329,0.35992708802223206,-0.10534725338220596
1684200787937062100,2.604062255859375,-0.19364088773727417,0.28368985652923584,-0.022997785359621048
1684200787947088400,2.61408837890625,-0.32428649067878723,0.10954607278108597,0.029702799394726753
1684200787957114400,2.6241142578125,-0.4035227298736572,0.049363959580659866,0.11580625921487808
1684200787967140400,2.634140380859375,-0.42834171652793884,0.17822225391864777,0.2395065873861313
1684200787977166300,2.644166259765625,-0.46078968048095703,0.3532249629497528,0.35977253317832947
1684200787987192300,2.6541923828125,-0.5192848443984985,0.44437041878700256,0.45716699957847595
1684200787997218300,2.66421826171875,-0.581943154335022,0.43311432003974915,0.5229763388633728
1684200788007244300,2.674244384765625,-0.6235249042510986,0.28012722730636597,0.563433051109314
1684200788017270300,2.684270263671875,-0.6194175481796265,-0.01728474162518978,0.5720462203025818
1684200788027297300,2.69429736328125,-0.5697739720344543,-0.3927748501300812,0.5579354763031006
1684200788037323500,2.704323486328125,-0.47481414675712585,-0.7670214176177979,0.5193454623222351
1684200788047349500,2.714349609375,-0.3650082051753998,-1.0961471796035767,0.46154674887657166
1684200788057375500,2.72437548828125,-0.27968746423721313,-1.408454418182373,0.3904128968715668
1684200788067401500,2.7344013671875,-0.2503933310508728,-1.7377668619155884,0.2689049243927002
1684200788077427500,2.744427490234375,-0.2555156648159027,-1.9719399213790894,0.07182063162326813
1684200788087453400,2.754453369140625,-0.2535549998283386,-1.8835705518722534,-0.07708268612623215
1684200788097479400,2.7644794921875,-0.2263564169406891,-1.4568634033203125,-0.1251884251832962
1684200788107505400,2.77450537109375,-0.1899271458387375,-0.8627669215202332,-0.09773415327072144
1684200788117531400,2.784531494140625,-0.17040857672691345,-0.3278188109397888,-0.04462593048810959
1684200788127557400,2.794557373046875,-0.17610765993595123,0.04751972109079361,0.011646300554275513
1684200788137583600,2.80458349609375,-0.1977596879005432,0.271896630525589,0.06563843041658401
1684200788147609600,2.814609619140625,-0.21651649475097656,0.37112608551979065,0.12159350514411926
1684200788157635300,2.82463525390625,-0.24380244314670563,0.4668464958667755,0.1575150191783905
1684200788167662300,2.834662353515625,-0.27260494232177734,0.6306867599487305,0.16930913925170898
1684200788177688300,2.844688232421875,-0.3122205436229706,0.8090575933456421,0.17410843074321747
1684200788187714300,2.85471435546875,-0.37562963366508484,0.9031006097793579,0.1578741818666458
1684200788197740300,2.864740234375,-0.4463466703891754,0.8272771835327148,0.06273435056209564
1684200788207766300,2.874766357421875,-0.49514007568359375,0.8777496814727783,-0.0744672641158104
1684200788217792300,2.884792236328125,-0.5387454032897949,1.287597894668579,-0.19470925629138947
1684200788227818500,2.894818603515625,-0.5375522971153259,1.956160306930542,-0.25723305344581604
1684200788237844500,2.904844482421875,-0.5090652704238892,2.637883424758911,-0.23255379498004913
1684200788247870500,2.914870361328125,-0.37474268674850464,2.9236555099487305,-0.10246139764785767
1684200788257896400,2.924896484375,-0.10315988957881927,2.6156656742095947,0.041474465280771255
1684200788267922400,2.93492236328125,0.1480552703142166,1.9285662174224854,0.09888908267021179
1684200788277948400,2.944948486328125,0.3136810064315796,1.1292091608047485,0.06287648528814316
1684200788287974400,2.954974365234375,0.41102495789527893,0.4320412874221802,0.02574147842824459
1684200788298000400,2.96500048828125,0.47657305002212524,-0.15150922536849976,-0.022137895226478577
1684200788308026400,2.9750263671875,0.5409379005432129,-0.6032746434211731,-0.06268922239542007
1684200788318053400,2.985053466796875,0.5781254768371582,-0.8570573925971985,-0.06269854307174683
1684200788328079400,2.995079345703125,0.5794558525085449,-0.9572029113769531,-0.006988272070884705
1684200788338105300,3.005105224609375,0.5582746267318726,-1.0278106927871704,0.09314791858196259
1684200788348131300,3.01513134765625,0.4997791349887848,-1.0355039834976196,0.22330254316329956
1684200788358157300,3.0251572265625,0.41923636198043823,-0.9619349837303162,0.35596099495887756
1684200788368183300,3.035183349609375,0.3488002419471741,-0.83430415391922,0.4516195058822632
1684200788378209300,3.045209228515625,0.293851763010025,-0.6734704971313477,0.50984787940979
1684200788388235300,3.0552353515625,0.24678994715213776,-0.4877787232398987,0.518613338470459
1684200788398261200,3.06526123046875,0.19636858999729156,-0.2868650555610657,0.48387137055397034
1684200788408287200,3.075287353515625,0.14118385314941406,-0.11766242235898972,0.43606895208358765
1684200788418313200,3.085313232421875,0.07972794026136398,0.03526027873158455,0.42070144414901733
1684200788428339500,3.09533935546875,0.036060117185115814,0.15753625333309174,0.4540401101112366
1684200788438365400,3.105365478515625,0.00920080579817295,0.19559282064437866,0.5046308636665344
1684200788448391400,3.115391357421875,-0.0030057078693062067,0.08293072879314423,0.573311984539032
1684200788458417400,3.12541748046875,-0.003407312324270606,-0.20273803174495697,0.6391567587852478
1684200788468444400,3.1354443359375,0.0033297566697001457,-0.5341600775718689,0.6737858057022095
1684200788478470400,3.145470458984375,0.034647464752197266,-0.744184136390686,0.6184253692626953
1684200788488496400,3.155496337890625,0.07518436014652252,-0.744799792766571,0.4698525369167328
1684200788498522400,3.1655224609375,0.10167961567640305,-0.6140170097351074,0.27863410115242004
1684200788508548400,3.17554833984375,0.08704979717731476,-0.4661172032356262,0.1126585379242897
1684200788518574600,3.18557470703125,0.03831341862678528,-0.3679983615875244,0.023744110018014908
1684200788528600600,3.1956005859375,0.002549536060541868,-0.3395839035511017,0.016695376485586166
1684200788538626600,3.20562646484375,0.002512518083676696,-0.3587876856327057,0.06955219805240631
1684200788548651800,3.21565185546875,0.04848451539874077,-0.3730146884918213,0.12076890468597412
1684200788558677800,3.225677734375,0.10518747568130493,-0.3557736575603485,0.1465293914079666
1684200788568703700,3.235703857421875,0.1433447003364563,-0.314212828874588,0.15111806988716125
1684200788578729700,3.245729736328125,0.15162234008312225,-0.29766419529914856,0.15003283321857452
1684200788588755700,3.255755615234375,0.13115835189819336,-0.32499656081199646,0.1559588462114334
1684200788598782000,3.265781982421875,0.09050306677818298,-0.42478492856025696,0.16632147133350372
1684200788608807700,3.2758076171875,0.04618224874138832,-0.5382072925567627,0.1547248214483261
1684200788618834700,3.285834716796875,0.0035708709619939327,-0.6442935466766357,0.11064711213111877
1684200788628860700,3.295860595703125,-0.03763199597597122,-0.7123413681983948,0.028835516422986984
1684200788638886700,3.30588671875,-0.07355856895446777,-0.7032424211502075,-0.07906670868396759
1684200788648912600,3.31591259765625,-0.11091482639312744,-0.6443012952804565,-0.17006030678749084
1684200788658938600,3.325938720703125,-0.14794661104679108,-0.567173182964325,-0.22138157486915588
1684200788668964600,3.335964599609375,-0.18897224962711334,-0.4847176969051361,-0.22213700413703918
1684200788678990600,3.345990478515625,-0.22481679916381836,-0.3998986780643463,-0.18792922794818878
1684200788689016800,3.356016845703125,-0.24948818981647491,-0.28744545578956604,-0.13681669533252716
1684200788699042800,3.366042724609375,-0.2590947449207306,-0.16079537570476532,-0.08288129419088364
1684200788709068800,3.37606884765625,-0.2606872618198395,-0.04991069436073303,-0.03455767780542374
1684200788719094800,3.3860947265625,-0.2560531198978424,0.03210587799549103,0.009989015758037567
1684200788729120800,3.396120849609375,-0.2923775613307953,0.10760470479726791,0.03435087576508522
1684200788739146800,3.406146728515625,-0.3151417374610901,0.16420486569404602,0.057543545961380005
1684200788749172700,3.4161728515625,-0.3033156394958496,0.17662283778190613,0.09692766517400742
1684200788759198700,3.42619873046875,-0.27142882347106934,0.1471427083015442,0.14781321585178375
1684200788769225500,3.4362255859375,-0.24773983657360077,0.07038546353578568,0.20525042712688446
1684200788779251700,3.446251708984375,-0.23011982440948486,-0.06474865227937698,0.25261151790618896
1684200788789277700,3.456277587890625,-0.2125648856163025,-0.23434117436408997,0.2942483723163605
1684200788799303700,3.4663037109375,-0.19551587104797363,-0.39354416728019714,0.3192541003227234
1684200788809329700,3.47632958984375,-0.18133027851581573,-0.5033541917800903,0.3292495608329773
1684200788819355600,3.486355712890625,-0.16275793313980103,-0.5631908774375916,0.31352970004081726
1684200788829381600,3.496381591796875,-0.1405133306980133,-0.5701950788497925,0.26389551162719727
1684200788839407600,3.50640771484375,-0.09103153645992279,-0.5144479274749756,0.16772210597991943
1684200788849433600,3.51643359375,-0.035132087767124176,-0.41247817873954773,0.038823168724775314
1684200788859459600,3.52645947265625,0.024203142151236534,-0.29522693157196045,-0.07814392447471619
1684200788869485600,3.536485595703125,0.06733625382184982,-0.16628482937812805,-0.17050620913505554
1684200788879511600,3.546511474609375,0.1255798637866974,-0.0508279986679554,-0.2264845222234726
1684200788889537800,3.556537841796875,0.17967382073402405,0.056698404252529144,-0.2356441468000412
1684200788899563800,3.566563720703125,0.226899653673172,0.1290261298418045,-0.23760396242141724
1684200788909589800,3.57658984375,0.25524768233299255,0.17284803092479706,-0.24032317101955414
1684200788919616800,3.58661669921875,0.25658512115478516,0.22097907960414886,-0.24271069467067719
1684200788929642800,3.596642822265625,0.23193450272083282,0.2574737071990967,-0.24818363785743713
1684200788939668700,3.606668701171875,0.21485991775989532,0.2737829089164734,-0.25825783610343933
1684200788949694700,3.61669482421875,0.23081597685813904,0.236530601978302,-0.26876455545425415
1684200788959720700,3.626720703125,0.2557820677757263,0.11116363853216171,-0.2703368663787842
1684200788969747000,3.636746826171875,0.2626979351043701,-0.08113233000040054,-0.27022993564605713
1684200788979773000,3.64677294921875,0.25350311398506165,-0.3391082286834717,-0.28516653180122375
1684200788989799000,3.656798828125,0.24505308270454407,-0.6665633320808411,-0.3844652473926544
1684200788999824600,3.66682470703125,0.28258952498435974,-0.8378147482872009,-1.3772690296173096
1684200789009850600,3.6768505859375,0.4135914146900177,-0.37153977155685425,-2.7421059608459473
1684200789019876600,3.686876708984375,0.49306759238243103,0.014516310766339302,-3.287048578262329
1684200789029902600,3.696902587890625,0.5019363760948181,0.18298211693763733,-3.1688497066497803
1684200789039928600,3.706928466796875,0.5234286785125732,0.12324582040309906,-2.8343381881713867
1684200789049954600,3.71695458984375,0.5818473696708679,0.16144566237926483,-2.4832608699798584
1684200789059980500,3.72698046875,0.6041598320007324,0.23821847140789032,-2.3427329063415527
1684200789070007800,3.7370078125,0.5896145701408386,0.23927311599254608,-2.4658305644989014
1684200789080033800,3.74703369140625,0.5789970755577087,0.18287642300128937,-2.5841684341430664
1684200789090059800,3.757059814453125,0.6159413456916809,0.25284817814826965,-2.6141834259033203
1684200789100085800,3.767085693359375,0.6388285160064697,0.49666324257850647,-2.487553358078003
1684200789110111700,3.77711181640625,0.5962563157081604,0.7608305215835571,-2.254688024520874
1684200789120137700,3.7871376953125,0.652182936668396,0.609844982624054,-1.9941356182098389
1684200789130163700,3.797163818359375,0.8598607778549194,0.15106888115406036,-1.709834337234497
1684200789140189700,3.807189697265625,1.168446660041809,-0.202034592628479,-1.5343708992004395
1684200789150215700,3.817215576171875,1.4841673374176025,-0.05644650012254715,-1.4142956733703613
1684200789160241700,3.82724169921875,1.6629765033721924,0.38207679986953735,-1.3397146463394165
1684200789170268000,3.837267822265625,1.6842420101165771,0.8797831535339355,-1.2770024538040161
1684200789180294000,3.8472939453125,1.6273860931396484,1.354498028755188,-1.186004877090454
1684200789190319900,3.85731982421875,1.520148515701294,1.707244634628296,-1.0902466773986816
1684200789200345900,3.867345947265625,1.4252033233642578,2.0103189945220947,-0.9855777621269226
1684200789210371800,3.877371826171875,1.3995310068130493,2.2106435298919678,-0.8945309519767761
1684200789220398600,3.887398681640625,1.3933300971984863,2.104414224624634,-0.8404147028923035
1684200789230424600,3.897424560546875,1.392831563949585,1.902130126953125,-0.7818613052368164
1684200789240450600,3.907450439453125,1.3876844644546509,1.7350143194198608,-0.7698488831520081
1684200789250476500,3.9174765625,1.3826135396957397,1.7439674139022827,-0.790186882019043
1684200789260502800,3.927502685546875,1.4071567058563232,1.8877429962158203,-0.768604576587677
1684200789270528800,3.93752880859375,1.4267663955688477,2.082693099975586,-0.7393172383308411
1684200789280554800,3.9475546875,1.389633059501648,2.200272560119629,-0.7573868036270142
1684200789290580700,3.957580810546875,1.329522728919983,2.237152338027954,-0.7689198851585388
1684200789300606700,3.967606689453125,1.222137689590454,2.1387147903442383,-0.7791901230812073
1684200789310632700,3.9776328125,1.0718790292739868,1.9399917125701904,-0.7509804964065552
1684200789320658700,3.98765869140625,0.9537873268127441,1.8062323331832886,-0.6743112802505493
1684200789330684700,3.9976845703125,0.8711704015731812,1.6997236013412476,-0.5804339647293091
1684200789340710700,4.007710693359375,0.8175822496414185,1.6230846643447876,-0.4522148072719574
1684200789350736600,4.017736572265625,0.773215651512146,1.5068846940994263,-0.3368922472000122
1684200789360762600,4.0277626953125,0.687370777130127,1.2904200553894043,-0.23742052912712097
1684200789370788900,4.037788818359375,0.5873780846595764,1.1451919078826904,-0.12363310158252716
1684200789380816000,4.04781591796875,0.4721362292766571,0.9459437727928162,-0.0037442478351294994
1684200789390841600,4.057841552734375,0.3553408980369568,0.660693883895874,0.1015547513961792
1684200789400867600,4.06786767578125,0.2639939486980438,0.46710580587387085,0.20856855809688568
1684200789410893600,4.0778935546875,0.17977939546108246,0.3185324966907501,0.30484673380851746
1684200789420919600,4.08791943359375,0.13106858730316162,0.19085733592510223,0.4233941435813904
1684200789430945500,4.097945556640625,0.10730516910552979,0.05801583454012871,0.5560641884803772
1684200789440971500,4.107971435546875,0.07734140753746033,-0.07391051203012466,0.7108268737792969
1684200789450997800,4.117997802734375,0.04158162325620651,-0.21040888130664825,0.8808733224868774
1684200789461023700,4.128023681640625,-0.01126614399254322,-0.369524747133255,1.02848219871521
1684200789471049700,4.1380498046875,-0.09706374257802963,-0.5576840043067932,1.150910496711731
1684200789481075700,4.14807568359375,-0.2526770234107971,-0.77914959192276,1.2598974704742432
1684200789491101700,4.158101806640625,-0.33603909611701965,-1.0390243530273438,1.3201981782913208
1684200789501127700,4.168127685546875,-0.40617635846138,-1.285134196281433,1.3704123497009277
1684200789511153700,4.178153564453125,-0.5065334439277649,-1.4904011487960815,1.459503173828125
1684200789521179600,4.1881796875,-0.5701161623001099,-1.6984132528305054,1.5165510177612305
1684200789531205600,4.19820556640625,-0.5471912026405334,-1.8713319301605225,1.5471508502960205
1684200789541233000,4.20823291015625,-0.45504501461982727,-1.953845739364624,1.6114118099212646
1684200789551258600,4.218258544921875,-0.3973383903503418,-2.005117654800415,1.6756627559661865
1684200789561284600,4.22828466796875,-0.4126121401786804,-2.020841360092163,1.6715127229690552
1684200789571310600,4.238310546875,-0.4670466184616089,-1.9796441793441772,1.5915191173553467
1684200789581336800,4.2483369140625,-0.5313582420349121,-1.8844010829925537,1.4645835161209106
1684200789591362800,4.25836279296875,-0.5937536954879761,-1.714726209640503,1.3016598224639893
1684200789601388800,4.268388916015625,-0.6479908227920532,-1.5187276601791382,1.151197075843811
1684200789611414800,4.278414794921875,-0.6777729988098145,-1.3531653881072998,1.0890324115753174
1684200789621440800,4.288440673828125,-0.6880671381950378,-1.247209906578064,1.1515299081802368
1684200789631466800,4.298466796875,-0.7032462358474731,-1.176054835319519,1.319889783859253
1684200789641492500,4.308492431640625,-0.7498161196708679,-1.1099709272384644,1.5118000507354736
1684200789651518500,4.3185185546875,-0.8217943906784058,-1.0453321933746338,1.6577296257019043
1684200789661544400,4.32854443359375,-0.8904054164886475,-0.9740633964538574,1.6979361772537231
1684200789671570400,4.3385703125,-0.9411134123802185,-0.8636814951896667,1.6199121475219727
1684200789681596400,4.348596435546875,-0.9933129549026489,-0.7135987877845764,1.4534107446670532
1684200789691622700,4.35862255859375,-1.04679274559021,-0.5796878933906555,1.235595941543579
1684200789701649700,4.368649658203125,-1.062375783920288,-0.48650094866752625,1.0123131275177002
1684200789711675600,4.378675537109375,-1.024013638496399,-0.458385169506073,0.8439599871635437
1684200789721701600,4.38870166015625,-0.9672296643257141,-0.46054819226264954,0.7664473056793213
1684200789731727600,4.3987275390625,-0.9040946364402771,-0.46507057547569275,0.7472363114356995
1684200789741753600,4.408753662109375,-0.8202418088912964,-0.4393812119960785,0.7134005427360535
1684200789751779600,4.418779541015625,-0.6644588112831116,-0.37011227011680603,0.5540528297424316
1684200789761805600,4.4288056640625,-0.43590524792671204,-0.24604012072086334,0.28395771980285645
1684200789771831600,4.43883154296875,-0.19633962213993073,-0.028803233057260513,0.010664226487278938
1684200789781857800,4.44885791015625,-0.06374295800924301,0.18827767670154572,-0.16002655029296875
1684200789791883800,4.4588837890625,-0.08494538813829422,0.27025604248046875,-0.16533079743385315
1684200789801909800,4.46890966796875,-0.19632117450237274,0.23966939747333527,-0.014105593785643578
1684200789811935700,4.478935791015625,-0.2692418694496155,0.21407170593738556,0.19989264011383057
1684200789821961700,4.488961669921875,-0.2958487272262573,0.3204399645328522,0.37817928194999695
1684200789831987700,4.49898779296875,-0.3356124460697174,0.5857614278793335,0.5092153549194336
1684200789842013700,4.509013671875,-0.36585983633995056,0.9320682883262634,0.6154943704605103
1684200789852039700,4.519039794921875,-0.37689265608787537,1.195508360862732,0.7021055221557617
1684200789862066700,4.529066650390625,-0.38118141889572144,1.230993390083313,0.7321502566337585
1684200789872092700,4.5390927734375,-0.3624964654445648,1.0090701580047607,0.6920135021209717
1684200789882118700,4.54911865234375,-0.3216656744480133,0.5984274744987488,0.6084812879562378
1684200789892144600,4.55914453125,-0.2433680295944214,0.11554410308599472,0.4855067729949951
1684200789902170600,4.569170654296875,-0.15040692687034607,-0.3612237870693207,0.321957528591156
1684200789912196600,4.579196533203125,-0.09785139560699463,-0.7270534634590149,0.1432984471321106
1684200789922222600,4.58922265625,-0.10593781620264053,-0.9123561978340149,-0.02204177901148796
1684200789932248600,4.59924853515625,-0.1702701598405838,-0.9334749579429626,-0.11217346042394638
1684200789942274600,4.609274658203125,-0.2513069808483124,-0.8858741521835327,-0.11543449759483337
1684200789952300500,4.619300537109375,-0.3234289288520813,-0.800481915473938,-0.05846653878688812
1684200789962326500,4.629326416015625,-0.3841617703437805,-0.6968221068382263,-0.0007478464394807816
1684200789972352800,4.639352783203125,-0.42820414900779724,-0.5602841973304749,0.03589669242501259
1684200789982378800,4.649378662109375,-0.437046617269516,-0.3406895697116852,0.024751894176006317
1684200789992404700,4.65940478515625,-0.42621228098869324,-0.0023967926390469074,-0.03215048462152481
1684200790002430700,4.6694306640625,-0.48469290137290955,0.5221580862998962,-0.13814562559127808
1684200790012456700,4.679456787109375,-0.6266005635261536,1.242194414138794,-0.28051865100860596
1684200790022483700,4.689483642578125,-0.7767011523246765,1.9481794834136963,-0.3593596816062927
1684200790032509400,4.699509521484375,-0.8730694055557251,2.4370572566986084,-0.3350365459918976
1684200790042535400,4.709535400390625,-0.8093223571777344,2.4527928829193115,-0.16279205679893494
1684200790052561400,4.7195615234375,-0.6236690282821655,1.9916870594024658,0.05617063492536545
1684200790062587600,4.729587646484375,-0.3939998745918274,1.3431814908981323,0.2117844671010971
1684200790072613600,4.739613525390625,-0.12335924059152603,0.7205671072006226,0.21776671707630157
1684200790082639600,4.7496396484375,0.13001684844493866,0.15689469873905182,0.14591889083385468
1684200790092665600,4.75966552734375,0.2797100245952606,-0.3427410125732422,0.09424667805433273
1684200790102691600,4.769691650390625,0.34791943430900574,-0.7308594584465027,0.0880521684885025
1684200790112717600,4.779717529296875,0.37592244148254395,-0.9906966090202332,0.12438233941793442
1684200790122743600,4.78974365234375,0.3740963041782379,-1.1060693264007568,0.19370070099830627
1684200790132769500,4.79976953125,0.371545672416687,-1.1728154420852661,0.2948703169822693
1684200790142795500,4.80979541015625,0.3370433747768402,-1.2146862745285034,0.3966832458972931
1684200790152821500,4.819821533203125,0.2679353356361389,-1.1648787260055542,0.45988887548446655
1684200790162847500,4.829847412109375,0.1895611584186554,-0.9739524126052856,0.4448593258857727
1684200790172873700,4.839873779296875,0.10793948918581009,-0.6888535618782043,0.3795945346355438
1684200790182900700,4.849900634765625,0.04855285957455635,-0.33478468656539917,0.3027985692024231
1684200790192926700,4.8599267578125,-0.01210046373307705,-0.013323795981705189,0.2523481249809265
1684200790202952700,4.86995263671875,-0.056477248668670654,0.21212078630924225,0.2434832751750946
1684200790212978700,4.879978759765625,-0.056699495762586594,0.35990971326828003,0.26185014843940735
1684200790223004700,4.890004638671875,-0.018265286460518837,0.40157169103622437,0.31267258524894714
1684200790233030700,4.90003076171875,0.055816277861595154,0.32125890254974365,0.3842940926551819
1684200790243056600,4.910056640625,0.13560724258422852,0.11633346974849701,0.4594293236732483
1684200790253082600,4.92008251953125,0.18391203880310059,-0.18468062579631805,0.5333600044250488
1684200790263108600,4.930108642578125,0.19289329648017883,-0.543709933757782,0.5881028771400452
1684200790273134600,4.940134521484375,0.18278998136520386,-0.8733575940132141,0.622602641582489
1684200790283160600,4.95016064453125,0.16626879572868347,-1.134376049041748,0.6334278583526611
1684200790293186600,4.9601865234375,0.13804201781749725,-1.3091903924942017,0.5955398678779602
1684200790303212500,4.970212646484375,0.08622008562088013,-1.3168855905532837,0.5074805617332458
1684200790313238500,4.980238525390625,0.019334010779857635,-1.1327946186065674,0.3538608253002167
1684200790323264500,4.990264404296875,-0.04967275261878967,-0.8335884809494019,0.14627942442893982
1684200790333290500,5.00029052734375,-0.10473975539207458,-0.5346751809120178,-0.052414119243621826
1684200790343317500,5.0103173828125,-0.13725322484970093,-0.38886764645576477,-0.1879943162202835
1684200790353343700,5.02034375,-0.11218717694282532,-0.3871318995952606,-0.25052666664123535
1684200790363369700,5.03036962890625,-0.04357243329286575,-0.4089501202106476,-0.2743934094905853
1684200790373395700,5.040395751953125,0.06764772534370422,-0.42002955079078674,-0.27835696935653687
1684200790383421700,5.050421630859375,0.1586274355649948,-0.4202439486980438,-0.27884379029273987
1684200790393447700,5.06044775390625,0.20722538232803345,-0.43934714794158936,-0.275831013917923
1684200790403473700,5.0704736328125,0.22883240878582,-0.5005345940589905,-0.24823452532291412
1684200790413499600,5.080499755859375,0.19780203700065613,-0.6076868176460266,-0.21086978912353516
1684200790423525600,5.090525634765625,0.14041730761528015,-0.7689140439033508,-0.16236643493175507
1684200790433551600,5.100551513671875,0.09787869453430176,-0.9239785075187683,-0.11435787379741669
1684200790443577600,5.11057763671875,0.06178433448076248,-1.0440922975540161,-0.07586400955915451
1684200790453603800,5.120603759765625,0.01930050551891327,-1.0725852251052856,-0.07346117496490479
1684200790463629800,5.1306298828125,-0.017504913732409477,-0.9757661819458008,-0.11080428212881088
1684200790473655800,5.14065576171875,-0.0443042553961277,-0.7869936227798462,-0.16273324191570282
1684200790483681800,5.150681884765625,-0.07508321106433868,-0.5868743658065796,-0.20449373126029968
1684200790493707800,5.160707763671875,-0.10327267646789551,-0.4392755627632141,-0.19960379600524902
1684200790503734500,5.170734619140625,-0.12711116671562195,-0.3662128150463104,-0.15171615779399872
1684200790513760500,5.180760498046875,-0.14510400593280792,-0.35824719071388245,-0.08426747471094131
1684200790523786500,5.190786376953125,-0.16206061840057373,-0.3940299451351166,-0.0069745443761348724
1684200790533812500,5.2008125,-0.16473503410816193,-0.44379591941833496,0.04679030179977417
1684200790543838700,5.210838623046875,-0.15673063695430756,-0.4954274296760559,0.07736419141292572
1684200790553865500,5.220865478515625,-0.1526886224746704,-0.5460463762283325,0.0772697851061821
1684200790563891500,5.230891357421875,-0.1485695093870163,-0.6002603769302368,0.05337589979171753
1684200790573917400,5.24091748046875,-0.15375930070877075,-0.6737958192825317,0.017041750252246857
1684200790583943700,5.250943603515625,-0.15447169542312622,-0.7729711532592773,-0.007474244572222233
1684200790593969700,5.2609697265625,-0.16148632764816284,-0.8509746193885803,-0.029638810083270073
1684200790603995600,5.27099560546875,-0.1950376331806183,-0.8542399406433105,-0.0851859599351883
1684200790614021600,5.281021728515625,-0.23187454044818878,-0.7290659546852112,-0.17051997780799866
1684200790624047600,5.291047607421875,-0.23526953160762787,-0.5136918425559998,-0.24624350666999817
1684200790634073600,5.301073486328125,-0.22155436873435974,-0.29705822467803955,-0.28946369886398315
1684200790644099600,5.311099609375,-0.2048235982656479,-0.13043488562107086,-0.2875177264213562
1684200790654125600,5.32112548828125,-0.180120050907135,-0.010389997623860836,-0.25576961040496826
1684200790664151600,5.331151611328125,-0.165287047624588,0.10825462639331818,-0.21217258274555206
1684200790674178600,5.341178466796875,-0.16503776609897614,0.21701717376708984,-0.17610710859298706
1684200790684204500,5.35120458984375,-0.17766833305358887,0.3450888693332672,-0.15210483968257904
1684200790694230500,5.36123046875,-0.1886390596628189,0.5146055817604065,-0.13767582178115845
1684200790704256500,5.371256591796875,-0.1751275211572647,0.7086418867111206,-0.12595444917678833
1684200790714282500,5.381282470703125,-0.10631440579891205,0.887196958065033,-0.10364630818367004
1684200790724308500,5.39130859375,0.015598718076944351,0.9435782432556152,-0.054324567317962646
1684200790734334500,5.40133447265625,0.14552389085292816,0.7808035612106323,-0.0018484708853065968
1684200790744360400,5.4113603515625,0.23465749621391296,0.3751679062843323,0.047205355018377304
1684200790754386400,5.421386474609375,0.26926544308662415,-0.19186164438724518,0.04964129626750946
1684200790764412400,5.431412353515625,0.2922104299068451,-0.7178210020065308,-0.03676203265786171
1684200790774438700,5.441438720703125,0.31127801537513733,-1.2512474060058594,-0.37286141514778137
1684200790784464600,5.451464599609375,0.3364912271499634,-1.4119313955307007,-1.5065888166427612
1684200790794490600,5.46149072265625,0.42359375953674316,-0.7645690441131592,-2.7978909015655518
1684200790804516600,5.4715166015625,0.4912303388118744,-0.05647391453385353,-3.4308323860168457
1684200790814542600,5.48154248046875,0.4369105100631714,0.2711920440196991,-3.39483904838562
1684200790824568600,5.491568603515625,0.2773003578186035,0.5390386581420898,-3.0150184631347656
1684200790834594600,5.501594482421875,0.1710030436515808,1.1198445558547974,-2.7185497283935547
1684200790844621300,5.511621337890625,0.11830654740333557,1.8148412704467773,-2.6029248237609863
1684200790854647300,5.521647216796875,0.16457761824131012,2.2739861011505127,-2.5695464611053467
1684200790864673500,5.531673583984375,0.2622178792953491,2.47885799407959,-2.5131239891052246
1684200790874699500,5.541699462890625,0.32751744985580444,2.342802047729492,-2.4543650150299072
1684200790884725500,5.5517255859375,0.35390138626098633,1.9247442483901978,-2.339907169342041
1684200790894751500,5.56175146484375,0.37131041288375854,1.2881150245666504,-2.1156134605407715
1684200790904777500,5.571777587890625,0.49522969126701355,0.5835978984832764,-1.7855533361434937
1684200790914803500,5.581803466796875,0.6527760028839111,-0.039249543100595474,-1.4097743034362793
1684200790924829400,5.591829345703125,0.9479568004608154,-0.16251768171787262,-1.0709686279296875
1684200790934855400,5.60185546875,1.3158351182937622,0.2921762764453888,-0.7513608336448669
1684200790944881400,5.61188134765625,1.6239484548568726,0.7392991781234741,-0.4619077444076538
1684200790954907400,5.621907470703125,1.8245371580123901,1.1142702102661133,-0.20058640837669373
1684200790964933400,5.631933349609375,1.9322481155395508,1.4853787422180176,-0.009127238765358925
1684200790974959600,5.641959716796875,1.9182204008102417,1.849753737449646,0.14495542645454407
1684200790984985600,5.651985595703125,1.7888959646224976,2.1642253398895264,0.26484107971191406
1684200790995011600,5.662011474609375,1.6200058460235596,2.5532145500183105,0.3630516827106476
1684200791005038600,5.67203857421875,1.4252747297286987,2.8889243602752686,0.4182659089565277
1684200791015064600,5.682064697265625,1.2834270000457764,3.0426578521728516,0.5019694566726685
1684200791025090600,5.692090576171875,1.248815655708313,2.9872190952301025,0.6064356565475464
1684200791035116500,5.702116455078125,1.2755467891693115,2.836505651473999,0.7229164838790894
1684200791045142500,5.712142578125,1.2987474203109741,2.584616184234619,0.8331236839294434
1684200791055168500,5.72216845703125,1.3060511350631714,2.3894894123077393,0.8952255249023438
1684200791065194500,5.732194580078125,1.3138624429702759,2.325418472290039,0.9113075733184814
1684200791075220500,5.742220458984375,1.3241380453109741,2.326406478881836,0.8805578351020813
1684200791085246500,5.75224658203125,1.3374983072280884,2.3474862575531006,0.8643865585327148
1684200791095272400,5.7622724609375,1.315648078918457,2.3485865592956543,0.9137216210365295
1684200791105298400,5.77229833984375,1.2757283449172974,2.3179068565368652,1.0203770399093628
1684200791115324400,5.782324462890625,1.2305028438568115,2.233640193939209,1.156235694885254
1684200791125350400,5.792350341796875,1.1614990234375,2.0794713497161865,1.2915281057357788
1684200791135376400,5.80237646484375,1.0686510801315308,1.9126403331756592,1.3863213062286377
1684200791145402400,5.81240234375,0.9503659605979919,1.7782495021820068,1.4311853647232056
1684200791155428400,5.822428466796875,0.8241772055625916,1.666628360748291,1.442726731300354
1684200791165454300,5.832454345703125,0.6944993734359741,1.5995385646820068,1.4602168798446655
1684200791175480600,5.84248046875,0.5886223316192627,1.583837628364563,1.4954776763916016
1684200791185507600,5.852507568359375,0.5162050724029541,1.6161010265350342,1.5250821113586426
1684200791195533600,5.862533447265625,0.4668315649032593,1.6899198293685913,1.5296127796173096
1684200791205559600,5.8725595703125,0.4348571300506592,1.744350552558899,1.530672550201416
1684200791215585500,5.88258544921875,0.39736342430114746,1.7970529794692993,1.517776370048523
1684200791225611500,5.892611572265625,0.35582050681114197,1.931717038154602,1.5123118162155151
1684200791235637500,5.902637451171875,0.28128185868263245,2.052427291870117,1.5330748558044434
1684200791245663500,5.91266357421875,0.18887576460838318,2.1082510948181152,1.550932765007019
1684200791255689700,5.922689697265625,0.09849636256694794,2.177574872970581,1.5445055961608887
1684200791265715700,5.9327158203125,0.05017969757318497,2.206395387649536,1.5634870529174805
1684200791275741700,5.94274169921875,0.007151290308684111,2.096529960632324,1.6041381359100342
1684200791285767700,5.952767578125,-0.03153219074010849,1.8530992269515991,1.616478443145752
1684200791295793400,5.96279345703125,-0.06893174350261688,1.6437808275222778,1.6040635108947754
1684200791305819400,5.9728193359375,-0.12181413173675537,1.6112806797027588,1.5398706197738647
1684200791315845400,5.982845458984375,-0.18993151187896729,1.7611021995544434,1.4381797313690186
1684200791325871400,5.992871337890625,-0.26801273226737976,2.004180669784546,1.3742215633392334
1684200791335897300,6.0028974609375,-0.3386296033859253,2.257939338684082,1.367749810218811
1684200791345923300,6.01292333984375,-0.3869502544403076,2.4614717960357666,1.3853240013122559
1684200791355949300,6.02294921875,-0.4038620889186859,2.5533018112182617,1.3774175643920898
1684200791365976600,6.0329765625,-0.4046362638473511,2.503633499145508,1.347684621810913
1684200791376002600,6.04300244140625,-0.38911014795303345,2.3182380199432373,1.2962390184402466
1684200791386028500,6.053028564453125,-0.3601943254470825,2.084580183029175,1.2482831478118896
1684200791396054500,6.063054443359375,-0.3461547791957855,1.8482929468154907,1.2100772857666016
1684200791406080500,6.07308056640625,-0.3352017402648926,1.6788235902786255,1.2002906799316406
1684200791416106500,6.0831064453125,-0.34860727190971375,1.6146138906478882,1.2055437564849854
1684200791426132500,6.093132568359375,-0.3800293803215027,1.6229711771011353,1.2305793762207031
1684200791436158500,6.103158447265625,-0.4294068217277527,1.7015330791473389,1.2843506336212158
1684200791446184400,6.113184326171875,-0.48953327536582947,1.843097448348999,1.361530065536499
1684200791456210700,6.123210693359375,-0.540658712387085,2.0401809215545654,1.4497066736221313
1684200791466236700,6.133236572265625,-0.5607245564460754,2.2494895458221436,1.527806282043457
1684200791476262700,6.1432626953125,-0.545551061630249,2.417069673538208,1.6147501468658447
1684200791486288600,6.15328857421875,-0.4959110617637634,2.499851942062378,1.6868782043457031
1684200791496314600,6.163314697265625,-0.40953972935676575,2.4246103763580322,1.7165690660476685
1684200791506340600,6.173340576171875,-0.2884090542793274,2.1386735439300537,1.6853044033050537
1684200791516366600,6.18336669921875,-0.17503096163272858,1.708727478981018,1.6588503122329712
1684200791526393300,6.193393310546875,-0.13758158683776855,1.238820195198059,1.6742559671401978
1684200791536419300,6.20341943359375,-0.20512278378009796,0.6979010105133057,1.5971866846084595
1684200791546444500,6.213444580078125,-0.27277931571006775,0.3722643256187439,0.9219305515289307
1684200791556470500,6.223470458984375,-0.1515333205461502,0.44097012281417847,-0.15558575093746185
1684200791566496500,6.23349658203125,-0.0657438412308693,0.3694536089897156,-0.6785266995429993
1684200791576522800,6.243522705078125,0.014370444230735302,0.3284296691417694,-0.683677077293396
1684200791586548700,6.253548828125,0.07809536159038544,0.6486103534698486,-0.46949073672294617
1684200791596574700,6.26357470703125,0.10719780623912811,1.2185372114181519,-0.19728507101535797
1684200791606600700,6.2736005859375,0.09832654893398285,1.8566484451293945,0.09174752235412598
1684200791616626700,6.283626708984375,0.019675560295581818,2.4316983222961426,0.3711547255516052
1684200791626652700,6.293652587890625,-0.1296079456806183,2.8868443965911865,0.6030406951904297
1684200791636678700,6.3036787109375,-0.32236364483833313,3.282404899597168,0.8077989220619202
1684200791646704600,6.31370458984375,-0.5017736554145813,3.6628365516662598,0.9656367897987366
1684200791656730600,6.323730712890625,-0.6339854598045349,4.055558204650879,1.0597293376922607
1684200791666756600,6.333756591796875,-0.6700547337532043,4.407248497009277,1.152393102645874
1684200791676782600,6.343782470703125,-0.5389618873596191,4.395596981048584,1.3280493021011353
1684200791686808800,6.353808837890625,-0.31854215264320374,3.483586072921753,1.6644622087478638
1684200791696834800,6.363834716796875,-0.11271867901086807,1.935343861579895,2.058518171310425
1684200791706861800,6.37386181640625,0.034219108521938324,1.0695970058441162,2.2244935035705566
1684200791716887800,6.3838876953125,0.07145094871520996,1.0178568363189697,2.1611835956573486
1684200791726913800,6.393913818359375,0.0609210766851902,1.368864893913269,1.9146651029586792
1684200791736939800,6.403939697265625,0.05646888166666031,1.866006851196289,1.538270354270935
1684200791746965800,6.4139658203125,0.050370242446660995,2.355799913406372,1.097867727279663
1684200791756991700,6.42399169921875,0.059303879737854004,2.736494302749634,0.752971887588501
1684200791767017700,6.434017822265625,0.044859692454338074,2.932464599609375,0.5642514824867249
1684200791777043700,6.444043701171875,-0.004327352158725262,2.9770424365997314,0.5073645710945129
1684200791787069700,6.454069580078125,-0.06552546471357346,2.9693260192871094,0.5376390814781189
1684200791797095700,6.464095703125,-0.1143195629119873,2.9620182514190674,0.608565092086792
1684200791807121700,6.47412158203125,-0.13480353355407715,2.9989821910858154,0.6777638792991638
1684200791817147600,6.484147705078125,-0.15619972348213196,3.1145994663238525,0.7308640480041504
1684200791827173600,6.494173583984375,-0.18140734732151031,3.275495767593384,0.7498521208763123
1684200791837199600,6.50419970703125,-0.18354220688343048,3.4363608360290527,0.7353201508522034
1684200791847225600,6.5142255859375,-0.17395108938217163,3.5731890201568604,0.7126864790916443
1684200791857251600,6.52425146484375,-0.1740991175174713,3.66182541847229,0.7255935072898865
1684200791867277600,6.534277587890625,-0.17564907670021057,3.6910347938537598,0.784417450428009
1684200791877304800,6.544304931640625,-0.18860465288162231,3.6032304763793945,0.9026267528533936
1684200791887330800,6.554330810546875,-0.20538842678070068,3.417250156402588,1.0740272998809814
1684200791897356800,6.564356689453125,-0.23564961552619934,3.2548680305480957,1.2255127429962158
1684200791907382800,6.5743828125,-0.27774670720100403,3.187763214111328,1.2999438047409058
1684200791917408800,6.58440869140625,-0.3337652385234833,3.218057155609131,1.30392587184906
1684200791927434800,6.594434814453125,-0.3551919758319855,3.2371597290039062,1.2396821975708008
1684200791937460700,6.604460693359375,-0.3224048614501953,3.1597437858581543,1.1297351121902466
1684200791947486700,6.61448681640625,-0.2612863779067993,2.9885644912719727,0.9858596920967102
1684200791957512700,6.6245126953125,-0.2155197113752365,2.7946059703826904,0.8452267646789551
1684200791967538700,6.63453857421875,-0.19167110323905945,2.6011359691619873,0.7234153747558594
1684200791977565000,6.64456494140625,-0.20761185884475708,2.416266441345215,0.6538838744163513
1684200791987591000,6.6545908203125,-0.24050535261631012,2.2324068546295166,0.6802158951759338
1684200791997616600,6.66461669921875,-0.3006479740142822,2.047649383544922,0.7640515565872192
1684200792007642600,6.674642578125,-0.345005601644516,1.9216833114624023,0.8384259343147278
1684200792017668600,6.684668701171875,-0.36977699398994446,1.927579402923584,0.869213879108429
1684200792027694600,6.694694580078125,-0.39079543948173523,2.0648725032806396,0.8626300096511841
1684200792037720600,6.704720458984375,-0.4530467391014099,2.186976432800293,0.8231961131095886
1684200792047746600,6.71474658203125,-0.5004555583000183,2.203775644302368,0.7380215525627136
1684200792057773800,6.72477392578125,-0.4803215265274048,2.162759304046631,0.5804061889648438
1684200792067799800,6.7347998046875,-0.4392198920249939,2.131178855895996,0.4198167622089386
1684200792077825800,6.74482568359375,-0.42169761657714844,2.102004289627075,0.31900593638420105
1684200792087851800,6.754851806640625,-0.4267118275165558,2.056645631790161,0.310790091753006
1684200792097877800,6.764877685546875,-0.4381748139858246,1.9625346660614014,0.3748987317085266
1684200792107903700,6.77490380859375,-0.4404835104942322,1.817086935043335,0.47205138206481934
1684200792117929700,6.7849296875,-0.41297680139541626,1.6618515253067017,0.523130476474762
1684200792127955700,6.794955810546875,-0.3704831302165985,1.540709376335144,0.5232604742050171
1684200792137981700,6.804981689453125,-0.3304125666618347,1.4685742855072021,0.47460973262786865
1684200792148007700,6.815007568359375,-0.303117573261261,1.4369574785232544,0.3996260464191437
1684200792158033700,6.82503369140625,-0.2882154583930969,1.4591171741485596,0.3275355398654938
1684200792168060000,6.835059814453125,-0.25910842418670654,1.501895546913147,0.27200543880462646
1684200792178086000,6.8450859375,-0.20614448189735413,1.5170741081237793,0.23506729304790497
1684200792188112000,6.85511181640625,-0.13392089307308197,1.4920872449874878,0.19973033666610718
1684200792198137900,6.865137939453125,-0.06340568512678146,1.4462946653366089,0.1509469747543335
1684200792208163800,6.875163818359375,-0.02035515196621418,1.394057035446167,0.08932914584875107
1684200792218189800,6.88518994140625,-0.014952217228710651,1.3345084190368652,0.008885321207344532
1684200792228215800,6.8952158203125,-0.01530215609818697,1.2533479928970337,-0.10813770443201065
1684200792238241800,6.90524169921875,0.02871132828295231,1.1313366889953613,-0.2744702398777008
1684200792248268500,6.9152685546875,0.08598100394010544,1.0351102352142334,-0.5851026773452759
1684200792258294800,6.925294677734375,0.10554767400026321,1.1878695487976074,-1.2128167152404785
1684200792268320800,6.93532080078125,0.068980872631073,1.5267714262008667,-2.0465667247772217
1684200792278346800,6.9453466796875,-0.01776224933564663,1.5924863815307617,-2.5697062015533447
1684200792288372700,6.955372802734375,-0.06083488464355469,1.3339587450027466,-2.7432191371917725
1684200792298398700,6.965398681640625,0.003939969465136528,0.7311128377914429,-2.7747104167938232
1684200792308424700,6.9754248046875,0.14872299134731293,-0.034169115126132965,-2.690202474594116
1684200792318450700,6.98545068359375,0.31812992691993713,-0.5261048674583435,-2.4926178455352783
1684200792328476700,6.9954765625,0.4623536765575409,-0.45076698064804077,-2.2259130477905273
1684200792338502700,7.005502685546875,0.5608334541320801,0.1734338104724884,-1.9049955606460571
1684200792348528600,7.015528564453125,0.5995826721191406,0.9112297892570496,-1.5082266330718994
1684200792358554600,7.0255546875,0.5164825320243835,1.1232109069824219,-1.1962229013442993
1684200792368580900,7.035580810546875,0.4438767433166504,0.9085961580276489,-1.0447015762329102
1684200792378606800,7.04560693359375,0.5040370225906372,0.7716209292411804,-0.9575268030166626
1684200792388632800,7.0556328125,0.6648735404014587,0.8391451239585876,-0.87066251039505
1684200792398658800,7.065658935546875,0.888344407081604,1.1066149473190308,-0.7786410450935364
1684200792408684800,7.075684814453125,1.1308083534240723,1.4659762382507324,-0.6841201782226562
1684200792418710800,7.085710693359375,1.3580247163772583,1.8060755729675293,-0.5409206748008728
1684200792428737500,7.095737548828125,1.5130367279052734,2.0366759300231934,-0.37285470962524414
1684200792438763500,7.105763427734375,1.578458309173584,2.1581034660339355,-0.24621981382369995
1684200792448789500,7.11578955078125,1.5271296501159668,2.2195873260498047,-0.20890173316001892
1684200792458815700,7.125815673828125,1.3965706825256348,2.3280017375946045,-0.23751184344291687
1684200792468841700,7.135841796875,1.24375581741333,2.4338083267211914,-0.3032681941986084
1684200792478867700,7.14586767578125,1.1106489896774292,2.509861946105957,-0.367173433303833
1684200792488893700,7.155893798828125,1.0083909034729004,2.5290486812591553,-0.44379204511642456
1684200792498919700,7.165919677734375,0.9419645071029663,2.4772346019744873,-0.5036824345588684
1684200792508945700,7.175945556640625,0.9179478287696838,2.3489582538604736,-0.5252143740653992
1684200792518971600,7.1859716796875,0.9157035946846008,2.198829412460327,-0.4882830083370209
1684200792528997600,7.19599755859375,0.9262621998786926,2.0360312461853027,-0.4357875883579254
1684200792539023600,7.206023681640625,0.9231464862823486,1.8652571439743042,-0.3732203245162964
1684200792549050600,7.216050537109375,0.918502151966095,1.6215637922286987,-0.3023267090320587
1684200792559076600,7.22607666015625,0.8981176614761353,1.370132327079773,-0.24924753606319427
1684200792569102600,7.2361025390625,0.9020413160324097,1.1475677490234375,-0.22989009320735931
1684200792579128800,7.24612890625,0.9237034916877747,0.9391961693763733,-0.23278585076332092
1684200792589154800,7.25615478515625,0.932725191116333,0.7107643485069275,-0.20609831809997559
1684200792599180800,7.266180908203125,0.9234834313392639,0.5231071710586548,-0.14391063153743744
1684200792609207600,7.27620751953125,0.8770920038223267,0.3933960199356079,-0.07554888725280762
1684200792619233500,7.286233642578125,0.8026642799377441,0.3429452180862427,-0.013236654922366142
1684200792629259500,7.296259521484375,0.7293791770935059,0.3843720257282257,0.028467915952205658
1684200792639285500,7.306285400390625,0.6560381650924683,0.4752627909183502,0.041395027190446854
1684200792649311500,7.3163115234375,0.5749438405036926,0.5260149240493774,0.020363513380289078
1684200792659337500,7.32633740234375,0.5215103626251221,0.58079993724823,0.013872774317860603
1684200792669363700,7.33636376953125,0.4586823880672455,0.5564413666725159,0.011661818251013756
1684200792679389700,7.3463896484375,0.40286558866500854,0.43596258759498596,0.022181445732712746
1684200792689415700,7.356415771484375,0.3651496171951294,0.2409001737833023,0.05511968582868576
1684200792699441700,7.366441650390625,0.3446788787841797,-0.022090202197432518,0.11176980286836624
1684200792709467600,7.376467529296875,0.3326299488544464,-0.32327958941459656,0.18317368626594543
1684200792719493600,7.38649365234375,0.3277466297149658,-0.5985430479049683,0.2736473083496094
1684200792729519600,7.39651953125,0.3097518980503082,-0.8229636549949646,0.3852180540561676
1684200792739545600,7.406545654296875,0.2721617519855499,-0.9872739315032959,0.5270059704780579
1684200792749571600,7.416571533203125,0.21687451004981995,-1.081270456314087,0.6802240610122681
1684200792759597600,7.42659765625,0.1458415985107422,-1.1347616910934448,0.8261909484863281
1684200792769623600,7.43662353515625,0.0878794863820076,-1.1545783281326294,0.9661821126937866
1684200792779649800,7.44664990234375,0.05293859541416168,-1.1489276885986328,1.0967403650283813
1684200792789675800,7.45667578125,0.02379722334444523,-1.112000584602356,1.2255125045776367
1684200792799702500,7.46670263671875,-0.02012229897081852,-1.03734290599823,1.3617630004882812
1684200792809728500,7.476728515625,-0.07399564981460571,-0.9387723207473755,1.4577124118804932
1684200792819754500,7.48675439453125,-0.14315694570541382,-0.8515608310699463,1.509912133216858
1684200792829780500,7.496780517578125,-0.2104017734527588,-0.8106288313865662,1.5184770822525024
1684200792839806500,7.506806396484375,-0.26380833983421326,-0.7736890912055969,1.465193748474121
1684200792849832400,7.51683251953125,-0.3199027478694916,-0.72870272397995,1.4073807001113892
1684200792859858400,7.5268583984375,-0.36363089084625244,-0.6473583579063416,1.3123326301574707
1684200792869884700,7.536884765625,-0.3883149325847626,-0.535467267036438,1.181196689605713
1684200792879910700,7.54691064453125,-0.402601420879364,-0.4864494204521179,1.0500993728637695
1684200792889936600,7.5569365234375,-0.4351348578929901,-0.5082985162734985,0.9591061472892761
1684200792899962600,7.566962646484375,-0.49706920981407166,-0.5534680485725403,0.924174427986145
1684200792909988600,7.576988525390625,-0.5920189023017883,-0.6121023297309875,0.9366071224212646
1684200792920014600,7.5870146484375,-0.691948413848877,-0.6690335869789124,0.9610874056816101
1684200792930040600,7.59704052734375,-0.7735564708709717,-0.6736754775047302,0.9991082549095154
1684200792940066600,7.607066650390625,-0.8171039819717407,-0.6943936347961426,1.0612975358963013
1684200792950092500,7.617092529296875,-0.8144709467887878,-0.7058510780334473,1.0963982343673706
1684200792960118500,7.627118408203125,-0.7850632071495056,-0.7471922039985657,1.09409499168396
1684200792970144500,7.63714453125,-0.7479533553123474,-0.8006842136383057,1.0482792854309082
1684200792980171800,7.647171875,-0.72151118516922,-0.8151520490646362,0.9495533108711243
1684200792990197800,7.65719775390625,-0.7020314931869507,-0.7434530854225159,0.8145095109939575
1684200793000223700,7.6672236328125,-0.6720328330993652,-0.5564913153648376,0.6338999271392822
1684200793010249700,7.677249755859375,-0.608846127986908,-0.2214856594800949,0.39582687616348267
1684200793020275700,7.687275634765625,-0.5143964886665344,0.18941906094551086,0.1389881670475006
1684200793030301700,7.6973017578125,-0.4339243471622467,0.5009817481040955,-0.05997658893465996
1684200793040327400,7.707327392578125,-0.4007892906665802,0.6259639859199524,-0.12685568630695343
1684200793050353400,7.717353515625,-0.40844640135765076,0.5665858387947083,-0.09722456336021423
1684200793060379600,7.727379638671875,-0.3765794038772583,0.3890834152698517,-0.0014066114090383053
1684200793070405600,7.737405517578125,-0.27931517362594604,0.3324851095676422,0.13711105287075043
1684200793080431600,7.747431640625,-0.19662731885910034,0.43311643600463867,0.26305562257766724
1684200793090457600,7.75745751953125,-0.19174282252788544,0.48357081413269043,0.33517855405807495
1684200793100483600,7.767483642578125,-0.24731171131134033,0.3605324625968933,0.3633979856967926
1684200793110509600,7.777509521484375,-0.29333218932151794,0.12544752657413483,0.38158470392227173
1684200793120535600,7.78753564453125,-0.29347455501556396,-0.20293761789798737,0.4049913287162781
1684200793130561500,7.7975615234375,-0.2583799362182617,-0.6319372057914734,0.42659062147140503
1684200793140587500,7.80758740234375,-0.21015068888664246,-1.145382046699524,0.4544771909713745
1684200793150613500,7.817613525390625,-0.15455853939056396,-1.7703732252120972,0.47724616527557373
1684200793160639500,7.827639404296875,-0.12306725978851318,-2.3893797397613525,0.48532015085220337
1684200793170665700,7.837665771484375,-0.10549865663051605,-2.8148093223571777,0.4571116864681244
1684200793180692700,7.847692626953125,-0.08409078419208527,-2.895775556564331,0.34435611963272095
1684200793190718700,7.85771875,-0.05701708793640137,-2.6260335445404053,0.15121997892856598
1684200793200744700,7.86774462890625,-0.03300231695175171,-2.1138691902160645,-0.05357440561056137
1684200793210770700,7.877770751953125,-0.03662394732236862,-1.5165983438491821,-0.23459959030151367
1684200793220796700,7.887796630859375,-0.05664820224046707,-0.9319243431091309,-0.4104755222797394
1684200793230822700,7.89782275390625,-0.07391880452632904,-0.41358718276023865,-0.5697064399719238
1684200793240848600,7.9078486328125,-0.10379549115896225,0.04822607338428497,-0.6862324476242065
1684200793250874600,7.91787451171875,-0.12442514300346375,0.5399758219718933,-0.7190316915512085
1684200793260900600,7.927900634765625,-0.14888140559196472,1.2728240489959717,-0.7029204368591309
1684200793270926600,7.937926513671875,-0.2168082594871521,2.1640944480895996,-0.5774328112602234
1684200793280952600,7.94795263671875,-0.3135825991630554,2.7866697311401367,-0.3162287473678589
1684200793290978600,7.957978515625,-0.3460337519645691,2.818181276321411,0.04115602746605873
1684200793301004500,7.968004638671875,-0.2591407299041748,2.2081825733184814,0.4691922664642334
1684200793311030500,7.978030517578125,-0.03755718842148781,1.3053867816925049,0.7348284721374512
1684200793321056500,7.988056396484375,0.20487645268440247,0.5765553116798401,0.7074644565582275
1684200793331082500,7.99808251953125,0.35476821660995483,0.03497137874364853,0.5258435606956482
1684200793341108500,8.0081083984375,0.42402246594429016,-0.4387017786502838,0.3367483913898468
1684200793351134500,8.018134521484376,0.4779525399208069,-0.8228824138641357,0.1937374621629715
1684200793361160400,8.028160400390625,0.5071204304695129,-1.1090108156204224,0.09926129132509232
1684200793371187700,8.038187744140625,0.49357694387435913,-1.2961159944534302,0.05218326300382614
1684200793381213700,8.048213623046875,0.43240419030189514,-1.3921291828155518,0.03475089371204376
1684200793391239700,8.05823974609375,0.33365124464035034,-1.36894953250885,0.0317351296544075
1684200793401265700,8.068265625,0.22663892805576324,-1.2287683486938477,0.028729446232318878
1684200793411291600,8.078291748046874,0.10817299783229828,-0.9771596193313599,0.02494216524064541
1684200793421317600,8.088317626953126,-0.009983017109334469,-0.6242932081222534,0.004639365244656801
1684200793431343600,8.098343505859376,-0.08820991218090057,-0.17904360592365265,-0.02764160931110382
1684200793441369600,8.10836962890625,-0.08024132996797562,0.24850238859653473,-0.01067260280251503
1684200793451395600,8.1183955078125,-0.04378771781921387,0.576987624168396,0.0500866174697876
1684200793461421800,8.128421875,0.001677155029028654,0.7477138042449951,0.13638092577457428
1684200793471447800,8.13844775390625,0.03669905662536621,0.7077701091766357,0.23050875961780548
1684200793481473800,8.148473876953124,0.0633760616183281,0.40574052929878235,0.344194233417511
1684200793491499800,8.158499755859374,0.09809248894453049,-0.0706329420208931,0.46649405360221863
1684200793501525800,8.16852587890625,0.12549979984760284,-0.5246976613998413,0.5267290472984314
1684200793511551700,8.1785517578125,0.11270225048065186,-0.8143790364265442,0.4908005893230438
1684200793521577500,8.188577392578125,0.06770113855600357,-0.9007837772369385,0.3837091326713562
1684200793531603500,8.198603515625,0.035772498697042465,-0.8268272876739502,0.24114318192005157
1684200793541629400,8.20862939453125,0.0280185304582119,-0.6538413166999817,0.09515947848558426
1684200793551655400,8.218655517578124,0.03128303214907646,-0.47327664494514465,-0.027241531759500504
1684200793561682700,8.2286826171875,0.024440642446279526,-0.33804360032081604,-0.112479567527771
1684200793571708700,8.238708740234374,0.0027915402315557003,-0.265905499458313,-0.15941378474235535
1684200793581734700,8.248734619140626,-0.023255083709955215,-0.2632856070995331,-0.18543259799480438
1684200793591760600,8.2587607421875,-0.04289456829428673,-0.33537739515304565,-0.20900264382362366
1684200793601786600,8.26878662109375,-0.05115008354187012,-0.4379398226737976,-0.21900205314159393
1684200793611812600,8.2788125,-0.046558793634176254,-0.5419692993164062,-0.20636029541492462
1684200793621838600,8.288838623046875,-0.02132769301533699,-0.5946471691131592,-0.1832384616136551
1684200793631864600,8.298864501953124,0.04974435269832611,-0.5927307605743408,-0.14627164602279663
1684200793641890600,8.308890625,0.11624421924352646,-0.525871992111206,-0.10671035945415497
1684200793651916500,8.31891650390625,0.16741660237312317,-0.4105413854122162,-0.06433787196874619
1684200793661942500,8.328942626953125,0.20275522768497467,-0.2968502342700958,-0.012147253379225731
1684200793671968800,8.33896875,0.22015365958213806,-0.2371184527873993,0.06645914167165756
1684200793681994800,8.348994873046875,0.21415063738822937,-0.26804494857788086,0.16310155391693115
1684200793692020700,8.359020751953125,0.18961280584335327,-0.39679256081581116,0.2786550223827362
1684200793702046700,8.369046630859375,0.15898165106773376,-0.5721088647842407,0.380601167678833
1684200793712072700,8.37907275390625,0.15657122433185577,-0.6990258097648621,0.42340829968452454
1684200793722098700,8.3890986328125,0.14720085263252258,-0.7855283617973328,0.4063045084476471
1684200793732124700,8.399124755859376,0.12484654784202576,-0.8054794073104858,0.31586435437202454
1684200793742150700,8.409150634765625,0.09588419646024704,-0.746934175491333,0.16637124121189117
1684200793752176600,8.4191767578125,0.07699892669916153,-0.6373605728149414,0.015755629166960716
1684200793762202600,8.42920263671875,0.05738019570708275,-0.5216598510742188,-0.0975809320807457
1684200793772229600,8.439229736328125,0.024368446320295334,-0.40829554200172424,-0.16374796628952026
1684200793782255600,8.449255615234375,-0.009980312548577785,-0.3072076737880707,-0.19065092504024506
1684200793792281600,8.459281494140624,-0.05077647417783737,-0.21957875788211823,-0.1740967184305191
1684200793802307600,8.4693076171875,-0.0970936045050621,-0.1379254013299942,-0.12708412110805511
1684200793812333600,8.47933349609375,-0.1594025194644928,-0.12260822206735611,-0.0605546273291111
1684200793822359600,8.489359619140625,-0.22332754731178284,-0.15722358226776123,-0.001995170023292303
1684200793832385500,8.499385498046875,-0.26481932401657104,-0.22035302221775055,0.0366254597902298
1684200793842411500,8.50941162109375,-0.28467363119125366,-0.2747015058994293,0.04726455733180046
1684200793852437500,8.5194375,-0.29148492217063904,-0.2851472496986389,0.03738928958773613
1684200793862463500,8.52946337890625,-0.2967327833175659,-0.26552271842956543,0.03690503165125847
1684200793872489700,8.53948974609375,-0.30478617548942566,-0.21675223112106323,0.040662217885255814
1684200793882515700,8.549515625,-0.3045705258846283,-0.14689496159553528,0.03588033840060234
1684200793892541700,8.559541748046875,-0.29807719588279724,-0.04804427921772003,0.011003218591213226
1684200793902567700,8.569567626953125,-0.2796495258808136,0.08376109600067139,-0.03705039992928505
1684200793912593700,8.57959375,-0.2297288179397583,0.24327965080738068,-0.10369733721017838
1684200793922619600,8.58961962890625,-0.14772169291973114,0.4019578993320465,-0.17691129446029663
1684200793932645600,8.599645751953124,-0.05211953446269035,0.5329944491386414,-0.24389778077602386
1684200793942671600,8.609671630859374,0.036683328449726105,0.5878983736038208,-0.29769352078437805
1684200793952697600,8.619697509765626,0.10521631687879562,0.5397984981536865,-0.3409712016582489
1684200793962724600,8.629724609375,0.13704228401184082,0.39364978671073914,-0.36963731050491333
1684200793972750600,8.63975048828125,0.13971397280693054,0.19050224125385284,-0.3772944509983063
1684200793982776600,8.649776611328125,0.1499144434928894,-0.016824733465909958,-0.3481651842594147
1684200793992802600,8.659802490234375,0.19097958505153656,-0.2383134514093399,-0.28095364570617676
1684200794002828500,8.66982861328125,0.1971641629934311,-0.5102675557136536,-0.20369233191013336
1684200794012854500,8.6798544921875,0.17601387202739716,-0.8818272352218628,-0.10885610431432724
1684200794022880500,8.689880615234374,0.15045465528964996,-1.396150827407837,-0.00019902130588889122
1684200794032906500,8.699906494140626,0.14424654841423035,-1.9209208488464355,0.05610872432589531
1684200794042932500,8.709932373046875,0.15227317810058594,-1.9666614532470703,-0.35921797156333923
1684200794052958500,8.71995849609375,0.19971472024917603,-0.918929934501648,-1.6682205200195312
1684200794062984400,8.729984375,0.2744792699813843,0.09186294674873352,-2.8052685260772705
1684200794073010700,8.7400107421875,0.2919812798500061,0.38197946548461914,-3.208765745162964
1684200794083036700,8.75003662109375,0.25965744256973267,0.3282183110713959,-3.0393993854522705
1684200794093062700,8.760062744140624,0.2547058165073395,0.05837617069482803,-2.744534969329834
1684200794103088600,8.770088623046876,0.3424531817436218,-0.20832102000713348,-2.5985231399536133
1684200794113114600,8.780114501953125,0.49028873443603516,-0.22770856320858002,-2.647477865219116
1684200794123140600,8.790140625,0.6410585641860962,-0.017838969826698303,-2.7900328636169434
1684200794133166600,8.80016650390625,0.756279468536377,0.3768617510795593,-2.7867300510406494
1684200794143192600,8.810192626953125,0.9020306468009949,0.6707742810249329,-2.6191117763519287
1684200794153218600,8.820218505859375,1.0702348947525024,0.8861070871353149,-2.2809948921203613
1684200794163245600,8.83024560546875,1.2584353685379028,0.9489914178848267,-1.7782431840896606
1684200794173271600,8.840271484375,1.4559239149093628,0.8864628076553345,-1.2786171436309814
1684200794183297500,8.850297607421876,1.58572256565094,0.9044676423072815,-1.0423235893249512
1684200794193323500,8.860323486328125,1.6764309406280518,1.0807617902755737,-0.9760409593582153
1684200794203349500,8.870349609375,1.7370332479476929,1.4806934595108032,-0.9228389263153076
1684200794213375500,8.88037548828125,1.7233432531356812,1.9593907594680786,-0.823666512966156
1684200794223401500,8.8904013671875,1.6659090518951416,2.393789052963257,-0.7116551995277405
1684200794233427500,8.900427490234375,1.5391687154769897,2.6921184062957764,-0.6685919165611267
1684200794243453400,8.910453369140624,1.3796578645706177,2.9433207511901855,-0.6839103698730469
1684200794253479400,8.9204794921875,1.235373616218567,3.093904733657837,-0.7332057952880859
1684200794263505700,8.930505615234376,1.1613759994506836,2.9265925884246826,-0.81862872838974
1684200794273531600,8.94053173828125,1.171790599822998,2.499415874481201,-0.8897148966789246
1684200794283557600,8.9505576171875,1.207173228263855,2.1090972423553467,-0.9427523016929626
1684200794293583600,8.96058349609375,1.2116670608520508,1.993361473083496,-0.9716305136680603
1684200794303609600,8.970609619140625,1.2395106554031372,1.9637451171875,-0.921381950378418
1684200794313635600,8.980635498046874,1.2300169467926025,1.8177580833435059,-0.8467748165130615
1684200794323661600,8.99066162109375,1.1788051128387451,1.6519724130630493,-0.7973467111587524
1684200794333687600,9.0006875,1.0514048337936401,1.4533849954605103,-0.7698469161987305
1684200794343713500,9.010713623046875,0.9203113317489624,1.350951910018921,-0.7393943667411804
1684200794353739500,9.020739501953125,0.8127055168151855,1.2798218727111816,-0.6989758014678955
1684200794363765500,9.030765625,0.7364577054977417,1.1515182256698608,-0.6433724761009216
1684200794373792800,9.040792724609375,0.6877575516700745,0.9856674075126648,-0.5319303274154663
1684200794383818800,9.05081884765625,0.6275109648704529,0.8045538067817688,-0.41500160098075867
1684200794393844500,9.060844482421874,0.5515879988670349,0.6094804406166077,-0.30625593662261963
1684200794403870500,9.070870361328126,0.48139989376068115,0.41207560896873474,-0.20590654015541077
1684200794413896400,9.080896484375,0.42608335614204407,0.2210707664489746,-0.10770700871944427
1684200794423922400,9.09092236328125,0.38801607489585876,0.05409039929509163,-0.01702447608113289
1684200794433948400,9.100948486328125,0.3453567624092102,-0.15425747632980347,0.03362671658396721
1684200794443974400,9.110974365234375,0.2958824634552002,-0.3663198947906494,0.0734328031539917
1684200794454000400,9.12100048828125,0.2726556956768036,-0.488517701625824,0.11654112488031387
1684200794464026600,9.131026611328124,0.3109080195426941,-0.4571067690849304,0.16884800791740417
1684200794474052600,9.141052490234374,0.36742109060287476,-0.3703620433807373,0.25517013669013977
1684200794484078600,9.15107861328125,0.34158721566200256,-0.27971169352531433,0.3999953866004944
1684200794494104600,9.1611044921875,0.19196204841136932,-0.18587173521518707,0.606681764125824
1684200794504130600,9.171130615234375,-0.007777734659612179,-0.17399029433727264,0.7780425548553467
1684200794514156500,9.181156494140625,-0.19148844480514526,-0.27692148089408875,0.8601571321487427
1684200794524182500,9.1911826171875,-0.31499338150024414,-0.44304782152175903,0.8835433721542358
1684200794534208500,9.20120849609375,-0.3549022078514099,-0.6349392533302307,0.8773502111434937
1684200794544234500,9.211234375,-0.3236873745918274,-0.8160094618797302,0.8610537052154541
1684200794554260200,9.22126025390625,-0.2657039761543274,-0.9690317511558533,0.8614619374275208
1684200794564287500,9.23128759765625,-0.22439086437225342,-1.1480669975280762,0.8722666501998901
1684200794574313500,9.2413134765625,-0.2360624372959137,-1.3244473934173584,0.9014639854431152
1684200794584339500,9.25133935546875,-0.2760064899921417,-1.4484683275222778,0.9538879990577698
1684200794594365400,9.261365478515625,-0.3206852674484253,-1.5245697498321533,1.0129514932632446
1684200794604391400,9.271391357421875,-0.36221635341644287,-1.5669161081314087,1.0315791368484497
1684200794614417400,9.28141748046875,-0.3859672248363495,-1.5550005435943604,1.0118701457977295
1684200794624443400,9.291443359375,-0.3989061117172241,-1.5234977006912231,0.9430643916130066
1684200794634469400,9.301469482421876,-0.3718284070491791,-1.4674222469329834,0.8573505282402039
1684200794644495400,9.311495361328125,-0.3084252178668976,-1.3723350763320923,0.7558199763298035
1684200794654521300,9.321521240234375,-0.243034228682518,-1.2521591186523438,0.6751421689987183
1684200794664547300,9.33154736328125,-0.17569954693317413,-1.0964876413345337,0.6478477120399475
1684200794674573300,9.3415732421875,-0.06485959887504578,-0.8028245568275452,0.7309159636497498
1684200794684599300,9.351599365234375,-0.037985652685165405,-0.5635269284248352,0.8413222432136536
1684200794694625300,9.361625244140624,-0.04880101606249809,-0.35616838932037354,0.9612350463867188
1684200794704651300,9.3716513671875,-0.054874200373888016,-0.2195747196674347,1.0484590530395508
1684200794714677200,9.38167724609375,-0.053542088717222214,-0.15533475577831268,1.0820621252059937
1684200794724703200,9.391703125,-0.07036994397640228,-0.21086671948432922,1.0652446746826172
1684200794734729200,9.401729248046875,-0.10886993259191513,-0.3424795866012573,0.9916450381278992
1684200794744755200,9.411755126953125,-0.13010206818580627,-0.48454010486602783,0.8441694378852844
1684200794754781200,9.42178125,-0.15265290439128876,-0.5353937149047852,0.6580384373664856
1684200794764807200,9.43180712890625,-0.24945856630802155,-0.46868589520454407,0.4992992877960205
1684200794774833400,9.44183349609375,-0.40206408500671387,-0.277668297290802,0.45818352699279785
1684200794784860400,9.4518603515625,-0.537021815776825,-0.002260406967252493,0.5767048597335815
1684200794794886400,9.461886474609376,-0.6124875545501709,0.16061852872371674,0.8348799347877502
1684200794804912400,9.471912353515625,-0.6551508903503418,0.12303345650434494,1.1278855800628662
1684200794814938400,9.4819384765625,-0.7078729867935181,-0.07013759762048721,1.3641414642333984
1684200794824964400,9.49196435546875,-0.79776930809021,-0.3024314343929291,1.5122389793395996
1684200794834990300,9.501990234375,-0.9194994568824768,-0.5178942084312439,1.5647120475769043
1684200794845016300,9.512016357421874,-1.0410257577896118,-0.7262716293334961,1.5510716438293457
1684200794855042300,9.522042236328126,-1.1286143064498901,-0.9258171916007996,1.4847824573516846
1684200794865068500,9.532068603515626,-1.1753568649291992,-1.0969923734664917,1.3400932550430298
1684200794875094500,9.542094482421875,-1.2032257318496704,-1.0590304136276245,1.0631252527236938
1684200794885120500,9.55212060546875,-1.0619549751281738,-0.412777304649353,0.41117823123931885
1684200794895146500,9.562146484375,-0.7240985631942749,0.6061635613441467,-0.2527630031108856
1684200794905172200,9.572172119140625,-0.4056795537471771,1.0993661880493164,-0.4389060437679291
1684200794915198200,9.5821982421875,-0.22075924277305603,1.0118821859359741,-0.26656222343444824
1684200794925224200,9.59222412109375,-0.2745075523853302,0.7179653644561768,-0.06778453290462494
1684200794935250200,9.602250244140626,-0.47534316778182983,0.6327745914459229,0.07663869112730026
1684200794945276200,9.612276123046875,-0.6361438035964966,0.7458589673042297,0.19949312508106232
1684200794955302100,9.62230224609375,-0.6672500371932983,0.8337509632110596,0.33311164379119873
1684200794965328100,9.632328125,-0.6035065650939941,0.8280047178268433,0.44773805141448975
1684200794975354400,9.642354248046875,-0.558467447757721,0.6508632302284241,0.5147495865821838
1684200794985380400,9.65238037109375,-0.5731025338172913,0.280769944190979,0.5639790892601013
1684200794995406300,9.66240625,-0.6071510314941406,-0.2025194615125656,0.5996763706207275
1684200795005433300,9.672433349609374,-0.6006789207458496,-0.7114776968955994,0.6352354884147644
1684200795015459300,9.682459228515626,-0.5322471261024475,-1.2906899452209473,0.6823217868804932
1684200795025485300,9.6924853515625,-0.4403832256793976,-1.9531406164169312,0.7270841002464294
1684200795035511300,9.70251123046875,-0.40664923191070557,-2.609792470932007,0.6665882468223572
1684200795045537300,9.712537353515625,-0.43883585929870605,-2.9057135581970215,0.4298514425754547
1684200795055563500,9.7225634765625,-0.4509500563144684,-2.7413625717163086,0.12009837478399277
1684200795065589500,9.732589599609375,-0.40606698393821716,-2.23704195022583,-0.07464972883462906
1684200795075615500,9.742615478515624,-0.3316574692726135,-1.5483325719833374,-0.09825465083122253
1684200795085641500,9.752641357421876,-0.31621596217155457,-0.8927502632141113,-0.03216581791639328
1684200795095667500,9.76266748046875,-0.3609520196914673,-0.37147268652915955,-0.009508706629276276
1684200795105693400,9.772693359375,-0.4082365334033966,0.03459436446428299,-0.0655214712023735
1684200795115719400,9.782719482421875,-0.4783346652984619,0.2903459668159485,-0.15062224864959717
1684200795125745400,9.792745361328125,-0.5689749121665955,0.4138133227825165,-0.23367840051651
1684200795135771400,9.802771484375,-0.6613469123840332,0.4942397177219391,-0.2771259844303131
1684200795145797400,9.81279736328125,-0.7386506795883179,0.7109111547470093,-0.2890673577785492
1684200795155823000,9.822822998046876,-0.7705305814743042,1.128968358039856,-0.2737046182155609
1684200795165849300,9.832849365234376,-0.7368606925010681,1.6611683368682861,-0.19457943737506866
1684200795175875300,9.842875244140625,-0.632417619228363,2.0285558700561523,-0.03231356665492058
1684200795185901300,9.8529013671875,-0.47046416997909546,1.991441011428833,0.25138866901397705
1684200795195927300,9.86292724609375,-0.2876339256763458,1.3322588205337524,0.7129510045051575
1684200795205954300,9.872954345703125,-0.14789742231369019,0.5827575922012329,1.066548228263855
1684200795215980300,9.882980224609375,-0.07639314979314804,0.1862587034702301,1.0814241170883179
1684200795226006300,9.89300634765625,-0.018058650195598602,-0.023188509047031403,0.8992805480957031
1684200795236032300,9.9030322265625,0.061112597584724426,-0.2266622632741928,0.6252686977386475
1684200795246058200,9.913058349609376,0.12461400032043457,-0.3972921371459961,0.31867715716362
1684200795256084500,9.92308447265625,0.18866916000843048,-0.5582014322280884,0.0305982306599617
1684200795266110500,9.9331103515625,0.24046237766742706,-0.7242181897163391,-0.17135463654994965
1684200795276136400,9.943136474609375,0.27823877334594727,-0.8769965767860413,-0.24976742267608643
1684200795286162400,9.953162353515625,0.2846094071865082,-0.9739835858345032,-0.24246898293495178
1684200795296188400,9.9631884765625,0.2627381980419159,-0.9998178482055664,-0.1861758828163147
1684200795306214400,9.97321435546875,0.19793736934661865,-0.9176921248435974,-0.09687583893537521
1684200795316240400,9.983240478515626,0.11656555533409119,-0.7200826406478882,-0.014604665338993073
1684200795326266400,9.993266357421875,0.04150525480508804,-0.4249245226383209,0.04637005925178528
1684200795336292400,10.003292236328125,-0.022081974893808365,-0.056154731661081314,0.08905494213104248
1684200795346318300,10.013318359375,-0.054149992763996124,0.31399622559547424,0.13949568569660187
1684200795356344300,10.02334423828125,-0.057820096611976624,0.6019800305366516,0.21282662451267242
1684200795366370600,10.03337060546875,-0.050185658037662506,0.7531471848487854,0.2880130112171173
1684200795376396500,10.043396484375,-0.022303160279989243,0.7411251664161682,0.35871726274490356
1684200795386422300,10.05342236328125,0.0020658536814153194,0.5948985815048218,0.45696884393692017
1684200795396448300,10.0634482421875,0.024434808641672134,0.30219215154647827,0.5521417260169983
1684200795406474200,10.07347412109375,0.061125028878450394,-0.05208302289247513,0.593212366104126
1684200795416500200,10.083500244140625,0.07529038935899734,-0.33710119128227234,0.556899905204773
1684200795426527200,10.09352734375,0.08765789866447449,-0.450190007686615,0.48516204953193665
1684200795436553200,10.10355322265625,0.10640788823366165,-0.4182264804840088,0.4128612279891968
1684200795446579200,10.1135791015625,0.1270625740289688,-0.3275126516819,0.3535674810409546
1684200795456605400,10.12360546875,0.13140885531902313,-0.22500410676002502,0.31693968176841736
1684200795466631400,10.13363134765625,0.11867709457874298,-0.1489296704530716,0.3088934123516083
1684200795476657400,10.143657470703126,0.1170608252286911,-0.15947045385837555,0.30987852811813354
1684200795486683400,10.153683349609375,0.10407992452383041,-0.2233148217201233,0.32864663004875183
1684200795496709400,10.16370947265625,0.05239942669868469,-0.32432106137275696,0.36267703771591187
1684200795506735400,10.1737353515625,0.009520233608782291,-0.41250529885292053,0.3878202438354492
1684200795516761300,10.18376123046875,-0.03293188661336899,-0.47504884004592896,0.392351359128952
1684200795526787300,10.193787353515624,-0.08517913520336151,-0.5219048857688904,0.3651025593280792
1684200795536813300,10.203813232421876,-0.14073294401168823,-0.5440674424171448,0.3245777487754822
1684200795546839300,10.21383935546875,-0.17749309539794922,-0.527035653591156,0.26571929454803467
1684200795556864500,10.223864501953125,-0.1869681030511856,-0.4756515622138977,0.19755780696868896
1684200795566890500,10.233890380859375,-0.17284105718135834,-0.40918731689453125,0.13602067530155182
1684200795576916500,10.24391650390625,-0.144307941198349,-0.37616679072380066,0.09101219475269318
1684200795586942500,10.2539423828125,-0.10229965299367905,-0.39943787455558777,0.05750163272023201
1684200795596968400,10.263968505859374,-0.06068297103047371,-0.4466589391231537,0.005589965730905533
1684200795606994400,10.273994384765626,-0.02699286863207817,-0.443343847990036,-0.0819997787475586
1684200795617020700,10.284020751953125,0.007509448565542698,-0.3842267394065857,-0.18661727011203766
1684200795627046700,10.294046630859375,0.03951696678996086,-0.3070811331272125,-0.2638944387435913
1684200795637073400,10.304073486328125,0.06079535931348801,-0.219122514128685,-0.27712687849998474
1684200795647099400,10.314099365234375,0.07362021505832672,-0.12181171774864197,-0.22360742092132568
1684200795657125400,10.32412548828125,0.07968743145465851,-0.04404395446181297,-0.12752430140972137
1684200795667151400,10.3341513671875,0.08206288516521454,0.006618922110646963,-0.01812892034649849
1684200795677177300,10.34417724609375,0.07163794338703156,0.0020526659209281206,0.09157440811395645
1684200795687203300,10.354203369140626,0.05749449133872986,-0.05277446284890175,0.18848679959774017
1684200795697229300,10.364229248046875,0.03710399940609932,-0.15703615546226501,0.27118247747421265
1684200795707255600,10.374255615234375,0.014227041974663734,-0.31127551198005676,0.3269742429256439
1684200795717281500,10.384281494140625,-0.010131826624274254,-0.4738348722457886,0.3527373969554901
1684200795727307500,10.3943076171875,-0.021988634020090103,-0.610633134841919,0.3587818741798401
1684200795737333500,10.40433349609375,-0.04219909384846687,-0.717396080493927,0.3406369388103485
1684200795747359500,10.414359375,-0.07575402408838272,-0.7950805425643921,0.2973068356513977
1684200795757385500,10.424385498046876,-0.11937899887561798,-0.8220021724700928,0.23830771446228027
1684200795767411500,10.434411376953125,-0.16447016596794128,-0.7660273313522339,0.17184728384017944
1684200795777437400,10.4444375,-0.2082032710313797,-0.6433812975883484,0.09936456382274628
1684200795787463400,10.45446337890625,-0.24148060381412506,-0.4989773631095886,0.038140714168548584
1684200795797489400,10.464489501953125,-0.2725096046924591,-0.41756027936935425,-0.009467283263802528
1684200795807515600,10.474515625,-0.2942250072956085,-0.4001389145851135,-0.04005573317408562
1684200795817541600,10.484541748046874,-0.29381221532821655,-0.38141822814941406,-0.06872306019067764
1684200795827567600,10.494567626953126,-0.2917037606239319,-0.3205142915248871,-0.10460608452558517
1684200795837593600,10.504593505859376,-0.2758699357509613,-0.20199641585350037,-0.14329569041728973
1684200795847619600,10.51461962890625,-0.2288430780172348,-0.05109802260994911,-0.1661587506532669
1684200795857646600,10.524646484375,-0.15702880918979645,0.06884115934371948,-0.1684458702802658
1684200795867672300,10.53467236328125,-0.07018661499023438,0.1171015128493309,-0.15199460089206696
1684200795877698300,10.5446982421875,0.017229249700903893,0.10240486264228821,-0.12899261713027954
1684200795887724300,10.554724365234375,0.10364731401205063,0.05418461933732033,-0.09745854139328003
1684200795897750500,10.56475048828125,0.16168345510959625,0.0014822628581896424,-0.07173667103052139
1684200795907776500,10.574776611328126,0.19231700897216797,-0.029057592153549194,-0.06295204907655716
1684200795917802500,10.584802490234376,0.21297994256019592,-0.02614382840692997,-0.07899226248264313
1684200795927828500,10.594828369140625,0.23777177929878235,0.0023020110093057156,-0.11212459951639175
1684200795937854500,10.6048544921875,0.26444122195243835,0.027287255972623825,-0.16136005520820618
1684200795947880400,10.61488037109375,0.30132347345352173,0.005818577017635107,-0.17969006299972534
1684200795957906400,10.624906494140625,0.3463878929615021,-0.14641064405441284,-0.14783865213394165
1684200795967932400,10.634932373046874,0.3710058033466339,-0.5679839849472046,-0.03475455567240715
1684200795977958400,10.64495849609375,0.37036609649658203,-1.2283430099487305,0.10539642721414566
1684200795987984400,10.654984375,0.3653191924095154,-1.7909172773361206,0.13682755827903748
1684200795998010400,10.66501025390625,0.36126455664634705,-2.0019521713256836,-0.004951683804392815
1684200796008036600,10.67503662109375,0.3643060326576233,-1.8403806686401367,-0.34433865547180176
1684200796018062600,10.6850625,0.37388888001441956,-1.31989324092865,-0.9366797208786011
1684200796028088600,10.695088623046875,0.4303344190120697,-0.520667314529419,-1.6982316970825195
1684200796038114600,10.705114501953124,0.47924259305000305,0.15844888985157013,-2.3101916313171387
1684200796048140500,10.715140625,0.47288626432418823,0.480878621339798,-2.609518527984619
1684200796058166500,10.72516650390625,0.4204675257205963,0.5148299336433411,-2.637221574783325
1684200796068192500,10.735192626953125,0.39569029211997986,0.3924623727798462,-2.5181307792663574
1684200796078218500,10.745218505859375,0.4493335485458374,0.20970188081264496,-2.4161109924316406
1684200796088245500,10.75524560546875,0.553067147731781,0.015914298593997955,-2.4573097229003906
1684200796098271500,10.765271484375,0.6561424136161804,-0.043889909982681274,-2.5920755863189697
1684200796108297500,10.77529736328125,0.7314977645874023,0.08874209970235825,-2.7015955448150635
1684200796118323500,10.785323486328124,0.7920213341712952,0.15381324291229248,-2.7693142890930176
1684200796128349400,10.795349365234374,0.8103970289230347,0.1393882781267166,-2.7258293628692627
1684200796138375400,10.80537548828125,0.8084741830825806,0.21987858414649963,-2.523984670639038
1684200796148401400,10.8154013671875,0.784060537815094,0.3183209002017975,-2.2513372898101807
1684200796158427400,10.825427490234375,0.7653233408927917,0.5030161738395691,-1.8805115222930908
1684200796168453400,10.835453369140625,0.7850024104118347,0.750051736831665,-1.4582421779632568
1684200796178479400,10.845479248046875,0.9148676991462708,0.8388937711715698,-1.162433385848999
1684200796188505300,10.85550537109375,1.1481190919876099,0.8510822057723999,-1.1141856908798218
1684200796198531300,10.86553125,1.3751733303070068,1.0870548486709595,-1.1495304107666016
1684200796208557600,10.8755576171875,1.5557881593704224,1.4880491495132446,-1.1260960102081299
1684200796218583600,10.88558349609375,1.6183055639266968,1.8457398414611816,-1.0885581970214844
1684200796228609500,10.895609619140625,1.5900462865829468,2.175128221511841,-1.061527132987976
1684200796238635500,10.905635498046875,1.5351265668869019,2.372141122817993,-1.1742984056472778
1684200796248661500,10.91566162109375,1.4710228443145752,2.3678805828094482,-1.0458999872207642
1684200796258687500,10.9256875,1.4094252586364746,2.160346746444702,-0.7832169532775879
1684200796268713500,10.93571337890625,1.321601390838623,1.8563779592514038,-0.5285270810127258
1684200796278739500,10.945739501953126,1.1915254592895508,1.6652413606643677,-0.3698045611381531
1684200796288765400,10.955765380859376,1.0341603755950928,1.5919642448425293,-0.3752467632293701
1684200796298791400,10.96579150390625,0.8862766623497009,1.5427322387695312,-0.47190219163894653
1684200796308818700,10.975818603515625,0.8327592611312866,1.5590819120407104,-0.5488029718399048
1684200796318844700,10.9858447265625,0.8007837533950806,1.612224817276001,-0.6389389634132385
1684200796328870700,10.99587060546875,0.7440561056137085,1.8622422218322754,-0.59083092212677
1684200796338896600,11.005896728515625,0.6511812806129456,2.020559787750244,-0.4807921051979065
1684200796348922400,11.01592236328125,0.5409417152404785,2.019338369369507,-0.3840468227863312
1684200796358948400,11.0259482421875,0.5532093048095703,1.9858593940734863,-0.3635716438293457
1684200796368974300,11.035974365234376,0.5940753221511841,1.7748634815216064,-0.418256551027298
1684200796379000300,11.046000244140625,0.5883473753929138,1.5134854316711426,-0.4522499442100525
1684200796389026300,11.0560263671875,0.527025043964386,1.3192188739776611,-0.4353364109992981
1684200796399052500,11.066052490234375,0.45904120802879333,1.111148715019226,-0.38039112091064453
1684200796409078500,11.07607861328125,0.3916850686073303,0.8404825925827026,-0.3096080422401428
1684200796419104500,11.0861044921875,0.32526370882987976,0.5610618591308594,-0.23356838524341583
1684200796429130500,11.096130615234374,0.27779144048690796,0.3976476490497589,-0.17372141778469086
1684200796439156500,11.106156494140626,0.2333587259054184,0.34260594844818115,-0.1464269459247589
1684200796449182500,11.116182373046875,0.24536332488059998,0.25279930233955383,-0.11351580172777176
1684200796459208400,11.12620849609375,0.27427300810813904,0.19494213163852692,-0.037850603461265564
1684200796469234400,11.136234375,0.31742629408836365,0.1481914222240448,0.0645814910531044
1684200796479260400,11.146260498046875,0.31961700320243835,0.09934105724096298,0.21171420812606812
1684200796489286400,11.156286376953124,0.2479025423526764,0.05554921552538872,0.3831498622894287
1684200796499312400,11.1663125,0.1508958339691162,0.0035738996230065823,0.5551632046699524
1684200796509338600,11.176338623046876,0.060045044869184494,-0.08430176973342896,0.7030811905860901
1684200796519364600,11.186364501953125,-0.056566789746284485,-0.1567927449941635,0.8071551322937012
1684200796529390600,11.196390625,-0.1810242086648941,-0.22021086513996124,0.8697690963745117
1684200796539416600,11.20641650390625,-0.2776210606098175,-0.2937180995941162,0.9005815982818604
1684200796549442600,11.216442626953125,-0.34322547912597656,-0.37081408500671387,0.9263990521430969
1684200796559469800,11.2264697265625,-0.3597591817378998,-0.43967223167419434,0.9625834226608276
1684200796569495800,11.236495849609375,-0.3471040725708008,-0.5187478065490723,1.0325757265090942
1684200796579521800,11.246521728515624,-0.32929179072380066,-0.6333593130111694,1.1272833347320557
1684200796589547800,11.2565478515625,-0.3234247863292694,-0.7614456415176392,1.214533805847168
1684200796599573800,11.26657373046875,-0.3300611078739166,-0.8722624778747559,1.2835972309112549
1684200796609599700,11.276599853515625,-0.34626710414886475,-0.9004473686218262,1.323600172996521
1684200796619625700,11.286625732421875,-0.37080785632133484,-0.8472903966903687,1.3141496181488037
1684200796629651700,11.296651611328125,-0.38479968905448914,-0.757628321647644,1.2903289794921875
1684200796639677700,11.306677734375,-0.3818894028663635,-0.7004310488700867,1.26846444606781
1684200796649703700,11.31670361328125,-0.37536364793777466,-0.7316935658454895,1.2450917959213257
1684200796659729700,11.326729736328126,-0.37546032667160034,-0.8065606355667114,1.2349108457565308
1684200796669756000,11.336755859375,-0.339489221572876,-0.8917477130889893,1.228927731513977
1684200796679782000,11.346781982421875,-0.3226234018802643,-0.954683780670166,1.2410269975662231
1684200796689808000,11.356807861328125,-0.35952621698379517,-0.987556517124176,1.276228427886963
1684200796699833900,11.366833740234375,-0.36797162890434265,-0.9706473350524902,1.2762300968170166
1684200796709859800,11.37685986328125,-0.36031296849250793,-0.9127063155174255,1.2253559827804565
1684200796719885800,11.3868857421875,-0.3652701675891876,-0.8544954657554626,1.1583913564682007
1684200796729911800,11.396911865234374,-0.37902402877807617,-0.8333675861358643,1.114381194114685
1684200796739937800,11.406937744140626,-0.4147958755493164,-0.827715277671814,1.112747073173523
1684200796749963800,11.4169638671875,-0.48306065797805786,-0.8810659050941467,1.1429771184921265
1684200796759989800,11.42698974609375,-0.5453876852989197,-0.9160827398300171,1.1296980381011963
1684200796770015700,11.437015625,-0.5484145879745483,-0.8328834772109985,1.0224523544311523
1684200796780043000,11.44704296875,-0.4896908104419708,-0.6518774628639221,0.8119209408760071
1684200796790069000,11.457069091796875,-0.36242741346359253,-0.43042945861816406,0.5255722999572754
1684200796800094700,11.4670947265625,-0.2144775539636612,-0.21374334394931793,0.2783142328262329
1684200796810120700,11.47712060546875,-0.12387748807668686,-0.09375029057264328,0.1763066053390503
1684200796820146700,11.487146728515626,-0.09565597772598267,-0.07335633784532547,0.21200041472911835
1684200796830172700,11.497172607421875,-0.12212155014276505,-0.087143175303936,0.3112417161464691
1684200796840198700,11.50719873046875,-0.18649360537528992,-0.12391902506351471,0.4168664216995239
1684200796850224600,11.517224609375,-0.26300644874572754,-0.16631871461868286,0.5087071657180786
1684200796860251000,11.5272509765625,-0.3559161424636841,-0.2539643943309784,0.5733399391174316
1684200796870276900,11.53727685546875,-0.4250437021255493,-0.3369307816028595,0.5975075960159302
1684200796880302800,11.547302734375,-0.39914578199386597,-0.36684340238571167,0.5927599668502808
1684200796890328800,11.557328857421876,-0.29717040061950684,-0.3431723117828369,0.5837985873222351
1684200796900354800,11.567354736328125,-0.16527043282985687,-0.2999880909919739,0.5458277463912964
1684200796910380800,11.577380859375,-0.06733017414808273,-0.2333863377571106,0.4531365633010864
1684200796920406800,11.58740673828125,-0.01995227485895157,-0.14432969689369202,0.333805650472641
1684200796930432800,11.597432861328125,-0.011032463051378727,-0.07586673647165298,0.2319537252187729
1684200796940458800,11.607458740234375,-0.03159632533788681,-0.06307104974985123,0.17723987996578217
1684200796950484700,11.617484619140624,-0.05848565697669983,-0.1461181640625,0.1458195447921753
1684200796960510700,11.6275107421875,-0.07093913108110428,-0.2858656942844391,0.13413652777671814
1684200796970537000,11.637536865234376,-0.07399237155914307,-0.34466710686683655,0.16255129873752594
1684200796980563000,11.64756298828125,-0.07859911024570465,-0.42479363083839417,0.16819585859775543
1684200796990589000,11.6575888671875,-0.08270540833473206,-0.6270726323127747,0.10157410800457001
1684200797000615000,11.667614990234375,-0.10726800560951233,-0.8027868866920471,0.0974012017250061
1684200797010641000,11.677640869140625,-0.149567112326622,-0.8002581000328064,0.19760024547576904
1684200797020668000,11.68766796875,-0.2106192708015442,-0.6459484696388245,0.3175455331802368
1684200797030694000,11.69769384765625,-0.3076413571834564,-0.6175934076309204,0.3344506621360779
1684200797040720000,11.707719970703126,-0.3673446476459503,-0.8118035793304443,0.22628319263458252
1684200797050745600,11.71774560546875,-0.3828001022338867,-0.9678821563720703,0.17373065650463104
1684200797060771800,11.727771728515625,-0.4241315722465515,-1.0447871685028076,0.2241078019142151
1684200797070797800,11.7377978515625,-0.5173121690750122,-1.153954029083252,0.268735408782959
1684200797080823800,11.74782373046875,-0.6416953206062317,-1.6388685703277588,0.14321023225784302
1684200797090849800,11.757849853515625,-0.770147979259491,-2.509852647781372,-0.2001635879278183
1684200797100875800,11.767875732421874,-0.8923468589782715,-2.9184768199920654,-0.38743865489959717
1684200797110901800,11.77790185546875,-1.0051054954528809,-2.883551836013794,-0.3586885929107666
1684200797120927700,11.787927734375,-1.1268398761749268,-2.505128860473633,-0.25986719131469727
1684200797130953700,11.79795361328125,-1.1985377073287964,-2.15456485748291,-0.3584209680557251
1684200797140979700,11.807979736328125,-1.191684603691101,-1.699633002281189,-0.5263404250144958
1684200797151005700,11.818005615234375,-0.9862426519393921,-0.795609176158905,-0.5809314250946045
1684200797161031700,11.82803173828125,-0.7718296647071838,0.1999209076166153,-0.5540564060211182
1684200797171058000,11.838057861328124,-0.6289727687835693,1.047014594078064,-0.5282910466194153
1684200797181084000,11.848083984375,-0.4008045196533203,1.6539628505706787,-0.43551182746887207
1684200797191110000,11.85810986328125,-0.2208973467350006,1.7663335800170898,-0.3523053526878357
1684200797201135900,11.868135986328125,-0.1607285439968109,1.5645495653152466,-0.24624577164649963
1684200797211161900,11.878161865234375,-0.21744714677333832,1.2718573808670044,-0.18593327701091766
1684200797221187800,11.888187744140625,-0.25445738434791565,0.9003216624259949,-0.16371159255504608
1684200797231213800,11.8982138671875,-0.052828602492809296,0.8614123463630676,-0.056158389896154404
1684200797241239800,11.90823974609375,0.14769411087036133,0.8907268047332764,0.12944529950618744
1684200797251265800,11.918265869140624,0.27956345677375793,0.8942798376083374,0.3480999767780304
1684200797261293000,11.92829296875,0.2974740266799927,0.8737508654594421,0.5399919748306274
1684200797271319000,11.938319091796876,0.1912529468536377,0.890868604183197,0.6739913821220398
1684200797281344800,11.9483447265625,-0.001911198254674673,0.8649762868881226,0.6751114726066589
1684200797291370800,11.958370849609375,-0.04603809863328934,0.9381370544433594,0.6471477150917053
1684200797301396700,11.968396728515625,-0.1121542751789093,1.2078183889389038,0.5650251507759094
1684200797311422700,11.978422607421875,-0.35594847798347473,1.546156406402588,0.5533826351165771
1684200797321448700,11.98844873046875,-0.44336646795272827,1.9367533922195435,0.6389385461807251
1684200797331474700,11.998474609375,-0.547085702419281,2.402259111404419,0.622523844242096
1684200797341500700,12.008500732421876,-0.8523982167243958,2.847778081893921,0.6054292917251587
1684200797351526700,12.018526611328125,-1.3285443782806396,3.3169636726379395,0.6543022394180298
1684200797361553000,12.028552978515625,-1.7394278049468994,3.6623167991638184,0.6466877460479736
1684200797371579000,12.038578857421875,-2.0483133792877197,3.5883352756500244,0.5297955870628357
1684200797381604900,12.04860498046875,-2.279684543609619,3.211791753768921,0.426473468542099
1684200797391630800,12.058630859375,-2.3275556564331055,2.6853861808776855,0.40242230892181396
1684200797401656800,12.06865673828125,-2.2390544414520264,2.1275761127471924,0.4211390018463135
1684200797411682800,12.078682861328126,-1.9566115140914917,1.6653050184249878,0.4498903453350067
1684200797421708800,12.088708740234376,-1.4622966051101685,1.4127471446990967,0.48255589604377747
1684200797431734800,12.09873486328125,-0.8610990047454834,1.2621427774429321,0.5012860894203186
1684200797441760800,12.1087607421875,-0.2149023860692978,1.0635367631912231,0.5072864294052124
1684200797451786800,12.118786865234375,0.37329813838005066,0.7016460299491882,0.5110418200492859
1684200797461812700,12.128812744140625,0.7991016507148743,0.051131438463926315,0.5105315446853638
1684200797471839000,12.1388388671875,1.0146864652633667,-0.8466587066650391,0.4401662051677704
1684200797481865000,12.148864990234374,1.0478140115737915,-1.8139251470565796,0.2889854609966278
1684200797491892000,12.15889208984375,0.98222416639328,-2.422987699508667,0.24657954275608063
1684200797501918000,12.16891796875,0.8823303580284119,-2.607966184616089,0.4361949861049652
1684200797511944000,12.17894384765625,0.759462296962738,-2.5013957023620605,0.7773532867431641
1684200797521970000,12.188969970703125,0.6562743782997131,-2.276688814163208,1.165160894393921
1684200797531995600,12.19899560546875,0.6283912658691406,-2.0823655128479004,1.401227355003357
1684200797542021600,12.209021728515625,0.7063699960708618,-1.9347532987594604,1.445447564125061
1684200797552047600,12.219047607421874,0.7928542494773865,-1.7942712306976318,1.3452075719833374
1684200797562073300,12.2290732421875,0.9309269189834595,-1.3142098188400269,1.1411510705947876
1684200797572099600,12.239099609375,1.1589674949645996,-0.5522186160087585,0.9008210301399231
1684200797582125600,12.24912548828125,1.5279375314712524,0.5228664875030518,0.9025430679321289
1684200797592151600,12.259151611328125,2.2566897869110107,3.10898756980896,1.9695794582366943
1684200797602177500,12.269177490234375,2.512012004852295,4.395657062530518,2.0979201793670654
1684200797612203500,12.27920361328125,2.0982375144958496,3.694025993347168,1.18637216091156
1684200797622229500,12.2892294921875,1.7542518377304077,3.2792046070098877,1.1484262943267822
1684200797632255500,12.29925537109375,1.6795133352279663,2.4341342449188232,1.2956308126449585
1684200797642281500,12.309281494140626,1.8279001712799072,1.0863929986953735,1.3776122331619263
1684200797652307500,12.319307373046875,1.9953886270523071,-0.24373199045658112,1.4340344667434692
1684200797662333400,12.32933349609375,2.1556074619293213,-1.1951241493225098,1.3569029569625854
1684200797672359400,12.339359375,1.9599580764770508,-1.5671058893203735,1.1241542100906372
1684200797682385700,12.3493857421875,1.4389369487762451,-1.611158847808838,0.49297863245010376
1684200797692411600,12.35941162109375,0.8455408215522766,-1.4445589780807495,-0.5982654690742493
1684200797702437600,12.369437744140624,0.3408776521682739,-1.869795560836792,-2.2858211994171143
1684200797712463600,12.379463623046876,-0.31555092334747314,-3.0466554164886475,-3.6721694469451904
1684200797722489600,12.389489501953125,-1.3521709442138672,-4.106904983520508,-4.777253150939941
1684200797732515600,12.399515625,-2.085995674133301,-5.475525379180908,-5.6034345626831055
1684200797742542600,12.40954248046875,-2.2402498722076416,-6.848230838775635,-5.938610553741455
1684200797752568600,12.419568603515625,-2.1209187507629395,-6.441951274871826,-5.306375980377197
1684200797762594800,12.4295947265625,-1.605519413948059,-5.612729072570801,-4.301207065582275
1684200797772620800,12.439620849609375,-0.8172694444656372,-4.406544208526611,-3.12088942527771
1684200797782646800,12.449646728515624,0.16063962876796722,-3.066596269607544,-2.1906685829162598
1684200797792672500,12.459672607421876,1.1798874139785767,-2.290193557739258,-1.6362087726593018
1684200797802698500,12.469698486328125,1.793426752090454,-1.6653879880905151,-1.3101688623428345
1684200797812724500,12.479724365234375,1.7510687112808228,-0.4169654846191406,-1.0429810285568237
1684200797822750500,12.48975048828125,1.2988394498825073,0.7894635200500488,-0.9200483560562134
1684200797832776400,12.4997763671875,0.8874763250350952,1.6263495683670044,-0.7803815603256226
1684200797842802400,12.509802490234375,0.5852301716804504,1.0321764945983887,-1.188981056213379
1684200797852828400,12.519828369140624,0.22694656252861023,0.4737137258052826,-1.3388078212738037
