time,seconds_elapsed,z,y,x
1684200806996586200,0.032586181640625,-0.5811387896537781,2.434208869934082,-0.8701045513153076
1684200807006612200,0.0426123046875,-0.8495110869407654,2.9081623554229736,-0.9370527267456055
1684200807016638200,0.05263818359375,-1.1811546087265015,3.0834591388702393,-1.0176384449005127
1684200807026664200,0.062664306640625,-1.5999561548233032,3.129384994506836,-1.2478786706924438
1684200807036690400,0.0726904296875,-2.0834789276123047,3.6206228733062744,-1.3416298627853394
1684200807046716400,0.08271630859375,-2.3103373050689697,3.8660264015197754,-1.2270375490188599
1684200807056742400,0.092742431640625,-2.3721868991851807,3.796276092529297,-1.1192902326583862
1684200807066768400,0.102768310546875,-2.609238624572754,3.704343557357788,-1.184743881225586
1684200807076794400,0.11279443359375,-2.7953057289123535,4.477022171020508,-1.0200828313827515
1684200807086820400,0.1228203125,-3.048940420150757,5.67747163772583,-0.5886320471763611
1684200807096846300,0.132846435546875,-3.4290874004364014,7.042774677276611,0.09020347148180008
1684200807106872300,0.142872314453125,-3.8786721229553223,8.20566177368164,0.7552488446235657
1684200807116898300,0.152898193359375,-4.500205993652344,8.791030883789062,1.1676104068756104
1684200807126924300,0.16292431640625,-5.208735942840576,8.236251831054688,1.1516402959823608
1684200807136950300,0.1729501953125,-5.844961643218994,6.964154243469238,0.7719597816467285
1684200807146976500,0.1829765625,-6.282608509063721,5.862283229827881,0.2632885277271271
1684200807157002500,0.19300244140625,-6.436431407928467,5.093127250671387,-0.16532783210277557
1684200807167028500,0.203028564453125,-6.290111541748047,4.717306137084961,-0.28722286224365234
1684200807177054500,0.213054443359375,-6.069172382354736,4.76793909072876,-0.056442923843860626
1684200807187080400,0.22308056640625,-5.975069999694824,5.039786338806152,0.44685935974121094
1684200807197106400,0.2331064453125,-5.9364142417907715,5.125340461730957,1.0883255004882812
1684200807207132400,0.24313232421875,-5.898806095123291,4.91801118850708,1.8061954975128174
1684200807217158400,0.253158447265625,-5.82552433013916,4.223867893218994,2.363786458969116
1684200807227184400,0.263184326171875,-5.773850440979004,3.019345760345459,2.457547664642334
1684200807237211400,0.27321142578125,-5.715770721435547,1.887379765510559,2.1184568405151367
1684200807247237400,0.2832373046875,-5.613937854766846,0.9116768836975098,1.50491201877594
1684200807257263400,0.293263427734375,-5.35628604888916,0.5077919363975525,0.9925584197044373
1684200807267289300,0.303289306640625,-4.919824600219727,0.5509543418884277,0.8017921447753906
1684200807277315300,0.3133154296875,-4.372922420501709,0.7339182496070862,0.8956524729728699
1684200807287341300,0.32334130859375,-3.8625566959381104,0.765679121017456,1.2117919921875
1684200807297367300,0.3333671875,-3.399833917617798,0.44541263580322266,1.5495669841766357
1684200807307393300,0.343393310546875,-2.8104617595672607,-0.0643845945596695,1.8156644105911255
1684200807317419300,0.353419189453125,-2.2420101165771484,-0.6487454771995544,1.93003511428833
1684200807327445200,0.3634453125,-1.7896291017532349,-1.5650558471679688,1.6513233184814453
1684200807337471200,0.37347119140625,-1.390312671661377,-2.652890920639038,0.9485312700271606
1684200807347497500,0.38349755859375,-0.9424132704734802,-3.5143749713897705,0.080000139772892
1684200807357523500,0.3935234375,-0.48506319522857666,-4.026079177856445,-0.7629655003547668
1684200807367549400,0.403549560546875,-0.0854119211435318,-3.935997247695923,-1.2098524570465088
1684200807377575400,0.413575439453125,0.11427277326583862,-3.403831720352173,-1.0495681762695312
1684200807387601400,0.423601318359375,0.09848342835903168,-2.5888314247131348,-0.41038206219673157
1684200807397627400,0.43362744140625,-0.04742509126663208,-1.8737808465957642,-0.014883497729897499
1684200807407653400,0.4436533203125,-0.11197452247142792,-1.3072649240493774,0.3928094208240509
1684200807417679400,0.453679443359375,-0.13947169482707977,-0.8300468325614929,1.1057308912277222
1684200807427705300,0.463705322265625,-0.06290607899427414,-0.5864437818527222,1.6623387336730957
1684200807437731300,0.4737314453125,0.005566895939409733,-0.46783190965652466,1.738906741142273
1684200807447757300,0.48375732421875,-0.03945224732160568,-0.581163227558136,1.5828059911727905
1684200807457783600,0.493783447265625,-0.29540717601776123,-0.6221568584442139,1.5157098770141602
1684200807467809500,0.5038095703125,-0.4402538537979126,-0.29501014947891235,1.8038502931594849
1684200807477835500,0.51383544921875,-0.5722745656967163,-0.5796576142311096,2.14308762550354
1684200807487862300,0.5238623046875,-0.8525930047035217,-0.9040391445159912,2.0952420234680176
1684200807497888300,0.53388818359375,-0.7613468766212463,-0.6254906058311462,2.3009438514709473
1684200807507914200,0.543914306640625,-0.5723101496696472,-0.5303742289543152,2.7306101322174072
1684200807517940200,0.553940185546875,-1.1695963144302368,-1.0669777393341064,2.1187689304351807
1684200807527966200,0.56396630859375,-1.7936497926712036,-0.908951461315155,0.796302080154419
1684200807537992400,0.573992431640625,-1.707841157913208,-0.3776406943798065,0.011407225392758846
1684200807548018400,0.584018310546875,-1.0634301900863647,0.444472074508667,0.27088382840156555
1684200807558044400,0.59404443359375,-0.22676575183868408,1.504819393157959,0.9892155528068542
1684200807568071200,0.6040712890625,0.6683468818664551,2.119656801223755,2.0370726585388184
1684200807578097200,0.61409716796875,1.1953707933425903,1.8621169328689575,2.3168931007385254
1684200807588123100,0.624123046875,1.191980242729187,1.1068120002746582,1.29104483127594
1684200807598149000,0.634149169921875,0.899112343788147,0.43202540278434753,-0.20980653166770935
1684200807608175000,0.644175048828125,1.0408105850219727,0.19440671801567078,-0.9113388061523438
1684200807618201000,0.654201171875,1.46064031124115,0.18230196833610535,-0.9870880246162415
1684200807628227000,0.66422705078125,1.6375925540924072,0.3741752803325653,-0.9609653353691101
1684200807638253000,0.674253173828125,1.7012407779693604,0.47752225399017334,-1.0724364519119263
1684200807648279000,0.684279052734375,1.771733283996582,0.3351137042045593,-1.2196866273880005
1684200807658305000,0.694304931640625,2.1175875663757324,0.2024218589067459,-1.3584282398223877
1684200807668331000,0.7043310546875,2.7045176029205322,0.2116611748933792,-1.5915675163269043
1684200807678357200,0.714357177734375,3.247811794281006,0.3313595652580261,-1.9045416116714478
1684200807688383000,0.724383056640625,3.7495839595794678,0.622380793094635,-2.200488805770874
1684200807698409000,0.734408935546875,4.1078619956970215,0.9642337560653687,-2.237338066101074
1684200807708435000,0.74443505859375,4.467875003814697,0.9505147337913513,-2.0802881717681885
1684200807718461000,0.7544609375,4.433384895324707,0.6976199150085449,-1.6200908422470093
1684200807728487000,0.76448681640625,3.7444894313812256,0.6555057168006897,-1.3518953323364258
1684200807738514000,0.774513916015625,2.82724666595459,0.6276451945304871,-1.3829413652420044
1684200807748540000,0.784539794921875,2.3937835693359375,1.0586873292922974,-1.092190146446228
1684200807758566100,0.794566162109375,1.7218024730682373,1.4273908138275146,-0.7887021899223328
1684200807768592100,0.804592041015625,1.5020980834960938,1.532854676246643,-0.7957539558410645
1684200807778618000,0.8146181640625,1.619282603263855,2.5062506198883057,-0.9710884690284729
1684200807788644000,0.82464404296875,1.775341510772705,3.2355895042419434,-1.0376180410385132
1684200807798670000,0.834670166015625,1.5971060991287231,3.2419934272766113,-0.831514298915863
1684200807808696000,0.844696044921875,1.2343765497207642,3.5960090160369873,-0.8801055550575256
1684200807818722000,0.85472216796875,0.870540976524353,4.581292152404785,-0.9776892066001892
1684200807828748000,0.864748046875,0.432701051235199,4.909078121185303,-0.8978039622306824
1684200807838774000,0.87477392578125,-1.729831337928772,2.0750701427459717,1.0555541515350342
1684200807848800000,0.884800048828125,-3.592888355255127,1.0358771085739136,2.3829054832458496
1684200807858826000,0.894825927734375,-3.991387128829956,1.049902319908142,3.1138901710510254
1684200807868852200,0.904852294921875,-3.2447402477264404,1.819498896598816,3.7144196033477783
1684200807878878200,0.914878173828125,-2.377324342727661,1.8883452415466309,4.127898693084717
1684200807888904200,0.924904296875,-2.0874593257904053,1.3612779378890991,4.108985424041748
1684200807898930200,0.93493017578125,-2.1035361289978027,0.44276463985443115,3.404660701751709
1684200807908956200,0.9449560546875,-2.201322555541992,-0.39102903008461,1.9901773929595947
1684200807918982100,0.954982177734375,-2.5612032413482666,-1.055751919746399,0.32614263892173767
1684200807929008000,0.965008056640625,-3.287452459335327,-1.2823728322982788,-1.0676250457763672
1684200807939034000,0.9750341796875,-4.293965816497803,-1.4264607429504395,-2.2070417404174805
1684200807949059800,0.985059814453125,-5.258854866027832,-1.7859693765640259,-3.162700653076172
1684200807959085800,0.9950859375,-5.989212512969971,-2.130969285964966,-3.960261344909668
1684200807969111800,1.00511181640625,-6.089142799377441,-2.102806568145752,-4.409481048583984
1684200807979138000,1.015137939453125,-5.235783576965332,-1.3120168447494507,-4.089939594268799
1684200807989165000,1.0251650390625,-3.7039477825164795,-0.5741318464279175,-3.1907567977905273
1684200807999191000,1.03519091796875,-1.8390287160873413,-0.24614785611629486,-1.8270105123519897
1684200808009217000,1.045217041015625,-0.003165894653648138,0.1155773252248764,-0.11422186344861984
1684200808019243000,1.055242919921875,0.7891396284103394,0.4145473539829254,1.2303473949432373
1684200808029269000,1.06526904296875,0.9784368276596069,0.8065752983093262,2.093585252761841
1684200808039295000,1.075294921875,1.2335318326950073,1.0647262334823608,2.4533536434173584
1684200808049321000,1.085321044921875,0.9342106580734253,0.6421265006065369,2.1157336235046387
1684200808059347000,1.095346923828125,0.585841953754425,0.031170105561614037,1.4549834728240967
1684200808069373200,1.105373291015625,0.1452683061361313,-0.8126919269561768,0.53755784034729
1684200808079399200,1.115399169921875,-0.29464298486709595,-1.0948671102523804,-0.08164672553539276
1684200808089425200,1.125425048828125,-0.7621009945869446,-0.5391015410423279,-0.3575983941555023
1684200808099451100,1.135451171875,-0.9700124263763428,0.32227709889411926,-0.36331653594970703
1684200808109477000,1.14547705078125,-0.8261106610298157,0.9101465344429016,-0.27349981665611267
1684200808119503000,1.155503173828125,-0.44404032826423645,1.0535086393356323,-0.12162385880947113
1684200808129529000,1.165529052734375,0.022238953039050102,0.9606165289878845,0.1648087054491043
1684200808139555000,1.17555517578125,0.6720866560935974,0.45662128925323486,0.3878694176673889
1684200808149581000,1.1855810546875,1.1667879819869995,-0.35585641860961914,0.41617509722709656
1684200808159607000,1.19560693359375,1.3442829847335815,-0.6815988421440125,0.579101026058197
1684200808169633000,1.205633056640625,0.9607068300247192,-0.5373657941818237,0.5645471215248108
1684200808179659000,1.215658935546875,0.4945482015609741,-0.015762679278850555,0.5455734729766846
1684200808189685000,1.22568505859375,0.09346230328083038,0.5375381112098694,0.561604380607605
1684200808199711000,1.2357109375,-0.1744859367609024,1.1919044256210327,0.6271098256111145
1684200808209737000,1.245737060546875,-0.5970475673675537,1.5413793325424194,0.7901714444160461
1684200808219764000,1.255763916015625,-1.1744290590286255,1.4934810400009155,1.0900369882583618
1684200808229790000,1.2657900390625,-1.7446554899215698,0.969885528087616,1.1359819173812866
1684200808239816000,1.27581591796875,-1.9341554641723633,0.5890951156616211,1.0570329427719116
1684200808249842000,1.285842041015625,-1.9940848350524902,0.632958710193634,0.9656434655189514
1684200808259868000,1.295867919921875,-2.119518518447876,0.716418981552124,0.7502981424331665
1684200808269894100,1.30589404296875,-2.050760507583618,0.8534902930259705,0.48074740171432495
1684200808279920000,1.315920166015625,-1.680311918258667,1.5219461917877197,0.3931441903114319
1684200808289946000,1.325946044921875,-1.015020728111267,2.2253499031066895,0.36024004220962524
1684200808299972000,1.33597216796875,-0.36355894804000854,1.962950348854065,0.2189222127199173
1684200808309998000,1.345998046875,-0.019545655697584152,0.8740020990371704,0.042906180024147034
1684200808320024000,1.356024169921875,0.2842332422733307,-0.14469432830810547,0.05775921791791916
1684200808330050000,1.366050048828125,0.5880982875823975,-0.8905290961265564,0.1851981282234192
1684200808340076000,1.376075927734375,0.25732070207595825,-1.1698840856552124,0.23189426958560944
1684200808350102000,1.38610205078125,-0.38519778847694397,-0.9010667204856873,0.13027895987033844
1684200808360128000,1.3961279296875,-0.5953937768936157,-0.29204612970352173,0.17425523698329926
1684200808370154200,1.406154296875,-0.17265741527080536,0.5005359053611755,0.13878779113292694
1684200808380180200,1.41618017578125,0.7663381695747375,1.327236294746399,-0.17374522984027863
1684200808390206200,1.426206298828125,1.8340973854064941,1.8774242401123047,-0.7125058770179749
1684200808400232200,1.436232177734375,0.9594075679779053,1.6870782375335693,-1.1819032430648804
1684200808410258200,1.446258056640625,-0.9948011040687561,0.5369018912315369,-0.619327962398529
1684200808420284200,1.4562841796875,-1.8140466213226318,-1.2727351188659668,0.508417546749115
1684200808430310000,1.466309814453125,-1.4766249656677246,-2.304442882537842,0.5805351734161377
1684200808440336000,1.4763359375,-0.7386060953140259,-2.9296422004699707,-0.03598446398973465
1684200808450363000,1.48636279296875,0.14210765063762665,-2.6008548736572266,-0.5567981004714966
1684200808460389000,1.49638916015625,0.2932949364185333,-1.821418285369873,-0.41511836647987366
1684200808470415000,1.5064150390625,-0.44995176792144775,-0.08571843802928925,-0.4025908410549164
1684200808480441000,1.516441162109375,-0.3369404077529907,1.5046718120574951,-0.08942561596632004
1684200808490467000,1.526467041015625,0.0920194461941719,2.7798914909362793,0.1357497125864029
1684200808500493000,1.5364931640625,0.6187061667442322,3.6073856353759766,0.03363000229001045
1684200808510519000,1.54651904296875,0.9541237950325012,3.4079818725585938,-0.03241319581866264
1684200808520545000,1.556544921875,0.987117350101471,2.8517422676086426,-0.060390591621398926
1684200808530571000,1.566571044921875,0.7009567022323608,2.5282959938049316,-0.21347548067569733
1684200808540597000,1.576596923828125,0.576809287071228,2.0271568298339844,-0.25384119153022766
1684200808550623000,1.586623046875,0.6696241497993469,1.226102352142334,-0.17149171233177185
1684200808560649000,1.59664892578125,0.6664419174194336,0.0752728059887886,-0.26371392607688904
1684200808570674400,1.60667431640625,0.6163688898086548,-0.8641817569732666,-0.42618539929389954
1684200808580700700,1.61670068359375,0.5843422412872314,-1.4729210138320923,-0.40474891662597656
1684200808590726700,1.6267265625,0.7801703214645386,-1.8636478185653687,-0.2842065393924713
1684200808600752600,1.636752685546875,0.9757153391838074,-2.048579454421997,-0.19476908445358276
1684200808610778600,1.646778564453125,1.1790343523025513,-2.0105037689208984,-0.1774851679801941
1684200808620804600,1.6568046875,1.554412841796875,-1.8244218826293945,-0.14305120706558228
1684200808630830600,1.66683056640625,2.0029735565185547,-1.4015510082244873,-0.050967082381248474
1684200808640856600,1.676856689453125,2.3598310947418213,-0.5339669585227966,-0.052521008998155594
1684200808650882600,1.686882568359375,2.1456663608551025,0.13365106284618378,0.05818287283182144
1684200808660908500,1.696908447265625,1.0621106624603271,0.38012465834617615,0.01429539080709219
1684200808670934500,1.7069345703125,-0.16170717775821686,0.29338788986206055,0.06124425679445267
1684200808680960500,1.71696044921875,-0.8575912714004517,0.13408033549785614,0.3138200044631958
1684200808690987500,1.726987548828125,-1.0674920082092285,0.10627426952123642,0.7066106796264648
1684200808701013500,1.737013427734375,-1.0291719436645508,0.3878939747810364,1.0626599788665771
1684200808711039500,1.74703955078125,-0.8890140056610107,0.8597545027732849,1.2790296077728271
1684200808721065500,1.7570654296875,-0.8526028990745544,1.3760144710540771,1.4717644453048706
1684200808731091500,1.767091552734375,-0.7589986324310303,1.7716889381408691,1.6088027954101562
1684200808741117400,1.777117431640625,-0.6014993190765381,1.918606162071228,1.6569948196411133
1684200808751143400,1.787143310546875,-0.442314475774765,1.899627447128296,1.701188087463379
1684200808761169400,1.79716943359375,-0.27173271775245667,1.7153446674346924,1.7276456356048584
1684200808771195400,1.8071953125,0.04637230187654495,1.3441650867462158,1.677756667137146
1684200808781221600,1.8172216796875,0.4396083950996399,0.6285166144371033,1.6132853031158447
1684200808791247600,1.82724755859375,0.7259719371795654,-0.45091772079467773,1.5577809810638428
1684200808801273600,1.837273681640625,0.7912686467170715,-1.2528144121170044,1.4297162294387817
1684200808811299600,1.847299560546875,0.41458526253700256,-1.611024022102356,0.37179622054100037
1684200808821325600,1.85732568359375,0.09048913419246674,-1.4626559019088745,-0.3719477951526642
1684200808831351600,1.8673515625,-0.030273767188191414,-1.0857900381088257,-0.9459447264671326
1684200808841377500,1.87737744140625,0.05709310621023178,-0.8424999713897705,-1.0307552814483643
1684200808851403500,1.887403564453125,0.1596064269542694,-1.0644670724868774,-0.8843317031860352
1684200808861429500,1.897429443359375,0.22123223543167114,-1.6107314825057983,-0.6474794745445251
1684200808871455500,1.90745556640625,0.20403780043125153,-1.9973039627075195,-0.33788514137268066
1684200808881481500,1.9174814453125,0.11058872938156128,-1.8505258560180664,0.017375636845827103
1684200808891507700,1.9275078125,-0.0006049000658094883,-1.3260791301727295,0.28808996081352234
1684200808901533700,1.93753369140625,-0.07562591880559921,-0.7558327913284302,0.46073994040489197
1684200808911559700,1.9475595703125,-0.12152043730020523,-0.3618631064891815,0.5386272668838501
1684200808921586400,1.95758642578125,-0.1563088595867157,-0.1427023708820343,0.5005335211753845
1684200808931612400,1.9676123046875,-0.15164433419704437,-0.02168487012386322,0.38486045598983765
1684200808941638400,1.977638427734375,-0.12242349237203598,-0.061559081077575684,0.20652776956558228
1684200808951664400,1.987664306640625,-0.12769681215286255,-0.33630383014678955,0.01882551796734333
1684200808961690400,1.9976904296875,-0.031560853123664856,-0.8341238498687744,-0.1712554693222046
1684200808971716600,2.007716552734375,-0.01485883817076683,-1.2054859399795532,-0.3888069689273834
1684200808981742600,2.01774267578125,-0.04349784553050995,-1.333388090133667,-0.5708755254745483
1684200808991768600,2.0277685546875,-0.04639110714197159,-1.241839051246643,-0.6842542886734009
1684200809001794600,2.037794677734375,-0.029504310339689255,-1.0425543785095215,-0.703443169593811
1684200809011820500,2.047820556640625,-0.015731774270534515,-0.8667041659355164,-0.6397131681442261
1684200809021846500,2.057846435546875,-0.036214716732501984,-0.8000738620758057,-0.5368170142173767
1684200809031872500,2.06787255859375,-0.07433360815048218,-0.8379964828491211,-0.40526190400123596
1684200809041898500,2.0778984375,-0.10372772812843323,-0.870320737361908,-0.27343326807022095
1684200809051924500,2.087924560546875,-0.13893179595470428,-0.8425434231758118,-0.16243644058704376
1684200809061950500,2.097950439453125,-0.18181632459163666,-0.7433416843414307,-0.08177657425403595
1684200809071976400,2.1079765625,-0.2332877814769745,-0.6053829789161682,-0.016614878550171852
1684200809082002700,2.118002685546875,-0.28503045439720154,-0.4634125530719757,0.048828452825546265
1684200809092028700,2.128028564453125,-0.2861820161342621,-0.36378875374794006,0.11369267106056213
1684200809102054700,2.1380546875,-0.17516548931598663,-0.4575677216053009,0.20488356053829193
1684200809112080600,2.14808056640625,-0.1283215433359146,-0.6414861083030701,0.21655194461345673
1684200809122106600,2.158106689453125,-0.11309044063091278,-0.7597706317901611,0.1856168955564499
1684200809132132600,2.168132568359375,-0.10141487419605255,-0.8039021492004395,0.1280215084552765
1684200809142158600,2.17815869140625,-0.10079606622457504,-0.7664486765861511,0.04518549144268036
1684200809152185300,2.188185302734375,-0.12506254017353058,-0.7107588052749634,-0.0483095720410347
1684200809162211300,2.19821142578125,-0.14429716765880585,-0.6498650312423706,-0.1423659473657608
1684200809172237600,2.208237548828125,-0.15842178463935852,-0.5601100921630859,-0.21974967420101166
1684200809182263600,2.218263671875,-0.16761867702007294,-0.4813655912876129,-0.2587514817714691
1684200809192289500,2.22828955078125,-0.16794678568840027,-0.4390554130077362,-0.2543005347251892
1684200809202315500,2.2383154296875,-0.15619023144245148,-0.4456062316894531,-0.21458283066749573
1684200809212341500,2.248341552734375,-0.137285515666008,-0.4769471287727356,-0.15816456079483032
1684200809222367500,2.258367431640625,-0.13210664689540863,-0.51239413022995,-0.09286440908908844
1684200809232393500,2.2683935546875,-0.11560571193695068,-0.4975302517414093,-0.024975642561912537
1684200809242419500,2.27841943359375,-0.08951257914304733,-0.416981965303421,0.0435200035572052
1684200809252445400,2.288445556640625,-0.05699564889073372,-0.3083702623844147,0.10502278059720993
1684200809262471400,2.298471435546875,-0.0243047047406435,-0.20916523039340973,0.15050983428955078
1684200809272497400,2.308497314453125,0.015176390297710896,-0.14840441942214966,0.1750766932964325
1684200809282523600,2.318523681640625,0.057077787816524506,-0.11962217092514038,0.17120778560638428
1684200809292549600,2.328549560546875,0.08979658782482147,-0.11397813260555267,0.13238102197647095
1684200809302575600,2.33857568359375,0.10294123739004135,-0.14012748003005981,0.06426431238651276
1684200809312601600,2.3486015625,0.10609228909015656,-0.19800809025764465,-0.0331256203353405
1684200809322627600,2.358627685546875,0.11019281297922134,-0.28683707118034363,-0.14989161491394043
1684200809332653600,2.368653564453125,0.12389957159757614,-0.4047381281852722,-0.2772913873195648
1684200809342679600,2.378679443359375,0.14681118726730347,-0.5383889079093933,-0.4187372624874115
1684200809352705500,2.38870556640625,0.18531517684459686,-0.6632352471351624,-0.5580983757972717
1684200809362731500,2.3987314453125,0.22257187962532043,-0.7485001683235168,-0.6922502517700195
1684200809372758500,2.408758544921875,0.25318410992622375,-0.7628463506698608,-0.8063309788703918
1684200809382784500,2.418784423828125,0.26136067509651184,-0.7149354219436646,-0.897368311882019
1684200809392810500,2.428810546875,0.25999554991722107,-0.61805659532547,-0.9564869999885559
1684200809402836500,2.43883642578125,0.26440322399139404,-0.49181056022644043,-0.9916390776634216
1684200809412862500,2.448862548828125,0.2648088037967682,-0.32635262608528137,-1.0101691484451294
1684200809422888400,2.458888427734375,0.26108330488204956,-0.14874567091464996,-1.0534452199935913
1684200809432914400,2.46891455078125,0.25615617632865906,0.08860563486814499,-1.1148502826690674
1684200809442940400,2.4789404296875,0.30973806977272034,0.39527222514152527,-1.2644699811935425
1684200809452966400,2.48896630859375,0.44467031955718994,0.7099923491477966,-1.5658332109451294
1684200809462992400,2.498992431640625,0.6170682907104492,0.9572060108184814,-1.9330583810806274
1684200809473018400,2.509018310546875,0.7877795696258545,1.1919139623641968,-2.174347400665283
1684200809483044600,2.519044677734375,0.9452632069587708,1.327591896057129,-2.2619729042053223
1684200809493070600,2.529070556640625,1.07470703125,1.3411511182785034,-2.2495944499969482
1684200809503096600,2.5390966796875,1.1475239992141724,1.3448207378387451,-2.150599718093872
1684200809513122600,2.54912255859375,1.1816431283950806,1.3863749504089355,-1.9613943099975586
1684200809523148500,2.5591484375,1.177591323852539,1.406480312347412,-1.7128400802612305
1684200809533174500,2.569174560546875,1.1887577772140503,1.1336860656738281,-1.5474261045455933
1684200809543200500,2.579200439453125,1.2227410078048706,0.6030985116958618,-1.4656364917755127
1684200809553226500,2.5892265625,1.3033831119537354,0.1571498066186905,-1.305393099784851
1684200809563252700,2.599252685546875,1.4276984930038452,-0.0695362240076065,-1.0979280471801758
1684200809573278700,2.60927880859375,1.5025335550308228,0.06372223049402237,-0.9521290063858032
1684200809583304700,2.6193046875,1.4948804378509521,0.46818262338638306,-0.868851363658905
1684200809593331700,2.629331787109375,1.3698322772979736,0.9107341766357422,-0.7740806937217712
1684200809603357700,2.639357666015625,1.2443385124206543,1.3035330772399902,-0.6421051621437073
1684200809613383700,2.6493837890625,1.149972915649414,1.574004054069519,-0.4901379942893982
1684200809623409700,2.65940966796875,1.1011388301849365,1.6638767719268799,-0.3042735457420349
1684200809633435600,2.669435546875,1.120764136314392,1.5922805070877075,-0.11927574872970581
1684200809643461600,2.679461669921875,1.1348413228988647,1.452444076538086,0.01708727702498436
1684200809653487600,2.689487548828125,1.127711534500122,1.269199252128601,0.08680989593267441
1684200809663513600,2.699513671875,1.118861198425293,1.0491948127746582,0.09927156567573547
1684200809673539600,2.70953955078125,1.1039615869522095,0.8595958948135376,0.0786360651254654
1684200809683565600,2.719565673828125,1.0831975936889648,0.7903998494148254,0.030133001506328583
1684200809693591800,2.729591796875,1.0784739255905151,0.7906954884529114,-0.07086338847875595
1684200809703617800,2.73961767578125,1.0792006254196167,0.8881976008415222,-0.1531306505203247
1684200809713643800,2.749643798828125,1.049678921699524,0.9776697158813477,-0.13765154778957367
1684200809723669800,2.759669677734375,0.9662637710571289,0.9422228932380676,-0.05593908950686455
1684200809733695700,2.76969580078125,0.8300084471702576,0.8015888333320618,0.09922412782907486
1684200809743721700,2.7797216796875,0.6912933588027954,0.6923784017562866,0.2504955530166626
1684200809753747700,2.789747802734375,0.5688350796699524,0.5954204797744751,0.30815833806991577
1684200809763773700,2.799773681640625,0.4772791564464569,0.511095404624939,0.2985389232635498
1684200809773799700,2.809799560546875,0.406327486038208,0.3417729437351227,0.2730966806411743
1684200809783825700,2.81982568359375,0.33650413155555725,0.1221517026424408,0.2613884210586548
1684200809793852000,2.829851806640625,0.27358508110046387,-0.10555842518806458,0.25085243582725525
1684200809803878000,2.8398779296875,0.23352734744548798,-0.2529648244380951,0.25594788789749146
1684200809813904000,2.84990380859375,0.20029430091381073,-0.32524168491363525,0.2851390242576599
1684200809823930600,2.8599306640625,0.15473604202270508,-0.33364158868789673,0.3416312336921692
1684200809833956600,2.86995654296875,0.10217536985874176,-0.27123627066612244,0.4172855019569397
1684200809843982600,2.879982666015625,0.04252488538622856,-0.1678154319524765,0.5258439183235168
1684200809854008600,2.890008544921875,-0.03851883485913277,-0.07777021825313568,0.6503869295120239
1684200809864034600,2.90003466796875,-0.1362238973379135,-0.007587444502860308,0.7626569271087646
1684200809874060500,2.910060546875,-0.22765128314495087,0.0011527837486937642,0.8319241404533386
1684200809884086800,2.920086669921875,-0.30995288491249084,-0.053989388048648834,0.8420817852020264
1684200809894112800,2.93011279296875,-0.37369006872177124,-0.17251338064670563,0.8200265765190125
1684200809904138800,2.940138671875,-0.43918606638908386,-0.36239731311798096,0.7912014722824097
1684200809914164700,2.950164794921875,-0.49620887637138367,-0.5584198236465454,0.7575747966766357
1684200809924190700,2.960190673828125,-0.5202532410621643,-0.6832491159439087,0.7285197377204895
1684200809934216700,2.970216796875,-0.5087443590164185,-0.7547594904899597,0.703520655632019
1684200809944242700,2.98024267578125,-0.47350627183914185,-0.7999324202537537,0.6733832955360413
1684200809954268700,2.9902685546875,-0.44482696056365967,-0.7874696254730225,0.6466081738471985
1684200809964294700,3.000294677734375,-0.42973363399505615,-0.7148089408874512,0.6558066606521606
1684200809974320600,3.010320556640625,-0.4107527434825897,-0.654144287109375,0.6956211924552917
1684200809984346600,3.0203466796875,-0.41040387749671936,-0.6299111247062683,0.785341203212738
1684200809994372900,3.030372802734375,-0.43456193804740906,-0.6400489807128906,0.9105033874511719
1684200810004398800,3.04039892578125,-0.49795058369636536,-0.6692620515823364,1.0199735164642334
1684200810014424800,3.0504248046875,-0.5638076066970825,-0.6828274130821228,1.0906553268432617
1684200810024450800,3.060450927734375,-0.6222087740898132,-0.6346957087516785,1.128082513809204
1684200810034476800,3.070476806640625,-0.6706045269966125,-0.5472617745399475,1.131675124168396
1684200810044503800,3.08050390625,-0.7139275074005127,-0.4910968244075775,1.1176480054855347
1684200810054529800,3.09052978515625,-0.7609967589378357,-0.4542780816555023,1.1047255992889404
1684200810064555500,3.100555419921875,-0.8132263422012329,-0.428011029958725,1.0625933408737183
1684200810074581500,3.11058154296875,-0.8733282685279846,-0.4326622486114502,0.9742438197135925
1684200810084607700,3.120607666015625,-0.9078327417373657,-0.4802492558956146,0.8725309371948242
1684200810094633700,3.1306337890625,-0.93702632188797,-0.5271536707878113,0.7630337476730347
1684200810104659700,3.14065966796875,-0.9790884852409363,-0.5853093862533569,0.6667317748069763
1684200810114685700,3.150685791015625,-1.0072954893112183,-0.6864972710609436,0.597650945186615
1684200810124711700,3.160711669921875,-1.0296680927276611,-0.7827367186546326,0.5860618352890015
1684200810134737700,3.170737548828125,-1.0781896114349365,-0.8384931683540344,0.6107115149497986
1684200810144763600,3.180763671875,-1.1324872970581055,-0.839328408241272,0.632074236869812
1684200810154789600,3.19078955078125,-1.1851617097854614,-0.7600865960121155,0.6407036781311035
1684200810164815600,3.200815673828125,-1.2216037511825562,-0.5579525828361511,0.598776638507843
1684200810174841600,3.210841552734375,-1.212419867515564,-0.3242727220058441,0.47338011860847473
1684200810184867600,3.22086767578125,-1.1196026802062988,-0.17361508309841156,0.23429591953754425
1684200810194893800,3.230893798828125,-0.9318979978561401,-0.23357374966144562,-0.09174742549657822
1684200810204919800,3.240919921875,-0.6543782353401184,-0.5469043254852295,-0.47934409976005554
1684200810214945800,3.25094580078125,-0.32548096776008606,-0.9368568658828735,-0.8065810799598694
1684200810224971800,3.2609716796875,-0.06108889356255531,-1.1147942543029785,-0.9383378624916077
1684200810234997800,3.270997802734375,-0.003101229202002287,-0.8722660541534424,-0.8285210728645325
1684200810245023700,3.281023681640625,-0.16423769295215607,-0.23144084215164185,-0.5530954599380493
1684200810255050800,3.29105078125,-0.42267510294914246,0.4565120041370392,-0.2167624682188034
1684200810265076700,3.30107666015625,-0.5955587029457092,0.756152331829071,0.12437477707862854
1684200810275102700,3.311102783203125,-0.5853755474090576,0.6297959685325623,0.4150084853172302
1684200810285128700,3.321128662109375,-0.47828614711761475,0.32828816771507263,0.5687059760093689
1684200810295154700,3.33115478515625,-0.38341236114501953,0.08282700926065445,0.5317756533622742
1684200810305180700,3.3411806640625,-0.3237922787666321,-0.07973283529281616,0.3440174162387848
1684200810315206700,3.35120654296875,-0.2747783958911896,-0.21738843619823456,0.09359797090291977
1684200810325232600,3.361232666015625,-0.20624224841594696,-0.4113837778568268,-0.15861199796199799
1684200810335258600,3.371258544921875,-0.14575600624084473,-0.7632648944854736,-0.37050187587738037
1684200810345284600,3.38128466796875,-0.10369659215211868,-1.1617127656936646,-0.4995916783809662
1684200810355310600,3.391310546875,-0.05710538849234581,-1.438368558883667,-0.5442717671394348
1684200810365336600,3.401336669921875,-0.010911352932453156,-1.4551920890808105,-0.5250230431556702
1684200810375362600,3.411362548828125,0.01027595717459917,-1.1523776054382324,-0.46844661235809326
1684200810385388800,3.421388916015625,-0.005305186845362186,-0.6100153923034668,-0.3857309818267822
1684200810395414800,3.431414794921875,-0.04238038510084152,-0.021130602806806564,-0.30126962065696716
1684200810405440800,3.441440673828125,-0.09622281044721603,0.4464883506298065,-0.2027048021554947
1684200810415466800,3.451466796875,-0.1460750699043274,0.7179904580116272,-0.10580143332481384
1684200810425492700,3.46149267578125,-0.20632323622703552,0.7881185412406921,-0.020701145753264427
1684200810435518700,3.471518798828125,-0.24235448241233826,0.7645207643508911,0.05897344648838043
1684200810445544700,3.481544677734375,-0.2290973961353302,0.8071497678756714,0.15374089777469635
1684200810455570700,3.49157080078125,-0.1982923448085785,0.9287922978401184,0.2688123881816864
1684200810465596700,3.5015966796875,-0.17622195184230804,1.084062099456787,0.4216856062412262
1684200810475624000,3.5116240234375,-0.13969109952449799,1.346184492111206,0.6748834848403931
1684200810485650000,3.52164990234375,-0.10858079046010971,1.3855992555618286,0.91151362657547
1684200810495676000,3.531676025390625,-0.10208667069673538,1.0957647562026978,1.027189016342163
1684200810505702000,3.541701904296875,-0.07888408750295639,0.677951991558075,1.0022629499435425
1684200810515728000,3.551727783203125,-0.03857367858290672,0.3782994747161865,0.8815963864326477
1684200810525753900,3.56175390625,0.01480767410248518,0.3191068470478058,0.7492882013320923
1684200810535779800,3.57177978515625,0.05225145071744919,0.37377408146858215,0.631713330745697
1684200810545805600,3.5818056640625,0.06440738588571548,0.3435300290584564,0.5064561367034912
1684200810555831600,3.59183154296875,0.07865583151578903,0.24065475165843964,0.4188216030597687
1684200810565857500,3.601857421875,0.08383065462112427,0.10183194279670715,0.37787267565727234
1684200810575883300,3.61188330078125,0.09081612527370453,0.0025445055216550827,0.38715752959251404
1684200810585909200,3.6219091796875,0.09322891384363174,-0.023247189819812775,0.410689115524292
1684200810595935200,3.631935302734375,0.07290580123662949,-0.027592403814196587,0.4044642448425293
1684200810605961200,3.641961181640625,0.04954097419977188,0.02171514369547367,0.403906911611557
1684200810615987200,3.6519873046875,0.026327529922127724,0.10846389085054398,0.4023982286453247
1684200810626013200,3.66201318359375,-0.0031361731234937906,0.14951463043689728,0.37535107135772705
1684200810636039200,3.6720390625,-0.04137144237756729,0.1563645452260971,0.32740405201911926
1684200810646065400,3.6820654296875,-0.05735355615615845,0.18028263747692108,0.28822872042655945
1684200810656091400,3.69209130859375,-0.0717087909579277,0.19429698586463928,0.2687245309352875
1684200810666117400,3.702117431640625,-0.1015854999423027,0.1820237636566162,0.2708083689212799
1684200810676143400,3.712143310546875,-0.13227815926074982,0.17778587341308594,0.28050145506858826
1684200810686170400,3.72217041015625,-0.1550166755914688,0.23018884658813477,0.31149694323539734
1684200810696196400,3.7321962890625,-0.15595410764217377,0.2642618417739868,0.35207661986351013
1684200810706222300,3.742222412109375,-0.15504032373428345,0.2567436695098877,0.3680694103240967
1684200810716248300,3.752248291015625,-0.14349497854709625,0.19017156958580017,0.3435438275337219
1684200810726274300,3.7622744140625,-0.1278824657201767,0.1380348652601242,0.3047676682472229
1684200810736300500,3.772300537109375,-0.10998602211475372,0.103345587849617,0.2733716666698456
1684200810746326500,3.782326416015625,-0.08775000274181366,0.059694793075323105,0.22956769168376923
1684200810756352500,3.7923525390625,-0.07422753423452377,0.06042876094579697,0.21052822470664978
1684200810766378500,3.80237841796875,-0.05642693489789963,0.03553919121623039,0.18251769244670868
1684200810776404500,3.812404541015625,-0.044376131147146225,-0.0014523854479193687,0.15688556432724
1684200810786430500,3.822430419921875,-0.02554209716618061,-0.002538311295211315,0.1395590603351593
1684200810796456400,3.83245654296875,-0.01545217726379633,-0.008745340630412102,0.131550133228302
1684200810806482400,3.842482421875,-0.008266696706414223,-0.05015222728252411,0.13270427286624908
1684200810816508400,3.85250830078125,0.002060243394225836,-0.11953742802143097,0.11668935418128967
1684200810826534100,3.8625341796875,-0.001609345432370901,-0.1828257143497467,0.08711802214384079
1684200810836560100,3.87256005859375,-0.015383746474981308,-0.23149339854717255,0.042971331626176834
1684200810846586400,3.88258642578125,-0.03351563960313797,-0.21200422942638397,0.017159294337034225
1684200810856612400,3.8926123046875,-0.060440465807914734,-0.15015044808387756,0.010949336923658848
1684200810866638300,3.902638427734375,-0.087078757584095,-0.10045439004898071,0.01609921082854271
1684200810876664300,3.912664306640625,-0.09352467209100723,-0.057682156562805176,0.017263542860746384
1684200810886690300,3.922690185546875,-0.08807534724473953,-0.02700924500823021,0.017657071352005005
1684200810896717300,3.93271728515625,-0.07615344226360321,-0.05655994638800621,0.01607648655772209
1684200810906743300,3.942743408203125,-0.06669024378061295,-0.11872375756502151,0.019349947571754456
1684200810916769300,3.952769287109375,-0.05972714722156525,-0.16669367253780365,0.017409835010766983
1684200810926795300,3.962795166015625,-0.05881622061133385,-0.19060534238815308,0.012230184860527515
1684200810936821500,3.972821533203125,-0.045923326164484024,-0.2242511808872223,-0.006228185258805752
1684200810946847500,3.982847412109375,-0.027044806629419327,-0.3039289116859436,-0.04255801439285278
1684200810956873500,3.99287353515625,-0.01881564036011696,-0.3598177433013916,-0.05868585407733917
1684200810966899500,4.0028994140625,-0.011436446569859982,-0.38527077436447144,-0.07488295435905457
1684200810976925400,4.012925537109375,-0.02023819461464882,-0.3983626067638397,-0.08576089888811111
1684200810986951400,4.022951416015625,-0.04222141206264496,-0.38194966316223145,-0.09144489467144012
1684200810996977400,4.032977294921875,-0.06784049421548843,-0.329984188079834,-0.09492004662752151
1684200811007003400,4.04300341796875,-0.09763377904891968,-0.2692360281944275,-0.10532008111476898
1684200811017029400,4.053029296875,-0.13307751715183258,-0.22982044517993927,-0.11830458790063858
1684200811027055400,4.063055419921875,-0.1693936586380005,-0.21907015144824982,-0.13410437107086182
1684200811037081300,4.073081298828125,-0.19787323474884033,-0.21703124046325684,-0.1448049545288086
1684200811047107600,4.083107666015625,-0.2131398469209671,-0.2061503380537033,-0.13661973178386688
1684200811057133300,4.09313330078125,-0.22568786144256592,-0.20129166543483734,-0.11477622389793396
1684200811067159300,4.1031591796875,-0.23617486655712128,-0.20807428658008575,-0.08642826974391937
1684200811077185300,4.113185302734375,-0.2272506058216095,-0.23341399431228638,-0.05585065484046936
1684200811087211300,4.123211181640625,-0.21896782517433167,-0.28033408522605896,-0.038056645542383194
1684200811097238300,4.13323828125,-0.2130177915096283,-0.3225976526737213,-0.04309454560279846
1684200811107264300,4.14326416015625,-0.21900303661823273,-0.32461807131767273,-0.0647614598274231
1684200811117290200,4.153290283203125,-0.2352786809206009,-0.2995896637439728,-0.08558764308691025
1684200811127316500,4.16331640625,-0.25749701261520386,-0.2496681958436966,-0.0926147848367691
1684200811137342500,4.173342529296875,-0.26508381962776184,-0.19257110357284546,-0.08019965887069702
1684200811147368400,4.183368408203125,-0.27658772468566895,-0.15459416806697845,-0.04647776484489441
1684200811157394400,4.19339453125,-0.27844634652137756,-0.139572873711586,-0.01664796471595764
1684200811167420400,4.20342041015625,-0.257864385843277,-0.1326349973678589,-0.011390293017029762
1684200811177446400,4.2134462890625,-0.21997320652008057,-0.13947133719921112,-0.03343780338764191
1684200811187472400,4.223472412109375,-0.1577022671699524,-0.1545901596546173,-0.07618201524019241
1684200811197498400,4.233498291015625,-0.09312567114830017,-0.1704341024160385,-0.13453400135040283
1684200811207524400,4.2435244140625,-0.03216531127691269,-0.18781352043151855,-0.21564921736717224
1684200811217550300,4.25355029296875,0.032665885984897614,-0.16308926045894623,-0.31069129705429077
1684200811227576300,4.263576416015625,0.10856606066226959,-0.07976798713207245,-0.4012567698955536
1684200811237602600,4.2736025390625,0.19302955269813538,-0.0005725042428821325,-0.443143755197525
1684200811247628500,4.283628662109375,0.3060377240180969,-0.020900879055261612,-0.42972761392593384
1684200811257654500,4.293654541015625,0.4160555601119995,-0.11298687011003494,-0.38009029626846313
1684200811267680500,4.303680419921875,0.4892178475856781,-0.17959412932395935,-0.3615124523639679
1684200811277706500,4.31370654296875,0.506882905960083,-0.19225800037384033,-0.415488064289093
1684200811287732500,4.323732421875,0.4809172749519348,-0.21253702044487,-0.5449529886245728
1684200811297759200,4.33375927734375,0.44106626510620117,-0.2497381716966629,-0.7427025437355042
1684200811307785200,4.34378515625,0.39779096841812134,-0.2664867043495178,-0.9975664019584656
1684200811317811200,4.353811279296875,0.36333927512168884,-0.2549360394477844,-1.2741572856903076
1684200811327837400,4.36383740234375,0.33953505754470825,-0.2501884698867798,-1.558801531791687
1684200811337863400,4.373863525390625,0.3437100946903229,-0.2272261381149292,-1.8121100664138794
1684200811347889400,4.383889404296875,0.38401564955711365,-0.13751406967639923,-2.005980968475342
1684200811357915400,4.393915283203125,0.47479936480522156,0.0144826490432024,-2.143582344055176
1684200811367941400,4.40394140625,0.5919179916381836,0.17186768352985382,-2.255467176437378
1684200811377967400,4.41396728515625,0.7444705367088318,0.31086257100105286,-2.3164494037628174
1684200811387993300,4.423993408203125,0.8953143358230591,0.4383071959018707,-2.2970898151397705
1684200811398019300,4.434019287109375,1.0354437828063965,0.5411672592163086,-2.1859753131866455
1684200811408045300,4.44404541015625,1.0990129709243774,0.528858482837677,-2.019986391067505
1684200811418071300,4.4540712890625,1.092350721359253,0.4393104910850525,-1.8025190830230713
1684200811428097300,4.46409716796875,1.0701608657836914,0.41150572896003723,-1.4854068756103516
1684200811438123500,4.47412353515625,1.0528122186660767,0.2857043743133545,-1.14617919921875
1684200811448149500,4.4841494140625,1.0606790781021118,0.03838713839650154,-0.8367726802825928
1684200811458175500,4.494175537109375,1.0983463525772095,-0.3079036772251129,-0.603858470916748
1684200811468201500,4.504201416015625,1.1707777976989746,-0.5888488292694092,-0.46550655364990234
1684200811478227500,4.5142275390625,1.265498399734497,-0.5414685606956482,-0.40617746114730835
1684200811488253400,4.52425341796875,1.358687400817871,-0.1610238254070282,-0.41675904393196106
1684200811498280200,4.5342802734375,1.4099798202514648,0.3067537546157837,-0.48822149634361267
1684200811508306200,4.54430615234375,1.3753336668014526,0.728103756904602,-0.492359459400177
1684200811518332200,4.554332275390625,1.3012712001800537,1.040008544921875,-0.4109697937965393
1684200811528358400,4.5643583984375,1.1962804794311523,1.1897372007369995,-0.3314378559589386
1684200811538384400,4.57438427734375,1.1198461055755615,1.2566488981246948,-0.2308148443698883
1684200811548410400,4.584410400390625,1.0806723833084106,1.2450320720672607,-0.11017116904258728
1684200811558436400,4.594436279296875,1.0973011255264282,1.2411351203918457,0.01045085210353136
1684200811568462000,4.604462158203125,1.1624115705490112,1.2524254322052002,0.14261268079280853
1684200811578488000,4.614488037109375,1.2390505075454712,1.2734743356704712,0.2701379060745239
1684200811588514000,4.62451416015625,1.3041170835494995,1.2910652160644531,0.34349673986434937
1684200811598540000,4.6345400390625,1.3511914014816284,1.338827133178711,0.3226873278617859
1684200811608566000,4.64456591796875,1.3543280363082886,1.3708302974700928,0.19876353442668915
1684200811618592000,4.654592041015625,1.2711760997772217,1.3316874504089355,0.09097155183553696
1684200811628618000,4.664617919921875,1.1556580066680908,1.2354987859725952,0.10365630686283112
1684200811638644200,4.674644287109375,1.0530062913894653,1.1297893524169922,0.19042742252349854
1684200811648670200,4.684670166015625,0.9757660031318665,1.068263292312622,0.259554922580719
1684200811658696200,4.6946962890625,0.9307825565338135,0.9925171136856079,0.2744063138961792
1684200811668722200,4.70472216796875,0.8619809746742249,0.8925451636314392,0.2649441659450531
1684200811678748200,4.714748046875,0.786122739315033,0.7338668704032898,0.24468708038330078
1684200811688774100,4.724774169921875,0.7160531282424927,0.5671868920326233,0.22369888424873352
1684200811698801200,4.73480126953125,0.6544083952903748,0.45851102471351624,0.20571748912334442
1684200811708827100,4.7448271484375,0.5863184928894043,0.3867902457714081,0.2268057018518448
1684200811718853000,4.75485302734375,0.5125761032104492,0.284281462430954,0.30293458700180054
1684200811728879000,4.764879150390625,0.4295365810394287,0.17955920100212097,0.38627323508262634
1684200811738905000,4.774905029296875,0.33931294083595276,0.12652847170829773,0.4367563724517822
1684200811748931000,4.78493115234375,0.264230340719223,0.06318157911300659,0.46088331937789917
1684200811758957000,4.79495703125,0.18921281397342682,-0.02136179991066456,0.4905317425727844
1684200811768983000,4.804983154296875,0.10287372022867203,-0.06994187831878662,0.5180347561836243
1684200811779009000,4.815009033203125,-0.006601645611226559,-0.039404742419719696,0.5270013809204102
1684200811789035000,4.825034912109375,-0.13043782114982605,0.011271676048636436,0.519111156463623
1684200811799061000,4.83506103515625,-0.2207256406545639,0.008809584192931652,0.5176544189453125
1684200811809087000,4.8450869140625,-0.29185259342193604,-0.05240627005696297,0.5288010835647583
1684200811819113000,4.855113037109375,-0.3406883180141449,-0.16295142471790314,0.5743387937545776
1684200811829139000,4.865138916015625,-0.3738742768764496,-0.3052193522453308,0.6151391863822937
1684200811839165200,4.875165283203125,-0.40373870730400085,-0.42255157232284546,0.6372516751289368
1684200811849191200,4.885191162109375,-0.4445619285106659,-0.5231859683990479,0.6512195467948914
1684200811859217200,4.895217041015625,-0.5013740658760071,-0.6252316832542419,0.6641582250595093
1684200811869243100,4.9052431640625,-0.5632943511009216,-0.7184067368507385,0.6795417070388794
1684200811879269000,4.91526904296875,-0.6392861008644104,-0.7849615216255188,0.6885684728622437
1684200811889295000,4.925295166015625,-0.7096673846244812,-0.8418437242507935,0.6851073503494263
1684200811899322000,4.935322021484375,-0.7770783305168152,-0.8789777755737305,0.6747161746025085
1684200811909348000,4.94534814453125,-0.8274855613708496,-0.9014008641242981,0.6758422255516052
1684200811919374300,4.955374267578125,-0.856378972530365,-0.936668872833252,0.6986892223358154
1684200811929400300,4.965400390625,-0.8672423958778381,-0.976325511932373,0.7338196039199829
1684200811939426300,4.97542626953125,-0.8718017339706421,-0.9982838034629822,0.7591307759284973
1684200811949452300,4.985452392578125,-0.8624777793884277,-0.9913673400878906,0.7672723531723022
1684200811959478000,4.99547802734375,-0.8398704528808594,-0.9449207186698914,0.7392966151237488
1684200811969504000,5.00550390625,-0.8191806077957153,-0.8406921029090881,0.6899194121360779
1684200811979530000,5.015530029296875,-0.792992115020752,-0.7421732544898987,0.632830023765564
1684200811989556000,5.025555908203125,-0.7637971043586731,-0.7117859125137329,0.6020148396492004
1684200811999582000,5.03558203125,-0.7776545882225037,-0.7132125496864319,0.5716817378997803
1684200812009608000,5.04560791015625,-0.8312026858329773,-0.6844289302825928,0.5287688970565796
1684200812019634000,5.055634033203125,-0.903257429599762,-0.5910206437110901,0.48534128069877625
1684200812029660200,5.06566015625,-0.9828290939331055,-0.4697350859642029,0.43326395750045776
1684200812039686100,5.07568603515625,-1.0697230100631714,-0.35413500666618347,0.37394604086875916
1684200812049712000,5.085712158203125,-1.1362026929855347,-0.26273101568222046,0.3005847930908203
1684200812059738000,5.095738037109375,-1.1647413969039917,-0.22686725854873657,0.22106602787971497
1684200812069764000,5.10576416015625,-1.1421095132827759,-0.23143035173416138,0.16592928767204285
1684200812079790000,5.1157900390625,-1.0677564144134521,-0.2806304097175598,0.14556889235973358
1684200812089816000,5.125816162109375,-0.9633458256721497,-0.32680144906044006,0.17620666325092316
1684200812099843000,5.135843017578125,-0.8246247172355652,-0.3496095538139343,0.23787322640419006
1684200812109869000,5.145869140625,-0.6742942333221436,-0.35946953296661377,0.32475581765174866
1684200812119895300,5.155895263671875,-0.5418390035629272,-0.3427395522594452,0.4067116975784302
1684200812129921300,5.16592138671875,-0.4266001582145691,-0.3274138867855072,0.462207555770874
1684200812139947300,5.175947265625,-0.32089343667030334,-0.34096619486808777,0.46967583894729614
1684200812149973200,5.18597314453125,-0.2237410843372345,-0.3994230031967163,0.4200870394706726
1684200812159999200,5.195999267578125,-0.157374307513237,-0.46850353479385376,0.3319806158542633
1684200812170025200,5.206025146484375,-0.12211623042821884,-0.5292515754699707,0.20285290479660034
1684200812180051200,5.21605126953125,-0.11163828521966934,-0.6145308017730713,0.05679157376289368
1684200812190077200,5.2260771484375,-0.11337507516145706,-0.7559632658958435,-0.09126559644937515
1684200812200103200,5.236103271484375,-0.14150524139404297,-0.8923102021217346,-0.2191694974899292
1684200812210129000,5.24612890625,-0.18612204492092133,-0.8976835012435913,-0.2876598536968231
1684200812220155000,5.25615478515625,-0.24715955555438995,-0.7384419441223145,-0.30357596278190613
1684200812230181000,5.26618115234375,-0.350160151720047,-0.5002933144569397,-0.31016427278518677
1684200812240207000,5.27620703125,-0.4875350296497345,-0.31973159313201904,-0.3016221821308136
1684200812250233000,5.286233154296875,-0.6110566854476929,-0.29271984100341797,-0.29477372765541077
1684200812260259000,5.296259033203125,-0.6777119040489197,-0.37186843156814575,-0.2920447885990143
1684200812270285000,5.30628515625,-0.6847127676010132,-0.45465436577796936,-0.2954392433166504
1684200812280311000,5.31631103515625,-0.6416921019554138,-0.5390859246253967,-0.2969391345977783
1684200812290338000,5.326338134765625,-0.5681893825531006,-0.5880195498466492,-0.3009444773197174
1684200812300364000,5.336364013671875,-0.4966939091682434,-0.6373934745788574,-0.2904135286808014
1684200812310390000,5.34639013671875,-0.42488282918930054,-0.6724596619606018,-0.28409284353256226
1684200812320416300,5.356416259765625,-0.3481808602809906,-0.6669549345970154,-0.26399505138397217
1684200812330442200,5.366442138671875,-0.27201634645462036,-0.6110499501228333,-0.2329653650522232
1684200812340468200,5.37646826171875,-0.1984875202178955,-0.5293138027191162,-0.18054716289043427
1684200812350494200,5.386494140625,-0.1463095247745514,-0.4744594991207123,-0.13879506289958954
1684200812360520200,5.396520263671875,-0.09025610983371735,-0.40248650312423706,-0.08933243900537491
1684200812370546200,5.406546142578125,-0.05381128564476967,-0.31965580582618713,-0.029666712507605553
1684200812380572200,5.416572265625,-0.04081053286790848,-0.16568195819854736,0.03497273474931717
1684200812390598100,5.42659814453125,-0.053463514894247055,0.029618779197335243,0.10733925551176071
1684200812400624000,5.4366240234375,-0.07507160305976868,0.2352699488401413,0.18322469294071198
1684200812410650000,5.446650146484375,-0.10286309570074081,0.4599839150905609,0.25718557834625244
1684200812420676000,5.456676025390625,-0.13419224321842194,0.6812949776649475,0.3382303714752197
1684200812430702300,5.466702392578125,-0.17550818622112274,0.956585168838501,0.4714878797531128
1684200812440728000,5.47672802734375,-0.1948573887348175,1.2468034029006958,0.6927890777587891
1684200812450754000,5.486754150390625,-0.16252121329307556,1.736357569694519,1.0889253616333008
1684200812460780000,5.496780029296875,-0.15184646844863892,2.0578572750091553,1.5444766283035278
1684200812470806000,5.506805908203125,-0.16707944869995117,1.7818031311035156,1.7385053634643555
1684200812480833000,5.5168330078125,-0.1700936108827591,1.2602440118789673,1.606568694114685
1684200812490859000,5.52685888671875,-0.16441279649734497,0.8778448104858398,1.2632790803909302
1684200812500885000,5.536885009765625,-0.10471297055482864,0.715244472026825,0.8051232099533081
1684200812510911200,5.5469111328125,-0.020794367417693138,0.627228319644928,0.35180631279945374
1684200812520937200,5.556937255859375,0.06348375976085663,0.46149125695228577,0.011457813903689384
1684200812530963200,5.566963134765625,0.13501282036304474,0.1851053535938263,-0.18909430503845215
1684200812540989200,5.5769892578125,0.1902233511209488,-0.09034034609794617,-0.25055554509162903
1684200812551015200,5.58701513671875,0.22794212400913239,-0.23818475008010864,-0.19511085748672485
1684200812561041200,5.597041259765625,0.21526627242565155,-0.2756114900112152,-0.08730928599834442
1684200812571067100,5.607067138671875,0.17086952924728394,-0.2379123717546463,0.0038921935483813286
1684200812581093000,5.617093017578125,0.11643317341804504,-0.1467539668083191,0.10436101257801056
1684200812591119000,5.627119140625,0.0740831196308136,-0.05031033977866173,0.232123464345932
1684200812601145000,5.63714501953125,0.04473081976175308,-0.04208623245358467,0.3779323101043701
1684200812611171000,5.647171142578125,0.00396884186193347,-0.09788936376571655,0.5086456537246704
1684200812621197000,5.657197021484375,-0.04086361080408096,-0.12093422561883926,0.5743511915206909
1684200812631223000,5.66722314453125,-0.0784115344285965,-0.09761153161525726,0.575080156326294
1684200812641249000,5.6772490234375,-0.10257705301046371,-0.028826868161559105,0.5191223621368408
1684200812651275000,5.68727490234375,-0.11657379567623138,0.07757978141307831,0.43099334836006165
1684200812661301000,5.697301025390625,-0.1286775916814804,0.20728716254234314,0.37291619181632996
1684200812671328000,5.707327880859375,-0.12612779438495636,0.2350783497095108,0.30280858278274536
1684200812681354000,5.71735400390625,-0.11659795045852661,0.17485123872756958,0.2434438019990921
1684200812691380000,5.7273798828125,-0.0850246399641037,0.08853515237569809,0.16983546316623688
1684200812701406000,5.737406005859375,-0.03803263232111931,0.028575945645570755,0.09814982116222382
1684200812711432000,5.747431884765625,-0.004298372194170952,-0.03030521795153618,0.04528634250164032
1684200812721458000,5.7574580078125,0.018295353278517723,-0.12018343806266785,0.004192703403532505
1684200812731484000,5.76748388671875,0.03865020349621773,-0.22539402544498444,-0.021746737882494926
1684200812741510000,5.777510009765625,0.04996171593666077,-0.31369882822036743,-0.042981717735528946
1684200812751535900,5.787535888671875,0.05739623308181763,-0.37458398938179016,-0.08128481358289719
1684200812761561900,5.797561767578125,0.07139620184898376,-0.3663439154624939,-0.12481711059808731
1684200812771588000,5.807588134765625,0.06983349472284317,-0.32728832960128784,-0.15932439267635345
1684200812781614000,5.817614013671875,0.0517738051712513,-0.3130630552768707,-0.19188927114009857
1684200812791640000,5.82764013671875,0.05604777857661247,-0.35643529891967773,-0.2131933718919754
1684200812801666000,5.837666015625,0.058897361159324646,-0.41804248094558716,-0.22687722742557526
1684200812811692000,5.847692138671875,0.0476575531065464,-0.4859558641910553,-0.24452415108680725
1684200812821718000,5.857718017578125,0.0300106480717659,-0.5597800016403198,-0.2703019380569458
1684200812831744000,5.867743896484375,0.018116166815161705,-0.6078676581382751,-0.29771384596824646
1684200812841770000,5.87777001953125,0.007060587406158447,-0.6164795160293579,-0.31876349449157715
1684200812851797000,5.887796875,-0.021115390583872795,-0.5670499205589294,-0.31605425477027893
1684200812861823000,5.897822998046875,-0.07272878289222717,-0.4789714217185974,-0.30111923813819885
1684200812871849000,5.907848876953125,-0.11891143769025803,-0.3784382939338684,-0.2803725600242615
1684200812881875000,5.917875,-0.15649981796741486,-0.30437445640563965,-0.25363415479660034
1684200812891901000,5.92790087890625,-0.1836850345134735,-0.3092636168003082,-0.22010073065757751
1684200812901927000,5.937927001953125,-0.19698619842529297,-0.37956759333610535,-0.18842428922653198
1684200812911953000,5.947952880859375,-0.21070432662963867,-0.4555853605270386,-0.1607012152671814
1684200812921979000,5.957978759765625,-0.2286311388015747,-0.4964821934700012,-0.15189920365810394
1684200812932004900,5.9680048828125,-0.25404247641563416,-0.5053510665893555,-0.14884667098522186
1684200812942030800,5.97803076171875,-0.2804975211620331,-0.5053750276565552,-0.1448519229888916
1684200812952056800,5.988056884765625,-0.30562302470207214,-0.5151402354240417,-0.1307474672794342
1684200812962083000,5.9980830078125,-0.3258768916130066,-0.5141889452934265,-0.10446605831384659
1684200812972109000,6.008109130859375,-0.34247109293937683,-0.48162347078323364,-0.06769459694623947
1684200812982135000,6.018135009765625,-0.35101717710494995,-0.4123629033565521,-0.03147533908486366
1684200812992161000,6.0281611328125,-0.3600994348526001,-0.3396913409233093,-0.006101325154304504
1684200813002187000,6.03818701171875,-0.370711088180542,-0.277923047542572,0.0005792146548628807
1684200813012213000,6.048212890625,-0.37732335925102234,-0.25826653838157654,-0.004597931634634733
1684200813022239000,6.058239013671875,-0.38783884048461914,-0.2704973816871643,-0.021096747368574142
1684200813032266000,6.068265869140625,-0.39484938979148865,-0.26852792501449585,-0.04753237962722778
1684200813042291000,6.078291015625,-0.3936815857887268,-0.23305755853652954,-0.06147295981645584
1684200813052318200,6.088318115234375,-0.3842463791370392,-0.1853569597005844,-0.053100164979696274
1684200813062344200,6.09834423828125,-0.36676645278930664,-0.1361052542924881,-0.024355070665478706
1684200813072370200,6.1083701171875,-0.3421074450016022,-0.10658339411020279,0.012060401029884815
1684200813082396000,6.11839599609375,-0.32079631090164185,-0.10954509675502777,0.039361532777547836
1684200813092422000,6.128421875,-0.30044591426849365,-0.13142310082912445,0.06792152673006058
1684200813102447900,6.13844775390625,-0.28439822793006897,-0.15519660711288452,0.08835436403751373
1684200813112473900,6.148473876953125,-0.2735983729362488,-0.1836077868938446,0.10342936962842941
1684200813122499800,6.158499755859375,-0.2687021493911743,-0.2128564715385437,0.11566846072673798
1684200813132525800,6.16852587890625,-0.2576555609703064,-0.22740322351455688,0.11182288080453873
1684200813142551800,6.1785517578125,-0.2597306966781616,-0.18361127376556396,0.05406744033098221
1684200813152577800,6.188577880859375,-0.26107802987098694,-0.005141156725585461,-0.07438171654939651
1684200813162604000,6.19860400390625,-0.19851237535476685,0.24722211062908173,-0.21513617038726807
1684200813172630000,6.208630126953125,-0.0854591652750969,0.4624127447605133,-0.30043140053749084
1684200813182656000,6.218656005859375,0.03379053249955177,0.500867486000061,-0.2885257601737976
1684200813192682000,6.228681884765625,0.15371084213256836,0.31387975811958313,-0.14813558757305145
1684200813202708000,6.2387080078125,0.2764202654361725,0.05623780936002731,0.06470184028148651
1684200813212734000,6.24873388671875,0.3486641049385071,-0.03504738211631775,0.22348912060260773
1684200813222760000,6.258760009765625,0.33742982149124146,-0.051798928529024124,0.25642627477645874
1684200813232787000,6.268786865234375,0.30079615116119385,-0.08518242835998535,0.13983280956745148
1684200813242813000,6.27881298828125,0.27790015935897827,-0.07778922468423843,-0.13662993907928467
1684200813252839200,6.288839111328125,0.25395187735557556,0.09359613060951233,-0.5635085701942444
1684200813262865200,6.298865234375,0.23228386044502258,0.4044376313686371,-1.068630576133728
1684200813272891100,6.30889111328125,0.24246171116828918,0.6958507895469666,-1.5480411052703857
1684200813282917000,6.318917236328125,0.28049272298812866,0.8309258222579956,-1.9308998584747314
1684200813292943000,6.328943115234375,0.3374849259853363,0.8015784621238708,-2.191944122314453
1684200813302969000,6.338968994140625,0.40445223450660706,0.7234431505203247,-2.3031351566314697
1684200813312995000,6.3489951171875,0.4641619622707367,0.6635987162590027,-2.282907485961914
1684200813323021000,6.35902099609375,0.5151295065879822,0.6548206806182861,-2.1683456897735596
1684200813333047000,6.369047119140625,0.5573133230209351,0.7088688015937805,-2.0031418800354004
1684200813343072800,6.37907275390625,0.6505345702171326,0.8236939311027527,-1.7805933952331543
1684200813353098800,6.3890986328125,0.7320235967636108,0.9673284292221069,-1.4785594940185547
1684200813363125000,6.399125,0.752779483795166,0.9710794687271118,-1.1374146938323975
1684200813373151000,6.40915087890625,0.7447289228439331,0.7871690392494202,-0.8221293687820435
1684200813383177000,6.419177001953125,0.7601065635681152,0.46507593989372253,-0.5796847343444824
1684200813393203000,6.429202880859375,0.8350858092308044,0.1263819932937622,-0.4049302041530609
1684200813403229000,6.43922900390625,0.9173753261566162,0.02441355772316456,-0.23084071278572083
1684200813413256000,6.449255859375,1.0117743015289307,0.21268421411514282,-0.03670979663729668
1684200813423282000,6.459281982421875,1.0753567218780518,0.4615025520324707,0.13274741172790527
1684200813433308000,6.469307861328125,1.0868483781814575,0.7156983613967896,0.2948319911956787
1684200813443334100,6.479334228515625,1.0245271921157837,0.9253599643707275,0.48216086626052856
1684200813453360000,6.489360107421875,0.9281378984451294,1.1188253164291382,0.68144690990448
1684200813463386000,6.49938623046875,0.8580371141433716,1.3224515914916992,0.8644068837165833
1684200813473412000,6.509412109375,0.8389595746994019,1.4937232732772827,1.0175111293792725
1684200813483438000,6.51943798828125,0.8588517904281616,1.6036361455917358,1.119901418685913
1684200813493464000,6.529464111328125,0.8687483668327332,1.705977439880371,1.205532431602478
1684200813503490000,6.539489990234375,0.8653621673583984,1.8203186988830566,1.3030869960784912
1684200813513516000,6.54951611328125,0.8452409505844116,1.879136562347412,1.3929685354232788
1684200813523542000,6.5595419921875,0.8162556290626526,1.9861817359924316,1.5098224878311157
1684200813533568000,6.569568115234375,0.7860904932022095,2.0938234329223633,1.6033176183700562
1684200813543594000,6.579593994140625,0.7552721500396729,2.1982696056365967,1.6555968523025513
1684200813553620200,6.5896201171875,0.7173417806625366,2.2895705699920654,1.6719791889190674
1684200813563646000,6.59964599609375,0.6829100251197815,2.359715223312378,1.6748900413513184
1684200813573672700,6.609672607421875,0.6690735816955566,2.4381096363067627,1.680133581161499
1684200813583698700,6.61969873046875,0.653659999370575,2.4758126735687256,1.7056605815887451
1684200813593724700,6.629724609375,0.6378450393676758,2.451369524002075,1.7429218292236328
1684200813603751700,6.639751708984375,0.6258443593978882,2.4257009029388428,1.811102271080017
1684200813613777700,6.649777587890625,0.617055356502533,2.4008829593658447,1.8631395101547241
1684200813623803600,6.6598037109375,0.5958558320999146,2.3683254718780518,1.868371844291687
1684200813633830000,6.669829833984375,0.5666568279266357,2.3523709774017334,1.8535970449447632
1684200813643856000,6.67985595703125,0.5408433675765991,2.366485357284546,1.8265739679336548
1684200813653881900,6.6898818359375,0.5225669145584106,2.386807441711426,1.8055802583694458
1684200813663907800,6.699907958984375,0.5210233330726624,2.421653985977173,1.8030444383621216
1684200813673933800,6.709933837890625,0.5237107276916504,2.4651215076446533,1.8131930828094482
1684200813683959800,6.719959716796875,0.5213413238525391,2.5250020027160645,1.832115888595581
1684200813693985800,6.72998583984375,0.5201252102851868,2.6111254692077637,1.8446619510650635
1684200813704011800,6.74001171875,0.5072349905967712,2.719299077987671,1.8432015180587769
1684200813714037800,6.750037841796875,0.49317362904548645,2.8078949451446533,1.8308197259902954
1684200813724063700,6.760063720703125,0.49119704961776733,2.8531031608581543,1.8074406385421753
1684200813734089700,6.77008984375,0.5079553723335266,2.8432135581970215,1.7817281484603882
1684200813744115700,6.78011572265625,0.5371097922325134,2.8976247310638428,1.7295467853546143
1684200813754141700,6.7901416015625,0.5509480834007263,2.9119467735290527,1.677750587463379
1684200813764167700,6.800167724609375,0.5598491430282593,2.8801567554473877,1.6262738704681396
1684200813774193700,6.810193603515625,0.5652593374252319,2.8283042907714844,1.5989981889724731
1684200813784220700,6.820220703125,0.5708839297294617,2.7955260276794434,1.5935817956924438
1684200813794246700,6.83024658203125,0.5737349390983582,2.7627532482147217,1.5955135822296143
1684200813804272600,6.840272705078125,0.5768470764160156,2.7185308933258057,1.6214799880981445
1684200813814298600,6.850298583984375,0.5672205090522766,2.678950071334839,1.655687928199768
1684200813824324900,6.860324951171875,0.5493648052215576,2.6344778537750244,1.6968591213226318
1684200813834350800,6.870350830078125,0.5312648415565491,2.598210573196411,1.7498024702072144
1684200813844376800,6.880376953125,0.5090292692184448,2.5691940784454346,1.8122905492782593
1684200813854402800,6.89040283203125,0.48581865429878235,2.5615878105163574,1.8786591291427612
1684200813864428800,6.9004287109375,0.4407923221588135,2.5534160137176514,1.9644800424575806
1684200813874454800,6.910454833984375,0.3845532536506653,2.544782876968384,2.0733046531677246
1684200813884480800,6.920480712890625,0.33101198077201843,2.5547778606414795,2.1667685508728027
1684200813894506800,6.9305068359375,0.25772973895072937,2.59606671333313,2.22902250289917
1684200813904532700,6.94053271484375,0.17625460028648376,2.634995222091675,2.2451958656311035
1684200813914558700,6.950558837890625,0.10099884867668152,2.6810431480407715,2.227447748184204
1684200813924584700,6.960584716796875,0.060956891626119614,2.719831705093384,2.184727668762207
1684200813934611000,6.97061083984375,0.04981783404946327,2.741947650909424,2.128133535385132
1684200813944637000,6.980636962890625,0.05744033306837082,2.778397798538208,2.0627963542938232
1684200813954663000,6.990662841796875,0.0720716193318367,2.834712505340576,2.026320457458496
1684200813964689700,7.000689697265625,0.09063305705785751,2.877229690551758,2.008523941040039
1684200813974715600,7.010715576171875,0.10646392405033112,2.910890579223633,2.016270875930786
1684200813984741600,7.02074169921875,0.0994052141904831,2.9490740299224854,2.043105363845825
1684200813994767600,7.030767578125,0.09557166695594788,2.9195828437805176,2.047370195388794
1684200814004793600,7.040793701171875,0.11775153875350952,2.8273487091064453,2.0034339427948
1684200814014819600,7.050819580078125,0.12623421847820282,2.6621291637420654,1.891513705253601
1684200814024845800,7.060845703125,0.12259794771671295,2.4493823051452637,1.7231940031051636
1684200814034871800,7.070871826171875,0.11717358231544495,2.2529101371765137,1.5283700227737427
1684200814044897800,7.080897705078125,0.11262676864862442,2.124063491821289,1.3555302619934082
1684200814054923800,7.090923828125,0.10184046626091003,2.028895616531372,1.2406020164489746
1684200814064949800,7.10094970703125,0.06666277348995209,1.91737699508667,1.1675485372543335
1684200814074975700,7.110975830078125,0.03853372856974602,1.8691750764846802,1.1607649326324463
1684200814085001700,7.121001708984375,0.014276061207056046,1.8944436311721802,1.2176276445388794
1684200814095027700,7.13102783203125,0.0015964980702847242,1.8408939838409424,1.2873026132583618
1684200814105053700,7.1410537109375,-0.002283727517351508,1.6307860612869263,1.3724409341812134
1684200814115079700,7.15107958984375,0.010782756842672825,0.9474914073944092,1.4884077310562134
1684200814125105700,7.161105712890625,-0.011744390241801739,0.03547564148902893,1.5811173915863037
1684200814135132000,7.1711318359375,-0.12986771762371063,-0.16773511469364166,1.4601080417633057
1684200814145158700,7.18115869140625,-0.24967506527900696,0.3456626534461975,1.1317179203033447
1684200814155184600,7.1911845703125,-0.26941201090812683,1.1452642679214478,0.7484042048454285
1684200814165210600,7.201210693359375,-0.24776475131511688,1.6861720085144043,0.5059998035430908
1684200814175236600,7.211236572265625,-0.24113506078720093,1.8603569269180298,0.4988139569759369
1684200814185262600,7.2212626953125,-0.24391832947731018,1.8706058263778687,0.6805102825164795
1684200814195288600,7.23128857421875,-0.26437994837760925,1.833876371383667,0.9214717149734497
1684200814205314600,7.241314453125,-0.2636031210422516,1.8054349422454834,1.1739028692245483
1684200814215340500,7.251340576171875,-0.23888467252254486,1.7419226169586182,1.3997511863708496
1684200814225366800,7.26136669921875,-0.21346800029277802,1.695522427558899,1.556567668914795
1684200814235392800,7.271392822265625,-0.1894652545452118,1.7529994249343872,1.6567624807357788
1684200814245418800,7.281418701171875,-0.17807038128376007,1.9427464008331299,1.7083134651184082
1684200814255444700,7.29144482421875,-0.1872093379497528,2.1957080364227295,1.7067153453826904
1684200814265470700,7.301470703125,-0.20996737480163574,2.459179162979126,1.671797275543213
1684200814275496700,7.31149658203125,-0.23812179267406464,2.6511428356170654,1.6559406518936157
1684200814285522700,7.321522705078125,-0.23996923863887787,2.6895108222961426,1.675034523010254
1684200814295548700,7.331548583984375,-0.21651646494865417,2.581929922103882,1.7108098268508911
1684200814305574700,7.34157470703125,-0.16527484357357025,2.4631199836730957,1.750797986984253
1684200814315600600,7.3516005859375,-0.11469464749097824,2.3722500801086426,1.7550040483474731
1684200814325628000,7.3616279296875,-0.09181623160839081,2.3511815071105957,1.715803623199463
1684200814335654000,7.37165380859375,-0.06907574087381363,2.403899669647217,1.6649376153945923
1684200814345680000,7.381679931640625,-0.03996392339468002,2.4254062175750732,1.6109462976455688
1684200814355705900,7.391705810546875,0.0005321550415828824,2.437915802001953,1.5527403354644775
1684200814365731800,7.40173193359375,0.03887901455163956,2.43613338470459,1.5087624788284302
1684200814375757600,7.411757568359375,0.05532688647508621,2.40604305267334,1.4687250852584839
1684200814385783600,7.421783447265625,0.059618037194013596,2.371598482131958,1.4660145044326782
1684200814395809500,7.4318095703125,0.04429754987359047,2.3192293643951416,1.484818935394287
1684200814405835500,7.44183544921875,0.016352999955415726,2.2988805770874023,1.5155630111694336
1684200814415861800,7.45186181640625,-0.03373504430055618,2.3448212146759033,1.5444114208221436
1684200814425887700,7.4618876953125,-0.0837116613984108,2.430612087249756,1.5736627578735352
1684200814435913700,7.471913818359375,-0.13229398429393768,2.492441177368164,1.5937548875808716
1684200814445939700,7.481939697265625,-0.17644786834716797,2.52253794670105,1.582454800605774
1684200814455965700,7.491965576171875,-0.19382090866565704,2.5222599506378174,1.5484256744384766
1684200814465991700,7.50199169921875,-0.18993829190731049,2.4740583896636963,1.4900752305984497
1684200814476017700,7.512017578125,-0.1830202341079712,2.40305495262146,1.4159431457519531
1684200814486043600,7.522043701171875,-0.16768361628055573,2.3684165477752686,1.3484224081039429
1684200814496069600,7.532069580078125,-0.16933989524841309,2.333584785461426,1.27727472782135
1684200814506097000,7.542096923828125,-0.17046880722045898,2.2800891399383545,1.20743989944458
1684200814516123000,7.552122802734375,-0.20036455988883972,2.241698741912842,1.1684085130691528
1684200814526148900,7.56214892578125,-0.22983217239379883,2.195708751678467,1.158132791519165
1684200814536174800,7.5721748046875,-0.2562657594680786,2.142167568206787,1.16376793384552
1684200814546200800,7.582200927734375,-0.28618237376213074,2.0962393283843994,1.1570099592208862
1684200814556226800,7.592226806640625,-0.30441197752952576,2.052597761154175,1.1354098320007324
1684200814566252800,7.602252685546875,-0.3139666020870209,1.9730820655822754,1.0901858806610107
1684200814576278300,7.6122783203125,-0.32163286209106445,1.8520785570144653,1.0234448909759521
1684200814586304300,7.62230419921875,-0.3190341591835022,1.7028027772903442,0.9377989768981934
1684200814596330200,7.632330322265625,-0.30967649817466736,1.5417760610580444,0.8377957940101624
1684200814606356200,7.642356201171875,-0.3007908761501312,1.3793069124221802,0.7210015058517456
1684200814616382200,7.65238232421875,-0.2943308353424072,1.2369271516799927,0.6049920320510864
1684200814626408400,7.662408447265625,-0.2914109528064728,1.130438208580017,0.49986371397972107
1684200814636434400,7.672434326171875,-0.2999081313610077,1.0334973335266113,0.4130534827709198
1684200814646460400,7.68246044921875,-0.3069676458835602,0.9055508375167847,0.33666709065437317
1684200814656486400,7.692486328125,-0.3191213309764862,0.7579262256622314,0.2671544551849365
1684200814666512100,7.70251220703125,-0.31495481729507446,0.5983376502990723,0.1796880066394806
1684200814676539100,7.7125390625,-0.2995627820491791,0.44628530740737915,0.06525605916976929
1684200814686565000,7.722565185546875,-0.2717607021331787,0.3378770649433136,-0.053893767297267914
1684200814696591000,7.732591064453125,-0.2381497323513031,0.26724252104759216,-0.15798614919185638
1684200814706617000,7.7426171875,-0.19671760499477386,0.2284991294145584,-0.24526619911193848
1684200814716643300,7.752643310546875,-0.1396905779838562,0.21435287594795227,-0.3026379644870758
1684200814726669300,7.76266943359375,-0.07542690634727478,0.19683434069156647,-0.3655921518802643
1684200814736695300,7.7726953125,0.0010871822014451027,0.15594974160194397,-0.45807933807373047
1684200814746721300,7.78272119140625,0.09091267734766006,0.09984147548675537,-0.5899164080619812
1684200814756747300,7.792747314453125,0.17873093485832214,0.02287319116294384,-0.770807683467865
1684200814766773200,7.802773193359375,0.27294260263442993,-0.05114215239882469,-1.0019644498825073
1684200814776799200,7.81279931640625,0.39712613821029663,-0.06267347186803818,-1.2526841163635254
1684200814786825200,7.8228251953125,0.5390737056732178,0.027056144550442696,-1.4799261093139648
1684200814796851200,7.832851318359375,0.669197678565979,0.17023539543151855,-1.62898850440979
1684200814806877200,7.842877197265625,0.7372148036956787,0.2969145178794861,-1.6715620756149292
1684200814816903200,7.852903076171875,0.7613312005996704,0.30551230907440186,-1.6468226909637451
1684200814826929400,7.862929443359375,0.7567313313484192,0.09110841155052185,-1.6010842323303223
1684200814836955400,7.872955322265625,0.7764233350753784,-0.35003894567489624,-1.5279791355133057
1684200814846982100,7.882982177734375,0.8513518571853638,-0.9048904776573181,-1.3652416467666626
1684200814857008000,7.893008056640625,0.937767505645752,-1.3316482305526733,-1.1401960849761963
1684200814867034000,7.9030341796875,1.0190808773040771,-1.3990142345428467,-0.9153102040290833
1684200814877060000,7.91306005859375,1.056897759437561,-1.2049474716186523,-0.8291170001029968
1684200814887086000,7.923086181640625,0.9920907616615295,-0.7198536992073059,-0.8062162399291992
1684200814897112000,7.933112060546875,0.8107562065124512,-0.1372433602809906,-0.8614132404327393
1684200814907138300,7.94313818359375,0.6293371319770813,0.4356779456138611,-0.900077760219574
1684200814917164300,7.953164306640625,0.525728166103363,0.8122009634971619,-0.8349219560623169
1684200814927190300,7.963190185546875,0.4996259808540344,0.8742129802703857,-0.5862168073654175
1684200814937216300,7.97321630859375,0.5477749705314636,0.6430832743644714,-0.2271086871623993
1684200814947242200,7.9832421875,0.6236414909362793,0.2220282107591629,0.039327267557382584
1684200814957268200,7.993268310546875,0.6969015002250671,-0.0985845997929573,0.15580280125141144
1684200814967294200,8.003294189453126,0.7416290640830994,-0.2556634247303009,0.16838304698467255
1684200814977320200,8.0133203125,0.7826414108276367,-0.20391157269477844,0.11146478354930878
1684200814987346200,8.02334619140625,0.818044126033783,-0.007810771930962801,0.0018261666409671307
1684200814997372200,8.0333720703125,0.844689130783081,0.27964940667152405,-0.08438172936439514
1684200815007398100,8.043398193359375,0.8614968657493591,0.5321916341781616,-0.12392541021108627
1684200815017425400,8.05342529296875,0.8391749262809753,0.6210950613021851,-0.11751731485128403
1684200815027451400,8.063451416015624,0.8132926821708679,0.6457311511039734,-0.04614752531051636
1684200815037477400,8.073477294921876,0.7697552442550659,0.6487330794334412,0.0361182801425457
1684200815047503400,8.08350341796875,0.6867687702178955,0.5879546999931335,0.0949736088514328
1684200815057529000,8.093529052734375,0.5787991881370544,0.5149804353713989,0.12400940805673599
1684200815067555000,8.10355517578125,0.47338783740997314,0.41181305050849915,0.12542754411697388
1684200815077581000,8.1135810546875,0.3974536955356598,0.27117621898651123,0.09323041886091232
1684200815087607000,8.12360693359375,0.3563949465751648,0.1859084665775299,0.07153923809528351
1684200815097633000,8.133633056640624,0.3466278314590454,0.14564597606658936,0.06809765845537186
1684200815107659300,8.1436591796875,0.34448665380477905,0.10929276049137115,0.10331716388463974
1684200815117685200,8.153685302734376,0.3382944166660309,0.05645156279206276,0.18302857875823975
1684200815127711200,8.163711181640625,0.3196091651916504,-0.000034082564525306225,0.2667282521724701
1684200815137737200,8.1737373046875,0.3106467127799988,0.011000186204910278,0.3427507281303406
1684200815147763200,8.18376318359375,0.28474268317222595,0.10710728168487549,0.40602877736091614
1684200815157789200,8.1937890625,0.22607450187206268,0.2533944845199585,0.47661635279655457
1684200815167815200,8.203815185546874,0.14474555850028992,0.40083426237106323,0.5727189779281616
1684200815177841200,8.213841064453124,0.0697832778096199,0.5218726992607117,0.6809982657432556
1684200815187868200,8.2238681640625,0.004092412535101175,0.5470438599586487,0.7761775255203247
1684200815197894400,8.233894287109376,-0.033120978623628616,0.44840872287750244,0.8461503386497498
1684200815207920400,8.24392041015625,-0.03884997218847275,0.31233903765678406,0.892899751663208
1684200815217946400,8.2539462890625,-0.03612690046429634,0.1503741592168808,0.9135406613349915
1684200815227972400,8.263972412109375,-0.05386701598763466,-0.018645217642188072,0.9109549522399902
1684200815237998300,8.273998291015625,-0.11682624369859695,-0.16831207275390625,0.8831440210342407
1684200815248024300,8.2840244140625,-0.2121913880109787,-0.2486085146665573,0.8517024517059326
1684200815258050300,8.29405029296875,-0.3096287250518799,-0.25156542658805847,0.8211149573326111
1684200815268076300,8.304076171875,-0.403574138879776,-0.22672106325626373,0.8122392296791077
1684200815278102300,8.314102294921875,-0.48121801018714905,-0.2173122614622116,0.820919394493103
1684200815288128300,8.324128173828125,-0.551554799079895,-0.2175106704235077,0.8500460982322693
1684200815298154200,8.334154296875,-0.630369246006012,-0.20377255976200104,0.8774557113647461
1684200815308180200,8.34418017578125,-0.7057753205299377,-0.16398920118808746,0.9016832709312439
1684200815318206200,8.354206298828124,-0.7796967625617981,-0.08428646624088287,0.9069345593452454
1684200815328232200,8.364232177734374,-0.8250671625137329,0.012433154508471489,0.8966915607452393
1684200815338258200,8.374258056640626,-0.8360188007354736,0.10571016371250153,0.8748937845230103
1684200815348284200,8.3842841796875,-0.8166674375534058,0.17594970762729645,0.851151168346405
1684200815358311200,8.394311279296875,-0.7681288719177246,0.17787052690982819,0.8348523378372192
1684200815368337200,8.404337158203125,-0.6934082508087158,0.10897853970527649,0.8209335803985596
1684200815378363100,8.414363037109375,-0.5949574112892151,-0.015312996692955494,0.7905396819114685
1684200815388389400,8.424389404296875,-0.4547574520111084,-0.14778129756450653,0.7416666746139526
1684200815398415400,8.434415283203125,-0.2946317195892334,-0.23156453669071198,0.6680468320846558
1684200815408441300,8.44444140625,-0.1490851640701294,-0.2587151825428009,0.5855889916419983
1684200815418467300,8.45446728515625,-0.017718464136123657,-0.21158219873905182,0.4799717366695404
1684200815428493300,8.464493408203126,0.08075404912233353,-0.09562868624925613,0.3419933617115021
1684200815438519300,8.474519287109375,0.11848486214876175,0.06128480285406113,0.21482659876346588
1684200815448545300,8.484545166015625,0.0705610141158104,0.14400124549865723,0.12567675113677979
1684200815458571300,8.4945712890625,-0.011136739514768124,0.16747412085533142,0.06928414106369019
1684200815468597200,8.50459716796875,-0.0707918107509613,0.21594710648059845,0.04361579194664955
1684200815478623200,8.514623291015624,-0.10669422894716263,0.35138872265815735,0.0662120133638382
1684200815488649200,8.524649169921876,-0.17219892144203186,0.5256516337394714,0.12512940168380737
1684200815498675500,8.534675537109376,-0.26676443219184875,0.6282868385314941,0.19619297981262207
1684200815508701400,8.544701416015625,-0.33354640007019043,0.6190369129180908,0.26001429557800293
1684200815518727400,8.5547275390625,-0.36420658230781555,0.500605583190918,0.2935815751552582
1684200815528754200,8.564754150390625,-0.37029507756233215,0.3040693700313568,0.293706476688385
1684200815538780200,8.5747802734375,-0.36356571316719055,0.024221336469054222,0.2645193040370941
1684200815548806100,8.58480615234375,-0.3117382228374481,-0.33774858713150024,0.18192775547504425
1684200815558832000,8.59483203125,-0.20037111639976501,-0.7522122263908386,0.06635231524705887
1684200815568858600,8.604858642578124,-0.05324319750070572,-1.1244471073150635,-0.06637430936098099
1684200815578884600,8.614884521484376,0.08375026285648346,-1.3657382726669312,-0.21448105573654175
1684200815588910600,8.62491064453125,0.14141090214252472,-1.4628291130065918,-0.3706839680671692
1684200815598936600,8.6349365234375,0.12329220771789551,-1.4036026000976562,-0.48922327160835266
1684200815608962600,8.644962646484375,0.07225858420133591,-1.1473190784454346,-0.5081796646118164
1684200815618988500,8.654988525390625,0.026001693680882454,-0.8620008230209351,-0.4380566477775574
1684200815629014500,8.6650146484375,-0.026532620191574097,-0.6070443987846375,-0.30820998549461365
1684200815639040500,8.67504052734375,-0.0984809473156929,-0.40970730781555176,-0.18512830138206482
1684200815649066500,8.68506640625,-0.1726481169462204,-0.23363322019577026,-0.12884798645973206
1684200815659092500,8.695092529296875,-0.2119070142507553,-0.03651534020900726,-0.12035824358463287
1684200815669118700,8.70511865234375,-0.21254883706569672,0.19337990880012512,-0.10929147899150848
1684200815679144700,8.715144775390625,-0.20204243063926697,0.3922662138938904,-0.04268942028284073
1684200815689170700,8.725170654296875,-0.20123521983623505,0.4674065113067627,0.07313677668571472
1684200815699197400,8.735197509765625,-0.18666157126426697,0.4417984187602997,0.2439115345478058
1684200815709223400,8.745223388671874,-0.17328503727912903,0.4470802843570709,0.4627903401851654
1684200815719249400,8.75524951171875,-0.15759125351905823,0.6336586475372314,0.7020362615585327
1684200815729275400,8.765275390625,-0.17788401246070862,0.9189258217811584,0.8736618161201477
1684200815739301400,8.77530126953125,-0.23194026947021484,1.188606858253479,0.9517281651496887
1684200815749327400,8.785327392578125,-0.28599923849105835,1.286333441734314,0.8788294196128845
1684200815759353600,8.795353515625,-0.3015517294406891,1.2988379001617432,0.7047947645187378
1684200815769379600,8.805379638671875,-0.28657597303390503,1.3231128454208374,0.5657146573066711
1684200815779405600,8.815405517578125,-0.2639828324317932,1.260246753692627,0.5075681805610657
1684200815789431600,8.825431640625,-0.22501225769519806,1.1132237911224365,0.4980665147304535
1684200815799457500,8.83545751953125,-0.18135662376880646,0.8954142928123474,0.4894225597381592
1684200815809483500,8.8454833984375,-0.14607399702072144,0.6480276584625244,0.4881599545478821
1684200815819509500,8.855509521484375,-0.10637248307466507,0.3233606219291687,0.44968676567077637
1684200815829535500,8.865535400390625,-0.0475645586848259,-0.008308404125273228,0.39776498079299927
1684200815839561500,8.8755615234375,-0.01147385872900486,-0.3052840530872345,0.3392520546913147
1684200815849587500,8.88558740234375,0.01578679122030735,-0.5287424325942993,0.2850804328918457
1684200815859613400,8.895613525390624,0.04356450214982033,-0.5899656414985657,0.2549265921115875
1684200815869640700,8.905640625,0.06712309271097183,-0.5213474631309509,0.23279812932014465
1684200815879666700,8.915666748046876,0.06598582118749619,-0.434422105550766,0.17811219394207
1684200815889692700,8.925692626953126,0.06077588349580765,-0.3229491114616394,0.12280605733394623
1684200815899718400,8.935718505859375,0.055263031274080276,-0.2637926936149597,0.08120670169591904
1684200815909744400,8.945744384765625,0.036841947585344315,-0.2872021496295929,0.024624114856123924
1684200815919770400,8.955770263671875,0.027871280908584595,-0.35344067215919495,-0.034469470381736755
1684200815929796400,8.96579638671875,0.031736329197883606,-0.4183237850666046,-0.08831539005041122
1684200815939822300,8.975822265625,0.03773713484406471,-0.5043132305145264,-0.13520491123199463
1684200815949848300,8.985848388671876,0.04494977369904518,-0.5992940664291382,-0.17413952946662903
1684200815959874600,8.99587451171875,0.06150171533226967,-0.6810278296470642,-0.18113818764686584
1684200815969900500,9.005900634765625,0.069186270236969,-0.7423684000968933,-0.170629620552063
1684200815979926500,9.015926513671875,0.05852122604846954,-0.7620519995689392,-0.15173190832138062
1684200815989952500,9.025952392578125,0.029647499322891235,-0.7345117330551147,-0.13759104907512665
1684200815999978500,9.035978515625,-0.004700641147792339,-0.6630253791809082,-0.14209087193012238
1684200816010004500,9.04600439453125,-0.028291188180446625,-0.5612279176712036,-0.1717182695865631
1684200816020030500,9.056030517578124,-0.04199810326099396,-0.481393963098526,-0.20681288838386536
1684200816030057500,9.066057373046876,-0.025310205295681953,-0.5039650201797485,-0.24807989597320557
1684200816040083500,9.07608349609375,-0.0030639604665338993,-0.6121800541877747,-0.2797073721885681
1684200816050109700,9.086109619140625,0.011362116783857346,-0.7268611192703247,-0.3130991458892822
1684200816060135700,9.0961357421875,0.01733711175620556,-0.8445723652839661,-0.35173434019088745
1684200816070161700,9.10616162109375,0.02132253162562847,-0.9389209747314453,-0.3769363760948181
1684200816080187600,9.116187744140625,0.04012907296419144,-0.9361295104026794,-0.3909871578216553
1684200816090213600,9.126213623046874,0.035781197249889374,-0.8760808110237122,-0.38127514719963074
1684200816100239600,9.136239501953124,0.011095157824456692,-0.7769922614097595,-0.3448658585548401
1684200816110265600,9.146265625,-0.027285253629088402,-0.6431021094322205,-0.2821691930294037
1684200816120291600,9.15629150390625,-0.06629790365695953,-0.5150149464607239,-0.21098661422729492
1684200816130317600,9.166317626953125,-0.10901819914579391,-0.4130209982395172,-0.15511296689510345
1684200816140343600,9.176343505859375,-0.13319768011569977,-0.3241395354270935,-0.11897338181734085
1684200816150369500,9.18636962890625,-0.14043214917182922,-0.2655731737613678,-0.09497404098510742
1684200816160395500,9.1963955078125,-0.14272870123386383,-0.2699826955795288,-0.06835015118122101
1684200816170421500,9.20642138671875,-0.14070017635822296,-0.2852093279361725,-0.0446312315762043
1684200816180447500,9.216447509765626,-0.14230097830295563,-0.2877252995967865,-0.032715246081352234
1684200816190474500,9.226474609375,-0.14243920147418976,-0.2797003984451294,-0.031760767102241516
1684200816200500500,9.23650048828125,-0.14986595511436462,-0.2859894633293152,-0.035842329263687134
1684200816210526500,9.2465263671875,-0.15618377923965454,-0.3119768500328064,-0.04479055106639862
1684200816220552400,9.256552490234375,-0.16369731724262238,-0.3281158208847046,-0.06356655061244965
1684200816230578400,9.266578369140625,-0.17714494466781616,-0.3213529884815216,-0.08240069448947906
1684200816240604700,9.276604736328125,-0.19248665869235992,-0.32704582810401917,-0.1086140051484108
1684200816250630700,9.286630615234374,-0.21938137710094452,-0.3434423804283142,-0.1326674073934555
1684200816260656600,9.29665673828125,-0.24432966113090515,-0.3459779918193817,-0.14654229581356049
1684200816270682600,9.3066826171875,-0.2623014450073242,-0.32038819789886475,-0.16223150491714478
1684200816280708600,9.31670849609375,-0.2614380121231079,-0.2850380837917328,-0.1776004582643509
1684200816290734600,9.326734619140625,-0.24861012399196625,-0.258459210395813,-0.19319087266921997
1684200816300760600,9.336760498046875,-0.2372673749923706,-0.23972244560718536,-0.2055342048406601
1684200816310786600,9.34678662109375,-0.22527596354484558,-0.22646309435367584,-0.20488625764846802
1684200816320812500,9.3568125,-0.21726800501346588,-0.2111433893442154,-0.19048947095870972
1684200816330838500,9.366838623046876,-0.21261732280254364,-0.19172735512256622,-0.1592511236667633
1684200816340864500,9.376864501953126,-0.20981089770793915,-0.17444895207881927,-0.11976039409637451
1684200816350890800,9.386890869140625,-0.2026214301586151,-0.14437706768512726,-0.08175228536128998
1684200816360917500,9.39691748046875,-0.1861140877008438,-0.0887337177991867,-0.043730802834033966
1684200816370943500,9.406943603515625,-0.16137678921222687,-0.005778114777058363,-0.0017812231089919806
1684200816380969500,9.416969482421875,-0.13382086157798767,0.08775999397039413,0.03988615423440933
1684200816390995500,9.426995361328125,-0.10416656732559204,0.15147186815738678,0.09004413336515427
1684200816401021400,9.437021484375,-0.07165442407131195,0.1686372011899948,0.16313453018665314
1684200816411047400,9.44704736328125,-0.035564862191677094,0.14900623261928558,0.2405771166086197
1684200816421073400,9.457073486328126,0.0068503571674227715,0.1088503748178482,0.3080066740512848
1684200816431099400,9.467099365234375,0.06710091978311539,0.06911122053861618,0.34703290462493896
1684200816441125600,9.477125732421875,0.12444698065519333,0.03762255981564522,0.33176442980766296
1684200816451151600,9.487151611328125,0.16329210996627808,0.0041506229899823666,0.2670578956604004
1684200816461177600,9.497177490234375,0.19379840791225433,-0.04447181522846222,0.1631392538547516
1684200816471203600,9.50720361328125,0.23106960952281952,-0.12047230452299118,0.03269575536251068
1684200816481229600,9.5172294921875,0.26539814472198486,-0.23936444520950317,-0.11459650099277496
1684200816491255600,9.527255615234376,0.28825151920318604,-0.36853256821632385,-0.29087033867836
1684200816501281500,9.537281494140625,0.31529006361961365,-0.4377468526363373,-0.48924848437309265
1684200816511307500,9.5473076171875,0.34361785650253296,-0.4305179715156555,-0.7133646607398987
1684200816521334500,9.55733447265625,0.3732932209968567,-0.35664793848991394,-0.9469570517539978
1684200816531360500,9.567360595703125,0.3920096457004547,-0.24636432528495789,-1.1818956136703491
1684200816541386500,9.577386474609375,0.4020586311817169,-0.13046006858348846,-1.4153883457183838
1684200816551412500,9.58741259765625,0.41207239031791687,-0.02793954871594906,-1.670524001121521
1684200816561438500,9.5974384765625,0.4339313507080078,0.08202608674764633,-1.9986767768859863
1684200816571464000,9.6074638671875,0.4781763255596161,0.22896946966648102,-2.452742338180542
1684200816581490000,9.617489990234375,0.5480237007141113,0.447966992855072,-2.892343282699585
1684200816591516000,9.627515869140625,0.6719573736190796,0.6341943740844727,-3.1016886234283447
1684200816601542000,9.6375419921875,0.8017870187759399,0.7420288324356079,-3.0296924114227295
1684200816611567900,9.64756787109375,0.9263135194778442,0.9388838410377502,-2.68786358833313
1684200816621593900,9.65759375,1.0164271593093872,1.208144187927246,-2.14778208732605
1684200816631619800,9.667619873046876,1.0352375507354736,1.180411696434021,-1.6354095935821533
1684200816641645800,9.677645751953126,1.0366536378860474,0.6314886212348938,-1.3561468124389648
1684200816651671800,9.687671875,1.0671167373657227,-0.3548445403575897,-1.294499397277832
1684200816661697800,9.69769775390625,1.1413770914077759,-1.2086597681045532,-1.2809433937072754
1684200816671725000,9.70772509765625,1.2396557331085205,-1.380589246749878,-1.1721711158752441
1684200816681751000,9.7177509765625,1.3304442167282104,-1.1408309936523438,-1.1219033002853394
1684200816691777000,9.727777099609375,1.4388487339019775,-0.7364012002944946,-1.0967780351638794
1684200816701803000,9.737802978515624,1.6002655029296875,-0.32132840156555176,-0.9666204452514648
1684200816711829000,9.7478291015625,1.7776380777359009,0.08868949860334396,-0.715785562992096
1684200816721855000,9.75785498046875,1.812569260597229,0.6313565969467163,-0.33002790808677673
1684200816731881000,9.767880859375,1.708067536354065,1.218436360359192,-0.002018320607021451
1684200816741907000,9.777906982421875,1.5187486410140991,1.6751658916473389,0.10559222102165222
1684200816751933200,9.78793310546875,1.2508628368377686,1.826090931892395,0.014598935842514038
1684200816761959200,9.797959228515625,1.0320361852645874,1.868561863899231,-0.06704901903867722
1684200816771985200,9.807985107421874,0.9202241897583008,1.739986777305603,-0.06487881392240524
1684200816782011100,9.81801123046875,0.940467119216919,1.479972004890442,0.013343737460672855
1684200816792037000,9.828037109375,1.0101773738861084,1.28975248336792,0.12212534993886948
1684200816802063000,9.83806298828125,1.0882744789123535,1.1030713319778442,0.17301319539546967
1684200816812089000,9.848089111328125,1.1459441184997559,0.9100302457809448,0.15605711936950684
1684200816822115000,9.858114990234375,1.1814512014389038,0.7522826194763184,0.0873214527964592
1684200816832140800,9.868140869140625,1.152908444404602,0.6885243654251099,0.04503577575087547
1684200816842168000,9.87816796875,1.0281264781951904,0.6866841912269592,0.05850415676832199
1684200816852194000,9.888194091796874,0.8765998482704163,0.6551624536514282,0.10203032940626144
1684200816862220000,9.898219970703124,0.7469552159309387,0.6907995939254761,0.14901885390281677
1684200816872246000,9.90824609375,0.6781513690948486,0.7337585091590881,0.18444128334522247
1684200816882272000,9.91827197265625,0.6553692817687988,0.7326481342315674,0.22576981782913208
1684200816892298000,9.928298095703125,0.6302897334098816,0.700554609298706,0.2890036404132843
1684200816902324000,9.938323974609375,0.5811446309089661,0.6753373146057129,0.340335488319397
1684200816912350000,9.948349853515625,0.5274060368537903,0.6231439113616943,0.3696121573448181
1684200816922376000,9.9583759765625,0.4752439260482788,0.5034272074699402,0.39297670125961304
1684200816932402000,9.96840185546875,0.36516615748405457,0.3582463562488556,0.4143693447113037
1684200816942428000,9.978427978515626,0.2213529795408249,0.2358623445034027,0.4475919008255005
1684200816952454100,9.9884541015625,0.1534317284822464,0.1922679990530014,0.48407402634620667
1684200816962480000,9.998480224609375,0.11864665150642395,0.1632007658481598,0.49341443181037903
1684200816972506000,10.008506103515625,0.06526012718677521,0.1426350325345993,0.5072764158248901
1684200816982532000,10.018531982421875,-0.010469073429703712,0.13144786655902863,0.5409832000732422
1684200816992558800,10.028558837890625,-0.10019123554229736,0.145259290933609,0.5921987295150757
1684200817002584800,10.038584716796874,-0.2038709968328476,0.14405325055122375,0.6600753664970398
1684200817012610800,10.04861083984375,-0.3148422837257385,0.08344531059265137,0.7524529695510864
1684200817022636800,10.05863671875,-0.44003796577453613,-0.04409734532237053,0.8341913819313049
1684200817032662800,10.068662841796876,-0.5768637657165527,-0.2125673145055771,0.8856231570243835
1684200817042689000,10.07868896484375,-0.6971648931503296,-0.42871132493019104,0.8980348110198975
1684200817052715000,10.088715087890625,-0.7981663346290588,-0.6451586484909058,0.8923643827438354
1684200817062741000,10.098740966796875,-0.8673375248908997,-0.8623900413513184,0.8801965713500977
1684200817072767000,10.10876708984375,-0.907817006111145,-1.0509564876556396,0.865615725517273
1684200817082793000,10.11879296875,-0.9117589592933655,-1.1660805940628052,0.869817852973938
1684200817092819000,10.12881884765625,-0.8723337650299072,-1.208013653755188,0.897838830947876
1684200817102845000,10.138844970703126,-0.8180646896362305,-1.165173053741455,0.9273689985275269
1684200817112871000,10.148870849609375,-0.7984627485275269,-1.064109206199646,0.9660660624504089
1684200817122897000,10.15889697265625,-0.8026291131973267,-0.9283369779586792,1.0421868562698364
1684200817132923000,10.1689228515625,-0.8242763876914978,-0.7821954488754272,1.1155872344970703
1684200817142948900,10.178948974609375,-0.857435941696167,-0.6585663557052612,1.1771013736724854
1684200817152976100,10.18897607421875,-0.8748860359191895,-0.5789271593093872,1.2112932205200195
1684200817163002000,10.199002197265624,-0.8749002814292908,-0.5384953618049622,1.2139968872070312
1684200817173028000,10.209028076171874,-0.8573127388954163,-0.5084474682807922,1.163657784461975
1684200817183054000,10.21905419921875,-0.7819229364395142,-0.44710415601730347,1.1000795364379883
1684200817193080000,10.229080078125,-0.651336669921875,-0.36486920714378357,1.0484634637832642
1684200817203106000,10.23910595703125,-0.5414305925369263,-0.2644786238670349,1.005616307258606
1684200817213132000,10.249132080078125,-0.47215133905410767,-0.16566284000873566,0.9648414254188538
1684200817223157800,10.25915771484375,-0.4583781957626343,-0.1034112200140953,0.9278062582015991
1684200817233184000,10.26918408203125,-0.5004228353500366,-0.16539256274700165,0.8554705381393433
1684200817243210000,10.2792099609375,-0.5051968097686768,-0.12582239508628845,0.7634539008140564
1684200817253236000,10.289236083984376,-0.44672951102256775,0.048031166195869446,0.6272135376930237
1684200817263262000,10.299261962890625,-0.4116613268852234,0.24162648618221283,0.44473713636398315
1684200817273288000,10.309287841796875,-0.40494003891944885,0.3538464903831482,0.2570386230945587
1684200817283314000,10.31931396484375,-0.38975802063941956,0.29594314098358154,0.0932781770825386
1684200817293340000,10.32933984375,-0.37295401096343994,0.006361652631312609,-0.039716627448797226
1684200817303366000,10.339365966796874,-0.3732445240020752,-0.3419121503829956,-0.16899515688419342
1684200817313393000,10.349392822265624,-0.408037394285202,-0.488513320684433,-0.2793365716934204
1684200817323419100,10.359419189453124,-0.4639424979686737,-0.35781627893447876,-0.3326006233692169
1684200817333445000,10.369445068359376,-0.5343684554100037,-0.07615741342306137,-0.26528868079185486
1684200817343471000,10.37947119140625,-0.6118301749229431,0.15892945230007172,-0.11267348378896713
1684200817353497000,10.3894970703125,-0.6657930016517639,0.2853683531284332,0.08358816802501678
1684200817363523000,10.399523193359375,-0.6867237687110901,0.27945807576179504,0.2627551555633545
1684200817373549000,10.409549072265625,-0.6651697754859924,0.1808316558599472,0.39691269397735596
1684200817383575000,10.419574951171874,-0.605189859867096,0.08278641849756241,0.4761963486671448
1684200817393601000,10.42960107421875,-0.5065141320228577,-0.06424084305763245,0.5053078532218933
1684200817403627000,10.439626953125,-0.37383168935775757,-0.3147319257259369,0.4770693778991699
1684200817413653000,10.449653076171876,-0.2213183492422104,-0.6696210503578186,0.37639495730400085
1684200817423679000,10.459678955078125,-0.059043340384960175,-1.0245932340621948,0.20047175884246826
1684200817433705200,10.469705322265625,0.057927221059799194,-1.1383203268051147,-0.014436288736760616
1684200817443731000,10.47973095703125,0.1232123002409935,-1.187873125076294,-0.18115319311618805
1684200817453757000,10.4897568359375,0.12699638307094574,-1.2073564529418945,-0.2786717712879181
1684200817463783000,10.499782958984374,0.12116137892007828,-1.158010721206665,-0.3015751540660858
1684200817473810000,10.509809814453124,0.11140275746583939,-0.9866538643836975,-0.28726625442504883
1684200817483836000,10.5198359375,0.07532922923564911,-0.7116111516952515,-0.2723996639251709
1684200817493862000,10.52986181640625,0.011340389028191566,-0.4160636365413666,-0.2671990394592285
1684200817503888000,10.539887939453125,-0.07108249515295029,-0.16361352801322937,-0.2515278458595276
1684200817513913900,10.549913818359375,-0.12266366928815842,0.005804272368550301,-0.2247271090745926
1684200817523940000,10.559940185546875,-0.12881061434745789,0.11240033805370331,-0.1766437292098999
1684200817533966000,10.569966064453125,-0.11999236047267914,0.15170352160930634,-0.12394935637712479
1684200817543992000,10.579991943359374,-0.11206012219190598,0.15401937067508698,-0.07319863140583038
1684200817554018000,10.59001806640625,-0.10546347498893738,0.16150285303592682,-0.02382095903158188
1684200817564044000,10.6000439453125,-0.1078619509935379,0.18871335685253143,0.03794645518064499
1684200817574070000,10.610070068359375,-0.13331538438796997,0.24946458637714386,0.09921008348464966
1684200817584096000,10.620095947265625,-0.1481575071811676,0.3445582389831543,0.17739340662956238
1684200817594122000,10.6301220703125,-0.15645672380924225,0.43610095977783203,0.27742570638656616
1684200817604148000,10.64014794921875,-0.16717487573623657,0.48732253909111023,0.39932572841644287
1684200817614174000,10.650174072265624,-0.1816217303276062,0.5272960066795349,0.532906711101532
1684200817624201000,10.660200927734374,-0.19328905642032623,0.5407702326774597,0.6484899520874023
1684200817634227000,10.67022705078125,-0.21553204953670502,0.5423876047134399,0.744458794593811
1684200817644253000,10.6802529296875,-0.22651363909244537,0.4726884365081787,0.8005326986312866
1684200817654279000,10.69027880859375,-0.18987147510051727,0.2950499951839447,0.7634007334709167
1684200817664305000,10.700304931640625,-0.12314939498901367,0.08132170140743256,0.6346441507339478
1684200817674331000,10.710330810546875,-0.05230318009853363,-0.0835050642490387,0.43730980157852173
1684200817684356900,10.72035693359375,-0.006842294707894325,-0.1427849978208542,0.22976601123809814
1684200817694382800,10.7303828125,0.015161008574068546,-0.18431060016155243,0.04902312904596329
1684200817704408800,10.740408935546874,0.03793017566204071,-0.21661889553070068,-0.06558144837617874
1684200817714435000,10.75043505859375,0.036521632224321365,-0.2783544361591339,-0.12172914296388626
1684200817724461000,10.7604609375,0.022784113883972168,-0.35499969124794006,-0.11038313806056976
1684200817734487000,10.770487060546875,0.00934953149408102,-0.31991520524024963,-0.03802478685975075
1684200817744513000,10.780512939453125,-0.01896313950419426,-0.21784378588199615,0.06057725101709366
1684200817754539000,10.7905390625,-0.042583782225847244,-0.10909920185804367,0.1365327388048172
1684200817764565000,10.80056494140625,-0.05815897509455681,-0.026370177045464516,0.19795650243759155
1684200817774592000,10.810592041015624,-0.06779349595308304,0.0019147256389260292,0.24191462993621826
1684200817784618000,10.820617919921874,-0.06248815730214119,-0.025911085307598114,0.25105011463165283
1684200817794644000,10.83064404296875,-0.04199247434735298,-0.03766760975122452,0.25832399725914
1684200817804670200,10.840670166015625,-0.025835704058408737,-0.04634120687842369,0.25512203574180603
1684200817814696200,10.8506962890625,-0.0019423563499003649,-0.06471701711416245,0.24602094292640686
1684200817824722200,10.86072216796875,0.01093851774930954,-0.11042223870754242,0.22985120117664337
1684200817834748000,10.870747802734375,0.02020525373518467,-0.1248650923371315,0.22549960017204285
1684200817844774000,10.88077392578125,0.04408835992217064,-0.12832379341125488,0.21832618117332458
1684200817854800000,10.8907998046875,0.07335703074932098,-0.12925536930561066,0.2149173468351364
1684200817864825900,10.900825927734376,0.08144666999578476,-0.14010171592235565,0.22793853282928467
1684200817874851800,10.910851806640625,0.08534500002861023,-0.14764751493930817,0.24167005717754364
1684200817884877800,10.9208779296875,0.07372868806123734,-0.13887852430343628,0.25777167081832886
1684200817894903800,10.93090380859375,0.042866650968790054,-0.13356231153011322,0.26169317960739136
1684200817904929800,10.9409296875,0.00020436907652765512,-0.1123976930975914,0.26530539989471436
1684200817914956000,10.9509560546875,-0.03149523586034775,-0.06692448258399963,0.24970459938049316
1684200817924982000,10.96098193359375,-0.07312049716711044,-0.0320274718105793,0.2075219601392746
1684200817935009000,10.971009033203124,-0.09824848175048828,-0.02716347575187683,0.15770700573921204
1684200817945035000,10.981034912109376,-0.083037368953228,-0.06584924459457397,0.12449448555707932
1684200817955061000,10.99106103515625,-0.06383970379829407,-0.19931355118751526,0.09590945392847061
1684200817965087000,11.0010869140625,-0.05731276795268059,-0.34941020607948303,0.07536579668521881
1684200817975113000,11.011113037109375,-0.05197019875049591,-0.43094903230667114,0.04477326199412346
1684200817985139000,11.021138916015625,-0.04871468245983124,-0.43825557827949524,-0.007150224409997463
1684200817995165000,11.0311650390625,-0.06873712688684464,-0.39778751134872437,-0.05678781867027283
1684200818005191200,11.041191162109374,-0.09371566027402878,-0.3819694221019745,-0.08868579566478729
1684200818015217200,11.051217041015626,-0.1250370889902115,-0.417461633682251,-0.10639235377311707
1684200818025243100,11.0612431640625,-0.15948477387428284,-0.49103015661239624,-0.12372951209545135
1684200818035269000,11.07126904296875,-0.18923521041870117,-0.5335025191307068,-0.14649207890033722
1684200818045295000,11.081295166015625,-0.2267889380455017,-0.5061050057411194,-0.17667314410209656
1684200818055321000,11.091321044921875,-0.2622710168361664,-0.45162469148635864,-0.18919584155082703
1684200818065347000,11.10134716796875,-0.28729626536369324,-0.43018126487731934,-0.18012280762195587
1684200818075373000,11.111373046875,-0.3016869127750397,-0.4328116476535797,-0.14338476955890656
1684200818085399800,11.12139990234375,-0.3059641420841217,-0.43007832765579224,-0.09808529168367386
1684200818095426000,11.131426025390626,-0.31019219756126404,-0.41358378529548645,-0.04646950215101242
1684200818105452000,11.1414521484375,-0.31258058547973633,-0.3969908654689789,0.010775423608720303
1684200818115478000,11.15147802734375,-0.31000104546546936,-0.391677588224411,0.049875423312187195
1684200818125504000,11.16150390625,-0.2997002899646759,-0.4283737242221832,0.05503000691533089
1684200818135530000,11.171530029296875,-0.27915239334106445,-0.4762251377105713,0.025459863245487213
1684200818145556000,11.181555908203125,-0.2645338177680969,-0.5103052854537964,-0.024703461676836014
1684200818155582000,11.19158203125,-0.2524723708629608,-0.5214317440986633,-0.0916910246014595
1684200818165608000,11.20160791015625,-0.24861782789230347,-0.5287885069847107,-0.14116421341896057
1684200818175634000,11.211634033203126,-0.24723857641220093,-0.5318900346755981,-0.16421334445476532
1684200818185660000,11.221659912109375,-0.24119678139686584,-0.5371720194816589,-0.16810394823551178
1684200818195686100,11.23168603515625,-0.23312102258205414,-0.5295548439025879,-0.15578044950962067
1684200818205712100,11.241712158203125,-0.23466569185256958,-0.5014640688896179,-0.1515638828277588
1684200818215738000,11.251738037109375,-0.22692708671092987,-0.4383980333805084,-0.15233619511127472
1684200818225764000,11.26176416015625,-0.2058173418045044,-0.33830028772354126,-0.14798076450824738
1684200818235790800,11.271790771484374,-0.16842123866081238,-0.23998117446899414,-0.14379321038722992
1684200818245816800,11.28181689453125,-0.1196364164352417,-0.19360199570655823,-0.10588719695806503
1684200818255842800,11.2918427734375,-0.08988943696022034,-0.25377506017684937,-0.033870793879032135
1684200818265868800,11.301868896484375,-0.07448580861091614,-0.390209823846817,0.04867197573184967
1684200818275894800,11.311894775390625,-0.044630441814661026,-0.42064523696899414,0.09432654827833176
1684200818285921000,11.321921142578125,-0.022051522508263588,-0.260543555021286,0.06311934441328049
1684200818295947000,11.331947021484375,0.014743244275450706,-0.03478367254137993,0.010660665109753609
1684200818305973000,11.341972900390624,0.07663578540086746,0.1211342141032219,0.012462900020182133
1684200818315999000,11.3519990234375,0.14012421667575836,0.17443978786468506,0.07961157709360123
1684200818326025000,11.36202490234375,0.1926051825284958,0.18577603995800018,0.1748274564743042
1684200818336051000,11.372051025390626,0.22885054349899292,0.18260714411735535,0.24448856711387634
1684200818346077000,11.382076904296875,0.24307554960250854,0.14155718684196472,0.26422765851020813
1684200818356103000,11.39210302734375,0.2437455952167511,0.012797074392437935,0.18622392416000366
1684200818366129000,11.40212890625,0.24408303201198578,-0.16057486832141876,-0.02431878075003624
1684200818376155000,11.41215478515625,0.26905444264411926,-0.26471295952796936,-0.3336891531944275
1684200818386180900,11.422180908203124,0.31451496481895447,-0.26946842670440674,-0.6813874840736389
1684200818396208000,11.4322080078125,0.3654969334602356,-0.223887100815773,-0.9879100918769836
1684200818406234000,11.442234130859376,0.4034139811992645,-0.18323171138763428,-1.1993787288665771
1684200818416260000,11.452260009765626,0.41494280099868774,-0.1316276341676712,-1.3132238388061523
1684200818426286000,11.4622861328125,0.4183952212333679,-0.10198058933019638,-1.345373511314392
1684200818436312000,11.47231201171875,0.46133866906166077,-0.08041324466466904,-1.356665849685669
1684200818446338000,11.482338134765625,0.4962374269962311,-0.08911269158124924,-1.3886523246765137
1684200818456364000,11.492364013671875,0.5759580731391907,-0.04575270041823387,-1.5352050065994263
1684200818466390000,11.50239013671875,0.6788353323936462,0.1514737606048584,-1.8163484334945679
1684200818476416000,11.512416015625,0.7540872097015381,0.4770137667655945,-2.0824015140533447
1684200818486442000,11.52244189453125,0.8159979581832886,0.6663572788238525,-2.225942611694336
1684200818496468000,11.532468017578125,0.8702375292778015,0.6608562469482422,-2.1960787773132324
1684200818506494000,11.542493896484375,0.8775034546852112,0.5131001472473145,-1.9641040563583374
1684200818516520000,11.55252001953125,0.9409463405609131,0.17581506073474884,-1.6879031658172607
1684200818526546000,11.5625458984375,1.0146868228912354,-0.35604825615882874,-1.4952729940414429
1684200818536572000,11.572572021484374,1.0176581144332886,-0.8768653869628906,-1.3235938549041748
1684200818546599000,11.582598876953124,0.9803503155708313,-1.193395972251892,-1.188889503479004
1684200818556625000,11.592625,0.9810193181037903,-1.0567970275878906,-1.166922688484192
1684200818566651000,11.60265087890625,0.9723612666130066,-0.5022221207618713,-1.2266181707382202
1684200818576678000,11.612677978515626,0.9380933046340942,0.16241447627544403,-1.196448564529419
1684200818586704000,11.622703857421875,0.9523773193359375,0.5471243262290955,-1.0479446649551392
1684200818596729900,11.632729736328125,1.0013315677642822,0.701596200466156,-0.7492775321006775
1684200818606756000,11.642756103515625,1.050923466682434,0.712115466594696,-0.47660690546035767
1684200818616781800,11.65278173828125,1.073727011680603,0.8616160154342651,-0.21427302062511444
1684200818626807800,11.662807861328124,1.0393855571746826,1.1164445877075195,-0.010403268039226532
1684200818636833800,11.672833740234376,0.9122135043144226,1.3692877292633057,0.10646449774503708
1684200818646859800,11.68285986328125,0.8258586525917053,1.5395526885986328,0.15589438378810883
1684200818656885800,11.6928857421875,0.7403849959373474,1.5826809406280518,0.14776481688022614
1684200818666911700,11.702911865234375,0.6815251708030701,1.512658953666687,0.11149407923221588
1684200818676937700,11.712937744140625,0.6686477065086365,1.2373647689819336,-0.0008633523248136044
1684200818686963700,11.722963623046875,0.6570277810096741,1.1794188022613525,-0.061992425471544266
1684200818696991000,11.732990966796875,0.6515142321586609,1.234981656074524,-0.02801608294248581
1684200818707017000,11.743016845703124,0.5931379795074463,0.6957861185073853,-0.18593040108680725
1684200818717043000,11.75304296875,0.5418164730072021,0.8047698736190796,-0.05941986292600632
1684200818727069000,11.76306884765625,0.4577624797821045,0.8280185461044312,0.05876939743757248
1684200818737095000,11.773094970703125,0.33097949624061584,0.7061432600021362,0.11962848156690598
1684200818747121000,11.783120849609375,0.21383652091026306,0.6406647562980652,0.19275863468647003
1684200818757147000,11.79314697265625,0.15963827073574066,0.555507242679596,0.24854466319084167
1684200818767172900,11.8031728515625,0.15951743721961975,0.4006662964820862,0.28239139914512634
1684200818777198800,11.81319873046875,0.23025497794151306,0.26851439476013184,0.3586646020412445
1684200818787224800,11.823224853515624,0.2808190882205963,0.1252981722354889,0.41706621646881104
1684200818797250800,11.833250732421876,0.32321450114250183,-0.004842525813728571,0.4406157433986664
1684200818807277000,11.843277099609375,0.19156798720359802,-0.17562195658683777,0.3878755569458008
1684200818817303000,11.853302978515625,0.19478482007980347,-0.01587624102830887,0.43993422389030457
1684200818827329000,11.8633291015625,0.10201720893383026,0.04796898365020752,0.4385744631290436
1684200818837355000,11.87335498046875,0.018042149022221565,0.1935887634754181,0.42845338582992554
1684200818847381800,11.8833818359375,-0.0065130204893648624,0.39894339442253113,0.4509652256965637
1684200818857407700,11.89340771484375,-0.017062600702047348,0.5169634819030762,0.4998405873775482
1684200818867433700,11.903433837890624,-0.021322155371308327,0.5307310223579407,0.5493841171264648
1684200818877459700,11.913459716796876,-0.031000880524516106,0.4889196753501892,0.604146420955658
1684200818887485700,11.923485595703125,-0.06702262163162231,0.4368215799331665,0.6421638131141663
1684200818897512000,11.933511962890625,-0.13402588665485382,0.3762514293193817,0.6700971722602844
1684200818907538000,11.943537841796875,-0.1785752773284912,0.20651260018348694,0.6284372210502625
1684200818917564000,11.95356396484375,-0.2506561279296875,0.029994556680321693,0.5515030026435852
1684200818927590000,11.96358984375,-0.30315279960632324,-0.0636063888669014,0.48466336727142334
1684200818937616000,11.973615966796874,-0.2991679012775421,-0.18224090337753296,0.43895554542541504
1684200818947641900,11.983641845703126,-0.2912042737007141,-0.2585875988006592,0.4068666100502014
1684200818957667800,11.993667724609375,-0.325324147939682,-0.2490215301513672,0.38425955176353455
1684200818967693800,12.00369384765625,-0.31631195545196533,-0.13727886974811554,0.37477922439575195
1684200818977719800,12.0137197265625,-0.38289231061935425,0.07672104239463806,0.40615472197532654
1684200818987745800,12.023745849609375,-0.4093516170978546,0.2317795306444168,0.43799591064453125
1684200818997773000,12.03377294921875,-0.46480661630630493,0.4098009467124939,0.4725096821784973
1684200819007798800,12.043798828125,-0.5149914026260376,0.3992408514022827,0.4668304920196533
1684200819017824800,12.05382470703125,-0.6057931780815125,0.03736945614218712,0.3145855665206909
1684200819027850800,12.063850830078126,-0.7591126561164856,0.0009088164079003036,0.32216009497642517
1684200819037876700,12.073876708984375,-0.9691028594970703,0.022788016125559807,0.4295683205127716
1684200819047902700,12.08390283203125,-1.1423572301864624,0.018528848886489868,0.5887044072151184
1684200819057928700,12.0939287109375,-1.383096694946289,-0.08572991192340851,0.6130310893058777
1684200819067954700,12.10395458984375,-1.5169410705566406,-0.09951811283826828,0.6000993847846985
1684200819077980700,12.113980712890625,-1.500429391860962,-0.10495655983686447,0.5782303214073181
1684200819088007000,12.1240068359375,-1.3779178857803345,-0.2237238883972168,0.5502269864082336
1684200819098033000,12.134032958984376,-1.2392632961273193,-0.382262647151947,0.5092880725860596
1684200819108059000,12.144058837890626,-1.1066595315933228,-0.5280236005783081,0.45601779222488403
1684200819118084900,12.1540849609375,-0.9653340578079224,-0.5067702531814575,0.4777068495750427
1684200819128110800,12.16411083984375,-0.8585641384124756,-0.35327476263046265,0.5690628886222839
1684200819138137900,12.174137939453125,-0.7233250737190247,-0.09941611438989639,0.6687740683555603
1684200819148163800,12.184163818359375,-0.6633351445198059,0.13650614023208618,0.7142860293388367
1684200819158189800,12.19418994140625,-0.7718645930290222,0.20306439697742462,0.6374335885047913
1684200819168215800,12.2042158203125,-0.9039928317070007,0.00045680487528443336,0.4384658634662628
1684200819178242000,12.214241943359376,-0.917184054851532,-0.14101509749889374,0.31188663840293884
1684200819188268000,12.22426806640625,-0.8426421284675598,-0.0725807249546051,0.28683874011039734
1684200819198294000,12.2342939453125,-0.707228422164917,0.04381965100765228,0.28277528285980225
1684200819208320000,12.244320068359375,-0.5569064617156982,0.005213643424212933,0.2666589319705963
1684200819218346000,12.254345947265625,-0.4378463923931122,-0.12562532722949982,0.24229367077350616
1684200819228372000,12.2643720703125,-0.40251854062080383,-0.17362432181835175,0.11972612142562866
1684200819238398000,12.27439794921875,-0.3977474868297577,-0.32866719365119934,-0.14060665667057037
1684200819248424000,12.284423828125,-0.3719731867313385,-0.5627803802490234,-0.36544734239578247
1684200819258450000,12.294449951171876,-0.31708329916000366,-0.8121262788772583,-0.4899834096431732
1684200819268475600,12.3044755859375,-0.26912230253219604,-0.85361248254776,-0.545132577419281
1684200819278501600,12.314501708984375,-0.21681460738182068,-0.6067736744880676,-0.5279722213745117
1684200819288529000,12.32452880859375,-0.12607063353061676,-0.19102579355239868,-0.3982755243778229
1684200819298555000,12.334554931640625,-0.046260759234428406,0.20031587779521942,-0.25011003017425537
1684200819308580900,12.344580810546875,-0.018802685663104057,0.49662959575653076,-0.19843581318855286
1684200819318606800,12.35460693359375,-0.054467204958200455,0.8318861722946167,-0.27236437797546387
1684200819328632800,12.3646328125,-0.09067831933498383,1.2504949569702148,-0.4008195102214813
1684200819338658800,12.374658935546876,-0.14705370366573334,1.4257086515426636,-0.4494216740131378
1684200819348684800,12.384684814453125,-0.2959088087081909,1.3535505533218384,-0.33551886677742004
1684200819358710800,12.394710693359375,-0.4332139194011688,1.147194266319275,-0.12457174062728882
1684200819368736800,12.40473681640625,-0.42792755365371704,0.8885816335678101,0.066839300096035
1684200819378763000,12.414762939453125,-0.46340325474739075,0.5574047565460205,0.2945621907711029
1684200819388789000,12.4247890625,-0.3451911211013794,0.36631640791893005,0.4709238111972809
1684200819398815000,12.43481494140625,-0.1624966561794281,0.3310239315032959,0.5574848055839539
1684200819408841000,12.444841064453126,0.03755917400121689,0.36434078216552734,0.560958206653595
1684200819418867000,12.454866943359375,0.22256498038768768,0.41491392254829407,0.5409917235374451
