time,seconds_elapsed,z,y,x
1684201242716480000,0.03747998046875,-0.6268937587738037,2.2196426391601562,-0.44401615858078003
1684201242726506000,0.047506103515625,-0.7615181803703308,2.148709774017334,-0.9270530939102173
1684201242736532000,0.057531982421875,-0.9366312623023987,2.342345714569092,-1.3503283262252808
1684201242746559200,0.067559326171875,-1.2124685049057007,2.8442423343658447,-1.4948877096176147
1684201242756585200,0.077585205078125,-1.5672532320022583,3.800964593887329,-1.260043978691101
1684201242766612000,0.087612060546875,-1.978799819946289,5.211113452911377,-0.6666421890258789
1684201242776638000,0.097637939453125,-2.44289231300354,6.896645545959473,0.09650325775146484
1684201242786664000,0.107663818359375,-2.8800151348114014,8.416808128356934,0.8822771906852722
1684201242796691000,0.11769091796875,-3.4395127296447754,9.226715087890625,1.439144253730774
1684201242806717000,0.127717041015625,-4.172689914703369,9.44073486328125,1.6655316352844238
1684201242816744200,0.137744140625,-4.937641620635986,9.021112442016602,1.6170614957809448
1684201242826770200,0.147770263671875,-5.618280410766602,8.124284744262695,1.3770205974578857
1684201242836797000,0.157796875,-6.2163872718811035,7.118337631225586,1.0756055116653442
1684201242846823000,0.167822998046875,-6.752379417419434,6.180708885192871,0.8422371745109558
1684201242856849000,0.177848876953125,-7.248170375823975,5.357221603393555,0.7574683427810669
1684201242866876200,0.187876220703125,-7.514252185821533,4.4442877769470215,0.9377917647361755
1684201242876902100,0.197902099609375,-7.60666036605835,3.546813488006592,1.430457353591919
1684201242886929200,0.20792919921875,-7.522096633911133,2.7155263423919678,1.8783241510391235
1684201242896955100,0.217955078125,-7.418811321258545,2.053772211074829,2.2070975303649902
1684201242906980900,0.22798095703125,-7.42380428314209,1.4449272155761719,2.4776611328125
1684201242917008000,0.2380078125,-7.553996562957764,0.870261013507843,2.782255172729492
1684201242927034000,0.2480341796875,-7.5164690017700195,0.7210875153541565,3.0267577171325684
1684201242937061000,0.25806103515625,-7.078094482421875,1.0573995113372803,3.300363302230835
1684201242947087000,0.268087158203125,-6.424560070037842,1.4322314262390137,3.533069610595703
1684201242957113900,0.27811376953125,-5.784160614013672,1.7043825387954712,3.7355308532714844
1684201242967139800,0.288139892578125,-5.236673355102539,1.6719489097595215,3.9036293029785156
1684201242977165800,0.298165771484375,-4.759798526763916,1.2662850618362427,4.076241970062256
1684201242987193000,0.308193115234375,-4.301551818847656,0.5936632752418518,4.100922107696533
1684201242997219000,0.318218994140625,-3.792309284210205,-0.38158002495765686,3.853240489959717
1684201243007246000,0.32824609375,-3.171548366546631,-1.702082633972168,3.2590909004211426
1684201243017272000,0.33827197265625,-2.4513468742370605,-2.5121171474456787,2.4403138160705566
1684201243027298000,0.348298095703125,-1.7715084552764893,-2.843079090118408,1.7757568359375
1684201243037325000,0.358324951171875,-0.9985314607620239,-2.8652992248535156,1.347507119178772
1684201243047351000,0.36835107421875,-0.12669116258621216,-2.7154273986816406,1.1489343643188477
1684201243057378000,0.3783779296875,0.6046318411827087,-2.661410093307495,0.8995918035507202
1684201243067404000,0.388404052734375,1.1150903701782227,-2.293949604034424,1.0196318626403809
1684201243077431000,0.39843115234375,1.4880871772766113,-1.9153339862823486,1.3837451934814453
1684201243087457000,0.40845703125,1.5228904485702515,-1.8279412984848022,1.420462727546692
1684201243097483000,0.41848291015625,1.2977467775344849,-1.8497450351715088,1.0990039110183716
1684201243107510000,0.428510009765625,1.1270091533660889,-1.771651268005371,0.7322483658790588
1684201243117536000,0.438535888671875,1.0960988998413086,-1.430250883102417,0.3330504894256592
1684201243127562800,0.448562744140625,1.3095715045928955,-0.8565383553504944,0.0743960440158844
1684201243137588700,0.458588623046875,1.527636170387268,-0.5972498655319214,-0.5075939893722534
1684201243147614700,0.46861474609375,1.3919140100479126,0.10998792201280594,-1.0232994556427002
1684201243157641700,0.478641845703125,1.1796799898147583,0.9625853896141052,-1.1418174505233765
1684201243167667700,0.488667724609375,1.1414093971252441,1.844049096107483,-1.0374802350997925
1684201243177694500,0.498694580078125,1.4241836071014404,2.5974574089050293,-0.7866777777671814
1684201243187720400,0.508720458984375,2.138155937194824,3.024543523788452,-0.3536030352115631
1684201243197747700,0.518747802734375,2.840787410736084,3.1854329109191895,0.11368171870708466
1684201243207773700,0.528773681640625,3.1572601795196533,3.0501041412353516,0.1432148516178131
1684201243217799700,0.538799560546875,3.2163233757019043,2.9856064319610596,0.08793933689594269
1684201243227826700,0.54882666015625,3.484440803527832,2.6547296047210693,0.21915674209594727
1684201243237852700,0.558852783203125,3.5500032901763916,2.1160879135131836,0.20347459614276886
1684201243247879700,0.568879638671875,3.2883996963500977,1.740536093711853,0.14758069813251495
1684201243257905700,0.57890576171875,3.0849153995513916,1.5632363557815552,0.02959386631846428
1684201243267931600,0.588931640625,3.240189790725708,1.2821540832519531,0.012655630707740784
1684201243277958700,0.598958740234375,3.2473602294921875,1.1242464780807495,-0.011118829250335693
1684201243287984600,0.608984619140625,2.870500087738037,1.0951725244522095,-0.09933444112539291
1684201243298011600,0.61901171875,2.417694568634033,1.197529911994934,0.20009872317314148
1684201243308037600,0.62903759765625,1.725868582725525,1.3569954633712769,0.6044171452522278
1684201243318064600,0.639064697265625,0.7970014810562134,1.228623867034912,0.8911953568458557
1684201243328090600,0.649090576171875,-0.38253307342529297,0.6433702707290649,0.9201039671897888
1684201243338116600,0.65911669921875,-1.3321329355239868,-0.5633537173271179,0.3402964174747467
1684201243348143600,0.6691435546875,-1.6096196174621582,-1.1764453649520874,-0.31479644775390625
1684201243358169600,0.679169677734375,-1.2739790678024292,-0.9937795400619507,-0.7535743713378906
1684201243368196600,0.689196533203125,-0.9558556079864502,-0.7766658663749695,-1.1818656921386719
1684201243378222600,0.69922265625,-1.050432562828064,-0.3553737699985504,-1.7415187358856201
1684201243388248600,0.70924853515625,-1.3199154138565063,0.6360936760902405,-2.083054542541504
1684201243398275600,0.719275634765625,-1.844279170036316,1.4509410858154297,-1.8796420097351074
1684201243408301600,0.729301513671875,-2.7164082527160645,2.0847721099853516,-1.3531053066253662
1684201243418328800,0.739328857421875,-3.6902740001678467,0.9973956942558289,-0.8879136443138123
1684201243428354800,0.749354736328125,-4.488973140716553,-0.3290124535560608,-0.6463100910186768
1684201243438381600,0.759381591796875,-4.984496593475342,-0.5949314832687378,-0.4939570128917694
1684201243448407600,0.769407470703125,-5.63332462310791,-0.9331281781196594,-0.4688076972961426
1684201243458433500,0.77943359375,-6.037753105163574,-0.1389574408531189,-0.5992494225502014
1684201243468460500,0.78946044921875,-5.812747955322266,0.5913582444190979,-0.9162856936454773
1684201243478486500,0.799486572265625,-5.376392364501953,0.9524703025817871,-1.4382504224777222
1684201243488513800,0.809513671875,-5.071588039398193,1.2438989877700806,-2.0475242137908936
1684201243498539800,0.819539794921875,-4.591366767883301,1.6406466960906982,-2.4630274772644043
1684201243508565800,0.829565673828125,-3.9945688247680664,0.9800224304199219,-2.1908366680145264
1684201243518592500,0.839592529296875,-3.1091465950012207,-0.08084733784198761,-1.5031152963638306
1684201243528618500,0.849618408203125,-2.2501659393310547,-0.7947034239768982,-0.7288001775741577
1684201243538645800,0.859645751953125,-1.9875750541687012,0.28449761867523193,0.34728774428367615
1684201243548671700,0.869671630859375,-2.0950491428375244,2.7107651233673096,1.4686076641082764
1684201243558698800,0.87969873046875,-2.292661666870117,4.8003363609313965,2.1177096366882324
1684201243568724700,0.889724853515625,-2.2041120529174805,5.432538986206055,1.912827730178833
1684201243578750700,0.899750732421875,-1.8600553274154663,4.429467678070068,1.0880550146102905
1684201243588777500,0.909777587890625,-1.3624916076660156,2.7124812602996826,0.02194404788315296
1684201243598803700,0.9198037109375,-0.7282643914222717,1.6020268201828003,-0.9955233335494995
1684201243608830700,0.929830810546875,-0.08147336542606354,1.0232319831848145,-1.7758820056915283
1684201243618856700,0.939856689453125,0.6574223637580872,-0.11442840099334717,-1.9949852228164673
1684201243628882700,0.949882568359375,1.4062086343765259,-2.1884043216705322,-1.6425029039382935
1684201243638909700,0.95990966796875,1.6727403402328491,-3.2411892414093018,-1.1175402402877808
1684201243648935700,0.969935791015625,1.372838020324707,-2.7038321495056152,-0.27952542901039124
1684201243658962700,0.979962646484375,0.7912377715110779,-1.0841681957244873,0.7783744931221008
1684201243668988700,0.98998876953125,0.3023267090320587,0.04875433072447777,1.4463658332824707
1684201243679015700,1.000015625,-0.1215072050690651,-0.24911822378635406,1.003696322441101
1684201243689041700,1.010041748046875,-0.39833134412765503,-0.6061495542526245,-0.12082935124635696
1684201243699067600,1.020067626953125,-0.40465596318244934,-0.05640996992588043,-0.8872845768928528
1684201243709094700,1.0300947265625,-0.2592063546180725,0.42749544978141785,-1.2584421634674072
1684201243719120600,1.04012060546875,-0.09151353687047958,0.2765709161758423,-1.3621752262115479
1684201243729147600,1.050147705078125,0.07410258799791336,-0.13090550899505615,-1.2068692445755005
1684201243739173600,1.060173583984375,0.4809216260910034,-0.7774060964584351,-0.8742176294326782
1684201243749199600,1.07019970703125,0.9878226518630981,-1.379168152809143,-0.4189199209213257
1684201243759226600,1.0802265625,1.0467544794082642,-1.3801652193069458,0.29784807562828064
1684201243769252600,1.090252685546875,0.6177107095718384,-1.3437858819961548,1.0605049133300781
1684201243779279600,1.100279541015625,-0.15049241483211517,-1.0162525177001953,1.8491290807724
1684201243789305600,1.1103056640625,-0.9200298190116882,-0.2296343445777893,2.813037157058716
1684201243799331600,1.12033154296875,-1.115203619003296,0.600116491317749,3.6796131134033203
1684201243809358600,1.130358642578125,-0.7525798678398132,0.8934482336044312,4.359339714050293
1684201243819384600,1.140384521484375,0.28497248888015747,1.1850500106811523,4.757476806640625
1684201243829411800,1.150411865234375,1.2841728925704956,1.492627501487732,4.544877529144287
1684201243839437800,1.160437744140625,1.3595603704452515,2.082235336303711,4.0789008140563965
1684201243849464600,1.170464599609375,0.7933629751205444,3.1303164958953857,3.2516448497772217
1684201243859490600,1.180490478515625,-0.2410508394241333,3.8556041717529297,2.7563796043395996
1684201243869516500,1.1905166015625,-0.9271628856658936,3.5290005207061768,2.5189437866210938
1684201243879543600,1.20054345703125,-1.0495716333389282,3.0159544944763184,2.464607000350952
1684201243889569800,1.21056982421875,-0.9075101017951965,2.6809298992156982,2.5323336124420166
1684201243899596800,1.2205966796875,-0.966264545917511,2.36238169670105,2.5406079292297363
1684201243909622800,1.230622802734375,-1.077553391456604,2.441208600997925,2.5443191528320312
1684201243919649500,1.2406494140625,-1.211792230606079,2.8706367015838623,2.6863913536071777
1684201243929675500,1.250675537109375,-2.361621618270874,2.8485069274902344,2.4669065475463867
1684201243939701500,1.260701416015625,-1.668982744216919,2.333895206451416,2.5945451259613037
1684201243949728800,1.270728759765625,-0.03208058327436447,1.5718119144439697,1.5332814455032349
1684201243959754800,1.280754638671875,0.43792465329170227,0.47546476125717163,0.5661791563034058
1684201243969780700,1.29078076171875,0.08604252338409424,-0.45699235796928406,0.33756592869758606
1684201243979807500,1.300807373046875,-0.7213387489318848,-0.9341476559638977,0.19223101437091827
1684201243989833500,1.31083349609375,-1.713103175163269,-0.6860917806625366,0.9037792086601257
1684201243999860700,1.32086083984375,-1.755863904953003,-0.8789148926734924,1.8807625770568848
1684201244009886700,1.33088671875,-1.4332219362258911,-1.2505602836608887,1.1438642740249634
1684201244019913700,1.340913818359375,-0.9831289052963257,-1.6093837022781372,-0.5777140259742737
1684201244029939700,1.350939697265625,-0.30322974920272827,-0.9554208517074585,-1.9254493713378906
1684201244039965700,1.360965576171875,0.5928794741630554,0.1998300701379776,-2.754708766937256
1684201244049992400,1.370992431640625,1.3844168186187744,1.1829242706298828,-3.267899513244629
1684201244060018400,1.381018310546875,1.5594305992126465,1.3363385200500488,-1.8399304151535034
1684201244070045700,1.391045654296875,1.134537935256958,-0.12227220833301544,0.26392513513565063
1684201244080071700,1.40107177734375,0.735914409160614,-1.7732244729995728,1.1424015760421753
1684201244090097700,1.41109765625,0.7083349823951721,-1.877059817314148,1.7673131227493286
1684201244100124700,1.421124755859375,0.6115261912345886,-0.761743426322937,1.9223078489303589
1684201244110150700,1.431150634765625,0.30247727036476135,0.6317068338394165,1.6559158563613892
1684201244120178000,1.441177978515625,-0.21487171947956085,1.651289939880371,1.1593072414398193
1684201244130204000,1.451203857421875,-0.3230506479740143,2.163708448410034,0.8293448090553284
1684201244140231200,1.461231201171875,-0.14340148866176605,2.2399113178253174,0.6313621401786804
1684201244150257200,1.471257080078125,-0.060010720044374466,2.1902689933776855,0.40139099955558777
1684201244160283100,1.481283203125,-0.08924297243356705,2.251361131668091,0.17452625930309296
1684201244170310100,1.49131005859375,-0.22211793065071106,2.050896406173706,0.05350104719400406
1684201244180335900,1.5013359375,-0.5292105674743652,1.0541085004806519,0.18898266553878784
1684201244190363000,1.51136279296875,-0.8833593130111694,-0.040298961102962494,0.25667330622673035
1684201244200388900,1.521388916015625,-1.2362552881240845,-1.1048660278320312,0.13161197304725647
1684201244210415000,1.5314150390625,-1.4603182077407837,-1.8395943641662598,-0.02841017208993435
1684201244220442000,1.541442138671875,-1.3584942817687988,-2.052896022796631,-0.15958115458488464
1684201244230468000,1.551468017578125,-1.0197820663452148,-2.1786911487579346,-0.3012773096561432
1684201244240494800,1.561494873046875,-0.5115677118301392,-2.236156940460205,-0.3882407248020172
1684201244250520800,1.571520751953125,0.08873087167739868,-2.16499400138855,-0.4117545783519745
1684201244260546800,1.581546875,0.6744187474250793,-1.991207242012024,-0.3995063304901123
1684201244270574000,1.591573974609375,1.1239163875579834,-1.7087459564208984,-0.3723844587802887
1684201244280600000,1.60160009765625,1.3701413869857788,-1.4091477394104004,-0.37536635994911194
1684201244290627000,1.611626953125,1.3448197841644287,-1.2399462461471558,-0.40049487352371216
1684201244300653000,1.621653076171875,0.9686785340309143,-0.8388720154762268,-0.35351452231407166
1684201244310679800,1.6316796875,0.3909968435764313,-0.3242824971675873,-0.3097524046897888
1684201244320706000,1.6417060546875,-0.07149934768676758,0.5381630659103394,-0.1155526340007782
1684201244330732000,1.65173193359375,-0.3636465072631836,1.212438941001892,0.0042062546126544476
1684201244340759000,1.661759033203125,-0.5093985795974731,1.4584448337554932,0.0017019747756421566
1684201244350785000,1.671784912109375,-0.5013105273246765,1.4595025777816772,-0.07270248979330063
1684201244360812000,1.68181201171875,-0.3512977957725525,1.2791355848312378,-0.1558891385793686
1684201244370838000,1.691838134765625,-0.14136318862438202,0.9485057592391968,-0.23248004913330078
1684201244380864300,1.7018642578125,0.06824204325675964,0.4812483787536621,-0.2659989595413208
1684201244390891000,1.71189111328125,0.24655453860759735,-0.03680117800831795,-0.23944003880023956
1684201244400917000,1.7219169921875,0.37720412015914917,-0.5408548712730408,-0.17416255176067352
1684201244410944000,1.731944091796875,0.4652514159679413,-0.9468002319335938,-0.0873621478676796
1684201244420970000,1.741969970703125,0.4996575713157654,-1.236725091934204,-0.00014942511916160583
1684201244430996000,1.751995849609375,0.5024384260177612,-1.3769724369049072,0.06710071861743927
1684201244441023200,1.762023193359375,0.5112564563751221,-1.3865869045257568,0.10786649584770203
1684201244451049200,1.77204931640625,0.5154600143432617,-1.3572322130203247,0.09550730139017105
1684201244461076000,1.782075927734375,0.5339685082435608,-1.3248323202133179,0.031636517494916916
1684201244471102000,1.79210205078125,0.5484792590141296,-1.3045920133590698,-0.07422652840614319
1684201244481129000,1.80212890625,0.562847375869751,-1.2708156108856201,-0.22261355817317963
1684201244491155000,1.812155029296875,0.5470441579818726,-1.221594214439392,-0.4260324537754059
1684201244501181200,1.82218115234375,0.531293511390686,-1.015873670578003,-0.59840989112854
1684201244511208000,1.8322080078125,0.509037971496582,-0.753178060054779,-0.733203113079071
1684201244521234000,1.84223388671875,0.4663163423538208,-0.5880839824676514,-0.8418542742729187
1684201244531261000,1.852260986328125,0.42634764313697815,-0.5419098138809204,-0.9251997470855713
1684201244541287000,1.862286865234375,0.4203800857067108,-0.5727587342262268,-0.982368528842926
1684201244551313000,1.87231298828125,0.4501853883266449,-0.6089047789573669,-1.0072038173675537
1684201244561340200,1.882340087890625,0.46656689047813416,-0.6037001609802246,-1.00105619430542
1684201244571366100,1.8923662109375,0.4586852788925171,-0.5896322727203369,-0.9676095843315125
1684201244581393000,1.902392822265625,0.46242284774780273,-0.526769757270813,-0.9062122702598572
1684201244591419000,1.9124189453125,0.4480103552341461,-0.41312333941459656,-0.8170557618141174
1684201244601446000,1.92244580078125,0.413794606924057,-0.29054874181747437,-0.718636155128479
1684201244611472100,1.93247216796875,0.35388413071632385,-0.1991725116968155,-0.6238952279090881
1684201244621498000,1.942498046875,0.2920036315917969,-0.14113298058509827,-0.5250101089477539
1684201244631525000,1.952525146484375,0.2367611676454544,-0.11948255449533463,-0.4301922917366028
1684201244641551000,1.962551025390625,0.20402267575263977,-0.14483517408370972,-0.34542348980903625
1684201244651577900,1.972577880859375,0.18119806051254272,-0.2083214819431305,-0.26493850350379944
1684201244661603800,1.982603759765625,0.17519143223762512,-0.30101290345191956,-0.1943531185388565
1684201244671630000,1.992630126953125,0.1811012625694275,-0.40902379155158997,-0.1294412463903427
1684201244681657000,2.002656982421875,0.187598317861557,-0.518337070941925,-0.07850152254104614
1684201244691683000,2.01268310546875,0.1995958536863327,-0.6136652231216431,-0.02516772411763668
1684201244701710000,2.0227099609375,0.19767002761363983,-0.6867405772209167,0.01783474162220955
1684201244711736000,2.032736083984375,0.18570896983146667,-0.7302457094192505,0.07064896076917648
1684201244721762000,2.042761962890625,0.16102150082588196,-0.7500178813934326,0.1360619217157364
1684201244731789000,2.0527890625,0.12125943601131439,-0.7156305909156799,0.2099025845527649
1684201244741815000,2.06281494140625,0.07711241394281387,-0.6185391545295715,0.2890511155128479
1684201244751842000,2.072842041015625,0.027232738211750984,-0.47707125544548035,0.3604006767272949
1684201244761868000,2.082867919921875,-0.0025384274777024984,-0.3144446611404419,0.4105672240257263
1684201244771895000,2.09289501953125,-0.014094149693846703,-0.1892172247171402,0.4351481795310974
1684201244781921000,2.102921142578125,-0.011172348633408546,-0.13102595508098602,0.4310302138328552
1684201244791947000,2.112947021484375,0.008103344589471817,-0.12051898241043091,0.4079243540763855
1684201244801974000,2.12297412109375,0.02508222684264183,-0.15848387777805328,0.364185094833374
1684201244812000000,2.133,0.035283200442790985,-0.2218966782093048,0.3084392845630646
1684201244822027000,2.143027099609375,0.03278094530105591,-0.29252684116363525,0.24118271470069885
1684201244832053000,2.153052978515625,0.04890399053692818,-0.34609684348106384,0.16581206023693085
1684201244842079000,2.163078857421875,0.07517299056053162,-0.39450803399086,0.06159910187125206
1684201244852106000,2.17310595703125,0.10251432657241821,-0.4527899920940399,-0.06304722279310226
1684201244862132000,2.183132080078125,0.12213031947612762,-0.5562050342559814,-0.21529537439346313
1684201244872159000,2.193158935546875,0.1411420851945877,-0.6879491806030273,-0.37791118025779724
1684201244882185000,2.20318505859375,0.16317521035671234,-0.8145772218704224,-0.5216233730316162
1684201244892211000,2.2132109375,0.1762728989124298,-0.8941564559936523,-0.6302270889282227
1684201244902238200,2.22323828125,0.1668912023305893,-0.911266565322876,-0.6967986822128296
1684201244912264200,2.23326416015625,0.1440197080373764,-0.8840312361717224,-0.7302197217941284
1684201244922291000,2.243291015625,0.10891417413949966,-0.8298293352127075,-0.7336498498916626
1684201244932317000,2.25331689453125,0.06553766876459122,-0.7563042640686035,-0.7043601274490356
1684201244942343000,2.263343017578125,0.015366796404123306,-0.6659600138664246,-0.6504597663879395
1684201244952370000,2.273369873046875,-0.025558000430464745,-0.5814661383628845,-0.5749711394309998
1684201244962396200,2.283396240234375,-0.0664464682340622,-0.4965735077857971,-0.48094165325164795
1684201244972423200,2.293423095703125,-0.11048902571201324,-0.40295860171318054,-0.3754032254219055
1684201244982449200,2.30344921875,-0.14481988549232483,-0.2801424562931061,-0.2515510320663452
1684201244992476000,2.313475830078125,-0.16644395887851715,-0.14255690574645996,-0.12067770212888718
1684201245002502000,2.323501953125,-0.18080176413059235,0.0037795426324009895,0.011227966286242008
1684201245012527900,2.33352783203125,-0.19310396909713745,0.1363048255443573,0.14307335019111633
1684201245022555100,2.34355517578125,-0.1945277899503708,0.2547113597393036,0.2728615999221802
1684201245032581000,2.3535810546875,-0.18453054130077362,0.3486863374710083,0.3953443765640259
1684201245042608000,2.363608154296875,-0.17419087886810303,0.4056055247783661,0.5024112462997437
1684201245052634000,2.373634033203125,-0.15212392807006836,0.4217938184738159,0.59300297498703
1684201245062660000,2.38366015625,-0.13440486788749695,0.4076381325721741,0.6632170677185059
1684201245072686800,2.393686767578125,-0.11322395503520966,0.3503660559654236,0.6889690160751343
1684201245082713000,2.403713134765625,-0.07445018738508224,0.2721848785877228,0.6993722915649414
1684201245092740000,2.413739990234375,-0.016912322491407394,0.18165579438209534,0.6990654468536377
1684201245102766000,2.42376611328125,0.0501713789999485,0.09799038618803024,0.6889800429344177
1684201245112792000,2.4337919921875,0.10726422816514969,0.032886750996112823,0.6512480974197388
1684201245122818600,2.443818603515625,0.1519905924797058,-0.01717393845319748,0.5997955799102783
1684201245132844500,2.453844482421875,0.1872689574956894,-0.06893940269947052,0.5397495627403259
1684201245142871600,2.46387158203125,0.2216804474592209,-0.1674039363861084,0.4603467881679535
1684201245152897500,2.4738974609375,0.2465631663799286,-0.340853214263916,0.3353060483932495
1684201245162924500,2.483924560546875,0.2559097111225128,-0.5141840577125549,0.13176190853118896
1684201245172950500,2.493950439453125,0.26443928480148315,-0.589857816696167,-0.18238908052444458
1684201245182976500,2.5039765625,0.27988263964653015,-0.5270510315895081,-0.5957027077674866
1684201245193003500,2.51400341796875,0.3062079846858978,-0.3381905257701874,-1.0700922012329102
1684201245203029800,2.52402978515625,0.3452162742614746,-0.11161676794290543,-1.5320709943771362
1684201245213056500,2.534056396484375,0.3932817876338959,0.07206837087869644,-1.9296778440475464
1684201245223082500,2.54408251953125,0.4726523756980896,0.2128959447145462,-2.2700414657592773
1684201245233108500,2.5541083984375,0.5649106502532959,0.38306924700737,-2.599679470062256
1684201245243135500,2.564135498046875,0.6469162106513977,0.6857823133468628,-2.9443588256835938
1684201245253161500,2.574161376953125,0.7012414932250977,1.2550153732299805,-3.1309525966644287
1684201245263188500,2.5841884765625,0.7450159788131714,1.7932552099227905,-3.0886974334716797
1684201245273214500,2.59421435546875,0.8492670059204102,1.9145435094833374,-2.98705792427063
1684201245283240400,2.604240478515625,0.9645771384239197,1.7591784000396729,-2.8132176399230957
1684201245293267500,2.614267333984375,1.0527098178863525,1.501191258430481,-2.573455333709717
1684201245303293400,2.62429345703125,1.0762946605682373,1.1666878461837769,-2.2937750816345215
1684201245313320700,2.63432080078125,1.0191805362701416,1.1721187829971313,-1.8176323175430298
1684201245323346700,2.6443466796875,0.9760185480117798,1.3807408809661865,-1.2845566272735596
1684201245333373400,2.65437353515625,1.0494533777236938,1.6417075395584106,-0.8647294044494629
1684201245343399400,2.6643994140625,1.201979398727417,1.6107419729232788,-0.8595584034919739
1684201245353425400,2.67442529296875,1.477027177810669,1.4572416543960571,-1.1741807460784912
1684201245363452400,2.684452392578125,1.7752172946929932,1.6813033819198608,-1.4276248216629028
1684201245373478400,2.694478515625,1.9328224658966064,2.0620059967041016,-1.4223536252975464
1684201245383505700,2.704505615234375,1.889390230178833,2.4757797718048096,-1.2653566598892212
1684201245393531600,2.71453173828125,1.7280805110931396,2.726135492324829,-1.0071067810058594
1684201245403557600,2.7245576171875,1.631870150566101,2.7501766681671143,-0.7400124073028564
1684201245413584400,2.73458447265625,1.5571024417877197,2.696475028991699,-0.5160048007965088
1684201245423610400,2.7446103515625,1.4852324724197388,2.665067672729492,-0.35373127460479736
1684201245433637600,2.7546376953125,1.3900753259658813,2.6236045360565186,-0.27601757645606995
1684201245443663600,2.76466357421875,1.3057700395584106,2.5725836753845215,-0.24729423224925995
1684201245453689600,2.774689697265625,1.258355975151062,2.463535785675049,-0.20966562628746033
1684201245463716600,2.784716552734375,1.227396011352539,2.221313953399658,-0.1845146119594574
1684201245473742600,2.79474267578125,1.1960633993148804,1.9045134782791138,-0.1867452710866928
1684201245483769300,2.804769287109375,1.1718568801879883,1.7406189441680908,-0.15896548330783844
1684201245493795600,2.814795654296875,1.119486689567566,1.667840838432312,-0.1267676055431366
1684201245503822600,2.824822509765625,1.0191690921783447,1.5787516832351685,-0.09768767654895782
1684201245513848600,2.8348486328125,0.9078545570373535,1.377697229385376,-0.0558379627764225
1684201245523874600,2.84487451171875,0.8015713095664978,1.068178415298462,-0.000031055882573127747
1684201245533901600,2.854901611328125,0.7030481696128845,0.777407169342041,0.06427682936191559
1684201245543927600,2.864927490234375,0.6242714524269104,0.4727819263935089,0.07521942257881165
1684201245553954600,2.87495458984375,0.5774543881416321,0.17997559905052185,0.07721732556819916
1684201245563980500,2.88498046875,0.51065593957901,-0.09292836487293243,0.10245482623577118
1684201245574006500,2.895006591796875,0.38683247566223145,-0.31525465846061707,0.15531191229820251
1684201245584033500,2.905033447265625,0.21389932930469513,-0.34563499689102173,0.2722877264022827
1684201245594059500,2.9150595703125,0.007320054341107607,-0.24952152371406555,0.4369054436683655
1684201245604086500,2.92508642578125,-0.16977910697460175,-0.08516625314950943,0.6152819991111755
1684201245614112500,2.935112548828125,-0.2742386758327484,0.1581830084323883,0.7743832468986511
1684201245624139500,2.945139404296875,-0.3195078372955322,0.31406137347221375,0.8633118271827698
1684201245634165500,2.95516552734375,-0.32495349645614624,0.3141508400440216,0.9006272554397583
1684201245644192500,2.965192626953125,-0.30436867475509644,0.1600664108991623,0.9362092018127441
1684201245654218500,2.975218505859375,-0.28302210569381714,-0.16090282797813416,0.9627657532691956
1684201245664244500,2.985244384765625,-0.26174840331077576,-0.5764486789703369,0.9465354084968567
1684201245674271500,2.995271484375,-0.244884192943573,-1.0482321977615356,0.8748359084129333
1684201245684297500,3.00529736328125,-0.24747297167778015,-1.43167245388031,0.7779513597488403
1684201245694324500,3.015324462890625,-0.2805086672306061,-1.6863640546798706,0.7158794403076172
1684201245704350500,3.0253505859375,-0.349989116191864,-1.8127150535583496,0.7086995244026184
1684201245714376400,3.03537646484375,-0.43663135170936584,-1.92580246925354,0.7428527474403381
1684201245724403700,3.04540380859375,-0.5128827095031738,-2.012697458267212,0.7972557544708252
1684201245734429700,3.0554296875,-0.566366970539093,-2.058161497116089,0.8487791419029236
1684201245744456400,3.06545654296875,-0.6127114295959473,-2.04585337638855,0.894075334072113
1684201245754482400,3.075482421875,-0.6651735901832581,-1.9817616939544678,0.9293537139892578
1684201245764508400,3.08550830078125,-0.744073748588562,-1.875981092453003,0.9946295619010925
1684201245774535400,3.095535400390625,-0.8058851361274719,-1.767504096031189,1.10592782497406
1684201245784561700,3.105561767578125,-0.8212188482284546,-1.6710261106491089,1.2212032079696655
1684201245794588700,3.115588623046875,-0.795488715171814,-1.6080889701843262,1.308362364768982
1684201245804614700,3.12561474609375,-0.7597228288650513,-1.5336520671844482,1.3555688858032227
1684201245814641400,3.135641357421875,-0.7536870837211609,-1.4436527490615845,1.3611109256744385
1684201245824667400,3.14566748046875,-0.7802788019180298,-1.3478708267211914,1.331679105758667
1684201245834693400,3.155693359375,-0.8264853954315186,-1.2458744049072266,1.2486693859100342
1684201245844720600,3.165720703125,-0.8900169730186462,-1.1366862058639526,1.1667463779449463
1684201245854746600,3.17574658203125,-0.948974609375,-1.0634989738464355,1.0761853456497192
1684201245864773600,3.185773681640625,-0.9948276281356812,-1.0368353128433228,0.986914336681366
1684201245874799600,3.195799560546875,-1.0159106254577637,-0.9991654753684998,0.9006273746490479
1684201245884825300,3.205825439453125,-1.0147641897201538,-0.94026118516922,0.8363417387008667
1684201245894852600,3.2158525390625,-0.999947726726532,-0.8891772031784058,0.7858501076698303
1684201245904878600,3.225878662109375,-0.9612752199172974,-0.7978480458259583,0.740615963935852
1684201245914905600,3.235905517578125,-0.9130067229270935,-0.6965397596359253,0.7166796922683716
1684201245924931600,3.245931640625,-0.868491530418396,-0.5934068560600281,0.6851507425308228
1684201245934957600,3.25595751953125,-0.8052704930305481,-0.505618155002594,0.607422411441803
1684201245944984300,3.265984375,-0.7024070024490356,-0.4096466898918152,0.47280755639076233
1684201245955010300,3.27601025390625,-0.5558484792709351,-0.3276090621948242,0.2755837142467499
1684201245965037600,3.28603759765625,-0.3848864734172821,-0.3458506762981415,0.020942354574799538
1684201245975063600,3.2960634765625,-0.22207839787006378,-0.4670998752117157,-0.2380490005016327
1684201245985089500,3.306089599609375,-0.11441982537508011,-0.512785792350769,-0.3857715129852295
1684201245995116500,3.316116455078125,-0.09587889164686203,-0.2434868961572647,-0.3263167142868042
1684201246005142500,3.326142578125,-0.15422753989696503,0.3060152232646942,-0.11987479031085968
1684201246015169500,3.33616943359375,-0.25852489471435547,0.8778329491615295,0.1162317544221878
1684201246025195500,3.346195556640625,-0.3741615116596222,1.1730388402938843,0.271963894367218
1684201246035222500,3.356222412109375,-0.43871599435806274,1.1840320825576782,0.3188144862651825
1684201246045248500,3.36624853515625,-0.4380115568637848,1.0466549396514893,0.317972332239151
1684201246055274500,3.3762744140625,-0.3997728228569031,0.8102967739105225,0.3092728555202484
1684201246065301500,3.386301513671875,-0.3706187307834625,0.40784284472465515,0.28728216886520386
1684201246075327700,3.39632763671875,-0.3395353853702545,-0.16523505747318268,0.2551327645778656
1684201246085354500,3.4063544921875,-0.2628542184829712,-0.8147410154342651,0.2414800375699997
1684201246095380500,3.41638037109375,-0.1637103408575058,-1.38393235206604,0.2419130653142929
1684201246105406500,3.426406494140625,-0.09546202421188354,-1.7083600759506226,0.21460165083408356
1684201246115433500,3.43643359375,-0.07731311023235321,-1.733410120010376,0.13846106827259064
1684201246125460000,3.4464599609375,-0.09681929647922516,-1.4779624938964844,0.027944311499595642
1684201246135486700,3.45648681640625,-0.11991263180971146,-1.0362348556518555,-0.08225143700838089
1684201246145512700,3.4665126953125,-0.11078938841819763,-0.575864315032959,-0.20980457961559296
1684201246155540000,3.4765400390625,-0.09659234434366226,-0.17794226109981537,-0.32660895586013794
1684201246165566000,3.48656591796875,-0.10589089244604111,0.09621858596801758,-0.4199395477771759
1684201246175592000,3.496592041015625,-0.10873781144618988,0.25946101546287537,-0.4797213673591614
1684201246185619000,3.506618896484375,-0.08726181834936142,0.44593584537506104,-0.4298986792564392
1684201246195645000,3.51664501953125,-0.08986452221870422,0.5789554119110107,-0.31902676820755005
1684201246205671700,3.526671630859375,-0.12376214563846588,0.5677124857902527,-0.19696766138076782
1684201246215698000,3.536697998046875,-0.15122438967227936,0.5308250188827515,-0.08311698585748672
1684201246225724000,3.546723876953125,-0.12378522008657455,0.6558609008789062,0.0263070035725832
1684201246235751000,3.5567509765625,-0.07906221598386765,0.8924167156219482,0.09853033721446991
1684201246245777000,3.56677685546875,-0.06941302120685577,1.1111844778060913,0.19286130368709564
1684201246255804000,3.576803955078125,-0.048589762300252914,1.1360517740249634,0.2928726077079773
1684201246265830000,3.586829833984375,0.03341348096728325,0.8081544637680054,0.3600810766220093
1684201246275856100,3.596856201171875,0.1191323772072792,0.24950528144836426,0.4284404218196869
1684201246285883000,3.6068828125,0.17455853521823883,-0.27563613653182983,0.5585159063339233
1684201246295908900,3.616908935546875,0.22529014945030212,-0.6748250722885132,0.6674772500991821
1684201246305936000,3.626935791015625,0.23455452919006348,-0.9029044508934021,0.6820704340934753
1684201246315961900,3.6369619140625,0.22015507519245148,-0.9343460202217102,0.634729266166687
1684201246325987800,3.64698779296875,0.20436711609363556,-0.818306565284729,0.554006040096283
1684201246336015000,3.65701513671875,0.17435595393180847,-0.601182758808136,0.4592781662940979
1684201246346041000,3.667041015625,0.13106751441955566,-0.3247075378894806,0.3741407096385956
1684201246356067800,3.67706787109375,0.062254369258880615,-0.03749547153711319,0.300663024187088
1684201246366093800,3.68709375,0.04604146629571915,0.22227805852890015,0.26256436109542847
1684201246376120800,3.697120849609375,0.06127634271979332,0.38453033566474915,0.2678014636039734
1684201246386146800,3.707146728515625,0.09133777022361755,0.35889962315559387,0.2807593047618866
1684201246396173000,3.717173095703125,0.13538378477096558,0.19896267354488373,0.2734646201133728
1684201246406199800,3.72719970703125,0.1802731603384018,-0.03729979693889618,0.23580273985862732
1684201246416225800,3.737225830078125,0.2181507647037506,-0.31808993220329285,0.17085754871368408
1684201246426252800,3.747252685546875,0.23579026758670807,-0.5612000226974487,0.09885169565677643
1684201246436278800,3.75727880859375,0.24114003777503967,-0.7688456177711487,0.01986074261367321
1684201246446304800,3.7673046875,0.23806194961071014,-0.8605494499206543,-0.03512607514858246
1684201246456332000,3.77733203125,0.2218148112297058,-0.877015233039856,-0.05349629744887352
1684201246466358000,3.78735791015625,0.1953406184911728,-0.8508507013320923,-0.046724386513233185
1684201246476384800,3.797384765625,0.15323178470134735,-0.7987512946128845,-0.025738142430782318
1684201246486410800,3.80741064453125,0.09458859264850616,-0.7008479833602905,0.012645252048969269
1684201246496436700,3.817436767578125,0.03625551238656044,-0.5669142007827759,0.06194542348384857
1684201246506464000,3.827464111328125,-0.023625986650586128,-0.4339889585971832,0.11618125438690186
1684201246516490000,3.837489990234375,-0.06808799505233765,-0.34086939692497253,0.1553126722574234
1684201246526517000,3.84751708984375,-0.09548116475343704,-0.3060142993927002,0.15659475326538086
1684201246536543000,3.85754296875,-0.10884410887956619,-0.30689871311187744,0.13498666882514954
1684201246546569000,3.86756884765625,-0.0985347107052803,-0.3120189905166626,0.11698222905397415
1684201246556595700,3.877595703125,-0.06698131561279297,-0.35505619645118713,0.09920430183410645
1684201246566622000,3.8876220703125,-0.032683759927749634,-0.42541664838790894,0.08146706223487854
1684201246576649000,3.89764892578125,-0.01454843021929264,-0.4827377200126648,0.08052323758602142
1684201246586675000,3.907675048828125,-0.015099141746759415,-0.5111736059188843,0.08205636590719223
1684201246596702000,3.917701904296875,-0.0342765636742115,-0.5035252571105957,0.05910630524158478
1684201246606728000,3.92772802734375,-0.05999326705932617,-0.4955019950866699,-0.00724954716861248
1684201246616754000,3.93775390625,-0.09047074615955353,-0.5301986932754517,-0.11077593266963959
1684201246626781000,3.947781005859375,-0.11879612505435944,-0.5781348943710327,-0.23088590800762177
1684201246636807000,3.957806884765625,-0.14256058633327484,-0.6117796301841736,-0.33433908224105835
1684201246646834000,3.967833984375,-0.16594015061855316,-0.5975013375282288,-0.40122464299201965
1684201246656860000,3.97785986328125,-0.1882539689540863,-0.5561501383781433,-0.43162381649017334
1684201246666886000,3.987885986328125,-0.2013261914253235,-0.5017016530036926,-0.4340898394584656
1684201246676913000,3.997912841796875,-0.21082621812820435,-0.4716576933860779,-0.4147334694862366
1684201246686939000,4.00793896484375,-0.22258992493152618,-0.455356627702713,-0.3840888738632202
1684201246696966000,4.0179658203125,-0.24220383167266846,-0.46249765157699585,-0.3417757749557495
1684201246706991900,4.027991943359375,-0.25869202613830566,-0.4888494610786438,-0.28294500708580017
1684201246717019000,4.038018798828125,-0.27591922879219055,-0.5366880893707275,-0.21790049970149994
1684201246727044900,4.048044921875,-0.29208365082740784,-0.577995240688324,-0.147951140999794
1684201246737070800,4.05807080078125,-0.3130163550376892,-0.5787259936332703,-0.08223284035921097
1684201246747097900,4.068097900390625,-0.3382628262042999,-0.5089341998100281,-0.029112979769706726
1684201246757123800,4.078123779296875,-0.3467665910720825,-0.37346023321151733,0.01208425685763359
1684201246767150800,4.08815087890625,-0.33001264929771423,-0.17780877649784088,0.044771336019039154
1684201246777176800,4.0981767578125,-0.30354776978492737,0.04535933583974838,0.07471272349357605
1684201246787202800,4.108202880859375,-0.2828809916973114,0.25143367052078247,0.11142098903656006
1684201246797230000,4.11822998046875,-0.2653675079345703,0.44082146883010864,0.1511039435863495
1684201246807256000,4.128256103515625,-0.24467970430850983,0.5955056548118591,0.19404944777488708
1684201246817282800,4.13828271484375,-0.20138496160507202,0.6755698919296265,0.22706705331802368
1684201246827308800,4.148308837890625,-0.14262422919273376,0.6541846394538879,0.2545807361602783
1684201246837334800,4.158334716796875,-0.07509738206863403,0.5517656207084656,0.2727583944797516
1684201246847361800,4.16836181640625,0.0019986031111329794,0.41142621636390686,0.2978029251098633
1684201246857388000,4.178387939453125,0.07143014669418335,0.27227523922920227,0.3333883583545685
1684201246867415000,4.1884150390625,0.11406328529119492,0.12530051171779633,0.370134562253952
1684201246877441000,4.19844091796875,0.13970421254634857,0.04812236130237579,0.38775405287742615
1684201246887467000,4.208467041015625,0.18769685924053192,0.05228568613529205,0.37238267064094543
1684201246897493800,4.21849365234375,0.26552826166152954,0.08763649314641953,0.33770617842674255
1684201246907519700,4.228519775390625,0.338319331407547,0.05367086082696915,0.306657075881958
1684201246917547000,4.238547119140625,0.37202614545822144,-0.10555554926395416,0.29236337542533875
1684201246927573000,4.248572998046875,0.3756354749202728,-0.3662894666194916,0.2697094976902008
1684201246937600000,4.25860009765625,0.3584200143814087,-0.6082280874252319,0.17987947165966034
1684201246947626000,4.2686259765625,0.32932770252227783,-0.6902146339416504,-0.056277330964803696
1684201246957652000,4.27865185546875,0.3274744153022766,-0.5280331969261169,-0.6150796413421631
1684201246967678700,4.2886787109375,0.4343952238559723,0.05139945074915886,-1.5556720495224
1684201246977705000,4.298705078125,0.6177999377250671,0.9786255955696106,-2.6211016178131104
1684201246987732000,4.30873193359375,0.6907082796096802,1.384281039237976,-3.3697493076324463
1684201246997758000,4.318758056640625,0.7218813896179199,1.2023820877075195,-3.7468998432159424
1684201247007784000,4.328783935546875,0.8273425698280334,0.9470239877700806,-3.772733211517334
1684201247017811000,4.33881103515625,0.9920082092285156,0.9184125661849976,-3.5007200241088867
1684201247027836700,4.348836669921875,1.1039972305297852,1.0821574926376343,-3.0498809814453125
1684201247037864000,4.358864013671875,1.186631441116333,1.3729922771453857,-2.47503924369812
1684201247047890000,4.368889892578125,1.1986383199691772,1.1320970058441162,-2.1353485584259033
1684201247057916000,4.378916015625,1.1472935676574707,0.6699000000953674,-1.8922473192214966
1684201247067943000,4.38894287109375,1.0759251117706299,0.4070068895816803,-1.4912415742874146
1684201247077969000,4.398968994140625,1.0375874042510986,0.4840707778930664,-0.8650767803192139
1684201247087996000,4.408995849609375,1.0280331373214722,0.5488922595977783,-0.26791536808013916
1684201247098022000,4.41902197265625,1.1053407192230225,0.736689031124115,-0.02809717506170273
1684201247108048000,4.4290478515625,1.3257811069488525,1.3798593282699585,-0.327027291059494
1684201247118075000,4.439074951171875,1.6030491590499878,2.099139928817749,-0.8248155117034912
1684201247128100600,4.4491005859375,1.7807674407958984,2.5064857006073,-1.0717960596084595
1684201247138127600,4.459127685546875,1.8210933208465576,2.6728997230529785,-1.005652666091919
1684201247148153600,4.469153564453125,1.7359241247177124,2.681614875793457,-0.7834047079086304
1684201247158180400,4.479180419921875,1.573431372642517,2.645106315612793,-0.5507594347000122
1684201247168206300,4.489206298828125,1.3890959024429321,2.677122116088867,-0.3638763427734375
1684201247178232300,4.499232421875,1.2351313829421997,2.6910789012908936,-0.32239678502082825
1684201247188259600,4.509259521484375,1.2070561647415161,2.7335808277130127,-0.29093658924102783
1684201247198285600,4.51928564453125,1.274918556213379,2.7000539302825928,-0.23887047171592712
1684201247208312600,4.5293125,1.3505100011825562,2.42366099357605,-0.27631866931915283
1684201247218338600,4.539338623046875,1.3386192321777344,2.0207371711730957,-0.36344823241233826
1684201247228364500,4.549364501953125,1.264086365699768,1.780808687210083,-0.3684941232204437
1684201247238391600,4.5593916015625,1.1543575525283813,1.6504826545715332,-0.327830046415329
1684201247248417500,4.56941748046875,1.0082632303237915,1.5542640686035156,-0.27770957350730896
1684201247258444500,4.579444580078125,0.8815609216690063,1.4223371744155884,-0.26836878061294556
1684201247268470500,4.589470458984375,0.7937152981758118,1.2400230169296265,-0.2764218747615814
1684201247278496500,4.59949658203125,0.7531513571739197,0.9816104173660278,-0.29919856786727905
1684201247288523500,4.6095234375,0.7518482208251953,0.7323811054229736,-0.30320996046066284
1684201247298549500,4.619549560546875,0.7354785799980164,0.4983835518360138,-0.2937418818473816
1684201247308576500,4.629576416015625,0.6877390146255493,0.30449461936950684,-0.2503460645675659
1684201247318602500,4.6396025390625,0.6203038096427917,0.19877459108829498,-0.1531667858362198
1684201247328629500,4.64962939453125,0.49378785490989685,0.20198816061019897,-0.038191165775060654
1684201247338655500,4.659655517578125,0.3445826768875122,0.30391666293144226,0.10136033594608307
1684201247348681500,4.669681396484375,0.19649307429790497,0.3069365322589874,0.19349734485149384
1684201247358708700,4.679708740234375,0.07793685048818588,0.31829917430877686,0.32471635937690735
1684201247368734700,4.689734619140625,-0.03763967379927635,0.2125023901462555,0.43332672119140625
1684201247378761500,4.699761474609375,-0.1670980602502823,0.020608047023415565,0.5209385752677917
1684201247388787500,4.709787353515625,-0.2905098497867584,-0.23293867707252502,0.5962545871734619
1684201247398813400,4.7198134765625,-0.38757672905921936,-0.5484300851821899,0.6600074768066406
1684201247408840400,4.72984033203125,-0.45692187547683716,-0.9026623368263245,0.7122015953063965
1684201247418866700,4.73986669921875,-0.5222034454345703,-1.256643533706665,0.7572870254516602
1684201247428893400,4.7498935546875,-0.5788819789886475,-1.536312222480774,0.7879298329353333
1684201247438919400,4.75991943359375,-0.6060826778411865,-1.7866657972335815,0.8276870846748352
1684201247448945400,4.7699453125,-0.6206753849983215,-1.9780991077423096,0.8761767745018005
1684201247458972400,4.779972412109375,-0.6464142799377441,-2.1210408210754395,0.9357825517654419
1684201247468998400,4.789998291015625,-0.6987335085868835,-2.188004493713379,0.978969395160675
1684201247479025700,4.800025634765625,-0.7707669734954834,-2.191208600997925,1.006011962890625
1684201247489051600,4.8100517578125,-0.8506194353103638,-2.143742799758911,1.0313369035720825
1684201247499078400,4.820078369140625,-0.9551205635070801,-2.0465428829193115,1.0569310188293457
1684201247509104400,4.8301044921875,-1.0193438529968262,-1.9883408546447754,1.1185667514801025
1684201247519130400,4.84013037109375,-1.052553653717041,-1.9377045631408691,1.1951478719711304
1684201247529157600,4.85015771484375,-1.091878056526184,-1.9099048376083374,1.2553702592849731
1684201247539183600,4.86018359375,-1.1454931497573853,-1.939812421798706,1.294823169708252
1684201247549210600,4.870210693359375,-1.1921902894973755,-1.965201497077942,1.3188416957855225
1684201247559236600,4.880236572265625,-1.224263072013855,-1.9825633764266968,1.3085356950759888
1684201247569262600,4.8902626953125,-1.2286577224731445,-1.9760565757751465,1.2656738758087158
1684201247579289300,4.900289306640625,-1.2105075120925903,-1.935297966003418,1.2093770503997803
1684201247589315300,4.9103154296875,-1.1736143827438354,-1.8765474557876587,1.133301019668579
1684201247599342600,4.920342529296875,-1.0879830121994019,-1.7435203790664673,1.0622968673706055
1684201247609368600,4.93036865234375,-0.977388322353363,-1.5610707998275757,0.9852262139320374
1684201247619394600,4.94039453125,-0.8743327856063843,-1.3249461650848389,0.8806326389312744
1684201247629421600,4.950421630859375,-0.8071190714836121,-1.0667860507965088,0.7613891363143921
1684201247639447600,4.960447509765625,-0.7931039333343506,-0.8950759768486023,0.6387711763381958
1684201247649474600,4.970474609375,-0.8185180425643921,-0.8742879629135132,0.48047196865081787
1684201247659500500,4.98050048828125,-0.7907745838165283,-0.8608053922653198,0.3279780447483063
1684201247669527600,4.990527587890625,-0.6352366805076599,-0.7747425436973572,0.20713044703006744
1684201247679553500,5.000553466796875,-0.4439553916454315,-0.7449519038200378,0.09645319730043411
1684201247689579500,5.01057958984375,-0.292309045791626,-0.7481064796447754,-0.03636825457215309
1684201247699606500,5.0206064453125,-0.1998978853225708,-0.6835367679595947,-0.23279209434986115
1684201247709632500,5.030632568359375,-0.18207953870296478,-0.6138287782669067,-0.4388740658760071
1684201247719659500,5.040659423828125,-0.20113100111484528,-0.5296478867530823,-0.5742747783660889
1684201247729685500,5.050685546875,-0.23380252718925476,-0.33721408247947693,-0.6133313179016113
1684201247739711500,5.06071142578125,-0.29290977120399475,-0.005032133776694536,-0.5738039016723633
1684201247749738500,5.070738525390625,-0.3868744671344757,0.34288927912712097,-0.48808544874191284
1684201247759764500,5.080764404296875,-0.4940222203731537,0.6193690299987793,-0.38246339559555054
1684201247769791500,5.09079150390625,-0.590457558631897,0.7644124627113342,-0.2881813943386078
1684201247779817500,5.1008173828125,-0.6472603678703308,0.7339312434196472,-0.200481116771698
1684201247789843500,5.110843505859375,-0.6216259002685547,0.5327839255332947,-0.10606890916824341
1684201247799870500,5.120870361328125,-0.5274722576141357,0.22738058865070343,0.017559025436639786
1684201247809896400,5.130896484375,-0.430934339761734,-0.1664350926876068,0.15749821066856384
1684201247819923700,5.140923828125,-0.32952436804771423,-0.6229315400123596,0.294967919588089
1684201247829949700,5.15094970703125,-0.23387812077999115,-1.0236588716506958,0.37972545623779297
1684201247839975700,5.1609755859375,-0.15030041337013245,-1.294627070426941,0.3328956365585327
1684201247850002400,5.17100244140625,-0.07336148619651794,-1.3218882083892822,0.18294300138950348
1684201247860028400,5.1810283203125,-0.0029781311750411987,-1.0671443939208984,0.027553148567676544
1684201247870055400,5.191055419921875,0.01233690232038498,-0.6316226720809937,-0.12317716330289841
1684201247880081400,5.201081298828125,-0.10343896597623825,0.05989266559481621,-0.20772241055965424
1684201247890108700,5.211108642578125,-0.2258775532245636,0.9783346056938171,-0.2235914170742035
1684201247900134700,5.221134765625,-0.21744465827941895,1.6808878183364868,-0.1594393253326416
1684201247910160600,5.23116064453125,-0.08813267946243286,1.6805089712142944,-0.021857064217329025
1684201247920187400,5.2411875,0.10423517227172852,0.9490262269973755,0.15747301280498505
1684201247930213400,5.25121337890625,0.2455088347196579,0.04789259284734726,0.29159873723983765
1684201247940240600,5.26124072265625,0.25957322120666504,-0.3995378911495209,0.35257500410079956
1684201247950266600,5.2712666015625,0.2696256935596466,-0.48708033561706543,0.37328383326530457
1684201247960292600,5.281292724609375,0.2886979281902313,-0.5258341431617737,0.3709239959716797
1684201247970319600,5.291319580078125,0.3008778691291809,-0.6801952123641968,0.3173534870147705
1684201247980345600,5.301345703125,0.30178573727607727,-0.8889880776405334,0.22967690229415894
1684201247990372400,5.311372314453125,0.2968432903289795,-1.014874815940857,0.17030319571495056
1684201248000398600,5.321398681640625,0.2727595269680023,-0.9736201167106628,0.124236099421978
1684201248010425600,5.331425537109375,0.23923103511333466,-0.780747652053833,0.05675007775425911
1684201248020451600,5.34145166015625,0.20019309222698212,-0.4840773642063141,-0.020494110882282257
1684201248030477600,5.3514775390625,0.1753235012292862,-0.15025857090950012,-0.08037803322076797
1684201248040504600,5.361504638671875,0.1710193008184433,0.1535804122686386,-0.09520651400089264
1684201248050530600,5.371530517578125,0.16032668948173523,0.32304227352142334,-0.0715114027261734
1684201248060557600,5.3815576171875,0.13430947065353394,0.30525022745132446,-0.0118320994079113
1684201248070583600,5.39158349609375,0.10384654998779297,0.17671941220760345,0.11802059412002563
1684201248080609500,5.401609619140625,0.08418282866477966,-0.015462009236216545,0.2618403434753418
1684201248090636500,5.411636474609375,0.0682532787322998,-0.22342678904533386,0.3794805705547333
1684201248100662500,5.42166259765625,0.06013648957014084,-0.3780786693096161,0.4468284547328949
1684201248110689500,5.431689453125,0.0507904551923275,-0.4115228056907654,0.4675352871417999
1684201248120715500,5.441715576171875,0.016527025029063225,-0.3984573483467102,0.4676535427570343
1684201248130741800,5.45174169921875,-0.012388600036501884,-0.39818456768989563,0.43546128273010254
1684201248140768800,5.461768798828125,-0.037239089608192444,-0.3843212127685547,0.4133850038051605
1684201248150794800,5.471794677734375,-0.0751982107758522,-0.32726970314979553,0.38881945610046387
1684201248160821800,5.48182177734375,-0.1310359090566635,-0.24484752118587494,0.3247866630554199
1684201248170848000,5.491847900390625,-0.19566994905471802,-0.18746331334114075,0.19426897168159485
1684201248180874000,5.5018740234375,-0.22202005982398987,-0.17595233023166656,0.030151933431625366
1684201248190900700,5.511900634765625,-0.19974017143249512,-0.1950114667415619,-0.11173485964536667
1684201248200926700,5.5219267578125,-0.16897639632225037,-0.21428342163562775,-0.21476776897907257
1684201248210953700,5.53195361328125,-0.1427176594734192,-0.22008413076400757,-0.27005794644355774
1684201248220979700,5.541979736328125,-0.14055250585079193,-0.21150049567222595,-0.2747296690940857
1684201248231007000,5.552007080078125,-0.15232159197330475,-0.20511974394321442,-0.24093055725097656
1684201248241033000,5.562032958984375,-0.17309798300266266,-0.19726023077964783,-0.16932427883148193
1684201248251059000,5.572058837890625,-0.2011706531047821,-0.21155494451522827,-0.09686588495969772
1684201248261085700,5.582085693359375,-0.22347383201122284,-0.246543288230896,-0.052049145102500916
1684201248271111700,5.592111572265625,-0.23014329373836517,-0.2846178412437439,-0.04511740803718567
1684201248281138700,5.602138671875,-0.23008869588375092,-0.3212810456752777,-0.05096357688307762
1684201248291165000,5.6121650390625,-0.2355218529701233,-0.3501524329185486,-0.05684433877468109
1684201248301191000,5.62219091796875,-0.23223072290420532,-0.368277907371521,-0.050542235374450684
1684201248311217700,5.6322177734375,-0.21847203373908997,-0.37897005677223206,-0.03592715412378311
1684201248321243600,5.64224365234375,-0.19284576177597046,-0.3944110572338104,-0.029272716492414474
1684201248331270700,5.652270751953125,-0.17570188641548157,-0.42363032698631287,-0.04880614951252937
1684201248341296600,5.662296630859375,-0.15619529783725739,-0.48426491022109985,-0.09605462849140167
1684201248351323000,5.672322998046875,-0.14443063735961914,-0.5265857577323914,-0.14268776774406433
1684201248361350000,5.682349853515625,-0.15390802919864655,-0.532813310623169,-0.1684381514787674
1684201248371375900,5.6923759765625,-0.17437440156936646,-0.5039071440696716,-0.1564910113811493
1684201248381402600,5.702402587890625,-0.19925153255462646,-0.48147404193878174,-0.1160367950797081
1684201248391428600,5.7124287109375,-0.2352346032857895,-0.4578580856323242,-0.07002542167901993
1684201248401455900,5.722455810546875,-0.26200389862060547,-0.38479745388031006,-0.02539563551545143
1684201248411481900,5.73248193359375,-0.2633873522281647,-0.27433598041534424,0.017518360167741776
1684201248421507800,5.7425078125,-0.23173433542251587,-0.18022465705871582,0.0764370709657669
1684201248431534800,5.752534912109375,-0.18664933741092682,-0.15353511273860931,0.14586354792118073
1684201248441560800,5.762560791015625,-0.16507774591445923,-0.24503493309020996,0.21695981919765472
1684201248451587600,5.772587646484375,-0.1623697578907013,-0.3987879455089569,0.2590503990650177
1684201248461613800,5.78261376953125,-0.1742946058511734,-0.48189297318458557,0.25648099184036255
1684201248471639800,5.792639892578125,-0.18948934972286224,-0.41813626885414124,0.2071148157119751
1684201248481666800,5.802666748046875,-0.1868658810853958,-0.2331928014755249,0.14503386616706848
1684201248491692800,5.81269287109375,-0.15283207595348358,-0.00419224239885807,0.09154027700424194
1684201248501719800,5.8227197265625,-0.09290484338998795,0.1891884058713913,0.06475979834794998
1684201248511745800,5.832745849609375,0.0006269274745136499,0.2396269291639328,0.08827599138021469
1684201248521771800,5.842771728515625,0.1105736717581749,0.05876049026846886,0.15048903226852417
1684201248531798800,5.852798828125,0.1964438110589981,-0.2774530053138733,0.21678417921066284
1684201248541824800,5.86282470703125,0.2719250023365021,-0.5264154076576233,0.24628135561943054
1684201248551851800,5.872851806640625,0.34391093254089355,-0.6059321165084839,0.23064056038856506
1684201248561877800,5.882877685546875,0.38042712211608887,-0.5731744170188904,0.17098522186279297
1684201248571904800,5.89290478515625,0.3579902648925781,-0.4797704815864563,0.052002035081386566
1684201248581930800,5.9029306640625,0.31931477785110474,-0.3434629738330841,-0.12330054491758347
1684201248591956700,5.912956787109375,0.30625593662261963,-0.14495354890823364,-0.389821320772171
1684201248601983700,5.922983642578125,0.3254922032356262,0.0941849946975708,-0.774436354637146
1684201248612009700,5.933009765625,0.4139118790626526,0.3488863408565521,-1.245574951171875
1684201248622036700,5.94303662109375,0.5793471932411194,0.5633541345596313,-1.739297866821289
1684201248632062700,5.953062744140625,0.7898615002632141,0.6788918375968933,-2.198150157928467
1684201248642089000,5.9630888671875,0.9847705364227295,0.7246015667915344,-2.555272102355957
1684201248652115700,5.97311572265625,1.1176320314407349,0.7468318939208984,-2.762209177017212
1684201248662141700,5.9831416015625,1.1151204109191895,0.8723416328430176,-2.742150068283081
1684201248672168700,5.993168701171875,1.0295438766479492,1.0482509136199951,-2.5156137943267822
1684201248682194700,6.003194580078125,0.9863601326942444,1.2408850193023682,-2.2293694019317627
1684201248692220700,6.013220703125,0.9638534784317017,1.6015617847442627,-1.8084629774093628
1684201248702248000,6.023248046875,0.9174729585647583,2.129441499710083,-1.2003450393676758
1684201248712274000,6.03327392578125,0.8232397437095642,2.320460557937622,-0.666164219379425
1684201248722300700,6.04330078125,0.7106721997261047,2.0922322273254395,-0.24242731928825378
1684201248732326700,6.05332666015625,0.6570504903793335,1.6644479036331177,0.17978478968143463
1684201248742353700,6.063353759765625,0.7472741007804871,1.1498394012451172,0.5566596388816833
1684201248752380000,6.0733798828125,0.974226176738739,0.7900159955024719,0.760096549987793
1684201248762406000,6.083406005859375,1.3229120969772339,0.8541960716247559,0.7314140796661377
1684201248772433000,6.093432861328125,1.6301170587539673,1.247739553451538,0.46512120962142944
1684201248782459000,6.103458984375,1.8066933155059814,1.8331130743026733,0.231153205037117
1684201248792485600,6.113485595703125,1.8177355527877808,2.345885992050171,0.17554230988025665
1684201248802511600,6.12351171875,1.7145239114761353,2.623749017715454,0.3865072727203369
1684201248812537600,6.13353759765625,1.5418274402618408,2.566072940826416,0.7301463484764099
1684201248822564900,6.14356494140625,1.3461549282073975,2.3558077812194824,1.094733476638794
1684201248832590800,6.1535908203125,1.1557673215866089,2.1814212799072266,1.364616870880127
1684201248842617900,6.163617919921875,1.0290050506591797,2.1854236125946045,1.5209524631500244
1684201248852643800,6.173643798828125,0.9499436020851135,2.253901243209839,1.579641580581665
1684201248862669800,6.183669921875,0.9017539620399475,2.3001790046691895,1.6029080152511597
1684201248872696800,6.19369677734375,0.8723996877670288,2.2156498432159424,1.6114641427993774
1684201248882722800,6.203722900390625,0.8316786289215088,2.053874969482422,1.6359130144119263
1684201248892749800,6.213749755859375,0.7775692343711853,1.8816919326782227,1.6742393970489502
1684201248902775800,6.22377587890625,0.6924719214439392,1.7103619575500488,1.7064732313156128
1684201248912802800,6.233802734375,0.5517941117286682,1.5870752334594727,1.7638942003250122
1684201248922828800,6.243828857421875,0.379214882850647,1.5180811882019043,1.870098352432251
1684201248932854800,6.253854736328125,0.23744307458400726,1.460328221321106,2.0100083351135254
1684201248942881800,6.2638818359375,0.11280128359794617,1.3893948793411255,2.167001962661743
1684201248952907800,6.27390771484375,-0.015123672783374786,1.3015484809875488,2.304870128631592
1684201248962934800,6.283934814453125,-0.1351022720336914,1.172946572303772,2.3841559886932373
1684201248972960800,6.293960693359375,-0.2314121574163437,1.0105986595153809,2.3841586112976074
1684201248982986800,6.30398681640625,-0.30297398567199707,0.8674537539482117,2.322707414627075
1684201248993013800,6.314013671875,-0.35238927602767944,0.7583786845207214,2.221484899520874
1684201249003039700,6.324039794921875,-0.38952121138572693,0.6994253396987915,2.0894627571105957
1684201249013066800,6.334066650390625,-0.414646178483963,0.7279505729675293,1.9430228471755981
1684201249023092700,6.3440927734375,-0.44561341404914856,0.9045136570930481,1.7609965801239014
1684201249033118700,6.35411865234375,-0.4957362413406372,1.2455732822418213,1.5402424335479736
1684201249043146000,6.36414599609375,-0.5459163188934326,1.7528324127197266,1.3190295696258545
1684201249053172000,6.374171875,-0.5926489233970642,2.3695809841156006,1.1492092609405518
1684201249063198700,6.38419873046875,-0.6220046877861023,2.791917085647583,1.0464062690734863
1684201249073224700,6.394224609375,-0.6164526343345642,2.8539175987243652,1.0003451108932495
1684201249083251700,6.404251708984375,-0.5597196221351624,2.5757250785827637,0.9752418398857117
1684201249093277700,6.414277587890625,-0.4441438317298889,2.07600736618042,0.9719223976135254
1684201249103303700,6.4243037109375,-0.3252222239971161,1.5565921068191528,1.0171133279800415
1684201249113331000,6.4343310546875,-0.27270209789276123,1.2200024127960205,1.1338245868682861
1684201249123356700,6.444356689453125,-0.26662102341651917,1.0877175331115723,1.2927711009979248
1684201249133383400,6.454383544921875,-0.3110150694847107,1.1012331247329712,1.485829472541809
1684201249143409400,6.464409423828125,-0.36967676877975464,1.2567164897918701,1.7287485599517822
1684201249153435400,6.474435302734375,-0.4198908805847168,1.4640125036239624,1.9942917823791504
1684201249163462700,6.484462646484375,-0.4435557425022125,1.634469747543335,2.2068917751312256
1684201249173488600,6.494488525390625,-0.46412166953086853,1.8649626970291138,2.337068557739258
1684201249183515600,6.504515625,-0.4751354455947876,2.207606315612793,2.3712174892425537
1684201249193541600,6.514541748046875,-0.44360801577568054,2.5579824447631836,2.3206286430358887
1684201249203567600,6.524567626953125,-0.3439096510410309,2.793553113937378,2.234980583190918
1684201249213594400,6.534594482421875,-0.18081876635551453,2.7644684314727783,2.181548833847046
1684201249223620400,6.544620361328125,0.0035140528343617916,2.529845952987671,2.1916260719299316
1684201249233647600,6.554647705078125,0.1589890569448471,2.245560646057129,2.258977174758911
1684201249243673600,6.564673583984375,0.27092117071151733,1.9353563785552979,2.3469724655151367
1684201249253700600,6.57470068359375,0.2577022314071655,1.7253985404968262,2.3918349742889404
1684201249263726600,6.5847265625,0.1342250406742096,1.6212114095687866,2.3633968830108643
1684201249273752600,6.594752685546875,-0.012722826562821865,1.6083638668060303,2.227729320526123
1684201249283779600,6.604779541015625,-0.12476494163274765,1.6558107137680054,1.99105703830719
1684201249293805600,6.6148056640625,-0.22244618833065033,1.7309602499008179,1.6603859663009644
1684201249303832600,6.62483251953125,-0.29873350262641907,1.808274745941162,1.3254427909851074
1684201249313858600,6.634858642578125,-0.27677372097969055,1.8575528860092163,1.1237847805023193
1684201249323884500,6.644884521484375,-0.15330344438552856,1.9384520053863525,1.1490113735198975
1684201249333911300,6.654911376953125,-0.05820591002702713,2.091777801513672,1.161015510559082
1684201249343937500,6.6649375,-0.10289109498262405,2.5765507221221924,1.0552562475204468
1684201249353964500,6.674964599609375,-0.26721781492233276,3.2550437450408936,0.9078962802886963
1684201249363990500,6.684990478515625,-0.4730260968208313,3.9875636100769043,0.8653991222381592
1684201249374016500,6.6950166015625,-0.6711525917053223,4.576282501220703,0.9794375896453857
1684201249384043500,6.70504345703125,-0.7859649062156677,4.721245288848877,1.2699627876281738
1684201249394069500,6.715069580078125,-0.7175694108009338,4.072521209716797,1.7641572952270508
1684201249404096500,6.725096435546875,-0.505278468132019,2.8796091079711914,2.3597476482391357
1684201249414122500,6.73512255859375,-0.21843291819095612,1.8421849012374878,2.832294225692749
1684201249424149500,6.7451494140625,-0.0023850370198488235,1.0842721462249756,3.073307991027832
1684201249434175500,6.755175537109375,0.10309716314077377,0.7333735823631287,3.116732120513916
1684201249444201500,6.765201416015625,0.08724576234817505,0.9342361092567444,2.985478639602661
1684201249454228700,6.775228759765625,-0.008531346917152405,1.6242156028747559,2.678614854812622
1684201249464254700,6.785254638671875,-0.12653255462646484,2.5343832969665527,2.2329421043395996
1684201249474281500,6.795281494140625,-0.16545751690864563,3.3660411834716797,1.7477266788482666
1684201249484307500,6.805307373046875,-0.11573071777820587,3.819242000579834,1.3823068141937256
1684201249494333400,6.81533349609375,0.003003961406648159,3.874812126159668,1.2151658535003662
1684201249504360400,6.8253603515625,0.1475273221731186,3.6420023441314697,1.1756458282470703
1684201249514386400,6.835386474609375,0.2434825599193573,3.2718513011932373,1.2355419397354126
1684201249524413700,6.84541357421875,0.30036768317222595,2.8474090099334717,1.3313432931900024
1684201249534439700,6.855439697265625,0.31078118085861206,2.5573489665985107,1.4379240274429321
1684201249544465700,6.865465576171875,0.2693290710449219,2.485656499862671,1.5531762838363647
1684201249554492400,6.875492431640625,0.1899367719888687,2.6166343688964844,1.6723138093948364
1684201249564518400,6.885518310546875,0.10753749310970306,2.8332207202911377,1.7744625806808472
1684201249574545700,6.895545654296875,0.058092180639505386,2.9915599822998047,1.8456227779388428
1684201249584571600,6.905571533203125,0.04637986421585083,3.0114219188690186,1.884812593460083
1684201249594598700,6.9155986328125,0.060264069586992264,2.946012496948242,1.9149630069732666
1684201249604624400,6.925624267578125,0.08113420009613037,2.814674139022827,1.9348455667495728
1684201249614650400,6.935650390625,0.10413294285535812,2.6369478702545166,1.9579803943634033
1684201249624677400,6.945677490234375,0.1090984046459198,2.508911371231079,1.9726752042770386
1684201249634703600,6.95570361328125,0.0929553434252739,2.4672200679779053,1.971225619316101
1684201249644730600,6.965730712890625,0.10334912687540054,2.4659411907196045,1.9598230123519897
1684201249654756600,6.975756591796875,0.09605653584003448,2.475355625152588,1.9607317447662354
1684201249664782600,6.985782470703125,0.062172338366508484,2.4963741302490234,1.9518271684646606
1684201249674809300,6.995809326171875,0.024743512272834778,2.502965211868286,1.9356942176818848
1684201249684835300,7.00583544921875,-0.0008353516459465027,2.455986738204956,1.9071108102798462
1684201249694862600,7.015862548828125,-0.03704904764890671,2.3851191997528076,1.8913187980651855
1684201249704888600,7.025888671875,-0.09553206712007523,2.335158586502075,1.8738397359848022
1684201249714914600,7.03591455078125,-0.15735775232315063,2.378248691558838,1.835901141166687
1684201249724941600,7.045941650390625,-0.2018543779850006,2.457897663116455,1.7448327541351318
1684201249734967600,7.055967529296875,-0.23020508885383606,2.5117292404174805,1.6233062744140625
1684201249744994600,7.06599462890625,-0.222382590174675,2.501089096069336,1.5201165676116943
1684201249755020500,7.0760205078125,-0.20294472575187683,2.4189205169677734,1.46927809715271
1684201249765047600,7.086047607421875,-0.17830489575862885,2.2822818756103516,1.4411755800247192
1684201249775073500,7.096073486328125,-0.15694771707057953,2.153593063354492,1.3794175386428833
1684201249785099500,7.106099609375,-0.12941302359104156,2.0399789810180664,1.2745105028152466
1684201249795126500,7.11612646484375,-0.11518427729606628,1.972102165222168,1.1282567977905273
1684201249805152500,7.126152587890625,-0.09814750403165817,1.9539942741394043,0.958450436592102
1684201249815179500,7.136179443359375,-0.07129338383674622,1.9303182363510132,0.8140119910240173
1684201249825205500,7.14620556640625,-0.06563869118690491,1.857709288597107,0.7173131704330444
1684201249835231500,7.1562314453125,-0.09045682102441788,1.7156168222427368,0.6560239791870117
1684201249845258500,7.166258544921875,-0.11218874156475067,1.5331714153289795,0.5892359018325806
1684201249855284500,7.176284423828125,-0.12509316205978394,1.351163625717163,0.48628783226013184
1684201249865311700,7.186311767578125,-0.1488213986158371,1.1706266403198242,0.3537564277648926
1684201249875337700,7.196337646484375,-0.1694459468126297,0.966452419757843,0.19482779502868652
1684201249885363500,7.206363525390625,-0.14173921942710876,0.789819598197937,-0.009394322521984577
1684201249895390500,7.216390380859375,-0.06747190654277802,0.7255816459655762,-0.24617905914783478
1684201249905416400,7.22641650390625,0.030782494693994522,0.8018050789833069,-0.49746057391166687
1684201249915443500,7.236443359375,0.13084103167057037,0.9497813582420349,-0.7080280184745789
1684201249925469700,7.2464697265625,0.23819439113140106,1.0893656015396118,-0.8284044861793518
1684201249935496400,7.256496337890625,0.34280821681022644,1.180114507675171,-0.8378135561943054
1684201249945522400,7.2665224609375,0.4317045211791992,1.1701174974441528,-0.7949816584587097
1684201249955548400,7.27654833984375,0.471393346786499,1.0163065195083618,-0.7589520812034607
1684201249965575400,7.286575439453125,0.4928669333457947,0.7812466025352478,-0.7935915589332581
1684201249975601400,7.296601318359375,0.498142808675766,0.788753867149353,-0.9022093415260315
1684201249985628700,7.306628662109375,0.49989810585975647,1.0385903120040894,-1.071427345275879
1684201249995654700,7.316654541015625,0.5860174894332886,1.434541940689087,-1.287543535232544
1684201250005680600,7.3266806640625,0.7488564848899841,1.9785138368606567,-1.4476757049560547
1684201250015707400,7.336707275390625,0.8442652821540833,2.4389233589172363,-1.4411239624023438
1684201250025733400,7.3467333984375,0.8598719835281372,2.6010444164276123,-1.2740657329559326
1684201250035760600,7.3567607421875,0.8225783705711365,2.4377169609069824,-0.9923490285873413
1684201250045786600,7.36678662109375,0.7556379437446594,2.0022807121276855,-0.6135076284408569
1684201250055812600,7.3768125,0.6776138544082642,1.3181390762329102,-0.2062879502773285
1684201250065839600,7.386839599609375,0.6686853170394897,0.6849097609519958,0.13590028882026672
1684201250075865600,7.396865478515625,0.7558912634849548,0.4804620146751404,0.3439628481864929
1684201250085892400,7.406892333984375,0.9364815354347229,0.7291402220726013,0.36653074622154236
1684201250095918300,7.41691845703125,1.1854554414749146,1.1445902585983276,0.22445057332515717
1684201250105945600,7.426945556640625,1.4656026363372803,1.609008550643921,0.07152654230594635
1684201250115971600,7.4369716796875,1.6568372249603271,2.009467363357544,0.006987469270825386
1684201250125998800,7.446998779296875,1.7003839015960693,2.230478525161743,0.04785341024398804
1684201250136025600,7.457025634765625,1.6153711080551147,2.2895421981811523,0.10359973460435867
1684201250146051600,7.467051513671875,1.4793953895568848,2.2398722171783447,0.15269191563129425
1684201250156078600,7.47707861328125,1.361323595046997,2.227349042892456,0.23879194259643555
1684201250166104800,7.487104736328125,1.2791541814804077,2.1823816299438477,0.3019924759864807
1684201250176130800,7.497130859375,1.2234116792678833,2.0281200408935547,0.30630430579185486
1684201250186157800,7.50715771484375,1.1857010126113892,1.8037569522857666,0.26860859990119934
1684201250196183800,7.517183837890625,1.1593918800354004,1.5210355520248413,0.18794669210910797
1684201250206210600,7.52721044921875,1.1310731172561646,1.3029993772506714,0.158488929271698
1684201250216236500,7.537236572265625,1.1202784776687622,1.1133159399032593,0.14010214805603027
1684201250226262800,7.5472626953125,1.0819220542907715,0.9089600443840027,0.07714235037565231
1684201250236289800,7.557289794921875,1.066158413887024,0.8227623701095581,0.0300848800688982
1684201250246315800,7.567315673828125,1.0783623456954956,0.8354867100715637,0.014303520321846008
1684201250256342500,7.577342529296875,1.0740032196044922,0.7397606372833252,-0.04068097844719887
1684201250266368500,7.587368408203125,1.0340261459350586,0.647135853767395,-0.019308844581246376
1684201250276395800,7.597395751953125,0.9873837232589722,0.6183738112449646,0.09143571555614471
1684201250286421800,7.607421875,0.887117862701416,0.44848495721817017,0.13772039115428925
1684201250296447700,7.61744775390625,0.8199359774589539,0.3653979003429413,0.2436652034521103
1684201250306474800,7.627474853515625,0.7185518741607666,0.24457430839538574,0.30892887711524963
1684201250316500700,7.637500732421875,0.6006810069084167,0.2564444839954376,0.44466879963874817
1684201250326527500,7.647527587890625,0.4592714309692383,0.23190052807331085,0.5527127385139465
1684201250336553500,7.657553466796875,0.3302517831325531,0.110374815762043,0.5860106945037842
1684201250346579700,7.667579833984375,0.2496379017829895,-0.028721019625663757,0.5920441150665283
1684201250356606700,7.677606689453125,0.20674069225788116,-0.17994435131549835,0.6108554005622864
1684201250366632700,7.6876328125,0.1665826141834259,-0.309212327003479,0.6778562664985657
1684201250376659700,7.69765966796875,0.12517398595809937,-0.41906440258026123,0.7808245420455933
1684201250386685700,7.707685791015625,0.11079902946949005,-0.5108143091201782,0.8899874687194824
1684201250396712700,7.717712646484375,0.11018459498882294,-0.611379086971283,0.9942795038223267
1684201250406738700,7.72773876953125,0.08546220511198044,-0.7225756645202637,1.0751261711120605
1684201250416764700,7.7377646484375,0.009161463938653469,-0.8357464075088501,1.1520699262619019
1684201250426791700,7.747791748046875,-0.09247780591249466,-0.9313392639160156,1.1951780319213867
1684201250436817700,7.757817626953125,-0.19573917984962463,-0.971437394618988,1.193585991859436
1684201250446844700,7.7678447265625,-0.2720933258533478,-1.0249768495559692,1.1687248945236206
1684201250456871000,7.777870849609375,-0.31333938241004944,-1.0944719314575195,1.1437737941741943
1684201250466897000,7.78789697265625,-0.36645427346229553,-1.1269723176956177,1.1135120391845703
1684201250476923600,7.797923583984375,-0.46765416860580444,-1.1903605461120605,1.1188043355941772
1684201250486949600,7.80794970703125,-0.6196756362915039,-1.360426902770996,1.1626991033554077
1684201250496976600,7.8179765625,-0.7687124609947205,-1.5453503131866455,1.2149027585983276
1684201250507002600,7.828002685546875,-0.8653716444969177,-1.6993401050567627,1.2668449878692627
1684201250517028900,7.83802880859375,-0.92597496509552,-1.7979480028152466,1.3232754468917847
1684201250527055600,7.8480556640625,-0.9526699781417847,-1.8551044464111328,1.3643230199813843
1684201250537081600,7.85808154296875,-0.9421023726463318,-1.9022846221923828,1.3504530191421509
1684201250547108600,7.868108642578125,-0.8956025242805481,-1.9165340662002563,1.2716397047042847
1684201250557134600,7.878134521484375,-0.8268024921417236,-1.9274399280548096,1.1144942045211792
1684201250567160600,7.88816064453125,-0.7827663421630859,-1.9326858520507812,0.8714798092842102
1684201250577187800,7.898187744140625,-0.704706609249115,-1.7329741716384888,0.5214856863021851
1684201250587213800,7.9082138671875,-0.5430386066436768,-1.141958236694336,0.16201543807983398
1684201250597240600,7.918240478515625,-0.39152541756629944,-0.6243024468421936,0.08019687980413437
1684201250607266600,7.9282666015625,-0.3573914170265198,-0.42247074842453003,0.26896679401397705
1684201250617293600,7.93829345703125,-0.423169881105423,-0.21539370715618134,0.4697715640068054
1684201250627319600,7.948319580078125,-0.5270172357559204,0.11214235424995422,0.5548116564750671
1684201250637345800,7.958345703125,-0.629542887210846,0.2851746678352356,0.4685233533382416
1684201250647372800,7.968372802734375,-0.6316598057746887,0.24814046919345856,0.24386204779148102
1684201250657398800,7.978398681640625,-0.5363678932189941,0.2055017352104187,0.011639479547739029
1684201250667425500,7.988425537109375,-0.42258140444755554,0.2191978394985199,-0.18891651928424835
1684201250677451500,7.998451416015625,-0.32565009593963623,0.275804728269577,-0.32808732986450195
1684201250687477500,8.0084775390625,-0.26950961351394653,0.33809953927993774,-0.3773358166217804
1684201250697504800,8.0185048828125,-0.23914454877376556,0.2939833104610443,-0.3461683690547943
1684201250707530800,8.02853076171875,-0.19390197098255157,0.18110258877277374,-0.19939491152763367
1684201250717557800,8.038557861328124,-0.15297570824623108,0.017773723229765892,-0.00565352151170373
1684201250727583700,8.048583740234376,-0.12649084627628326,-0.17006541788578033,0.12655431032180786
1684201250737610500,8.058610595703126,-0.1289549320936203,-0.2965468168258667,0.16393029689788818
1684201250747636700,8.06863671875,-0.15207436680793762,-0.38490304350852966,0.11168733239173889
1684201250757662700,8.078662841796875,-0.18436655402183533,-0.5184812545776367,0.00785747542977333
1684201250767689700,8.088689697265625,-0.17417117953300476,-0.7780507802963257,-0.09586971253156662
1684201250777715700,8.0987158203125,-0.12424780428409576,-1.1236580610275269,-0.15747861564159393
1684201250787742700,8.10874267578125,-0.06466969102621078,-1.3499311208724976,-0.21139991283416748
1684201250797768700,8.118768798828125,-0.021888135001063347,-1.3108160495758057,-0.279692679643631
1684201250807794700,8.128794677734374,-0.012283708900213242,-1.037714958190918,-0.3637324571609497
1684201250817821700,8.13882177734375,-0.011500200256705284,-0.6717372536659241,-0.4373833239078522
1684201250827847700,8.14884765625,-0.02651776373386383,-0.33904320001602173,-0.4756987690925598
1684201250837874700,8.158874755859374,-0.06234123185276985,-0.06851942837238312,-0.47792962193489075
1684201250847900700,8.168900634765626,-0.13330088555812836,0.1691748946905136,-0.45654818415641785
1684201250857926700,8.1789267578125,-0.21947163343429565,0.3782394230365753,-0.4442565143108368
1684201250867953700,8.18895361328125,-0.31053125858306885,0.5986424088478088,-0.4360790252685547
1684201250877979600,8.198979736328125,-0.3859463036060333,0.9005698561668396,-0.38161635398864746
1684201250888006700,8.209006591796875,-0.41198134422302246,1.2302888631820679,-0.2788814604282379
1684201250898032600,8.21903271484375,-0.3634045720100403,1.4714388847351074,-0.16915227472782135
1684201250908059600,8.2290595703125,-0.21817545592784882,1.5759916305541992,0.0632849633693695
1684201250918085600,8.239085693359375,-0.05978355184197426,1.1819301843643188,0.4003840386867523
1684201250928111900,8.24911181640625,0.053912386298179626,0.39387714862823486,0.7155529260635376
1684201250938138600,8.259138671875,0.10060922801494598,-0.2555709481239319,0.8952232003211975
1684201250948164600,8.26916455078125,0.10673955827951431,-0.49193528294563293,0.9085573554039001
1684201250958191600,8.279191650390626,0.13495297729969025,-0.45179450511932373,0.785885214805603
1684201250968217600,8.289217529296875,0.16649146378040314,-0.3547512888908386,0.5879790782928467
1684201250978244900,8.299244873046876,0.20637674629688263,-0.3204199969768524,0.38393208384513855
1684201250988270800,8.309270751953125,0.2395525425672531,-0.4005611538887024,0.23667846620082855
1684201250998296800,8.319296875,0.2560366690158844,-0.5868942737579346,0.13683900237083435
1684201251008323600,8.329323486328125,0.2553623616695404,-0.7946192622184753,0.044246748089790344
1684201251018349600,8.339349609375,0.2507580816745758,-0.9203357100486755,-0.054350584745407104
1684201251028376600,8.34937646484375,0.23126401007175446,-0.9349460601806641,-0.1734495460987091
1684201251038402800,8.35940283203125,0.19606900215148926,-0.8084275126457214,-0.29006296396255493
1684201251048428800,8.3694287109375,0.13949814438819885,-0.6212486028671265,-0.37271496653556824
1684201251058455800,8.379455810546874,0.07246070355176926,-0.4593418538570404,-0.374976247549057
1684201251068481800,8.389481689453126,0.03817357122898102,-0.35317760705947876,-0.33129242062568665
1684201251078508500,8.399508544921876,0.023939868435263634,-0.33174392580986023,-0.2653631269931793
1684201251088534500,8.409534423828125,0.007776346057653427,-0.3955894708633423,-0.19960087537765503
1684201251098560800,8.419560791015625,-0.025655018165707588,-0.4953221082687378,-0.15440846979618073
1684201251108587800,8.429587890625,-0.03692072257399559,-0.5818220973014832,-0.14118269085884094
1684201251118613800,8.43961376953125,-0.04660198464989662,-0.592284083366394,-0.14661149680614471
1684201251128640500,8.449640625,-0.06955976784229279,-0.5705676078796387,-0.1426582932472229
1684201251138666500,8.45966650390625,-0.10790892690420151,-0.5341587066650391,-0.11142437160015106
1684201251148693200,8.469693359375,-0.13760824501514435,-0.5166324377059937,-0.05492753908038139
1684201251158719200,8.47971923828125,-0.15954425930976868,-0.5079408288002014,-0.0040406761690974236
1684201251168745500,8.489745361328126,-0.18860280513763428,-0.4879189729690552,-0.004340015817433596
1684201251178772500,8.4997724609375,-0.22198547422885895,-0.4312911629676819,-0.05698663741350174
1684201251188798500,8.509798583984375,-0.24864929914474487,-0.3967140316963196,-0.12288442999124527
1684201251198825500,8.519825439453125,-0.25310665369033813,-0.44757628440856934,-0.1803152859210968
1684201251208851500,8.5298515625,-0.23543260991573334,-0.547207772731781,-0.22510644793510437
1684201251218877400,8.53987744140625,-0.19795192778110504,-0.6561533808708191,-0.2648913562297821
1684201251228904400,8.549904541015625,-0.17689697444438934,-0.7186665534973145,-0.30820178985595703
1684201251238930400,8.559930419921875,-0.1697462648153305,-0.7276423573493958,-0.33756276965141296
1684201251248957400,8.56995751953125,-0.17045706510543823,-0.7143062949180603,-0.33365216851234436
1684201251258983400,8.5799833984375,-0.17381450533866882,-0.6925567984580994,-0.3065350651741028
1684201251269009400,8.590009521484374,-0.1761048287153244,-0.6359201669692993,-0.2796107828617096
1684201251279036200,8.6000361328125,-0.18238943815231323,-0.5165922045707703,-0.24868492782115936
1684201251289062400,8.6100625,-0.20086538791656494,-0.36223986744880676,-0.20132912695407867
1684201251299089400,8.62008935546875,-0.22584976255893707,-0.2241237312555313,-0.13664397597312927
1684201251309115400,8.630115478515625,-0.24561600387096405,-0.13503967225551605,-0.03582973778247833
1684201251319142400,8.640142333984375,-0.26266980171203613,-0.08089181035757065,0.09165969491004944
1684201251329168400,8.65016845703125,-0.27943840622901917,-0.04147382825613022,0.21065080165863037
1684201251339194400,8.6601943359375,-0.2897948920726776,-0.021433208137750626,0.3122667074203491
1684201251349221400,8.670221435546875,-0.2859303951263428,0.011642985045909882,0.3798854351043701
1684201251359247400,8.680247314453124,-0.2766026258468628,0.08366625010967255,0.4162702262401581
1684201251369274400,8.6902744140625,-0.2510320246219635,0.1728629767894745,0.44035717844963074
1684201251379300400,8.70030029296875,-0.21610388159751892,0.22302600741386414,0.49060916900634766
1684201251389326300,8.710326416015626,-0.1732243150472641,0.17589764297008514,0.5584135055541992
1684201251399353600,8.720353515625,-0.1427367478609085,0.014401953667402267,0.6181339025497437
1684201251409379600,8.730379638671875,-0.1281556785106659,-0.21017788350582123,0.6581103205680847
1684201251419406300,8.74040625,-0.10330101102590561,-0.3924340307712555,0.6665830016136169
1684201251429432300,8.750432373046875,-0.08663947880268097,-0.48159775137901306,0.6429101824760437
1684201251439459300,8.760459228515625,-0.0867592915892601,-0.4508531391620636,0.562809944152832
1684201251449485300,8.7704853515625,-0.0912906602025032,-0.29549869894981384,0.4349891245365143
1684201251459511600,8.780511474609375,-0.1013198122382164,-0.07236935943365097,0.28481245040893555
1684201251469538600,8.79053857421875,-0.11296049505472183,0.1362360417842865,0.1361750364303589
1684201251479564500,8.800564453125,-0.09289200603961945,0.31683963537216187,0.009370550513267517
1684201251489591300,8.81059130859375,-0.04488293081521988,0.44197145104408264,-0.11096837371587753
1684201251499617300,8.8206171875,0.011960173025727272,0.501377522945404,-0.22414271533489227
1684201251509643300,8.830643310546876,0.05911623314023018,0.48315247893333435,-0.32846301794052124
1684201251519670500,8.84067041015625,0.0950598269701004,0.4275152087211609,-0.40579134225845337
1684201251529696500,8.850696533203125,0.12119022756814957,0.38617098331451416,-0.4643729031085968
1684201251539723500,8.8607236328125,0.14838959276676178,0.39965516328811646,-0.50238037109375
1684201251549749200,8.870749267578125,0.18679796159267426,0.4989881217479706,-0.5192890167236328
1684201251559776300,8.8807763671875,0.25012344121932983,0.6602798104286194,-0.5146320462226868
1684201251569802200,8.89080224609375,0.3254445791244507,0.7925006747245789,-0.49536964297294617
1684201251579828500,8.900828369140624,0.397723913192749,0.8154922723770142,-0.44202491641044617
1684201251589855500,8.91085546875,0.4447505474090576,0.6837220191955566,-0.36134204268455505
1684201251599881500,8.920881591796874,0.4714672565460205,0.3922816514968872,-0.25971418619155884
1684201251609908200,8.930908203125,0.5058992505073547,-0.07791513204574585,-0.17854449152946472
1684201251619934200,8.940934326171876,0.5214778780937195,-0.8131062984466553,-0.15020781755447388
1684201251629960200,8.950960205078125,0.494989812374115,-2.0779857635498047,-0.2879262864589691
1684201251639987500,8.960987548828125,0.6074621081352234,-2.5535342693328857,-1.3325062990188599
1684201251650013400,8.971013427734375,0.9060349464416504,-0.4734981656074524,-3.3129374980926514
1684201251660040400,8.98104052734375,1.1450330018997192,0.9576818346977234,-4.607858657836914
1684201251670066400,8.99106640625,1.3816015720367432,1.1572420597076416,-5.169380187988281
1684201251680092400,9.001092529296875,1.5560729503631592,1.2673357725143433,-4.965649127960205
1684201251690119400,9.011119384765625,1.6970939636230469,1.521847128868103,-3.9932947158813477
1684201251700145400,9.0211455078125,1.645054817199707,0.6071383357048035,-2.904088020324707
1684201251710172400,9.03117236328125,1.4390769004821777,-0.6295662522315979,-1.789795160293579
1684201251720198400,9.041198486328126,1.3330159187316895,-1.16781747341156,-0.6666567325592041
1684201251730225400,9.051225341796876,1.3345009088516235,-0.9604978561401367,0.2411101907491684
1684201251740251400,9.06125146484375,1.5008070468902588,-0.2583085298538208,0.45194682478904724
1684201251750277600,9.071277587890625,2.005864381790161,1.2225693464279175,-0.2084912806749344
1684201251760304400,9.081304443359375,2.498704195022583,2.5589640140533447,-0.9600983262062073
1684201251770330400,9.091330322265625,2.4885506629943848,3.246880054473877,-1.1116219758987427
1684201251780357400,9.101357421875,2.17282772064209,3.376875162124634,-0.5778203010559082
1684201251790383400,9.11138330078125,1.8690118789672852,3.0825912952423096,0.16774097084999084
1684201251800409300,9.121409423828124,1.616115927696228,2.9675357341766357,0.6101073026657104
1684201251810436600,9.1314365234375,1.42238187789917,3.2292346954345703,0.6793894171714783
1684201251820462600,9.141462646484374,1.2750842571258545,3.617170572280884,0.6125644445419312
1684201251830489300,9.1514892578125,1.2075248956680298,3.6291942596435547,0.5068135261535645
1684201251840515300,9.161515380859376,1.2224819660186768,3.1755833625793457,0.35999152064323425
1684201251850542300,9.171542236328126,1.2365450859069824,2.6357078552246094,0.2410411536693573
1684201251860568300,9.181568359375,1.2544972896575928,2.0636444091796875,0.09246841818094254
1684201251870594600,9.191594482421875,1.2605197429656982,1.6540559530258179,-0.07911372184753418
1684201251880621300,9.201621337890625,1.224394679069519,1.4664920568466187,-0.1441897600889206
1684201251890647300,9.211647216796875,1.1191164255142212,1.3998744487762451,-0.12937965989112854
1684201251900674300,9.22167431640625,1.0054333209991455,1.2683311700820923,-0.12286048382520676
1684201251910700300,9.2317001953125,0.9270982146263123,1.105385184288025,-0.11101261526346207
1684201251920726300,9.241726318359374,0.8437181711196899,0.9386781454086304,-0.06822200864553452
1684201251930753500,9.25175341796875,0.7415867447853088,0.9271913766860962,0.019688934087753296
1684201251940779500,9.261779541015626,0.6274787187576294,0.8437812924385071,0.06116287782788277
1684201251950806300,9.27180615234375,0.516547441482544,0.6529160141944885,0.09077244251966476
1684201251960832300,9.281832275390625,0.41973140835762024,0.482602596282959,0.1484127789735794
1684201251970859300,9.291859375,0.314355731010437,0.3650842010974884,0.2325817197561264
1684201251980885500,9.301885498046875,0.16993293166160583,0.18236784636974335,0.26084864139556885
1684201251990911500,9.311911376953125,0.0571477971971035,0.05301785096526146,0.29032638669013977
1684201252000938500,9.3219384765625,-0.030708173289895058,-0.05274072661995888,0.32768532633781433
1684201252010964500,9.331964599609375,-0.1161905825138092,-0.20579871535301208,0.38009631633758545
1684201252020991200,9.3419912109375,-0.23605871200561523,-0.3474031984806061,0.44146662950515747
1684201252031017200,9.352017333984374,-0.3594434857368469,-0.48658639192581177,0.5325179696083069
1684201252041043500,9.36204345703125,-0.44826140999794006,-0.6522994041442871,0.627223014831543
1684201252051070500,9.372070556640624,-0.5119099020957947,-0.8633549213409424,0.7063204646110535
1684201252061096400,9.382096435546876,-0.5575994253158569,-1.1177470684051514,0.7660167813301086
1684201252071123500,9.39212353515625,-0.5766690373420715,-1.3619139194488525,0.8015979528427124
1684201252081149400,9.4021494140625,-0.5781225562095642,-1.586003065109253,0.8264445662498474
1684201252091175400,9.412175537109375,-0.57365882396698,-1.7912166118621826,0.8437524437904358
1684201252101202400,9.422202392578125,-0.5753890872001648,-1.9571874141693115,0.8595213890075684
1684201252111228400,9.432228515625,-0.610999584197998,-2.0921924114227295,0.8707417845726013
1684201252121255400,9.44225537109375,-0.6660608053207397,-2.179311752319336,0.8610669374465942
1684201252131281200,9.45228125,-0.7359094023704529,-2.2404723167419434,0.8565776348114014
1684201252141308200,9.46230810546875,-0.8208371996879578,-2.275000810623169,0.8742347955703735
1684201252151334100,9.472334228515624,-0.9038125276565552,-2.279184579849243,0.8802332878112793
1684201252161360400,9.4823603515625,-0.9691792726516724,-2.2240328788757324,0.8819438815116882
1684201252171387100,9.49238720703125,-1.0027313232421875,-2.157095193862915,0.8848674893379211
1684201252181413000,9.5024130859375,-0.9987567663192749,-2.0871787071228027,0.8818857669830322
1684201252191440100,9.512440185546875,-0.9704535603523254,-2.0486037731170654,0.870313823223114
1684201252201466000,9.522466064453125,-0.9410634636878967,-1.9996061325073242,0.8543817400932312
1684201252211492000,9.5324921875,-0.9372836351394653,-1.895810842514038,0.8223737478256226
1684201252221519000,9.54251904296875,-0.9769687056541443,-1.7671828269958496,0.7928938269615173
1684201252231545000,9.552545166015625,-1.0310838222503662,-1.642457365989685,0.7480301856994629
1684201252241572000,9.562572021484375,-1.0910495519638062,-1.52906334400177,0.6733931303024292
1684201252251598000,9.57259814453125,-1.1181291341781616,-1.4209576845169067,0.5736870765686035
1684201252261625000,9.582625,-1.1155916452407837,-1.2723230123519897,0.45922720432281494
1684201252271651300,9.5926513671875,-1.1069023609161377,-1.1140060424804688,0.35317161679267883
1684201252281677300,9.60267724609375,-1.1132935285568237,-0.9685487747192383,0.26046356558799744
1684201252291704000,9.6127041015625,-1.1147323846817017,-0.8583975434303284,0.21617040038108826
1684201252301730000,9.62272998046875,-1.0861896276474,-0.7947919368743896,0.19558091461658478
1684201252311757000,9.632757080078125,-1.013201117515564,-0.724010705947876,0.1774975210428238
1684201252321783000,9.642782958984375,-0.8958306312561035,-0.5971648097038269,0.128498837351799
1684201252331809000,9.65280908203125,-0.766167163848877,-0.5063920021057129,0.022648565471172333
1684201252341836300,9.662836181640625,-0.6023749709129333,-0.46399813890457153,-0.081311896443367
1684201252351862300,9.6728623046875,-0.41882723569869995,-0.5063431859016418,-0.17572176456451416
1684201252361889000,9.682888916015624,-0.2599238157272339,-0.6653254628181458,-0.2541046142578125
1684201252371915000,9.6929150390625,-0.14703215658664703,-0.810114860534668,-0.300502747297287
1684201252381941000,9.70294091796875,-0.08939711004495621,-0.7696003913879395,-0.30922719836235046
1684201252391968300,9.71296826171875,-0.0659724771976471,-0.5075581073760986,-0.284902960062027
1684201252401994200,9.722994140625,-0.0664294883608818,-0.1357703059911728,-0.227605402469635
1684201252412021200,9.733021240234375,-0.09086638689041138,0.17721770703792572,-0.15313543379306793
1684201252422047200,9.743047119140625,-0.13492213189601898,0.29045331478118896,-0.09141892194747925
1684201252432074000,9.753073974609375,-0.16524195671081543,0.13319872319698334,-0.045434653759002686
1684201252442100000,9.763099853515625,-0.18255425989627838,-0.15968762338161469,-0.022962994873523712
1684201252452126200,9.773126220703125,-0.1933635026216507,-0.41846218705177307,-0.028623810037970543
1684201252462153200,9.7831533203125,-0.19897879660129547,-0.599133312702179,-0.060791704803705215
1684201252472179200,9.79317919921875,-0.18998609483242035,-0.6138027906417847,-0.08272230625152588
1684201252482206200,9.803206298828124,-0.1794515699148178,-0.46247124671936035,-0.08980298787355423
1684201252492232200,9.813232177734376,-0.17600864171981812,-0.17655640840530396,-0.0968736782670021
1684201252502258200,9.823258056640626,-0.17171965539455414,0.18988044559955597,-0.08808466047048569
1684201252512285200,9.83328515625,-0.16860242187976837,0.5497984290122986,-0.09473749995231628
1684201252522311200,9.843311279296875,-0.17756257951259613,0.8369807600975037,-0.10379113256931305
1684201252532338200,9.853338134765625,-0.18375203013420105,1.0201375484466553,-0.10327848047018051
1684201252542364200,9.8633642578125,-0.18837639689445496,1.0597503185272217,-0.09727896004915237
1684201252552391200,9.87339111328125,-0.19492536783218384,0.9492363333702087,-0.09706510603427887
1684201252562417200,9.883417236328125,-0.194455087184906,0.7498605847358704,-0.10650230944156647
1684201252572443100,9.893443115234374,-0.18093128502368927,0.6086922287940979,-0.08292774111032486
1684201252582470100,9.90347021484375,-0.1888611763715744,0.556885302066803,-0.01531362347304821
1684201252592496000,9.91349609375,-0.2202577143907547,0.617478609085083,0.06087381765246391
1684201252602523100,9.923523193359374,-0.2126488834619522,0.7832013368606567,0.13412132859230042
1684201252612549000,9.933549072265626,-0.11517878621816635,0.9641295671463013,0.20647728443145752
1684201252622575000,9.9435751953125,0.025258446112275124,0.9234229326248169,0.2825210690498352
1684201252632602000,9.95360205078125,0.14854176342487335,0.5235996246337891,0.3869587779045105
1684201252642628000,9.963628173828125,0.1819828450679779,-0.07535842061042786,0.4609282314777374
1684201252652655000,9.973655029296875,0.10854139178991318,-0.4380924105644226,0.49706971645355225
1684201252662681000,9.98368115234375,0.04255915805697441,-0.5332990288734436,0.5098199248313904
1684201252672708000,9.9937080078125,0.025619057938456535,-0.5742693543434143,0.5353116989135742
1684201252682734300,10.003734375,0.044493332505226135,-0.6560207009315491,0.5786385536193848
1684201252692760300,10.01376025390625,0.024032000452280045,-0.6702433228492737,0.6142271757125854
1684201252702787000,10.023787109375,-0.030936967581510544,-0.5871508717536926,0.623541533946991
1684201252712813000,10.03381298828125,-0.07726424932479858,-0.4731329381465912,0.5846319794654846
1684201252722840000,10.043840087890626,-0.08736319839954376,-0.35343044996261597,0.5234229564666748
1684201252732866000,10.053865966796875,-0.06922388076782227,-0.24915599822998047,0.4630933105945587
1684201252742892300,10.063892333984375,-0.04078821465373039,-0.14166173338890076,0.4025561213493347
1684201252752919300,10.073919189453125,-0.006590563338249922,-0.02918020449578762,0.361592173576355
1684201252762945300,10.0839453125,0.03253353014588356,0.051422618329524994,0.32587558031082153
1684201252772972000,10.093971923828125,0.05588013306260109,0.02329244650900364,0.29364466667175293
1684201252782998000,10.103998046875,0.07118259370326996,-0.13906915485858917,0.25619587302207947
1684201252793025300,10.114025390625,0.08413594216108322,-0.31258606910705566,0.2118110954761505
1684201252803051300,10.12405126953125,0.09529052674770355,-0.42234161496162415,0.14953772723674774
1684201252813077200,10.1340771484375,0.10334579646587372,-0.43734294176101685,0.08502130955457687
1684201252823104300,10.144104248046874,0.08914484083652496,-0.40453553199768066,0.02868344634771347
1684201252833130200,10.154130126953126,0.05680980533361435,-0.3504888117313385,-0.00030772387981414795
1684201252843157000,10.164156982421876,0.018038541078567505,-0.2880377471446991,-0.011878333985805511
1684201252853183200,10.174183349609375,-0.015240052714943886,-0.241069957613945,-0.002707738196477294
1684201252863209200,10.184209228515625,-0.04841398447751999,-0.22197510302066803,0.03625350818037987
1684201252873236200,10.194236328125,-0.09268930554389954,-0.23820360004901886,0.0919836163520813
1684201252883262200,10.20426220703125,-0.15441930294036865,-0.26073408126831055,0.12788830697536469
1684201252893289200,10.214289306640625,-0.2106868326663971,-0.2494840919971466,0.1398477703332901
1684201252903315000,10.22431494140625,-0.25973477959632874,-0.22416554391384125,0.1310325413942337
1684201252913342200,10.23434228515625,-0.2938392162322998,-0.20441846549510956,0.1098468229174614
1684201252923368200,10.2443681640625,-0.30655813217163086,-0.21472549438476562,0.10930255055427551
1684201252933394200,10.254394287109376,-0.30414026975631714,-0.26394712924957275,0.12920702993869781
1684201252943421200,10.264421142578126,-0.30233314633369446,-0.3311770260334015,0.1668076068162918
1684201252953447200,10.274447265625,-0.32257798314094543,-0.40686699748039246,0.18605081737041473
1684201252963474000,10.284473876953125,-0.354277104139328,-0.4367929995059967,0.16956746578216553
1684201252973500200,10.294500244140625,-0.3937651216983795,-0.4096628725528717,0.12256453931331635
1684201252983526100,10.304526123046875,-0.40886133909225464,-0.35923701524734497,0.053677745163440704
1684201252993553200,10.31455322265625,-0.4016103446483612,-0.32523083686828613,-0.008396811783313751
1684201253003579100,10.3245791015625,-0.37736010551452637,-0.3120707869529724,-0.058310020714998245
1684201253013606100,10.334606201171875,-0.3402489721775055,-0.3238283693790436,-0.10249932110309601
1684201253023632100,10.344632080078124,-0.30137401819229126,-0.34912312030792236,-0.12438200414180756
1684201253033659100,10.3546591796875,-0.26904726028442383,-0.3791683614253998,-0.12626565992832184
1684201253043685000,10.36468505859375,-0.22985970973968506,-0.4212954044342041,-0.08962047845125198
1684201253053711000,10.374711181640626,-0.1961427628993988,-0.482347309589386,-0.03750241547822952
1684201253063738000,10.384738037109376,-0.1834791898727417,-0.5338197350502014,-0.004792273510247469
1684201253073764000,10.39476416015625,-0.18256759643554688,-0.5337222814559937,-0.014122924767434597
1684201253083791400,10.404791259765625,-0.18909461796283722,-0.4862607419490814,-0.04750320315361023
1684201253093817300,10.4148173828125,-0.20651142299175262,-0.39679476618766785,-0.08313149958848953
1684201253103843300,10.42484326171875,-0.2142520546913147,-0.3021198511123657,-0.1218596026301384
1684201253113870000,10.4348701171875,-0.203656405210495,-0.2379581779241562,-0.14578332006931305
1684201253123896000,10.44489599609375,-0.18051183223724365,-0.1977350115776062,-0.15634548664093018
1684201253133923000,10.454923095703125,-0.1664104014635086,-0.19256633520126343,-0.18176856637001038
1684201253143949000,10.464948974609374,-0.14035022258758545,-0.17485325038433075,-0.22343984246253967
1684201253153976000,10.47497607421875,-0.08787130564451218,-0.1293928176164627,-0.2824459373950958
1684201253164002300,10.485002197265626,-0.007300768047571182,-0.0806678906083107,-0.3245474100112915
1684201253174028000,10.495028076171875,0.07091361284255981,-0.051102809607982635,-0.34978511929512024
1684201253184055000,10.505054931640625,0.11878354847431183,-0.030826842412352562,-0.3381623327732086
1684201253194081000,10.5150810546875,0.1511654406785965,0.044006384909152985,-0.327789843082428
1684201253204108000,10.52510791015625,0.19678165018558502,0.185415580868721,-0.321999728679657
1684201253214134000,10.535134033203125,0.2505146563053131,0.3323269784450531,-0.28668007254600525
1684201253224160000,10.545159912109375,0.3156936466693878,0.37890300154685974,-0.184406116604805
1684201253234187000,10.55518701171875,0.38057222962379456,0.22807994484901428,-0.011171476915478706
1684201253244213000,10.565212890625,0.4396967887878418,-0.05956082046031952,0.16847452521324158
1684201253254240000,10.575239990234374,0.46648818254470825,-0.2834857702255249,0.2596947252750397
1684201253264266000,10.585265869140626,0.46612903475761414,-0.49170324206352234,0.2999210059642792
1684201253274293200,10.595293212890626,0.4565528631210327,-0.9230170845985413,0.3616538643836975
1684201253284319200,10.6053193359375,0.5103339552879333,-1.0852913856506348,0.061632316559553146
1684201253294345200,10.61534521484375,0.6830133199691772,0.134179949760437,-1.1258234977722168
1684201253304372000,10.6253720703125,0.8336028456687927,1.597028374671936,-2.5470805168151855
1684201253314398000,10.63539794921875,0.7962768077850342,2.0204873085021973,-3.4087255001068115
1684201253324425000,10.645425048828125,0.7983682155609131,1.7036212682724,-3.7719361782073975
1684201253334451000,10.655450927734375,0.8819541931152344,1.3678089380264282,-3.7210500240325928
1684201253344477200,10.665477294921875,0.9424739480018616,1.3931399583816528,-3.372192144393921
1684201253354504200,10.675504150390625,0.992494523525238,1.837908387184143,-2.7674806118011475
1684201253364530200,10.6855302734375,0.9996302127838135,2.2751054763793945,-2.0354790687561035
1684201253374557000,10.695556884765624,0.9311158657073975,1.9633349180221558,-1.4620667695999146
1684201253384583000,10.7055830078125,0.7900968790054321,0.752851665019989,-0.8505468964576721
1684201253394610200,10.715610107421876,0.7917863726615906,-0.8114513158798218,-0.14014708995819092
1684201253404636200,10.72563623046875,1.0160354375839233,-1.8742172718048096,0.503922164440155
1684201253414662100,10.735662109375,1.4683268070220947,-1.7454427480697632,0.455291748046875
1684201253424689200,10.745689208984375,2.151848316192627,0.5391821265220642,-0.6773967146873474
1684201253434715100,10.755715087890625,2.5490851402282715,2.7081778049468994,-1.5462201833724976
1684201253444742000,10.765741943359375,2.4174065589904785,3.5128729343414307,-1.784520149230957
1684201253454768000,10.77576806640625,2.080169439315796,3.06695556640625,-1.4093420505523682
1684201253464794000,10.785794189453124,1.7788589000701904,2.3019356727600098,-0.6347460150718689
1684201253474821000,10.795821044921874,1.5896408557891846,2.0557172298431396,0.09529195725917816
1684201253484847000,10.80584716796875,1.3691869974136353,2.3469958305358887,0.33315539360046387
1684201253494874000,10.8158740234375,1.201686143875122,2.8157801628112793,0.14023572206497192
1684201253504900000,10.825900146484376,1.1829160451889038,2.9144110679626465,-0.18838492035865784
1684201253514927000,10.835927001953126,1.234747052192688,2.557121992111206,-0.37587520480155945
1684201253524953000,10.845953125,1.2595716714859009,1.9490509033203125,-0.41373878717422485
1684201253534979000,10.85597900390625,1.2382400035858154,1.4881418943405151,-0.33973458409309387
1684201253545006000,10.866006103515625,1.1607953310012817,1.251503825187683,-0.26634475588798523
1684201253555032000,10.876031982421875,1.0340144634246826,1.1566557884216309,-0.2398766577243805
1684201253565059000,10.88605908203125,0.8920814990997314,1.1187503337860107,-0.19592855870723724
1684201253575085000,10.8960849609375,0.7792550921440125,1.0368573665618896,-0.12354758381843567
1684201253585111000,10.906111083984374,0.6891528367996216,0.8983393311500549,-0.04027264937758446
1684201253595138000,10.916137939453124,0.588766872882843,0.7148815989494324,0.04190078377723694
1684201253605164000,10.9261640625,0.45444032549858093,0.595201849937439,0.10630839318037033
1684201253615191000,10.93619091796875,0.3009767532348633,0.5157142281532288,0.16911877691745758
1684201253625217000,10.946217041015625,0.19067399203777313,0.4608924984931946,0.269977867603302
1684201253635244000,10.956244140625,0.07557882368564606,0.24116866290569305,0.28952255845069885
1684201253645270000,10.96627001953125,-0.01805448904633522,0.03254673629999161,0.32948651909828186
1684201253655296000,10.9762958984375,-0.12269515544176102,-0.22606591880321503,0.3468543291091919
1684201253665323000,10.986322998046875,-0.22048181295394897,-0.41519227623939514,0.37240737676620483
1684201253675349000,10.996348876953125,-0.2575194537639618,-0.4967198967933655,0.4441089928150177
1684201253685376300,11.006376220703125,-0.29576167464256287,-0.5923142433166504,0.5228971242904663
1684201253695402200,11.01640234375,-0.36360812187194824,-0.6640062928199768,0.6140792369842529
1684201253705428200,11.02642822265625,-0.4629945456981659,-0.7443602681159973,0.7125393748283386
1684201253715455000,11.036455078125,-0.5636026859283447,-0.8595518469810486,0.7993502020835876
1684201253725481000,11.04648095703125,-0.6411346197128296,-0.9953449368476868,0.8620251417160034
1684201253735508000,11.056508056640626,-0.6992272138595581,-1.1458938121795654,0.8711328506469727
1684201253745534200,11.0665341796875,-0.7232310175895691,-1.3023271560668945,0.8175221681594849
1684201253755561200,11.076561279296875,-0.704787015914917,-1.4476276636123657,0.7155561447143555
1684201253765587200,11.086587158203125,-0.6467760801315308,-1.605161428451538,0.6127124428749084
1684201253775613200,11.09661328125,-0.5846277475357056,-1.7925169467926025,0.5632831454277039
1684201253785640000,11.106639892578125,-0.5657652616500854,-1.9713910818099976,0.5952196717262268
1684201253795666000,11.116666015625,-0.6179096698760986,-2.109947443008423,0.6870542764663696
1684201253805693200,11.126693115234374,-0.7292894124984741,-2.139651298522949,0.7875816226005554
1684201253815719200,11.13671923828125,-0.842578113079071,-2.062591075897217,0.8447991013526917
1684201253825745200,11.1467451171875,-0.9207398295402527,-1.9459452629089355,0.8534572720527649
1684201253835772200,11.156772216796876,-0.9717071652412415,-1.8121930360794067,0.8547579646110535
1684201253845798000,11.1667978515625,-0.9945206046104431,-1.734060287475586,0.888835608959198
1684201253855825200,11.1768251953125,-1.0303133726119995,-1.713584065437317,0.9615265727043152
1684201253865851100,11.18685107421875,-1.0810695886611938,-1.7080539464950562,1.0413814783096313
1684201253875877000,11.196877197265625,-1.147416591644287,-1.662177562713623,1.0909076929092407
1684201253885904100,11.206904052734375,-1.2211815118789673,-1.5653977394104004,1.085895299911499
1684201253895930000,11.21693017578125,-1.2699894905090332,-1.448764681816101,1.017378330230713
1684201253905956900,11.226956787109375,-1.2961159944534302,-1.2750298976898193,0.9329559206962585
1684201253915982800,11.23698291015625,-1.308440923690796,-1.0855283737182617,0.8735202550888062
1684201253926010000,11.247010009765624,-1.2876098155975342,-0.8713619112968445,0.8207971453666687
1684201253936036000,11.2570361328125,-1.2038123607635498,-0.6330206990242004,0.7827925086021423
1684201253946062000,11.26706201171875,-1.0888123512268066,-0.43236401677131653,0.7444851994514465
1684201253956089000,11.277089111328126,-0.9909034967422485,-0.3749747574329376,0.6916092038154602
1684201253966115000,11.287114990234375,-0.9125535488128662,-0.4872661530971527,0.5788589715957642
1684201253976142000,11.29714208984375,-0.8173162341117859,-0.6891529560089111,0.3864096403121948
1684201253986168000,11.30716796875,-0.6784124970436096,-0.871104896068573,0.11861474812030792
1684201253996195000,11.317195068359375,-0.49298641085624695,-0.9272837042808533,-0.2673819661140442
1684201254006221000,11.327220947265625,-0.2308240383863449,-0.6117217540740967,-0.723414421081543
1684201254016247000,11.3372470703125,0.025191759690642357,-0.25203099846839905,-0.8296623229980469
1684201254026274000,11.347274169921874,0.12800662219524384,-0.18698476254940033,-0.5826110243797302
1684201254036300300,11.35730029296875,0.053712159395217896,-0.15506890416145325,-0.23976683616638184
1684201254046327000,11.3673271484375,-0.07772117108106613,0.07338352501392365,-0.008988250978291035
1684201254056353000,11.37735302734375,-0.17121250927448273,0.32856202125549316,0.0661696195602417
1684201254066379000,11.38737890625,-0.21159440279006958,0.48357418179512024,0.07189316302537918
1684201254076406000,11.397406005859375,-0.20813629031181335,0.5613331198692322,0.06398063898086548
1684201254086432000,11.407431884765625,-0.20081515610218048,0.569753110408783,0.044194091111421585
1684201254096459300,11.417459228515625,-0.20753377676010132,0.5327072143554688,0.027173031121492386
1684201254106485200,11.4274853515625,-0.2002471536397934,0.4308531582355499,0.022449595853686333
1684201254116512000,11.437511962890625,-0.18290357291698456,0.24877870082855225,0.03424420580267906
1684201254126538000,11.4475380859375,-0.16605938971042633,0.0168607160449028,0.048832766711711884
1684201254136563700,11.457563720703124,-0.15414920449256897,-0.1724170744419098,0.07942929118871689
1684201254146590700,11.4675908203125,-0.16186188161373138,-0.20489418506622314,0.10282883048057556
1684201254156617000,11.477616943359376,-0.17785975337028503,-0.12612320482730865,0.11019646376371384
1684201254166644000,11.48764404296875,-0.20210890471935272,-0.0263372790068388,0.09319556504487991
1684201254176670000,11.497669921875,-0.22672078013420105,0.10124331712722778,0.09890671074390411
1684201254186696000,11.507696044921875,-0.2839430868625641,-0.17305156588554382,-0.09069371223449707
1684201254196722700,11.51772265625,-0.32242920994758606,-0.5487911105155945,-0.27819544076919556
1684201254206748700,11.527748779296875,-0.2691175639629364,-0.5412028431892395,-0.2245006114244461
1684201254216776000,11.53777587890625,-0.2853354215621948,-0.4845714867115021,-0.21054458618164062
1684201254226802000,11.547802001953125,-0.4658759534358978,-0.3067648410797119,-0.3014986515045166
1684201254236829000,11.557828857421875,-0.6807746887207031,0.2221594750881195,-0.3924120366573334
1684201254246854700,11.567854736328124,-0.568275511264801,0.8457525968551636,-0.2555755078792572
1684201254256880600,11.577880615234376,-0.388828307390213,0.8235862851142883,-0.07041125744581223
1684201254266908000,11.587907958984376,-0.2603651285171509,0.5138807892799377,0.21278777718544006
1684201254276934000,11.597933837890626,-0.20714107155799866,0.2838541865348816,0.5000357627868652
1684201254286961000,11.6079609375,-0.22956064343452454,0.10496287047863007,0.6195141673088074
1684201254296987000,11.61798681640625,-0.3173443078994751,-0.21705324947834015,0.4874410629272461
1684201254307012900,11.628012939453125,-0.31789180636405945,-0.642869234085083,0.2688126266002655
1684201254317039600,11.63803955078125,-0.14472855627536774,-0.9263326525688171,0.14255987107753754
1684201254327065600,11.648065673828125,0.02258131466805935,-1.039838433265686,0.06076012924313545
1684201254337092900,11.6580927734375,0.04162025451660156,-0.938378095626831,0.0226628128439188
1684201254347118800,11.668118896484375,-0.024642549455165863,-0.7205998301506042,-0.05130308121442795
1684201254357145900,11.678145751953124,-0.08943486213684082,-0.4746853709220886,-0.16061732172966003
1684201254367171800,11.688171875,-0.10644219815731049,-0.23757536709308624,-0.23283351957798004
1684201254377197800,11.69819775390625,-0.1356102079153061,-0.08115167170763016,-0.23898275196552277
1684201254387224800,11.708224853515626,-0.13414306938648224,0.038841381669044495,-0.13445572555065155
1684201254397250800,11.718250732421875,-0.12418550997972488,0.12332670390605927,0.0233144611120224
1684201254407277800,11.72827783203125,0.04994640499353409,0.26636260747909546,0.24575132131576538
1684201254417303800,11.7383037109375,0.24783018231391907,0.439627081155777,0.494328111410141
1684201254427329800,11.748329833984375,0.10809683054685593,0.5859025716781616,0.62654709815979
1684201254437356800,11.758356689453125,-0.013896459713578224,0.7662017345428467,0.7485217452049255
1684201254447383000,11.768383056640625,-0.3359776735305786,0.8323355913162231,0.8496231436729431
1684201254457409800,11.778409912109375,-0.6930095553398132,1.0233713388442993,0.9900910258293152
1684201254467435800,11.788435791015624,-0.8336387872695923,1.2684338092803955,1.153024435043335
1684201254477462800,11.798462890625,-0.9904725551605225,1.5498141050338745,1.3002716302871704
1684201254487488800,11.80848876953125,-1.154943585395813,1.6988892555236816,1.3333675861358643
1684201254497514800,11.8185146484375,-1.255286455154419,1.5868721008300781,1.1903486251831055
1684201254507542000,11.8285419921875,-1.3180558681488037,1.1720645427703857,0.857729434967041
1684201254517568000,11.838568115234375,-1.4113693237304688,0.7913962602615356,0.4534722566604614
1684201254527594800,11.8485947265625,-1.5858073234558105,0.6992384791374207,0.14247766137123108
1684201254537620700,11.858620849609375,-2.172322988510132,0.7769529819488525,0.08317811787128448
1684201254547646700,11.868646728515625,-2.2539145946502686,0.29888516664505005,-0.12018462270498276
1684201254557674000,11.878674072265625,-1.8585032224655151,-0.009465760551393032,-0.23662148416042328
1684201254567700000,11.888699951171875,-1.505712866783142,0.17095454037189484,-0.19239433109760284
1684201254577726700,11.898726806640624,-1.1493312120437622,0.66936194896698,-0.08976197242736816
1684201254587752700,11.908752685546874,-0.7789784669876099,1.2554399967193604,-0.03489137440919876
1684201254597779700,11.91877978515625,-0.403413861989975,1.6226837635040283,-0.13604967296123505
1684201254607805700,11.9288056640625,-0.12760789692401886,1.7589713335037231,-0.369533509016037
1684201254617831700,11.938831787109375,0.054283350706100464,1.7421352863311768,-0.662770688533783
1684201254627859000,11.94885888671875,0.38132596015930176,1.5982025861740112,-0.9359419345855713
1684201254637885000,11.958885009765625,0.7212457060813904,1.456030249595642,-1.0949814319610596
1684201254647911700,11.96891162109375,0.9516304135322571,1.265643835067749,-1.1826519966125488
1684201254657937700,11.978937744140625,1.129398226737976,0.868980348110199,-1.2949655055999756
1684201254667963600,11.988963623046875,1.2234891653060913,0.40247678756713867,-1.2778452634811401
1684201254677991000,11.998990966796875,1.3448904752731323,-0.18674039840698242,-1.1807000637054443
1684201254688017000,12.009016845703124,1.5822303295135498,-0.6751847863197327,-1.011702299118042
1684201254698044000,12.0190439453125,1.616431713104248,-1.0979435443878174,-0.7450900673866272
1684201254708070000,12.02906982421875,1.35612952709198,-1.4347124099731445,-0.34820470213890076
1684201254718096600,12.0390966796875,1.0083012580871582,-1.6061747074127197,0.12317348271608353
1684201254728122600,12.04912255859375,0.6919852495193481,-1.7357208728790283,0.46683990955352783
1684201254738148900,12.05914892578125,0.38848021626472473,-1.8399028778076172,0.6269621849060059
1684201254748176000,12.06917578125,0.22792375087738037,-1.6173598766326904,0.7160272598266602
1684201254758201900,12.079201904296875,0.23510870337486267,0.27834582328796387,0.14337779581546783
1684201254768228900,12.089228759765625,0.1716003566980362,1.6092637777328491,-0.15825477242469788
1684201254778254800,12.0992548828125,0.10847385227680206,1.9132652282714844,-0.29634368419647217
1684201254788280800,12.10928076171875,0.26232874393463135,1.632860541343689,-0.32533758878707886
1684201254798307800,12.119307861328124,0.5813133716583252,1.301859736442566,-0.3847636282444
1684201254808333800,12.129333740234374,0.8019959330558777,0.9571402668952942,-0.47963947057724
1684201254818360800,12.13936083984375,0.8415345549583435,0.6169472932815552,-0.537853479385376
1684201254828386800,12.14938671875,0.7957971096038818,0.3894728124141693,-0.4837874174118042
1684201254838413800,12.159413818359376,1.327620267868042,-0.7986855506896973,-0.9661367535591125
1684201254848439800,12.169439697265625,1.5371112823486328,-1.38857102394104,-1.25444495677948
1684201254858465800,12.1794658203125,0.9672712087631226,-1.0133758783340454,-1.2117177248001099
1684201254868492800,12.189492919921875,0.25829070806503296,-0.3898901045322418,-1.060052752494812
1684201254878518800,12.199518798828125,-0.19068095088005066,-0.05890713259577751,-0.8380178809165955
1684201254888545800,12.2095458984375,-0.5133143067359924,-0.24030430614948273,-0.474723219871521
1684201254898571800,12.21957177734375,-0.7169968485832214,-1.0061341524124146,0.0660039484500885
1684201254908597800,12.22959765625,-0.8181325197219849,-1.5931377410888672,1.0079103708267212
1684201254918624800,12.239624755859374,-0.9641246199607849,-1.663236379623413,1.9933167695999146
1684201254928650800,12.249650634765626,-1.073272466659546,-1.1827937364578247,2.667774200439453
1684201254938677800,12.259677734375,-1.1360479593276978,-0.648402750492096,2.7617416381835938
1684201254948703700,12.269703857421876,-1.0965925455093384,-0.35227060317993164,2.352144241333008
1684201254958731000,12.27973095703125,-1.1526262760162354,-0.6576501727104187,1.8050525188446045
1684201254968757000,12.289757080078125,-1.3335844278335571,-1.6653028726577759,1.3617829084396362
1684201254978783000,12.299782958984375,-1.4659944772720337,-2.8683526515960693,1.2323119640350342
1684201254988809700,12.309809814453125,-1.5200529098510742,-3.631361961364746,1.5004937648773193
1684201254998835700,12.319835693359375,-1.7270729541778564,-3.838460683822632,2.143324851989746
1684201255008862700,12.32986279296875,-2.0483129024505615,-3.597630262374878,2.8407859802246094
1684201255018888700,12.339888671875,-2.567291736602783,-3.3916914463043213,3.2712907791137695
1684201255028915000,12.3499150390625,-2.6949727535247803,-3.6651265621185303,2.9323275089263916
1684201255038942000,12.35994189453125,-1.4610419273376465,-1.7260972261428833,-0.5126286745071411
1684201255048968000,12.369968017578126,-0.7795049548149109,-1.320168137550354,-1.3174588680267334
1684201255058994700,12.37999462890625,-0.6680594086647034,-1.768288493156433,-0.40111589431762695
1684201255069020700,12.390020751953125,-0.5587261319160461,-1.860284686088562,0.11269418150186539
1684201255079048000,12.4000478515625,-0.5298356413841248,-0.7863155007362366,-0.07556520402431488
1684201255089074000,12.410073974609375,-0.5082329511642456,-0.278520405292511,-0.07293902337551117
1684201255099100000,12.420099853515625,-0.48517051339149475,-0.253784716129303,-0.07907334715127945
1684201255109127000,12.430126953125,-0.41938185691833496,0.008382881991565228,0.07866434007883072
1684201255119153000,12.44015283203125,-0.2588323950767517,0.3436085283756256,0.24842648208141327
1684201255129180200,12.45018017578125,-0.1170644536614418,0.538436233997345,0.33702272176742554
1684201255139206100,12.4602060546875,0.054802119731903076,0.7469777464866638,0.37572458386421204
1684201255149232000,12.470232177734376,0.30665379762649536,0.6711311936378479,0.30934929847717285
1684201255159259100,12.480259033203126,0.39658209681510925,0.4336339831352234,0.2935205399990082
1684201255169285400,12.490285400390626,0.23559139668941498,0.49295422434806824,0.3387030363082886
1684201255179312000,12.50031201171875,0.3892286419868469,0.5605069398880005,0.14869530498981476
1684201255189338000,12.510338134765625,0.45571601390838623,0.7716562747955322,-0.061393316835165024
