time,seconds_elapsed,z,y,x
1684199883472558600,0.03455859375,0.11855486780405045,0.053538188338279724,0.2834179699420929
1684199883482584600,0.04458447265625,0.18588677048683167,0.1742347925901413,0.2935774028301239
1684199883492609500,0.054609619140625,0.3019907474517822,0.348981648683548,0.2725451588630676
1684199883502634500,0.064634521484375,0.43648943305015564,0.49647045135498047,0.22730816900730133
1684199883512660500,0.074660400390625,0.5633209347724915,0.6309817433357239,0.19313640892505646
1684199883522685400,0.084685546875,0.6889160871505737,0.8028983473777771,0.16128714382648468
1684199883532710700,0.094710693359375,0.8109035491943359,0.9741834402084351,0.09782148152589798
1684199883542736600,0.104736572265625,0.9264072179794312,1.0848984718322754,-0.018030812963843346
1684199883552761600,0.11476171875,1.0271540880203247,1.1144424676895142,-0.17973420023918152
1684199883562786300,0.124786376953125,1.114922285079956,1.0499356985092163,-0.35870635509490967
1684199883572812500,0.1348125,1.1792453527450562,0.9460861682891846,-0.5428188443183899
1684199883582837200,0.144837158203125,1.2546982765197754,0.8018618822097778,-0.7372783422470093
1684199883592863500,0.154863525390625,1.3467541933059692,0.7509860396385193,-0.914342999458313
1684199883602888400,0.164888427734375,1.483054518699646,0.8503163456916809,-1.0549030303955078
1684199883612913400,0.174913330078125,1.6563093662261963,0.972480058670044,-1.1641775369644165
1684199883622939400,0.184939453125,1.8300108909606934,1.0806525945663452,-1.270677924156189
1684199883632964400,0.19496435546875,1.9494373798370361,1.1438583135604858,-1.3899580240249634
1684199883642989300,0.2049892578125,2.005533218383789,1.172593593597412,-1.534331202507019
1684199883653015300,0.215015380859375,2.0063164234161377,1.2794439792633057,-1.6791292428970337
1684199883663040500,0.22504052734375,1.9573403596878052,1.4750726222991943,-1.7976385354995728
1684199883673065500,0.2350654296875,1.8507821559906006,1.637526035308838,-1.925444483757019
1684199883683091500,0.245091552734375,1.6836885213851929,1.664941668510437,-2.0688846111297607
1684199883693116400,0.255116455078125,1.47685968875885,1.5017790794372559,-2.1981632709503174
1684199883703141400,0.265141357421875,1.2623815536499023,1.1743268966674805,-2.3026602268218994
1684199883713167400,0.27516748046875,1.0705026388168335,0.7190721035003662,-2.377173662185669
1684199883723192600,0.285192626953125,0.9444506764411926,0.2489386945962906,-2.431879758834839
1684199883733218300,0.29521826171875,0.4485599398612976,1.555199146270752,-2.5497334003448486
1684199883743243500,0.305243408203125,-2.01969313621521,3.0940487384796143,-1.3870195150375366
1684199883753268500,0.3152685546875,-2.719097375869751,1.3038403987884521,0.11214374005794525
1684199883763294500,0.32529443359375,-1.7779737710952759,-0.41587504744529724,0.46279844641685486
1684199883773319400,0.3353193359375,-0.6346803307533264,-0.45238110423088074,0.15756238996982574
1684199883783344400,0.345344482421875,0.21295806765556335,-0.526515007019043,-0.49267101287841797
1684199883793370400,0.355370361328125,-0.3736516237258911,0.2361680567264557,-1.2140246629714966
1684199883803395600,0.3653955078125,-1.5071744918823242,0.446957528591156,-1.9002882242202759
1684199883813420500,0.375420654296875,-1.7562729120254517,0.12366880476474762,-2.29901385307312
1684199883823446500,0.385446533203125,-1.3927559852600098,0.16614408791065216,-2.2931911945343018
1684199883833471500,0.395471435546875,-0.7451910376548767,0.46760764718055725,-2.051816940307617
1684199883843496400,0.405496337890625,-0.04170724004507065,1.0304800271987915,-1.6706256866455078
1684199883853522400,0.4155224609375,0.5943288207054138,1.6911174058914185,-1.1574492454528809
1684199883863547400,0.42554736328125,1.0581679344177246,2.4305522441864014,-0.5197632908821106
1684199883873573600,0.43557373046875,1.3741344213485718,2.9148190021514893,0.07090575248003006
1684199883883598300,0.445598388671875,1.5517797470092773,3.169543743133545,0.4736098051071167
1684199883893623300,0.455623291015625,1.6212459802627563,3.276733636856079,0.7298641204833984
1684199883903649300,0.465649169921875,1.470884919166565,3.1890833377838135,0.7805837392807007
1684199883913674200,0.47567431640625,1.1774424314498901,2.992314338684082,0.5875958800315857
1684199883923699500,0.485699462890625,0.7760728001594543,2.6574623584747314,0.3532288670539856
1684199883933725400,0.495725341796875,0.18476851284503937,1.4949976205825806,-0.07682906836271286
1684199883943750400,0.50575048828125,-0.4435713291168213,0.8539457321166992,-0.576217532157898
1684199883953775400,0.515775390625,-0.9565856456756592,0.477859765291214,-1.0017387866973877
1684199883963801300,0.52580126953125,-1.1899815797805786,0.7163242697715759,-1.3332855701446533
1684199883973826300,0.535826416015625,-1.099472165107727,1.4708718061447144,-1.4765788316726685
1684199883983851500,0.5458515625,-0.9445814490318298,2.725689649581909,-1.2338242530822754
1684199883993877500,0.55587744140625,-1.093177318572998,4.223008632659912,-0.5573947429656982
1684199884003902500,0.56590234375,-1.6793408393859863,5.650963306427002,0.42038673162460327
1684199884013928400,0.575928466796875,-2.434131383895874,6.9473652839660645,1.4759007692337036
1684199884023953200,0.585953125,-3.104278326034546,8.010397911071777,2.414264440536499
1684199884033978000,0.59597802734375,-3.7341413497924805,8.637138366699219,3.0531773567199707
1684199884044004000,0.606004150390625,-4.421760559082031,8.961922645568848,3.388880491256714
1684199884054029300,0.616029296875,-5.186740875244141,9.0778169631958,3.577624559402466
1684199884064054300,0.62605419921875,-5.949404239654541,8.827994346618652,3.7422266006469727
1684199884074080300,0.636080322265625,-6.5606770515441895,8.371918678283691,3.9289469718933105
1684199884084105200,0.646105224609375,-7.016934394836426,7.884175777435303,4.147601127624512
1684199884094130200,0.656130126953125,-7.433355808258057,7.281623840332031,4.275317192077637
1684199884104156200,0.66615625,-7.657978057861328,6.379391670227051,4.393090724945068
1684199884114181400,0.676181396484375,-7.573742389678955,5.502931594848633,4.481571674346924
1684199884124206300,0.686206298828125,-7.104536533355713,4.803552627563477,4.334961414337158
1684199884134232300,0.696232421875,-6.340865612030029,4.224393367767334,4.017832279205322
1684199884144257300,0.70625732421875,-5.3453545570373535,3.7532103061676025,3.9364333152770996
1684199884154282200,0.7162822265625,-4.381389141082764,3.1935386657714844,3.987820863723755
1684199884164308200,0.72630810546875,-3.5935873985290527,2.464860200881958,3.8593335151672363
1684199884174333400,0.73633349609375,-3.0169179439544678,1.649526596069336,3.4191713333129883
1684199884184359400,0.746359375,-2.5213489532470703,0.8627820014953613,2.750835657119751
1684199884194384400,0.75638427734375,-1.9578899145126343,0.3440544903278351,2.0688436031341553
1684199884204409300,0.766409423828125,-1.2362337112426758,0.07492130994796753,1.4602776765823364
1684199884214435300,0.776435302734375,-0.5076219439506531,-0.1939893364906311,0.9485472440719604
1684199884224460300,0.786460205078125,0.016611723229289055,-1.6425402164459229,0.24871614575386047
1684199884234485500,0.796485595703125,0.6061722040176392,-2.611264944076538,0.1311447024345398
1684199884244511500,0.806511474609375,1.078544020652771,-2.8823397159576416,0.4119931161403656
1684199884254536400,0.816536376953125,1.551131248474121,-2.6844749450683594,0.6347564458847046
1684199884264561400,0.8265615234375,1.8961347341537476,-2.9045612812042236,0.5761346817016602
1684199884274587400,0.83658740234375,2.1995370388031006,-3.456225872039795,0.36260947585105896
1684199884284612400,0.8466123046875,2.3911805152893066,-3.7573909759521484,0.09465712308883667
1684199884294637300,0.85663720703125,2.565444231033325,-3.245166778564453,-0.000014325138181447983
1684199884304663300,0.866663330078125,2.8734045028686523,-2.185041904449463,0.041515808552503586
1684199884314688300,0.876688232421875,3.3277299404144287,-1.1995692253112793,0.11033744364976883
1684199884324714500,0.886714599609375,3.481775999069214,-0.46918821334838867,0.010990881361067295
1684199884334739200,0.8967392578125,3.0090253353118896,0.3675558269023895,-0.5132560133934021
1684199884344764200,0.90676416015625,1.7529081106185913,1.5529011487960815,-1.6189857721328735
1684199884354790100,0.9167900390625,1.5265614986419678,2.3435583114624023,-2.046300172805786
1684199884364815400,0.9268154296875,1.9759215116500854,2.3665246963500977,-1.5585788488388062
1684199884374840300,0.93684033203125,2.496412754058838,1.9420089721679688,-0.9547014236450195
1684199884384866300,0.9468662109375,3.0043885707855225,1.7719392776489258,-0.1861025094985962
1684199884394891300,0.956891357421875,3.3624417781829834,1.028521180152893,0.9722135663032532
1684199884404916200,0.966916259765625,3.0218894481658936,0.37316006422042847,1.872177243232727
1684199884414942200,0.976942138671875,2.111684799194336,0.13416528701782227,2.500093460083008
1684199884424967200,0.98696728515625,1.0909101963043213,0.37887516617774963,2.4908080101013184
1684199884434992400,0.996992431640625,0.24696983397006989,0.3883746266365051,1.9732811450958252
1684199884445018400,1.007018310546875,-0.44387492537498474,1.3344810009002686,0.4516773521900177
1684199884455043300,1.017043212890625,-2.232072114944458,0.3733038008213043,-1.4536188840866089
1684199884465068300,1.027068359375,-3.7623255252838135,0.6478277444839478,-3.009476661682129
1684199884475094300,1.03709423828125,-4.638500213623047,1.3502552509307861,-4.603831768035889
1684199884485119200,1.047119140625,-4.592538356781006,1.2830641269683838,-4.485525608062744
1684199884495145200,1.057145263671875,-3.6123297214508057,2.250692367553711,-3.3681631088256836
1684199884505170400,1.06717041015625,-2.9036426544189453,2.8982505798339844,-1.728663682937622
1684199884515195400,1.0771953125,-2.68733549118042,2.7459890842437744,-0.12998881936073303
1684199884525221400,1.087221435546875,-2.917727470397949,2.846818447113037,1.5017491579055786
1684199884535246300,1.097246337890625,-3.749234676361084,2.742544651031494,2.8546018600463867
1684199884545271300,1.107271240234375,-5.082687854766846,2.2166786193847656,3.936845064163208
1684199884555297300,1.11729736328125,-6.074038028717041,2.480903387069702,4.806759834289551
1684199884565322500,1.127322509765625,-6.150524139404297,3.3644297122955322,5.390995502471924
1684199884575347500,1.137347412109375,-5.62703800201416,1.438462734222412,5.187040328979492
1684199884585373400,1.14737353515625,-4.896564960479736,-1.2037171125411987,2.9702978134155273
1684199884595398400,1.1573984375,-4.171653747558594,-3.4552292823791504,0.526470422744751
1684199884605423000,1.167423095703125,-3.385223388671875,-3.0309042930603027,-0.40775182843208313
1684199884615449300,1.177449462890625,-2.7581050395965576,-3.3834915161132812,-0.5353269577026367
1684199884625474300,1.187474365234375,-2.2844810485839844,-3.5145280361175537,-0.31816717982292175
1684199884635500500,1.19750048828125,-1.5960036516189575,-3.413759231567383,-0.21620453894138336
1684199884645525200,1.207525146484375,-1.1967045068740845,-2.7123641967773438,0.6656998991966248
1684199884655550200,1.21755029296875,-1.040879487991333,-2.070072650909424,2.2932960987091064
1684199884665576200,1.227576171875,-0.9750583171844482,-2.3596978187561035,3.566246747970581
1684199884675601200,1.23760107421875,-0.7448715567588806,-2.586472272872925,4.07079553604126
1684199884685626400,1.24762646484375,-0.35304567217826843,-2.4628617763519287,3.8571205139160156
1684199884695652400,1.25765234375,-0.10768572241067886,-2.713697910308838,2.515678882598877
1684199884705677300,1.26767724609375,0.17416167259216309,-2.424053192138672,1.0292338132858276
1684199884715702300,1.277702392578125,0.725079357624054,-1.7199956178665161,0.24662920832633972
1684199884725728300,1.287728271484375,1.491645336151123,-0.9148051142692566,-0.126979798078537
1684199884735753200,1.297753173828125,2.232538938522339,-0.040963318198919296,-0.35352417826652527
1684199884745778400,1.3077783203125,2.6463189125061035,0.6305234432220459,-0.7399358153343201
1684199884755804400,1.317804443359375,2.8374531269073486,1.2569206953048706,-1.1233711242675781
1684199884765829400,1.327829345703125,2.8799216747283936,1.32585871219635,-1.3422728776931763
1684199884775855400,1.33785546875,3.034876585006714,0.800826370716095,-1.5756877660751343
1684199884785880300,1.34788037109375,3.5206146240234375,0.13180942833423615,-1.9543455839157104
1684199884795905300,1.3579052734375,3.9375133514404297,-0.20162992179393768,-2.17447829246521
1684199884805931300,1.36793115234375,3.914088487625122,-0.5213937759399414,-2.1922643184661865
1684199884815956500,1.37795654296875,4.097021102905273,-0.28259050846099854,-2.243655204772949
1684199884825981400,1.3879814453125,4.408293724060059,-0.09678120911121368,-2.2574751377105713
1684199884836007400,1.39800732421875,3.915397882461548,0.23945383727550507,-2.825249433517456
1684199884846032400,1.408032470703125,4.568902492523193,-0.3802797198295593,-3.8561606407165527
1684199884856057300,1.418057373046875,4.837502956390381,-0.1484726071357727,-4.307928562164307
1684199884866083300,1.428083251953125,3.3255181312561035,-0.09440191090106964,-4.391129970550537
1684199884876108300,1.4381083984375,1.027212381362915,-0.6306811571121216,-4.061092853546143
1684199884886133500,1.448133544921875,-1.0220777988433838,-0.433802992105484,-3.5921285152435303
1684199884896159500,1.458159423828125,-3.0006282329559326,0.1804298609495163,-3.111093521118164
1684199884906185000,1.46818505859375,-3.985236167907715,0.9397444725036621,-2.7891058921813965
1684199884916211000,1.4782109375,-3.9438910484313965,2.001469850540161,-2.5175704956054688
1684199884926236000,1.48823583984375,-3.336167573928833,3.2546613216400146,-1.9231524467468262
1684199884936260900,1.4982607421875,-3.12786602973938,4.3193535804748535,-1.150710940361023
1684199884946286800,1.508286865234375,-3.4244587421417236,5.14715576171875,-0.31906700134277344
1684199884956312000,1.51831201171875,-3.9475948810577393,5.488730430603027,0.3820183277130127
1684199884966337000,1.5283369140625,-4.5120134353637695,5.0478315353393555,0.8522771596908569
1684199884976363000,1.538363037109375,-4.704498291015625,4.054850101470947,1.1300392150878906
1684199884986388000,1.548387939453125,-4.847457408905029,3.2659149169921875,1.229088306427002
1684199884996413000,1.558412841796875,-5.127912521362305,3.7233288288116455,1.126890778541565
1684199885006439000,1.56843896484375,-5.285167217254639,4.745659828186035,1.0638062953948975
1684199885016464000,1.5784638671875,-4.850368022918701,5.0297160148620605,1.693876028060913
1684199885026488800,1.58848876953125,-3.751472234725952,5.362951755523682,2.601163387298584
1684199885036515000,1.59851513671875,-2.626490354537964,6.084226131439209,3.190521717071533
1684199885046539800,1.608539794921875,-1.7624731063842773,6.354161262512207,3.3687286376953125
1684199885056564700,1.618564697265625,-1.0467796325683594,5.759113311767578,3.3478517532348633
1684199885066590700,1.6285908203125,-0.3723599910736084,4.176970958709717,3.4624998569488525
1684199885076616000,1.638615966796875,0.1230635941028595,2.0045340061187744,3.6829395294189453
1684199885086641700,1.6486416015625,0.3812730312347412,-0.08930198103189468,3.833103656768799
1684199885096667000,1.6586669921875,0.34590041637420654,-1.7269784212112427,3.9090826511383057
1684199885106691800,1.66869189453125,0.28140050172805786,-2.4169728755950928,3.7798426151275635
1684199885116717800,1.6787177734375,0.34409505128860474,-2.1494534015655518,3.4422435760498047
1684199885126742800,1.68874267578125,0.5803488492965698,-1.0263382196426392,2.904426097869873
1684199885136767700,1.698767822265625,0.8165425062179565,0.1646280586719513,2.264021635055542
1684199885146793700,1.708793701171875,1.073994517326355,1.0712237358093262,1.4995630979537964
1684199885156819000,1.71881884765625,1.3735016584396362,1.3795669078826904,0.6982713937759399
1684199885166844000,1.728843994140625,1.566677212715149,0.8606310486793518,0.03280843794345856
1684199885176870000,1.738869873046875,1.1884827613830566,-0.14216969907283783,-0.5617669820785522
1684199885186894800,1.748894775390625,-0.085032619535923,-0.5518158078193665,-1.146820068359375
1684199885196920800,1.7589208984375,-1.497428297996521,-0.1448230892419815,-1.6766973733901978
1684199885206945800,1.76894580078125,-2.851762533187866,0.5049618482589722,-1.9730714559555054
1684199885216971000,1.778970947265625,-4.168725490570068,0.7942543625831604,-1.7936370372772217
1684199885226997000,1.7889970703125,-4.8551411628723145,1.039891242980957,-1.3868322372436523
1684199885237022000,1.79902197265625,-4.74772834777832,1.1980721950531006,-1.1927570104599
1684199885247047000,1.809046875,-4.0122151374816895,1.2711693048477173,-1.238558053970337
1684199885257073000,1.819072998046875,-3.124091386795044,1.9909580945968628,-1.3644644021987915
1684199885267097900,1.829097900390625,-2.2795486450195312,3.3027002811431885,-1.3052841424942017
1684199885277123000,1.839123046875,-1.8185094594955444,3.6392011642456055,-1.0319595336914062
1684199885287149000,1.849149169921875,-1.3563330173492432,3.3840816020965576,-1.0852028131484985
1684199885297174000,1.859174072265625,-1.0993467569351196,2.1864192485809326,-1.0469895601272583
1684199885307199000,1.869198974609375,-1.319575548171997,1.143715500831604,-0.9963021278381348
1684199885317225000,1.879224853515625,-1.502806544303894,0.6453262567520142,-0.588549017906189
1684199885327250000,1.88925,-1.46468186378479,0.6187127828598022,0.03166655823588371
1684199885337276000,1.89927587890625,-1.1514451503753662,0.7438474893569946,0.6882923245429993
1684199885347301000,1.909301025390625,-0.6268117427825928,0.8162937164306641,1.2844382524490356
1684199885357325800,1.919325927734375,-0.06447567045688629,0.7177618741989136,1.8042534589767456
1684199885367352000,1.92935205078125,0.43447980284690857,0.4903707802295685,2.209218740463257
1684199885377376800,1.939376708984375,0.9141910076141357,0.15865746140480042,2.4994142055511475
1684199885387401700,1.949401611328125,1.4338539838790894,-0.23540596663951874,2.7195262908935547
1684199885397427700,1.959427734375,1.9279584884643555,-0.7023078799247742,2.8958678245544434
1684199885407453000,1.969452880859375,2.2396492958068848,-1.492626428604126,3.0138468742370605
1684199885417478000,1.979477783203125,1.6518062353134155,-3.020294189453125,2.9592227935791016
1684199885427503900,1.98950390625,-0.008773263543844223,-4.307048797607422,2.7804043292999268
1684199885437528800,1.99952880859375,-1.024310827255249,-4.257948398590088,2.683539867401123
1684199885447553800,2.0095537109375,-1.0295788049697876,-3.925044536590576,2.477271556854248
1684199885457579800,2.019579833984375,-0.3391658067703247,-3.6587109565734863,2.0918188095092773
1684199885467605000,2.02960498046875,0.5043009519577026,-3.2569580078125,1.4363330602645874
1684199885477630000,2.0396298828125,1.197644591331482,-2.8233964443206787,0.6908935904502869
1684199885487656000,2.049656005859375,1.6763815879821777,-2.3188695907592773,0.039211705327034
1684199885497681000,2.059680908203125,2.074301242828369,-1.836228370666504,-0.4433637857437134
1684199885507707000,2.069706787109375,2.4554314613342285,-1.4622676372528076,-0.6722428202629089
1684199885517731800,2.07973193359375,2.753657102584839,-1.3349107503890991,-0.7090151309967041
1684199885527757000,2.089757080078125,2.9050724506378174,-1.3426424264907837,-0.6581714153289795
1684199885537782800,2.09978271484375,2.9302568435668945,-1.4431818723678589,-0.671801745891571
1684199885547808000,2.10980810546875,2.968818426132202,-1.4384081363677979,-0.6993998289108276
1684199885557833000,2.1198330078125,3.118159294128418,-1.186461091041565,-0.722148597240448
1684199885567859000,2.12985888671875,3.3841018676757812,-0.7243747115135193,-0.7470390200614929
1684199885577884000,2.1398837890625,3.8841958045959473,-0.051958877593278885,-0.6675912141799927
1684199885587908900,2.149908935546875,4.046587944030762,-0.03368053957819939,-1.002816915512085
1684199885597934800,2.159934814453125,3.701474666595459,-0.6001099944114685,-1.6749820709228516
1684199885607960000,2.1699599609375,3.548499345779419,-0.7833695411682129,-2.0025227069854736
1684199885617985000,2.179985107421875,3.4593331813812256,-0.7947253584861755,-2.16363263130188
1684199885628011000,2.190010986328125,3.2594516277313232,-0.6525871753692627,-2.1656711101531982
1684199885638036000,2.200035888671875,2.8109118938446045,-0.44208934903144836,-2.0811052322387695
1684199885648062000,2.21006201171875,2.0332014560699463,-0.39696717262268066,-1.9190255403518677
1684199885658087000,2.2200869140625,1.0417753458023071,-0.7180233001708984,-1.5878254175186157
1684199885668112000,2.23011181640625,0.4057810604572296,-1.4466683864593506,-1.1392228603363037
1684199885678138000,2.24013818359375,0.28950822353363037,-3.133204221725464,-0.786295473575592
1684199885688162800,2.250162841796875,0.32479965686798096,-3.712480068206787,-0.5419648289680481
1684199885698187800,2.260187744140625,0.24895282089710236,-2.6063926219940186,-0.38861283659935
1684199885708213800,2.2702138671875,0.07446169853210449,-0.7474774718284607,-0.22500070929527283
1684199885718238700,2.28023876953125,-0.14038507640361786,0.7417054176330566,-0.034999676048755646
1684199885728264000,2.290263916015625,-0.2747727036476135,1.387341856956482,0.22496318817138672
1684199885738290000,2.3002900390625,-0.3426998257637024,1.5277599096298218,0.5275356769561768
1684199885748315000,2.31031494140625,-0.36576521396636963,1.475093960762024,0.8104363083839417
1684199885758339800,2.32033984375,-0.3879975378513336,1.377536654472351,1.0119863748550415
1684199885768365800,2.33036572265625,-0.38449788093566895,1.1818372011184692,1.0614393949508667
1684199885778390800,2.340390869140625,-0.32536664605140686,0.8679598569869995,0.9518238306045532
1684199885788416800,2.350416748046875,-0.22152414917945862,0.47861847281455994,0.7387712001800537
1684199885798442000,2.36044189453125,-0.1011282280087471,0.059209756553173065,0.46352311968803406
1684199885808467000,2.370467041015625,0.01152827963232994,-0.2975720763206482,0.1742396354675293
1684199885818493000,2.380492919921875,0.11005299538373947,-0.514805793762207,-0.060142211616039276
1684199885828518000,2.390517822265625,0.17195364832878113,-0.6241264343261719,-0.21693155169487
1684199885838542800,2.40054296875,0.19024662673473358,-0.7135632038116455,-0.30849429965019226
1684199885848568800,2.41056884765625,0.1971530020236969,-0.7887372970581055,-0.35094746947288513
1684199885858594000,2.420593994140625,0.20238985121250153,-0.8606545925140381,-0.3732788562774658
1684199885868619000,2.430618896484375,0.18827536702156067,-0.9477682113647461,-0.3738391697406769
1684199885878645000,2.44064501953125,0.173007994890213,-0.9829202890396118,-0.33906644582748413
1684199885888670000,2.450669921875,0.17591643333435059,-0.9054766297340393,-0.2820228636264801
1684199885898695000,2.46069482421875,0.16646833717823029,-0.7177987694740295,-0.21057477593421936
1684199885908720600,2.470720703125,0.13063442707061768,-0.498053640127182,-0.13799723982810974
1684199885918745900,2.480745849609375,0.0917501449584961,-0.2820998430252075,-0.05754292383790016
1684199885928771800,2.490771728515625,0.05688084661960602,-0.08906140923500061,0.047983232885599136
1684199885938796800,2.500796875,0.018414154648780823,0.10196942090988159,0.17811954021453857
1684199885948821800,2.51082177734375,-0.010086195543408394,0.2990518808364868,0.31074467301368713
1684199885958847700,2.52084765625,-0.01657259091734886,0.4610000252723694,0.42422038316726685
1684199885968872700,2.530872802734375,-0.007755935192108154,0.5231554508209229,0.4778532087802887
1684199885978898000,2.54089794921875,0.007031267508864403,0.44681316614151,0.45966580510139465
1684199885988924000,2.550923828125,0.027442000806331635,0.28370386362075806,0.3694317936897278
1684199885998948900,2.560948974609375,0.036951884627342224,0.08337368816137314,0.22173313796520233
1684199886008973800,2.570973876953125,0.03381015360355377,-0.14593246579170227,0.03082442656159401
1684199886018999800,2.580999755859375,0.03250892832875252,-0.36802974343299866,-0.15568183362483978
1684199886029024800,2.591024658203125,0.03426741436123848,-0.5418745279312134,-0.2941153645515442
1684199886039050000,2.601050048828125,0.01862773299217224,-0.654718816280365,-0.3821254372596741
1684199886049076000,2.611075927734375,-0.0017140228301286697,-0.7154822945594788,-0.4167667627334595
1684199886059101000,2.621100830078125,-0.00785340927541256,-0.7470501065254211,-0.4256249666213989
1684199886069127000,2.631126953125,-0.010683284141123295,-0.7389559745788574,-0.4204520285129547
1684199886079151900,2.64115185546875,-0.009559961967170238,-0.7092458009719849,-0.39471638202667236
1684199886089176800,2.6511767578125,0.0017736527370288968,-0.6710044145584106,-0.3639315664768219
1684199886099202800,2.661202880859375,0.00891359243541956,-0.6400328874588013,-0.32775115966796875
1684199886109227800,2.671227783203125,-0.004776120651513338,-0.6480420827865601,-0.2998369634151459
1684199886119253000,2.6812529296875,-0.048609890043735504,-0.6553395390510559,-0.2794775664806366
1684199886129279000,2.691279052734375,-0.1161268800497055,-0.656363308429718,-0.26458728313446045
1684199886139304000,2.701303955078125,-0.19583049416542053,-0.6155951619148254,-0.22297337651252747
1684199886149328600,2.71132861328125,-0.2656487226486206,-0.5175365209579468,-0.14273019134998322
1684199886159355000,2.72135498046875,-0.310034841299057,-0.3611878454685211,-0.014802263118326664
1684199886169379600,2.731379638671875,-0.336523175239563,-0.17287015914916992,0.13734465837478638
1684199886179404800,2.74140478515625,-0.35004961490631104,0.010741141624748707,0.3011436462402344
1684199886189430800,2.7514306640625,-0.3416702449321747,0.14985908567905426,0.4390532970428467
1684199886199455700,2.761455810546875,-0.3069663345813751,0.17243129014968872,0.540610671043396
1684199886209480700,2.771480712890625,-0.24527475237846375,-0.017595097422599792,0.5579882860183716
1684199886219506700,2.781506591796875,-0.14315956830978394,-0.3050057888031006,0.45016947388648987
1684199886229531600,2.79153173828125,-0.0028594459872692823,-0.3253997266292572,0.26448482275009155
1684199886239557600,2.8015576171875,0.12317705154418945,-0.0704851746559143,0.10345488786697388
1684199886249582800,2.811582763671875,0.2222844660282135,0.25708019733428955,0.03115033730864525
1684199886259607800,2.82160791015625,0.31597766280174255,0.41136500239372253,0.021959684789180756
1684199886269633800,2.8316337890625,0.3789590299129486,0.2523617744445801,-0.009390780702233315
1684199886279658800,2.84165869140625,0.4015290439128876,-0.15211121737957,-0.13771682977676392
1684199886289683700,2.85168359375,0.4041975438594818,-0.5421023964881897,-0.3666671812534332
1684199886299709700,2.861709716796875,0.4182385206222534,-0.7517921924591064,-0.6688528060913086
1684199886309735000,2.87173486328125,0.4409358501434326,-0.8049129247665405,-0.9998185038566589
1684199886319760000,2.881759765625,0.4655149579048157,-0.7596939206123352,-1.311571478843689
1684199886329785900,2.891785888671875,0.4888743460178375,-0.6395901441574097,-1.5405423641204834
1684199886339810800,2.901810791015625,0.5037353038787842,-0.44861000776290894,-1.6678065061569214
1684199886349835800,2.911835693359375,0.5125141143798828,-0.21016013622283936,-1.725224494934082
1684199886359861800,2.92186181640625,0.516894519329071,-0.03136535733938217,-1.7966358661651611
1684199886369887000,2.931886962890625,0.5734171271324158,-0.029098741710186005,-1.9636266231536865
1684199886379913000,2.941912841796875,0.7407790422439575,-0.11552896350622177,-2.2350852489471436
1684199886389938000,2.95193798828125,0.9197248220443726,-0.021601663902401924,-2.4686968326568604
1684199886399963000,2.961962890625,1.0505515336990356,0.3650324046611786,-2.539067268371582
1684199886409988900,2.97198876953125,1.0674972534179688,1.0053926706314087,-2.3725333213806152
1684199886420013800,2.982013916015625,0.9968920350074768,1.6096426248550415,-2.0535807609558105
1684199886430039000,2.9920390625,0.9039834141731262,2.0253636837005615,-1.671226978302002
1684199886440065000,3.00206494140625,0.8398651480674744,2.196115493774414,-1.250930905342102
1684199886450090000,3.012090087890625,0.8595898747444153,2.247218132019043,-0.8972347974777222
1684199886460114700,3.02211474609375,0.8497800230979919,2.0920486450195312,-0.6475619077682495
1684199886470141000,3.032140869140625,0.7795754075050354,1.670825719833374,-0.43529385328292847
1684199886480165600,3.04216552734375,0.7235730886459351,1.1402653455734253,-0.32417428493499756
1684199886490190800,3.05219091796875,0.7554769515991211,0.6502736806869507,-0.30650103092193604
1684199886500216800,3.062216796875,0.9014440178871155,0.28575021028518677,-0.3946283161640167
1684199886510241800,3.07224169921875,1.1027913093566895,0.14660298824310303,-0.5041436553001404
1684199886520266800,3.082266845703125,1.2663298845291138,0.07793255150318146,-0.6475516557693481
1684199886530292700,3.092292724609375,1.3375511169433594,0.1457427591085434,-0.7774990200996399
1684199886540317700,3.102317626953125,1.3512767553329468,0.3698574900627136,-0.8423865437507629
1684199886550343700,3.11234375,1.2945966720581055,0.5552100539207458,-0.8084935545921326
1684199886560369000,3.122368896484375,1.2070127725601196,0.6418465375900269,-0.6827062964439392
1684199886570393900,3.132393798828125,1.134289264678955,0.7189319729804993,-0.47431817650794983
1684199886580419800,3.142419921875,1.0648908615112305,0.7773549556732178,-0.23848789930343628
1684199886590444800,3.15244482421875,1.0191760063171387,0.9093455076217651,-0.020764630287885666
1684199886600469800,3.1624697265625,1.0272645950317383,0.9835034608840942,0.14010776579380035
1684199886610495700,3.172495849609375,1.0492860078811646,1.0596543550491333,0.22151048481464386
1684199886620520700,3.182520751953125,1.054250955581665,1.1527979373931885,0.22235597670078278
1684199886630546000,3.1925458984375,1.0403516292572021,1.174950361251831,0.1673276126384735
1684199886640572000,3.202572021484375,0.9606237411499023,1.146972894668579,0.1158897876739502
1684199886650596900,3.212596923828125,0.8295272588729858,1.0566245317459106,0.07109621912240982
1684199886660622800,3.222622802734375,0.6912705302238464,0.9819885492324829,0.05765059217810631
1684199886670647800,3.232647705078125,0.5806681513786316,0.8915600776672363,0.07117491960525513
1684199886680672800,3.2426728515625,0.5018378496170044,0.7735877633094788,0.09714876860380173
1684199886690698800,3.25269873046875,0.45362526178359985,0.572053849697113,0.11723672598600388
1684199886700724000,3.262723876953125,0.4255840480327606,0.3213745057582855,0.11706182360649109
1684199886710749000,3.2727490234375,0.40683379769325256,0.12758426368236542,0.10931228846311569
1684199886720775000,3.28277490234375,0.40292641520500183,0.00839041918516159,0.12237261980772018
1684199886730799900,3.2927998046875,0.39455050230026245,-0.045499712228775024,0.15113715827465057
1684199886740824600,3.302824462890625,0.36766669154167175,-0.01974998228251934,0.20496325194835663
1684199886750850800,3.312850830078125,0.3134569823741913,0.10663112252950668,0.2683022916316986
1684199886760875800,3.322875732421875,0.2725537419319153,0.284911572933197,0.34522974491119385
1684199886770900700,3.332900634765625,0.25416702032089233,0.4342901408672333,0.45796239376068115
1684199886780926700,3.3429267578125,0.21543560922145844,0.5287593603134155,0.5825453400611877
1684199886790951700,3.35295166015625,0.16860471665859222,0.5508745312690735,0.6880978345870972
1684199886800977700,3.362977783203125,0.12858246266841888,0.4802163243293762,0.7215285301208496
1684199886811002600,3.373002685546875,0.1149984747171402,0.3225076496601105,0.6818740367889404
1684199886821027800,3.38302783203125,0.11461471021175385,0.11525458842515945,0.6217033863067627
1684199886831053800,3.3930537109375,0.11130014061927795,-0.10423356294631958,0.5855240821838379
1684199886841078800,3.403078857421875,0.09676461666822433,-0.37134411931037903,0.6199110150337219
1684199886851103700,3.413103759765625,0.08703342825174332,-0.6338915824890137,0.7310582995414734
1684199886861129700,3.423129638671875,0.07613123953342438,-0.8085501790046692,0.8479889631271362
1684199886871154700,3.43315478515625,0.02089754492044449,-0.8043330907821655,0.9070219397544861
1684199886881180000,3.443179931640625,-0.07242866605520248,-0.6789077520370483,0.9091473817825317
1684199886891206000,3.453205810546875,-0.22927607595920563,-0.4213971495628357,0.9240956902503967
1684199886901230800,3.46323095703125,-0.43153116106987,-0.042427949607372284,1.0124199390411377
1684199886911255600,3.473255615234375,-0.6095321178436279,0.07487151026725769,1.170183539390564
1684199886921281500,3.483281494140625,-0.7130448222160339,-0.05730980262160301,1.3371537923812866
1684199886931306500,3.493306396484375,-0.7764368653297424,-0.20978909730911255,1.443056344985962
1684199886941331700,3.503331787109375,-0.8161070942878723,-0.3363690674304962,1.4642177820205688
1684199886951357700,3.513357666015625,-0.8164381384849548,-0.5092303156852722,1.4395116567611694
1684199886961382700,3.523382568359375,-0.8038267493247986,-0.6900436878204346,1.4045870304107666
1684199886971407400,3.533407470703125,-0.7955166101455688,-0.7860461473464966,1.3619804382324219
1684199886981433600,3.54343359375,-0.8120774626731873,-0.8007562160491943,1.3032413721084595
1684199886991458300,3.553458251953125,-0.8300660848617554,-0.766188383102417,1.2506591081619263
1684199887001484500,3.563484619140625,-0.8526967763900757,-0.6923127770423889,1.2019981145858765
1684199887011509500,3.573509521484375,-0.8800554275512695,-0.590772807598114,1.1523776054382324
1684199887021534500,3.583534423828125,-0.9173833727836609,-0.45709162950515747,1.101556658744812
1684199887031560400,3.593560546875,-0.9546319842338562,-0.3156263828277588,1.0372819900512695
1684199887041585400,3.60358544921875,-0.9807857275009155,-0.22347667813301086,0.9344281554222107
1684199887051610400,3.6136103515625,-0.9973061084747314,-0.22148968279361725,0.813665509223938
1684199887061636400,3.62363623046875,-1.0112205743789673,-0.28936856985092163,0.6872082948684692
1684199887071661600,3.63366162109375,-0.9673991203308105,-0.41052669286727905,0.5618184208869934
1684199887081686500,3.6436865234375,-0.9033794403076172,-0.581645131111145,0.4308535158634186
1684199887091712500,3.65371240234375,-0.8606170415878296,-0.7845138311386108,0.28632697463035583
1684199887101737500,3.663737548828125,-0.7860457897186279,-0.8935023546218872,0.10232648998498917
1684199887111762400,3.673762451171875,-0.6300961971282959,-0.7744247317314148,-0.19683492183685303
1684199887121788400,3.683788330078125,-0.41113588213920593,-0.5533854365348816,-0.5108129978179932
1684199887131813600,3.693813720703125,-0.27112552523612976,-0.34629911184310913,-0.5365750789642334
1684199887141839600,3.703839599609375,-0.23721735179424286,-0.2914242446422577,-0.30621176958084106
1684199887151864600,3.713864501953125,-0.24121715128421783,-0.2950759828090668,-0.008130529895424843
1684199887161889500,3.7238896484375,-0.29453763365745544,-0.2493041455745697,0.22470256686210632
1684199887171915500,3.73391552734375,-0.40622395277023315,-0.20819051563739777,0.3159264922142029
1684199887181940500,3.7439404296875,-0.5341712832450867,-0.20357950031757355,0.28082817792892456
1684199887191965700,3.753965576171875,-0.6036177277565002,-0.19376175105571747,0.19912905991077423
1684199887201991700,3.76399169921875,-0.5923248529434204,-0.14662453532218933,0.17365387082099915
1684199887212016600,3.7740166015625,-0.5561389327049255,-0.1812000870704651,0.18061164021492004
1684199887222041600,3.78404150390625,-0.5088198781013489,-0.3305237889289856,0.1844678819179535
1684199887232067600,3.794067626953125,-0.4324030876159668,-0.5187674760818481,0.14564885199069977
1684199887242092500,3.804092529296875,-0.37925010919570923,-0.7185029983520508,0.03134562447667122
1684199887252117800,3.81411767578125,-0.36458754539489746,-0.8624958992004395,-0.1682543009519577
1684199887262143500,3.8241435546875,-0.4067925214767456,-0.917966902256012,-0.3886492848396301
1684199887272168700,3.834168701171875,-0.4316616654396057,-0.8343106508255005,-0.5309052467346191
1684199887282194700,3.844194580078125,-0.3895949125289917,-0.67970871925354,-0.5380499362945557
1684199887292219600,3.8542197265625,-0.2749103903770447,-0.48069629073143005,-0.4279172718524933
1684199887302244400,3.864244384765625,-0.16969344019889832,-0.2287687063217163,-0.23459891974925995
1684199887312270600,3.8742705078125,-0.13223154842853546,0.151800736784935,0.0032897992059588432
1684199887322295600,3.884295654296875,-0.11397399008274078,0.7213826179504395,0.2755774259567261
1684199887332320500,3.894320556640625,-0.14417102932929993,1.1968443393707275,0.5331775546073914
1684199887342346500,3.904346435546875,-0.19533035159111023,1.2064534425735474,0.6222222447395325
1684199887352371500,3.914371337890625,-0.2296859323978424,1.126311182975769,0.6171795129776001
1684199887362396400,3.924396484375,-0.2351299673318863,1.2922000885009766,0.6232666969299316
1684199887372422400,3.93442236328125,-0.2173706740140915,1.5254415273666382,0.6577852368354797
1684199887382447400,3.944447265625,-0.21540074050426483,1.3836815357208252,0.6581610441207886
1684199887392472600,3.95447265625,-0.19089512526988983,1.0188210010528564,0.6097804307937622
1684199887402498600,3.96449853515625,-0.14917591214179993,0.7012780904769897,0.5168168544769287
1684199887412523500,3.9745234375,-0.10789211839437485,0.47346699237823486,0.36463502049446106
1684199887422549500,3.984549560546875,-0.09410174936056137,0.3802451193332672,0.2271634191274643
1684199887432574500,3.994574462890625,-0.05986734479665756,0.35806313157081604,0.13972917199134827
1684199887442599400,4.004599365234375,-0.00036619254387915134,0.3182297945022583,0.09549867361783981
1684199887452625400,4.01462548828125,0.04768256098031998,0.27427032589912415,0.08913398534059525
1684199887462650600,4.024650634765625,0.07451257109642029,0.14759942889213562,0.12367916107177734
1684199887472675600,4.034675537109375,0.08525362610816956,-0.12975016236305237,0.1705276221036911
1684199887482701600,4.04470166015625,0.09377947449684143,-0.399499773979187,0.19872820377349854
1684199887492726500,4.0547265625,0.10725080966949463,-0.5323172211647034,0.20034128427505493
1684199887502751500,4.06475146484375,0.11770105361938477,-0.5601125955581665,0.17873798310756683
1684199887512777500,4.074777587890625,0.12138340622186661,-0.559622585773468,0.1435251384973526
1684199887522802700,4.084802734375,0.13470347225666046,-0.5220953822135925,0.11172470450401306
1684199887532827600,4.09482763671875,0.15713821351528168,-0.44103965163230896,0.09438219666481018
1684199887542853600,4.104853515625,0.16450105607509613,-0.382191002368927,0.08639241009950638
1684199887552878600,4.114878662109375,0.15583433210849762,-0.32915547490119934,0.08561450242996216
1684199887562903600,4.124903564453125,0.13413701951503754,-0.28547176718711853,0.07585630565881729
1684199887572929500,4.134929443359375,0.10247337073087692,-0.2583509385585785,0.04860444739460945
1684199887582954500,4.14495458984375,0.05591225624084473,-0.25333884358406067,-0.006226290948688984
1684199887592980700,4.154980712890625,0.024599872529506683,-0.2274894118309021,-0.05917339771986008
1684199887603005400,4.16500537109375,0.008034743368625641,-0.1988278180360794,-0.08911173045635223
1684199887613030400,4.175030517578125,-0.0035524042323231697,-0.1812829226255417,-0.08208364993333817
1684199887623056400,4.185056396484375,-0.008898958563804626,-0.16678108274936676,-0.04364214465022087
1684199887633081300,4.195081298828125,0.006171337328851223,-0.1732586920261383,0.012433107942342758
1684199887643106600,4.2051064453125,0.01945517770946026,-0.187156081199646,0.06494166702032089
1684199887653132500,4.215132568359375,0.016734492033720016,-0.20065882802009583,0.10093296319246292
1684199887663157500,4.225157470703125,0.0024793900083750486,-0.24369922280311584,0.10799568146467209
1684199887673182500,4.235182373046875,-0.01020604558289051,-0.32457250356674194,0.09962829947471619
1684199887683208400,4.24520849609375,-0.023274704813957214,-0.41963258385658264,0.07605434209108353
1684199887693233400,4.2552333984375,-0.041398581117391586,-0.5072910785675049,0.03259315341711044
1684199887703258600,4.265258544921875,-0.08105012774467468,-0.5995907187461853,-0.04048699513077736
1684199887713284600,4.27528466796875,-0.12751828134059906,-0.6200928092002869,-0.10819493979215622
1684199887723309600,4.2853095703125,-0.16887424886226654,-0.4951341450214386,-0.12896576523780823
1684199887733335600,4.29533544921875,-0.18912705779075623,-0.24382814764976501,-0.06927154958248138
1684199887743360500,4.305360595703125,-0.21459273993968964,-0.027980385348200798,0.04225913807749748
1684199887753385500,4.315385498046875,-0.2357025444507599,0.09227784723043442,0.14246350526809692
1684199887763411500,4.325411376953125,-0.2544136345386505,0.202133446931839,0.18975770473480225
1684199887773436700,4.335436767578125,-0.2645512521266937,0.25609681010246277,0.18055488169193268
1684199887783461600,4.345461669921875,-0.2573540508747101,0.20227211713790894,0.1475750207901001
1684199887793487600,4.355487548828125,-0.2327064871788025,0.03451027721166611,0.10464059561491013
1684199887803512600,4.3655126953125,-0.20694732666015625,-0.18079717457294464,0.04730919003486633
1684199887813537500,4.37553759765625,-0.16723427176475525,-0.3648200035095215,-0.01572224125266075
1684199887823563500,4.3855634765625,-0.16357508301734924,-0.5313339829444885,-0.06376098096370697
1684199887833588500,4.39558837890625,-0.17172542214393616,-0.6199557185173035,-0.094747394323349
1684199887843613700,4.40561376953125,-0.18328061699867249,-0.6191796660423279,-0.11004343628883362
1684199887853639700,4.4156396484375,-0.18643566966056824,-0.5674930214881897,-0.1173037439584732
1684199887863664600,4.42566455078125,-0.18476612865924835,-0.47231045365333557,-0.10368559509515762
1684199887873690600,4.435690673828125,-0.18552646040916443,-0.35889893770217896,-0.06410915404558182
1684199887883715600,4.445715576171875,-0.1679389476776123,-0.2517375349998474,-0.01133134588599205
1684199887893740300,4.455740234375,-0.14995594322681427,-0.18936975300312042,0.04344748333096504
1684199887903766500,4.4657666015625,-0.1146397665143013,-0.18469928205013275,0.09646870940923691
1684199887913791000,4.475791015625,-0.07177938520908356,-0.23531079292297363,0.13127034902572632
1684199887923816000,4.48581591796875,-0.044590115547180176,-0.32445061206817627,0.13101834058761597
1684199887933842000,4.495842041015625,-0.02247283048927784,-0.40029504895210266,0.08073493093252182
1684199887943867000,4.505866943359375,-0.03163650259375572,-0.452404648065567,-0.014827072620391846
1684199887953892000,4.51589208984375,-0.020347360521554947,-0.4824046194553375,-0.13927525281906128
1684199887963918000,4.52591796875,-0.006256576161831617,-0.5471094846725464,-0.28790563344955444
1684199887973943000,4.535943115234375,0.018289247527718544,-0.6086742877960205,-0.4463072419166565
1684199887983968000,4.545968017578125,0.07299963384866714,-0.6250618696212769,-0.6039904952049255
1684199887993994000,4.555993896484375,0.1557357907295227,-0.597319483757019,-0.7459020614624023
1684199888004019000,4.56601904296875,0.2527744472026825,-0.5366784930229187,-0.8630017638206482
1684199888014044200,4.576044189453125,0.35372504591941833,-0.48562970757484436,-0.9590832591056824
1684199888024070100,4.586070068359375,0.4505615830421448,-0.45950692892074585,-1.0277440547943115
1684199888034095000,4.59609521484375,0.5605407953262329,-0.4676615297794342,-1.0399799346923828
1684199888044121000,4.60612109375,0.6733046174049377,-0.5056730508804321,-0.9766861200332642
1684199888054146000,4.61614599609375,0.7726261019706726,-0.5853348970413208,-0.8337079286575317
1684199888064171000,4.6261708984375,0.788783073425293,-0.7054527997970581,-0.6645067930221558
1684199888074197000,4.636197021484375,0.7692884206771851,-0.7720209360122681,-0.5779087543487549
1684199888084222000,4.646221923828125,0.7251369953155518,-0.8216797709465027,-0.6665144562721252
1684199888094247200,4.6562470703125,0.7087652087211609,-0.917609453201294,-1.0882281064987183
1684199888104273200,4.666273193359375,0.7904746532440186,-0.9020020961761475,-1.8849650621414185
1684199888114298000,4.676298095703125,0.9247283935546875,-0.6299234628677368,-2.6807408332824707
1684199888124323000,4.686322998046875,1.0269091129302979,-0.20276707410812378,-3.091791868209839
1684199888134349000,4.69634912109375,1.0992058515548706,0.25736165046691895,-3.0936551094055176
1684199888144374000,4.7063740234375,1.1407290697097778,0.6936179399490356,-2.7981600761413574
1684199888154399000,4.71639892578125,1.2077754735946655,0.9888333082199097,-2.3886988162994385
1684199888164425200,4.72642529296875,1.2402628660202026,0.9127565622329712,-2.0772054195404053
1684199888174450000,4.736449951171875,1.216468334197998,0.6900904774665833,-1.8033134937286377
1684199888184475000,4.746474853515625,1.141237735748291,0.2916868031024933,-1.5505751371383667
1684199888194500900,4.7565009765625,1.010841965675354,-0.08576888591051102,-1.2666385173797607
1684199888204525800,4.76652587890625,0.8811046481132507,-0.28166770935058594,-0.9625272750854492
1684199888214551800,4.7765517578125,0.7732365131378174,-0.2842903733253479,-0.6996692419052124
1684199888224577000,4.786576904296875,0.7513611316680908,-0.1218009740114212,-0.51172935962677
1684199888234602000,4.79660205078125,0.8645268082618713,0.013794940896332264,-0.465035617351532
1684199888244628000,4.8066279296875,1.1008541584014893,0.06733991950750351,-0.5017861723899841
1684199888254653000,4.81665283203125,1.3413854837417603,0.2439357340335846,-0.525041401386261
1684199888264678000,4.826677978515625,1.4603004455566406,0.4741165339946747,-0.5180574655532837
1684199888274704000,4.836703857421875,1.4847495555877686,0.7934141159057617,-0.46109962463378906
1684199888284729000,4.84672900390625,1.4317824840545654,1.2259337902069092,-0.3035646378993988
1684199888294754000,4.856754150390625,1.3039859533309937,1.41353440284729,-0.1013481542468071
1684199888304780000,4.866780029296875,1.2395060062408447,1.3383262157440186,0.06453490257263184
1684199888314805000,4.876804931640625,1.1937541961669922,1.3238439559936523,0.21500404179096222
1684199888324831000,4.8868310546875,1.13615882396698,1.3831677436828613,0.32390493154525757
1684199888334856000,4.89685595703125,1.0689833164215088,1.4886189699172974,0.3913534879684448
1684199888344881200,4.906881103515625,1.0048623085021973,1.54965341091156,0.37890589237213135
1684199888354907100,4.9169072265625,0.9604594111442566,1.4748648405075073,0.3178015351295471
1684199888364932000,4.92693212890625,0.9182912111282349,1.2700669765472412,0.26876312494277954
1684199888374957000,4.93695703125,0.873541533946991,1.0668872594833374,0.29299524426460266
1684199888384983000,4.946983154296875,0.812942385673523,0.8437930941581726,0.3471390902996063
1684199888395008000,4.957008056640625,0.712736964225769,0.6799432039260864,0.4051573872566223
1684199888405033200,4.967033203125,0.5987731218338013,0.5714395046234131,0.43183577060699463
1684199888415059200,4.97705908203125,0.49340251088142395,0.4502933621406555,0.4372001588344574
1684199888425084200,4.987084228515625,0.3959510624408722,0.3101404905319214,0.45069941878318787
1684199888435109000,4.997109130859375,0.3037513494491577,0.17711451649665833,0.4861772656440735
1684199888445135000,5.007135009765625,0.2119053155183792,0.0771544948220253,0.5272654891014099
1684199888455160000,5.01716015625,0.13877491652965546,0.03497615084052086,0.5498756766319275
1684199888465185000,5.02718505859375,0.09139169007539749,0.06382225453853607,0.5571203231811523
1684199888475211300,5.037211181640625,0.05799032375216484,0.13060128688812256,0.5647087097167969
1684199888485236000,5.047236083984375,0.027862248942255974,0.21387334167957306,0.576698362827301
1684199888495262000,5.057261962890625,0.005451748613268137,0.31200870871543884,0.5959866046905518
1684199888505287000,5.067286865234375,-0.024557286873459816,0.4040836691856384,0.6368429064750671
1684199888515311900,5.077311767578125,-0.05485154315829277,0.49828261137008667,0.7148942947387695
1684199888525337900,5.087337890625,-0.10425318032503128,0.5450231432914734,0.7896544933319092
1684199888535363000,5.097363037109375,-0.16288745403289795,0.5258601307868958,0.8344387412071228
1684199888545388000,5.107387939453125,-0.21337567269802094,0.40997153520584106,0.8297602534294128
1684199888555414000,5.1174140625,-0.24607662856578827,0.218081995844841,0.7870034575462341
1684199888565439000,5.12743896484375,-0.26703569293022156,-0.019096381962299347,0.729357898235321
1684199888575464000,5.1374638671875,-0.3114021122455597,-0.2888580858707428,0.6766791939735413
1684199888585490000,5.147489990234375,-0.3711503744125366,-0.5176392197608948,0.6272960305213928
1684199888595515100,5.15751513671875,-0.43353840708732605,-0.653231143951416,0.5771044492721558
1684199888605540000,5.1675400390625,-0.5044043660163879,-0.7093554735183716,0.558708667755127
1684199888615566000,5.177566162109375,-0.5787336826324463,-0.6944295167922974,0.5742796659469604
1684199888625591000,5.187591064453125,-0.6692470908164978,-0.6156306266784668,0.6237354874610901
1684199888635616000,5.197615966796875,-0.7638228535652161,-0.5138624906539917,0.7003594040870667
1684199888645642000,5.20764208984375,-0.8546038866043091,-0.4391860365867615,0.7843945026397705
1684199888655667000,5.2176669921875,-0.93089359998703,-0.40990564227104187,0.8357604742050171
1684199888665693000,5.22769287109375,-0.9858977198600769,-0.3978829085826874,0.8751501441001892
1684199888675718100,5.23771826171875,-1.0229902267456055,-0.46837306022644043,0.8923496603965759
1684199888685743000,5.2477431640625,-1.0460950136184692,-0.6221504807472229,0.9251737594604492
1684199888695769000,5.25776904296875,-1.065340280532837,-0.8047109842300415,0.9716823697090149
1684199888705794000,5.2677939453125,-1.0750001668930054,-0.9730024933815002,1.0176184177398682
1684199888715819000,5.277819091796875,-1.0760715007781982,-1.0981855392456055,1.053402304649353
1684199888725845000,5.287844970703125,-1.0888112783432007,-1.1449828147888184,1.0827549695968628
1684199888735870200,5.2978701171875,-1.1056395769119263,-1.0844621658325195,1.0898730754852295
1684199888745895000,5.30789501953125,-1.1201497316360474,-0.9548248052597046,1.0420479774475098
1684199888755921200,5.317921142578125,-1.1192682981491089,-0.8007768988609314,0.9358857870101929
1684199888765945900,5.32794580078125,-1.1214706897735596,-0.6661224961280823,0.7881184220314026
1684199888775970800,5.337970703125,-1.1112090349197388,-0.5940027832984924,0.6357797980308533
1684199888785996800,5.347996826171875,-1.035356879234314,-0.553808867931366,0.4571520984172821
1684199888796022000,5.35802197265625,-0.8277509808540344,-0.47956418991088867,0.18255221843719482
1684199888806048000,5.368048095703125,-0.5074208974838257,-0.37395697832107544,-0.16025562584400177
1684199888816073000,5.378072998046875,-0.2135290652513504,-0.3193206191062927,-0.5260088443756104
1684199888826098000,5.388097900390625,0.0569000244140625,-0.32964086532592773,-0.8862082958221436
1684199888836124000,5.3981240234375,0.20953936874866486,-0.594873309135437,-0.8568037748336792
1684199888846148900,5.40814892578125,0.24410399794578552,-0.8251153826713562,-0.3496493399143219
1684199888856174000,5.418174072265625,0.2556147277355194,-0.7631540298461914,0.05827903747558594
1684199888866200000,5.428199951171875,0.18020784854888916,-0.4857203960418701,0.17874863743782043
1684199888876225000,5.43822509765625,0.024135684594511986,-0.1857219636440277,0.08214407414197922
1684199888886250000,5.44825,-0.08669015765190125,0.053334470838308334,-0.0964428186416626
1684199888896276000,5.45827587890625,-0.11658786237239838,0.19957397878170013,-0.20625640451908112
1684199888906301000,5.468301025390625,-0.12621599435806274,0.2055845409631729,-0.17226530611515045
1684199888916326400,5.478326416015625,-0.14854873716831207,0.09035862237215042,-0.022716298699378967
1684199888926352400,5.488352294921875,-0.15815342962741852,-0.05388077348470688,0.1789311319589615
1684199888936377300,5.49837744140625,-0.15353363752365112,-0.17063403129577637,0.35615116357803345
1684199888946402300,5.50840234375,-0.13140010833740234,-0.22520719468593597,0.45984622836112976
1684199888956428300,5.51842822265625,-0.09230544418096542,-0.24891626834869385,0.49093037843704224
1684199888966453200,5.528453369140625,-0.038623034954071045,-0.1325668841600418,0.4456205368041992
1684199888976479200,5.538479248046875,-0.019862130284309387,0.18207333981990814,0.3510418236255646
1684199888986504200,5.548504150390625,-0.046514783054590225,0.6321859359741211,0.22657878696918488
1684199888996529400,5.558529296875,-0.058851610869169235,1.028193712234497,0.14588473737239838
1684199889006555400,5.568555419921875,-0.041815370321273804,1.1023565530776978,0.1651768982410431
1684199889016580400,5.578580322265625,-0.025989800691604614,0.9358960390090942,0.3402363359928131
1684199889026605300,5.588605224609375,-0.05104002356529236,0.7463071942329407,0.5524593591690063
1684199889036631300,5.59863134765625,-0.10664282739162445,0.6298426389694214,0.6453783512115479
1684199889046656300,5.60865625,-0.14027349650859833,0.5392178893089294,0.5823642611503601
1684199889056681200,5.61868115234375,-0.12813054025173187,0.504891037940979,0.47148966789245605
1684199889066707500,5.62870751953125,-0.10659996420145035,0.42064520716667175,0.36974018812179565
1684199889076732200,5.638732177734375,-0.09325405955314636,0.23766714334487915,0.2930699288845062
1684199889086757000,5.648757080078125,-0.0985281839966774,0.05292860046029091,0.228692427277565
1684199889096783000,5.658783203125,-0.11566483229398727,-0.02576461061835289,0.1687782257795334
1684199889106808000,5.66880810546875,-0.1423470377922058,-0.13354770839214325,0.08622938394546509
1684199889116834000,5.678833984375,-0.1684553325176239,-0.21347956359386444,0.01054021343588829
1684199889126859300,5.688859375,-0.17042607069015503,-0.2518582344055176,-0.026364970952272415
1684199889136884200,5.69888427734375,-0.16089674830436707,-0.2901470363140106,-0.008842170238494873
1684199889146910200,5.70891015625,-0.14569702744483948,-0.34953105449676514,0.05840074270963669
1684199889156935200,5.71893505859375,-0.13866974413394928,-0.4714348614215851,0.17241254448890686
1684199889166960000,5.728960205078125,-0.12985759973526,-0.6236899495124817,0.2727596163749695
1684199889176986000,5.738986083984375,-0.08819031715393066,-0.7026641368865967,0.3203508257865906
1684199889187011300,5.74901123046875,-0.053795330226421356,-0.7160005569458008,0.30054527521133423
1684199889197036300,5.759036376953125,-0.05735038220882416,-0.5939774513244629,0.2173510640859604
1684199889207062300,5.769062255859375,-0.07582765817642212,-0.42980319261550903,0.10414456576108932
1684199889217087200,5.779087158203125,-0.07000838965177536,-0.25388941168785095,0.0016283146105706692
1684199889227112200,5.7891123046875,-0.06048812344670296,-0.14462941884994507,-0.013345208019018173
1684199889237138200,5.79913818359375,-0.07280470430850983,-0.11153512448072433,0.040135595947504044
1684199889247163400,5.809163330078125,-0.08125972002744675,-0.11270330101251602,0.11325471103191376
1684199889257188400,5.819188232421875,-0.08933176100254059,-0.125043585896492,0.1681869477033615
1684199889267214300,5.82921435546875,-0.08993230015039444,-0.12177467346191406,0.18456391990184784
1684199889277239300,5.8392392578125,-0.08684836328029633,-0.0744875892996788,0.19299069046974182
1684199889287265300,5.849265380859375,-0.07967779040336609,-0.019417062401771545,0.20697955787181854
1684199889297290200,5.859290283203125,-0.0699591189622879,-0.006035742815583944,0.22660093009471893
1684199889307315500,5.8693154296875,-0.07526680082082748,-0.0698353499174118,0.22605353593826294
1684199889317341400,5.879341552734375,-0.07742103189229965,-0.17375081777572632,0.19552545249462128
1684199889327366400,5.889366455078125,-0.07442523539066315,-0.2988832890987396,0.14594872295856476
1684199889337391400,5.899391357421875,-0.07627452909946442,-0.4324552118778229,0.07382765412330627
1684199889347417300,5.909417236328125,-0.08980951458215714,-0.5496081113815308,-0.006282296031713486
1684199889357442300,5.9194423828125,-0.11486826092004776,-0.6111926436424255,-0.08294431865215302
1684199889367467300,5.92946728515625,-0.11631064862012863,-0.6077171564102173,-0.13605059683322906
1684199889377493500,5.939493408203125,-0.1323109120130539,-0.5120569467544556,-0.1519419401884079
1684199889387518200,5.949518310546875,-0.16319532692432404,-0.36344093084335327,-0.1123165711760521
1684199889397543200,5.959543212890625,-0.18725165724754333,-0.23869019746780396,-0.03935767337679863
1684199889407569200,5.969569091796875,-0.2019975781440735,-0.1790490597486496,0.06539611518383026
1684199889417594000,5.979593994140625,-0.2027033120393753,-0.1562766283750534,0.17176195979118347
1684199889427620000,5.9896201171875,-0.20828290283679962,-0.08682018518447876,0.2553403079509735
1684199889437645300,5.999645263671875,-0.21984714269638062,-0.025721672922372818,0.29894983768463135
1684199889447670300,6.009670166015625,-0.22602488100528717,-0.05253268778324127,0.3178379237651825
1684199889457696300,6.0196962890625,-0.23887810111045837,-0.17057304084300995,0.289600133895874
1684199889467721200,6.02972119140625,-0.24647396802902222,-0.2722204029560089,0.22656112909317017
1684199889477746200,6.03974609375,-0.26895958185195923,-0.3382880985736847,0.13924646377563477
1684199889487772200,6.049772216796875,-0.2953895926475525,-0.37308868765830994,0.06177271530032158
1684199889497797400,6.05979736328125,-0.29650330543518066,-0.4192042648792267,-0.002522919559851289
1684199889507822300,6.069822265625,-0.2803938388824463,-0.4875307083129883,-0.05664831027388573
1684199889517848300,6.079848388671875,-0.27801644802093506,-0.5320931077003479,-0.12608037889003754
1684199889527873300,6.089873291015625,-0.26969727873802185,-0.5479766130447388,-0.19103367626667023
1684199889537898200,6.099898193359375,-0.2629421651363373,-0.5551711320877075,-0.2542770802974701
1684199889547924200,6.10992431640625,-0.2737751007080078,-0.5048777461051941,-0.2986007630825043
1684199889557949200,6.11994921875,-0.2799682915210724,-0.2991999387741089,-0.3034016489982605
1684199889567975200,6.12997509765625,-0.2855076491832733,0.0062689692713320255,-0.25600314140319824
1684199889578000400,6.14000048828125,-0.2603897750377655,0.2578492760658264,-0.12677699327468872
1684199889588025300,6.150025390625,-0.22856846451759338,0.3567802608013153,0.04928632080554962
1684199889598051300,6.16005126953125,-0.21068879961967468,0.315746545791626,0.16962577402591705
1684199889608076300,6.170076171875,-0.1968451589345932,0.25511062145233154,0.16562677919864655
1684199889618101200,6.180101318359375,-0.18772649765014648,0.2666565179824829,0.033115871250629425
1684199889628127200,6.190127197265625,-0.11736391484737396,0.3408411145210266,-0.14033859968185425
1684199889638152400,6.20015234375,0.03968215361237526,0.4068446159362793,-0.24844083189964294
1684199889648177400,6.210177490234375,0.21996085345745087,0.47294849157333374,-0.24158327281475067
1684199889658203400,6.220203369140625,0.36027267575263977,0.5258644223213196,-0.1301981657743454
1684199889668228400,6.230228271484375,0.4334867000579834,0.47397714853286743,0.007812070660293102
1684199889678253000,6.240253173828125,0.42441946268081665,0.24228639900684357,0.09352218359708786
1684199889688279300,6.250279296875,0.3689282238483429,-0.12942543625831604,0.090009406208992
1684199889698304300,6.26030419921875,0.2834452986717224,-0.5357343554496765,0.01592666283249855
1684199889708329200,6.2703291015625,0.18718212842941284,-0.7964941263198853,-0.09740076214075089
1684199889718355200,6.280355224609375,0.1116119995713234,-0.8668668270111084,-0.256046324968338
1684199889728380200,6.290380126953125,0.05193721875548363,-0.8604007959365845,-0.5795552730560303
1684199889738406100,6.30040625,0.02348320744931698,-0.4458821713924408,-1.1028259992599487
1684199889748431000,6.31043115234375,0.0038394713774323463,0.32207539677619934,-1.5664749145507812
1684199889758456300,6.320456298828125,-0.014736875891685486,0.8585883975028992,-1.7614459991455078
1684199889768482300,6.330482421875,0.006788384635001421,1.1097205877304077,-1.7527072429656982
1684199889778507300,6.34050732421875,0.0654628798365593,1.2146821022033691,-1.6982640027999878
1684199889788532200,6.3505322265625,0.1366739571094513,1.3023256063461304,-1.727064609527588
1684199889798558200,6.36055810546875,0.22264771163463593,1.4653033018112183,-1.8421465158462524
1684199889808583200,6.370583251953125,0.3083154857158661,1.7333792448043823,-1.9407768249511719
1684199889818608400,6.3806083984375,0.425627738237381,2.0626883506774902,-1.9230537414550781
1684199889828634400,6.39063427734375,0.5183160901069641,2.407785654067993,-1.7782377004623413
1684199889838659300,6.400659423828125,0.5593141317367554,2.61600923538208,-1.565528392791748
1684199889848684300,6.410684326171875,0.6435781121253967,2.6185126304626465,-1.2734214067459106
1684199889858710300,6.420710205078125,0.8261740207672119,2.3974385261535645,-0.9773743152618408
1684199889868735200,6.4307353515625,0.9824062585830688,2.1887264251708984,-0.6932820081710815
1684199889878761200,6.44076123046875,1.1131395101547241,2.1016011238098145,-0.4452018737792969
1684199889888786400,6.450786376953125,1.1845476627349854,2.0800180435180664,-0.26624539494514465
1684199889898811400,6.460811279296875,1.1912721395492554,2.079481601715088,-0.14444920420646667
1684199889908837400,6.47083740234375,1.2415987253189087,2.1186869144439697,-0.015723366290330887
1684199889918863000,6.480863037109375,1.3262311220169067,2.2018163204193115,0.12375517189502716
1684199889928888000,6.49088818359375,1.3727599382400513,2.2646048069000244,0.2820194363594055
1684199889938914000,6.5009140625,1.3857985734939575,2.2040834426879883,0.44251805543899536
1684199889948939000,6.51093896484375,1.3642860651016235,2.097337245941162,0.5972360968589783
1684199889958964200,6.520964111328125,1.3228962421417236,2.053842067718506,0.7651036381721497
1684199889968990200,6.530990234375,1.2693960666656494,2.0679702758789062,0.9363487362861633
1684199889979015200,6.54101513671875,1.204815149307251,2.0655980110168457,1.0877842903137207
1684199889989040000,6.5510400390625,1.1375967264175415,2.0940499305725098,1.2307966947555542
1684199889999066000,6.561066162109375,1.079376220703125,2.13523006439209,1.3796982765197754
1684199890009091000,6.571091064453125,1.0419738292694092,2.1182472705841064,1.4630247354507446
1684199890019116300,6.5811162109375,1.0137962102890015,2.0731334686279297,1.4697563648223877
1684199890029142000,6.59114208984375,0.9727759957313538,1.9948328733444214,1.4404643774032593
1684199890039167200,6.601167236328125,0.9089118242263794,1.8572115898132324,1.3987356424331665
1684199890049193200,6.611193115234375,0.8553894758224487,1.6942124366760254,1.4029371738433838
1684199890059218200,6.62121826171875,0.7901263236999512,1.5507152080535889,1.4506328105926514
1684199890069243100,6.6312431640625,0.7091126441955566,1.4333364963531494,1.541110873222351
1684199890079269000,6.64126904296875,0.6275986433029175,1.311490774154663,1.6506764888763428
1684199890089294000,6.651294189453125,0.5646510720252991,1.1629782915115356,1.7576005458831787
1684199890099319300,6.6613193359375,0.5276893377304077,1.0545780658721924,1.8460865020751953
1684199890109345300,6.67134521484375,0.5214990973472595,0.9620687961578369,1.897006869316101
1684199890119370200,6.681370361328125,0.5447993874549866,0.9808653593063354,1.9699393510818481
1684199890129395200,6.691395263671875,0.5531212687492371,1.1218327283859253,2.064967632293701
1684199890139421200,6.701421142578125,0.5314995646476746,1.2499561309814453,2.103699207305908
1684199890149446100,6.711446044921875,0.4883717894554138,1.381470799446106,2.125896453857422
1684199890159471000,6.72147119140625,0.4322475492954254,1.496601939201355,2.1652228832244873
1684199890169497300,6.731497314453125,0.3781640827655792,1.5438880920410156,2.1958863735198975
1684199890179522000,6.74152197265625,0.34721839427948,1.5881195068359375,2.223341464996338
1684199890189547000,6.751547119140625,0.35658714175224304,1.6482239961624146,2.234471559524536
1684199890199573000,6.761572998046875,0.35622522234916687,1.6606286764144897,2.210005044937134
1684199890209598000,6.771597900390625,0.361630380153656,1.699278473854065,2.1858015060424805
1684199890219624000,6.7816240234375,0.3669225871562958,1.7695447206497192,2.155568838119507
1684199890229649200,6.791649169921875,0.367798775434494,1.8644957542419434,2.1301188468933105
1684199890239674000,6.801674072265625,0.37051519751548767,2.00299072265625,2.1108577251434326
1684199890249700000,6.8117001953125,0.3860398232936859,2.1789214611053467,2.0840225219726562
1684199890259725000,6.82172509765625,0.4082980155944824,2.3453714847564697,2.054795503616333
1684199890269750000,6.83175,0.4281010031700134,2.49094820022583,2.026002883911133
1684199890279776000,6.84177587890625,0.4459737539291382,2.62846302986145,2.0027430057525635
1684199890289801200,6.85180126953125,0.4443154036998749,2.744340181350708,1.9633527994155884
1684199890299826200,6.861826171875,0.43791982531547546,2.8552346229553223,1.894245982170105
1684199890309852200,6.87185205078125,0.4410458207130432,2.9535601139068604,1.7927987575531006
1684199890319877000,6.881877197265625,0.43415117263793945,3.0557749271392822,1.7080292701721191
1684199890329902000,6.891902099609375,0.41728830337524414,3.1451475620269775,1.6560800075531006
1684199890339928000,6.901927978515625,0.3939400911331177,3.198542594909668,1.6596238613128662
1684199890349953300,6.911953369140625,0.37693023681640625,3.1484594345092773,1.7182375192642212
1684199890359979300,6.921979248046875,0.3657050132751465,3.0343077182769775,1.7958177328109741
1684199890370004200,6.932004150390625,0.34576326608657837,2.908979654312134,1.8744841814041138
1684199890380029200,6.942029296875,0.30475351214408875,2.802666187286377,1.912737250328064
1684199890390055200,6.95205517578125,0.24562600255012512,2.7586090564727783,1.8952451944351196
1684199890400080100,6.962080078125,0.1885419487953186,2.7681310176849365,1.8659735918045044
1684199890410105300,6.972105224609375,0.1355692744255066,2.7716445922851562,1.8587117195129395
1684199890420131300,6.98213134765625,0.07641887664794922,2.7116849422454834,1.885649561882019
1684199890430156300,6.99215625,0.007034460548311472,2.6086537837982178,1.9417943954467773
1684199890440181200,7.00218115234375,-0.07219059020280838,2.5560643672943115,1.9681748151779175
1684199890450207200,7.012207275390625,-0.1442863494157791,2.5679972171783447,1.9305888414382935
1684199890460232200,7.022232177734375,-0.20287002623081207,2.59237003326416,1.8780829906463623
1684199890470257200,7.032257080078125,-0.25405386090278625,2.631648063659668,1.819667100906372
1684199890480283100,7.042283203125,-0.30247411131858826,2.6293015480041504,1.757336139678955
1684199890490308000,7.05230810546875,-0.33759960532188416,2.54990553855896,1.7300909757614136
1684199890500334300,7.062334228515625,-0.35849717259407043,2.4121899604797363,1.7198580503463745
1684199890510359000,7.072359130859375,-0.3870808780193329,2.2571256160736084,1.7236284017562866
1684199890520384000,7.082384033203125,-0.4342326819896698,2.0443994998931885,1.7098222970962524
1684199890530410000,7.092409912109375,-0.4656800925731659,1.7234489917755127,1.669560194015503
1684199890540435200,7.102435302734375,-0.43247872591018677,1.412683129310608,1.6346006393432617
1684199890550460200,7.112460205078125,-0.43402281403541565,1.1667560338974,1.5435456037521362
1684199890560486100,7.122486083984375,-0.4327319860458374,0.9784196615219116,1.2385145425796509
1684199890570511000,7.132510986328125,-0.3352208733558655,1.0105513334274292,0.7386277318000793
1684199890580536000,7.1425361328125,-0.21065925061702728,1.3164292573928833,0.35917067527770996
1684199890590562000,7.15256201171875,-0.13871659338474274,1.7269916534423828,0.27786529064178467
1684199890600587000,7.1625869140625,-0.17118719220161438,2.074165105819702,0.397201269865036
1684199890610612200,7.1726123046875,-0.26186758279800415,2.2361228466033936,0.620934247970581
1684199890620638200,7.18263818359375,-0.3283299505710602,2.2485575675964355,1.0062297582626343
1684199890630663200,7.1926630859375,-0.32929933071136475,2.2808399200439453,1.497240662574768
1684199890640688000,7.202688232421875,-0.29434722661972046,2.500237464904785,1.9467742443084717
1684199890650714000,7.212714111328125,-0.2325482964515686,2.81148362159729,2.2946364879608154
1684199890660739000,7.222739013671875,-0.1682223081588745,3.025294542312622,2.5109963417053223
1684199890670765000,7.23276513671875,-0.09605943411588669,3.0915310382843018,2.543653964996338
1684199890680790300,7.242790283203125,-0.05672481283545494,3.053845167160034,2.4185211658477783
1684199890690815200,7.252815185546875,-0.07781518250703812,3.0214383602142334,2.17793345451355
1684199890700841200,7.26284130859375,-0.049467962235212326,3.1212620735168457,1.8865857124328613
1684199890710866200,7.2728662109375,0.00683765672147274,3.223238229751587,1.5981271266937256
1684199890720891100,7.28289111328125,0.04759494215250015,3.206946849822998,1.3875958919525146
1684199890730917000,7.292917236328125,0.0795922800898552,3.1365931034088135,1.2650799751281738
1684199890740942300,7.3029423828125,0.10749794542789459,3.068573474884033,1.2347041368484497
1684199890750967300,7.31296728515625,0.1444048434495926,2.993617296218872,1.2373759746551514
1684199890760993300,7.3229931640625,0.16675302386283875,2.9475908279418945,1.2620166540145874
1684199890771018200,7.333018310546875,0.16989129781723022,2.948976993560791,1.3116369247436523
1684199890781043000,7.34304296875,0.14700941741466522,2.9326791763305664,1.3756846189498901
1684199890791069000,7.35306884765625,0.11021383851766586,2.9015414714813232,1.4428744316101074
1684199890801094100,7.36309423828125,0.05683397501707077,2.880535125732422,1.4914637804031372
1684199890811120000,7.3731201171875,0.005653346888720989,2.9481871128082275,1.523486852645874
1684199890821145000,7.38314501953125,-0.06427113711833954,3.0550947189331055,1.5413380861282349
1684199890831170000,7.393170166015625,-0.13110768795013428,3.0610804557800293,1.5228341817855835
1684199890841196000,7.403196044921875,-0.17427566647529602,2.957181215286255,1.4699797630310059
1684199890851221000,7.413220947265625,-0.18419568240642548,2.920426845550537,1.4491221904754639
1684199890861246200,7.42324609375,-0.18199297785758972,3.0718188285827637,1.4734411239624023
1684199890871272200,7.433272216796875,-0.18400952219963074,3.272397756576538,1.5141301155090332
1684199890881297200,7.443297119140625,-0.19313964247703552,3.328969955444336,1.5256952047348022
1684199890891322000,7.453322021484375,-0.1923113912343979,3.1595053672790527,1.4781843423843384
1684199890901348000,7.46334814453125,-0.16023974120616913,2.8643929958343506,1.3795411586761475
1684199890911373000,7.473373046875,-0.08721213787794113,2.5473625659942627,1.2566841840744019
1684199890921397200,7.483397216796875,-0.01957211270928383,2.2420408725738525,1.1172375679016113
1684199890931423200,7.49342333984375,0.0322125181555748,2.008293390274048,0.9961022138595581
1684199890941448200,7.5034482421875,0.04796751216053963,1.849307656288147,0.9020798802375793
1684199890951474200,7.51347412109375,0.037562817335128784,1.740169644355774,0.8261681795120239
1684199890961499100,7.5234990234375,0.012068111449480057,1.6498568058013916,0.7617167234420776
1684199890971524400,7.5335244140625,-0.018813911825418472,1.547027587890625,0.690061092376709
1684199890981550300,7.54355029296875,-0.06056429073214531,1.4628678560256958,0.6017270088195801
1684199890991575300,7.5535751953125,-0.08486776798963547,1.4055771827697754,0.50285404920578
1684199891001600300,7.563600341796875,-0.09520136564970016,1.3408421277999878,0.40828999876976013
1684199891011626200,7.573626220703125,-0.09973593056201935,1.23032808303833,0.3330584466457367
1684199891021651200,7.583651123046875,-0.10523908585309982,1.0852888822555542,0.2954982817173004
1684199891031676400,7.593676513671875,-0.12726688385009766,0.9058821797370911,0.2667871117591858
1684199891041702100,7.6037021484375,-0.1289747655391693,0.698036789894104,0.21566693484783173
1684199891051727400,7.613727294921875,-0.09812390804290771,0.5008046627044678,0.12978026270866394
1684199891061752300,7.62375244140625,-0.0420883446931839,0.38634178042411804,0.028163619339466095
1684199891071778300,7.6337783203125,-0.004216055851429701,0.3445703685283661,-0.08634034544229507
1684199891081803300,7.64380322265625,0.0421205498278141,0.34817469120025635,-0.21982276439666748
1684199891091828200,7.653828125,0.12168088555335999,0.3298662602901459,-0.3461359739303589
1684199891101854200,7.663854248046875,0.21616238355636597,0.23809120059013367,-0.4295233488082886
1684199891111879400,7.67387939453125,0.307871013879776,0.11175436526536942,-0.4625707268714905
1684199891121904400,7.683904296875,0.3958005905151367,-0.04287062957882881,-0.47004809975624084
1684199891131930400,7.693930419921875,0.4707674980163574,-0.25357556343078613,-0.5073301196098328
1684199891141955300,7.703955322265625,0.5462180376052856,-0.46618688106536865,-0.6303809285163879
1684199891151981300,7.713981201171875,0.6053359508514404,-0.5664452910423279,-0.8590145707130432
1684199891162006300,7.72400634765625,0.6667793393135071,-0.6590918898582458,-1.1864372491836548
1684199891172031200,7.73403125,0.7673763036727905,-0.8213132619857788,-1.5854471921920776
1684199891182057500,7.744057373046875,0.9182084202766418,-0.9870620369911194,-1.9802114963531494
1684199891192082200,7.754082275390625,1.0926553010940552,-1.1089301109313965,-2.2586119174957275
1684199891202107100,7.764107177734375,1.248457670211792,-1.260985255241394,-2.37650203704834
1684199891212133000,7.774133056640625,1.3587064743041992,-1.3904098272323608,-2.27687931060791
1684199891222158000,7.784157958984375,1.4670460224151611,-1.5717055797576904,-2.005557060241699
1684199891232183300,7.794183349609375,1.5460587739944458,-1.8191479444503784,-1.6736592054367065
1684199891242209300,7.804209228515625,1.5229161977767944,-1.8400486707687378,-1.3234468698501587
1684199891252234200,7.814234130859375,1.3413807153701782,-1.3740123510360718,-1.0073028802871704
1684199891262259200,7.82425927734375,1.10410475730896,-0.4701448380947113,-0.7819488048553467
1684199891272285200,7.83428515625,0.9374745488166809,0.4780096411705017,-0.5947319269180298
1684199891282310100,7.84431005859375,0.904747724533081,1.0645349025726318,-0.44173091650009155
1684199891292336000,7.854336181640625,0.9760850071907043,1.2271915674209595,-0.29340860247612
1684199891302361300,7.864361328125,1.0100376605987549,1.1950275897979736,-0.1263629049062729
1684199891312386300,7.87438623046875,1.0830568075180054,1.1366767883300781,0.013837194070219994
1684199891322412300,7.884412353515625,1.1379560232162476,1.1524248123168945,0.055960677564144135
1684199891332437200,7.894437255859375,1.0799739360809326,1.215759515762329,0.05111232399940491
1684199891342462200,7.904462158203125,0.9733935594558716,1.2629499435424805,0.03457223251461983
1684199891352488200,7.91448828125,0.8828122615814209,1.2427847385406494,0.03654729202389717
1684199891362513400,7.924513427734375,0.8470449447631836,1.105018973350525,0.07902923971414566
1684199891372538400,7.934538330078125,0.8473421931266785,0.9337332248687744,0.15969613194465637
1684199891382564400,7.944564453125,0.8574470281600952,0.7583459615707397,0.24681025743484497
1684199891392589300,7.95458935546875,0.8652719259262085,0.628548264503479,0.34974485635757446
1684199891402614300,7.9646142578125,0.8451474905014038,0.5342007279396057,0.4413434863090515
1684199891412640300,7.97464013671875,0.7888687252998352,0.4402061998844147,0.5101788640022278
1684199891422665500,7.98466552734375,0.7041323184967041,0.3373783528804779,0.55722975730896
1684199891432690400,7.9946904296875,0.591175377368927,0.2700652778148651,0.6297648549079895
1684199891442716400,8.00471630859375,0.4564029574394226,0.2965890169143677,0.7335130572319031
1684199891452741400,8.014741455078125,0.3313497006893158,0.37758710980415344,0.8500880599021912
1684199891462767400,8.024767333984375,0.29080066084861755,0.3079358637332916,0.948217511177063
1684199891472792300,8.034792236328125,0.26293522119522095,0.12829114496707916,0.9697083830833435
1684199891482817300,8.0448173828125,0.2496740072965622,-0.015177866443991661,0.9400879144668579
1684199891492843300,8.05484326171875,0.23118793964385986,-0.09213356673717499,0.9040007591247559
1684199891502868200,8.0648681640625,0.21668942272663116,-0.15279026329517365,0.8697062134742737
1684199891512893200,8.07489306640625,0.19362112879753113,-0.18767128884792328,0.853314995765686
1684199891522919200,8.084919189453124,0.15944531559944153,-0.1729876846075058,0.8531093597412109
1684199891532944100,8.094944091796876,0.09630122035741806,-0.10172182321548462,0.880837082862854
1684199891542969300,8.10496923828125,0.014330722391605377,0.04579492658376694,0.9307436347007751
1684199891552995300,8.114995361328125,-0.06990372389554977,0.24086272716522217,0.9515527486801147
1684199891563020300,8.125020263671875,-0.1361948698759079,0.3843570351600647,0.9119086861610413
1684199891573045200,8.135045166015624,-0.16697727143764496,0.42985719442367554,0.8458016514778137
1684199891583071200,8.1450712890625,-0.18960508704185486,0.3479772210121155,0.7849146127700806
1684199891593096200,8.15509619140625,-0.2060900628566742,0.18437007069587708,0.7527464628219604
1684199891603122200,8.1651220703125,-0.2202114760875702,-0.0002639497397467494,0.7212747931480408
1684199891613147100,8.175147216796875,-0.22741718590259552,-0.15904685854911804,0.688447117805481
1684199891623172400,8.18517236328125,-0.24928012490272522,-0.2376231551170349,0.6598995923995972
1684199891633198300,8.1951982421875,-0.292070209980011,-0.2325376719236374,0.625926673412323
1684199891643223300,8.205223388671875,-0.3533562123775482,-0.1981607973575592,0.6063942909240723
1684199891653248300,8.215248291015625,-0.4269199073314667,-0.15383677184581757,0.6073542833328247
1684199891663274200,8.225274169921875,-0.5016759634017944,-0.09662728756666183,0.6002659797668457
1684199891673299200,8.23529931640625,-0.5755671858787537,-0.06935004144906998,0.5881546139717102
1684199891683324400,8.245324462890625,-0.631806492805481,-0.08727657794952393,0.5629368424415588
1684199891693350400,8.255350341796875,-0.6645865440368652,-0.13245078921318054,0.5163988471031189
1684199891703375400,8.265375244140625,-0.6824148297309875,-0.21964800357818604,0.45366644859313965
1684199891713400300,8.275400390625,-0.6974374651908875,-0.355202317237854,0.40819868445396423
1684199891723426300,8.28542626953125,-0.7223864793777466,-0.5093237161636353,0.38780471682548523
1684199891733451300,8.295451171875,-0.7451983094215393,-0.6516569256782532,0.3948950469493866
1684199891743476500,8.3054765625,-0.7630159258842468,-0.7139996290206909,0.4331444203853607
1684199891753502500,8.31550244140625,-0.7646609544754028,-0.7172369360923767,0.47926589846611023
1684199891763527400,8.32552734375,-0.7534719705581665,-0.6772525310516357,0.49694207310676575
1684199891773553400,8.335553466796876,-0.7307477593421936,-0.6081629395484924,0.46675458550453186
1684199891783578000,8.345578125,-0.6543496251106262,-0.49608170986175537,0.3540799617767334
1684199891793603000,8.35560302734375,-0.5189036726951599,-0.28503307700157166,0.12800374627113342
1684199891803629000,8.365629150390625,-0.33686643838882446,-0.0070448643527925014,-0.1108274757862091
1684199891813654300,8.375654296875,-0.15804636478424072,0.08090057224035263,-0.1476745754480362
1684199891823679200,8.38567919921875,-0.04244893044233322,-0.0599881075322628,0.11667584627866745
1684199891833705200,8.395705322265625,0.007646721322089434,-0.1927853524684906,0.45672422647476196
1684199891843730200,8.405730224609375,0.011675285175442696,-0.20171573758125305,0.6551305055618286
1684199891853755100,8.415755126953124,-0.05062031373381615,-0.08751553297042847,0.6304551362991333
1684199891863781000,8.425781005859376,-0.12400185316801071,0.05345197394490242,0.404468297958374
1684199891873806300,8.435806396484375,-0.14379765093326569,0.11419741809368134,0.13266347348690033
1684199891883831300,8.445831298828125,-0.1500430405139923,0.08298570662736893,0.0008865413255989552
1684199891893857300,8.455857177734375,-0.23282447457313538,-0.046624813228845596,0.0030601737089455128
1684199891903882200,8.46588232421875,-0.3410782217979431,-0.2228483259677887,0.04428564012050629
1684199891913907000,8.475906982421876,-0.3910498023033142,-0.36965858936309814,0.10244551301002502
1684199891923933000,8.485932861328125,-0.3645484149456024,-0.5024187564849854,0.13876891136169434
1684199891933958100,8.495958251953125,-0.2941032648086548,-0.618477463722229,0.13228467106819153
1684199891943984000,8.505984130859375,-0.21782900393009186,-0.6628214716911316,0.0735369399189949
1684199891954009000,8.516009033203124,-0.16939009726047516,-0.6525869369506836,-0.0006789653562009335
1684199891964034000,8.526033935546875,-0.13776586949825287,-0.6340950131416321,-0.053476665169000626
1684199891974060000,8.53606005859375,-0.08411169797182083,-0.6362438797950745,-0.07030218839645386
1684199891984085000,8.5460849609375,-0.035616062581539154,-0.6657807230949402,-0.08228002488613129
1684199891994110200,8.556110107421874,-0.025150099769234657,-0.6912155151367188,-0.12637591361999512
1684199892004136200,8.56613623046875,-0.05191779509186745,-0.6868053674697876,-0.22005392611026764
1684199892014161200,8.5761611328125,-0.09369641542434692,-0.6760740280151367,-0.31871089339256287
1684199892024186000,8.58618603515625,-0.14906032383441925,-0.6435341835021973,-0.3842281103134155
1684199892034212000,8.596212158203125,-0.17867495119571686,-0.45365357398986816,-0.3511008322238922
1684199892044237000,8.606237060546874,-0.18903836607933044,-0.011141924187541008,-0.13780294358730316
1684199892054262300,8.61626220703125,-0.23344072699546814,0.6824607253074646,0.24214774370193481
1684199892064288300,8.626288330078125,-0.27406325936317444,1.4127154350280762,0.6864168047904968
1684199892074313200,8.636313232421875,-0.2873404324054718,1.4320068359375,0.8728631734848022
1684199892084338000,8.646337890625,-0.2446022927761078,0.9848331212997437,0.7243823409080505
1684199892094364200,8.6563642578125,-0.19756928086280823,0.5915887355804443,0.44320565462112427
1684199892104388900,8.666388916015626,-0.15108619630336761,0.3721482753753662,0.1943953037261963
1684199892114415000,8.6764150390625,-0.0743328258395195,0.2323562502861023,0.02390686422586441
1684199892124440000,8.686440185546875,-0.01228942908346653,0.09022760391235352,-0.057838063687086105
1684199892134465000,8.696465087890624,0.011799393221735954,-0.013808867894113064,-0.057504720985889435
1684199892144491000,8.706490966796874,-0.022130077704787254,-0.10151128470897675,-0.015179366804659367
1684199892154516000,8.716515869140625,-0.08418386429548264,-0.13331125676631927,0.021380016580224037
1684199892164541000,8.726541015625,-0.14725497364997864,-0.07811591774225235,0.05324473977088928
1684199892174567000,8.73656689453125,-0.17820437252521515,0.015392571687698364,0.08815169334411621
1684199892184592100,8.746592041015624,-0.21053673326969147,0.03523099049925804,0.14065538346767426
1684199892194617000,8.7566171875,-0.2371976375579834,0.02712090313434601,0.20782938599586487
1684199892204643000,8.76664306640625,-0.24078331887722015,0.04751485586166382,0.27319616079330444
1684199892214668000,8.77666796875,-0.22337424755096436,0.012946046888828278,0.31314048171043396
1684199892224693000,8.78669287109375,-0.21248723566532135,-0.10356618463993073,0.2848885953426361
1684199892234719000,8.796718994140624,-0.1634294092655182,-0.2249739170074463,0.23750422894954681
1684199892244744000,8.806743896484376,-0.08502862602472305,-0.39916276931762695,0.19765907526016235
1684199892254770000,8.81677001953125,-0.03298672288656235,-0.6373993754386902,0.1652725487947464
1684199892264795100,8.826795166015625,-0.023781510069966316,-0.8702693581581116,0.09652012586593628
1684199892274820000,8.836820068359375,-0.03284265100955963,-0.9983072280883789,0.011037487536668777
1684199892284846000,8.84684619140625,-0.04746580123901367,-1.0293782949447632,-0.07245314866304398
1684199892294871000,8.85687109375,-0.041802845895290375,-0.9080586433410645,-0.11649908125400543
1684199892304896000,8.86689599609375,-0.027292076498270035,-0.6903236508369446,-0.09802234172821045
1684199892314922000,8.876921875,-0.028629262000322342,-0.4910214841365814,-0.015278106555342674
1684199892324947200,8.886947265625,-0.058970123529434204,-0.33487290143966675,0.10214812308549881
1684199892334972200,8.89697216796875,-0.11012757569551468,-0.20271556079387665,0.209104984998703
1684199892344998100,8.906998046875,-0.15854758024215698,-0.07906577736139297,0.2708253562450409
1684199892355023000,8.917023193359375,-0.21398046612739563,0.024143042042851448,0.28307896852493286
1684199892365048000,8.927048095703125,-0.27269598841667175,0.07606349885463715,0.24214883148670197
1684199892375074000,8.937073974609374,-0.31235843896865845,0.04802480340003967,0.17643946409225464
1684199892385099300,8.947099365234376,-0.3019185960292816,-0.10237482190132141,0.08962628245353699
1684199892395124000,8.9571240234375,-0.2591143846511841,-0.3275017738342285,-0.006413797847926617
1684199892405150200,8.967150146484375,-0.2225435972213745,-0.5359668135643005,-0.10845974087715149
1684199892415175000,8.9771748046875,-0.1771492213010788,-0.6260262131690979,-0.18219208717346191
1684199892425201200,8.987201171875,-0.14103515446186066,-0.6179448962211609,-0.19987866282463074
1684199892435225900,8.997225830078126,-0.12839525938034058,-0.5695931315422058,-0.17588849365711212
1684199892445251000,9.0072509765625,-0.1456613391637802,-0.514289915561676,-0.11547308415174484
1684199892455277000,9.017277099609375,-0.16898369789123535,-0.46765899658203125,-0.03481276333332062
1684199892465302000,9.027302001953124,-0.19515272974967957,-0.3801453709602356,0.05049387738108635
1684199892475327000,9.037326904296876,-0.2223164290189743,-0.25007474422454834,0.11127624660730362
1684199892485353000,9.04735302734375,-0.2504681646823883,-0.13828721642494202,0.11816797405481339
1684199892495378000,9.0573779296875,-0.26359063386917114,-0.05617218092083931,0.09282205998897552
1684199892505403100,9.067403076171875,-0.2579314112663269,-0.025467000901699066,0.06668978929519653
1684199892515429000,9.07742919921875,-0.23599469661712646,-0.08098010718822479,0.04706810787320137
1684199892525454000,9.0874541015625,-0.19343657791614532,-0.18855983018875122,0.0158982053399086
1684199892535479000,9.09747900390625,-0.15043452382087708,-0.3012310862541199,-0.030854996293783188
1684199892545505000,9.107505126953125,-0.10288058966398239,-0.4120470881462097,-0.1022932305932045
1684199892555530000,9.117530029296875,-0.05948304012417793,-0.48251503705978394,-0.19147604703903198
1684199892565555200,9.12755517578125,-0.00019628345035016537,-0.4811842441558838,-0.28874292969703674
1684199892575581200,9.137581298828126,0.09601280093193054,-0.380525678396225,-0.37812700867652893
1684199892585606100,9.147606201171875,0.2079491913318634,-0.238838329911232,-0.45542019605636597
1684199892595632000,9.157632080078125,0.3288644254207611,-0.10992134362459183,-0.5148899555206299
1684199892605657000,9.167656982421875,0.46773603558540344,0.017107175663113594,-0.543655514717102
1684199892615682000,9.17768212890625,0.5742059946060181,0.14649032056331635,-0.51791912317276
1684199892625708000,9.1877080078125,0.6147710084915161,0.2552013695240021,-0.39852216839790344
1684199892635733200,9.197733154296875,0.5942354202270508,0.34856873750686646,-0.20142494142055511
1684199892645758200,9.20775830078125,0.5394744277000427,0.3696282207965851,0.05244222655892372
1684199892655784200,9.2177841796875,0.4631229043006897,0.2832554280757904,0.31702905893325806
1684199892665809200,9.22780908203125,0.36547064781188965,0.012484387494623661,0.5179041624069214
1684199892675834000,9.237834228515625,0.2577332556247711,-0.5500169992446899,0.5588356256484985
1684199892685860000,9.247860107421875,0.2049877643585205,-1.2559019327163696,0.14257794618606567
1684199892695885000,9.257885009765625,0.2983459234237671,-1.4341899156570435,-0.8329760432243347
1684199892705910000,9.267909912109374,0.49674612283706665,-1.0645599365234375,-1.7935559749603271
1684199892715936300,9.277936279296876,0.6420961022377014,-0.6792342662811279,-2.319462537765503
1684199892725961000,9.2879609375,0.7076476812362671,-0.43795210123062134,-2.474527359008789
1684199892735987000,9.297987060546875,0.7984846234321594,-0.15792888402938843,-2.531170129776001
1684199892746012000,9.308011962890625,0.9113438129425049,0.13633470237255096,-2.670149326324463
1684199892756037000,9.318037109375,0.9708729386329651,0.4641464948654175,-2.8924455642700195
1684199892766062800,9.328062744140626,0.9808385372161865,0.8566466569900513,-3.0995068550109863
1684199892776088000,9.338088134765625,0.9589496850967407,1.0922541618347168,-3.1742944717407227
1684199892786113000,9.348113037109375,0.9227194786071777,1.3084368705749512,-2.983506202697754
1684199892796139000,9.358138916015625,0.9136142134666443,1.319559097290039,-2.621525764465332
1684199892806164000,9.3681640625,0.9048137664794922,0.8885723352432251,-2.2330923080444336
1684199892816189000,9.37818896484375,0.8550108075141907,0.09174048155546188,-1.852213978767395
1684199892826215000,9.38821484375,0.8134117126464844,-0.6796987056732178,-1.4167709350585938
1684199892836240100,9.398240234375,0.9230968356132507,-1.3190913200378418,-1.021840214729309
1684199892846265000,9.40826513671875,1.2432496547698975,-1.723372459411621,-0.7387120127677917
1684199892856291000,9.418291015625,1.6216387748718262,-1.6931648254394531,-0.571428120136261
1684199892866316000,9.42831591796875,1.8757543563842773,-1.1663228273391724,-0.4871504604816437
1684199892876341000,9.438341064453125,1.9379335641860962,-0.38359251618385315,-0.4937549829483032
1684199892886367000,9.448366943359375,1.813069462776184,0.3577316701412201,-0.47681543231010437
1684199892896392200,9.45839208984375,1.5764873027801514,0.8312786817550659,-0.2709783613681793
1684199892906418200,9.468418212890626,1.2979177236557007,1.0548216104507446,0.1416022777557373
1684199892916443400,9.478443359375,0.9840922951698303,1.1307240724563599,0.5816753506660461
1684199892926468400,9.48846826171875,0.6974554657936096,1.3410738706588745,0.8680613040924072
1684199892936494300,9.498494384765625,0.4917755722999573,1.6730023622512817,0.9096347093582153
1684199892946519300,9.508519287109374,0.42408761382102966,1.9543728828430176,0.7381963729858398
1684199892956544500,9.51854443359375,0.46754828095436096,1.9638139009475708,0.5188100934028625
1684199892966570500,9.528570556640625,0.5603641867637634,1.7051645517349243,0.42970359325408936
1684199892976595500,9.538595458984375,0.6357631087303162,1.391829252243042,0.47440940141677856
1684199892986620400,9.548620361328124,0.7086365222930908,1.1242703199386597,0.5324942469596863
1684199892996646400,9.558646484375,0.760035514831543,0.8752849698066711,0.5322019457817078
1684199893006671400,9.56867138671875,0.7434999346733093,0.6717163920402527,0.4388280510902405
1684199893016696600,9.578696533203125,0.7072650194168091,0.5761274695396423,0.32304003834724426
1684199893026722300,9.588722412109375,0.6745997667312622,0.5263916254043579,0.28221961855888367
1684199893036747500,9.59874755859375,0.6355119347572327,0.4631545841693878,0.3231993317604065
1684199893046772500,9.6087724609375,0.5843467712402344,0.42660218477249146,0.3609373867511749
1684199893056798500,9.618798583984375,0.5184934735298157,0.4746887683868408,0.35564810037612915
1684199893066823400,9.628823486328125,0.44548824429512024,0.5013954639434814,0.3235870897769928
1684199893076849400,9.638849365234375,0.3751712143421173,0.5027187466621399,0.3170420229434967
1684199893086874400,9.648874267578124,0.3106372356414795,0.4833218455314636,0.3139932453632355
1684199893096899600,9.658899658203126,0.2748320996761322,0.49134358763694763,0.2908986210823059
1684199893106925600,9.668925537109375,0.2318742424249649,0.45903173089027405,0.25981125235557556
1684199893116950500,9.678950439453125,0.1942184716463089,0.3606146275997162,0.25023239850997925
1684199893126975500,9.6889755859375,0.15141721069812775,0.22713938355445862,0.29362329840660095
1684199893137001500,9.69900146484375,0.09379918873310089,0.13276220858097076,0.3523259460926056
1684199893147026400,9.7090263671875,0.03241012617945671,0.1207369714975357,0.40051746368408203
1684199893157051400,9.719051513671875,-0.031218115240335464,0.15617682039737701,0.4277441203594208
1684199893167077600,9.72907763671875,-0.09250623732805252,0.20167826116085052,0.4559195637702942
1684199893177102300,9.739102294921874,-0.15498879551887512,0.19021135568618774,0.4998836815357208
1684199893187127300,9.749127197265626,-0.217461496591568,0.13133898377418518,0.5735967755317688
1684199893197153300,9.7591533203125,-0.2966575026512146,0.03683570399880409,0.6593993306159973
1684199893207178200,9.76917822265625,-0.38983404636383057,-0.08931796997785568,0.7380608916282654
1684199893217204200,9.779204345703125,-0.49682310223579407,-0.21518903970718384,0.7813205718994141
1684199893227229400,9.7892294921875,-0.5894326567649841,-0.3262002468109131,0.7808124423027039
1684199893237254400,9.79925439453125,-0.6548604369163513,-0.45907098054885864,0.7416996359825134
1684199893247280400,9.8092802734375,-0.6976805925369263,-0.5901200771331787,0.712148904800415
1684199893257305300,9.819305419921875,-0.7228442430496216,-0.7063192129135132,0.6978609561920166
1684199893267330300,9.829330322265625,-0.7574365735054016,-0.797042727470398,0.7009866833686829
1684199893277356300,9.839356201171874,-0.804476261138916,-0.8161199688911438,0.6976918578147888
1684199893287381500,9.849381591796876,-0.856474757194519,-0.7752100825309753,0.670404314994812
1684199893297406500,9.859406494140625,-0.9013761281967163,-0.7039151191711426,0.6440531611442566
1684199893307432400,9.869432373046875,-0.957199215888977,-0.632691502571106,0.6407492160797119
1684199893317457400,9.87945751953125,-1.0219582319259644,-0.6025137305259705,0.6593420505523682
1684199893327482400,9.889482421875,-1.0740309953689575,-0.6813994646072388,0.7079223990440369
1684199893337508400,9.89950830078125,-1.115451455116272,-0.8501366972923279,0.7751164436340332
1684199893347533600,9.909533447265625,-1.1468428373336792,-1.0438090562820435,0.8172731995582581
1684199893357558500,9.91955859375,-1.1732031106948853,-1.2103569507598877,0.8430734276771545
1684199893367584500,9.92958447265625,-1.2094208002090454,-1.3859792947769165,0.85619056224823
1684199893377609500,9.939609375,-1.261691927909851,-1.5274674892425537,0.8902757167816162
1684199893387635500,9.949635498046876,-1.309571385383606,-1.6044507026672363,0.9450684189796448
1684199893397660400,9.959660400390625,-1.3307509422302246,-1.5965301990509033,1.0084216594696045
1684199893407685600,9.969685546875,-1.3194650411605835,-1.5183932781219482,1.035060167312622
1684199893417711600,9.979711669921874,-1.3173089027404785,-1.475127935409546,0.9727822542190552
1684199893427736600,9.989736572265626,-1.2305729389190674,-1.526969075202942,0.6818550825119019
1684199893437761500,9.999761474609375,-0.8521098494529724,-1.3784284591674805,0.08620883524417877
1684199893447787500,10.00978759765625,-0.19403472542762756,-0.7525126934051514,-0.4380522668361664
1684199893457812500,10.0198125,0.19132494926452637,-0.12716254591941833,-0.4889782667160034
1684199893467837400,10.02983740234375,0.25273236632347107,0.08462375402450562,-0.27241188287734985
1684199893477863400,10.039863525390626,0.14013472199440002,-0.20296087861061096,-0.06955195963382721
1684199893487888400,10.049888427734375,-0.032449301332235336,-0.657737672328949,-0.0682201087474823
1684199893497913300,10.059913330078125,-0.16021977365016937,-0.9920560717582703,-0.39792749285697937
1684199893507939300,10.069939208984374,-0.29683542251586914,-1.0232794284820557,-0.889948844909668
1684199893517964300,10.07996435546875,-0.44389650225639343,-0.6292509436607361,-0.9688923954963684
1684199893527989500,10.089989501953125,-0.581742525100708,0.1196882501244545,-0.4955917298793793
1684199893538015500,10.100015380859375,-0.6726881861686707,0.9225082993507385,0.13543283939361572
1684199893548040400,10.11004052734375,-0.6899912357330322,1.5113427639007568,0.6108275651931763
1684199893558066400,10.12006640625,-0.6374478340148926,1.8079557418823242,0.8770120739936829
1684199893568091400,10.13009130859375,-0.5984330177307129,1.751503348350525,0.957923173904419
1684199893578116400,10.140116455078125,-0.6153078675270081,1.532364845275879,0.9099497199058533
1684199893588142300,10.150142333984375,-0.6606740355491638,1.3750211000442505,0.8209801912307739
1684199893598167300,10.160167236328125,-0.6294597387313843,1.4371435642242432,0.7710683345794678
1684199893608192500,10.170192626953124,-0.5226682424545288,1.4343539476394653,0.719794511795044
1684199893618218500,10.180218505859376,-0.34736090898513794,0.9319068789482117,0.6476892232894897
1684199893628243500,10.190243408203125,-0.15825329720973969,0.27434149384498596,0.6709445118904114
1684199893638268400,10.200268310546875,-0.10717093199491501,0.14861378073692322,0.6931715607643127
1684199893648294400,10.21029443359375,-0.1060209795832634,0.4453623592853546,0.5944849252700806
1684199893658319400,10.2203193359375,-0.06657317280769348,0.7255204916000366,0.4264272451400757
1684199893668344600,10.230344482421875,0.007836073637008667,0.6788893938064575,0.2079990804195404
1684199893678370600,10.24037060546875,0.09281837195158005,0.5465648174285889,0.03377392888069153
1684199893688395500,10.2503955078125,0.13921542465686798,0.36093640327453613,-0.0732840821146965
1684199893698420500,10.26042041015625,0.18796776235103607,0.20557117462158203,-0.14469526708126068
1684199893708446500,10.270446533203126,0.22818975150585175,0.06708439439535141,-0.17230398952960968
1684199893718471400,10.280471435546875,0.24616235494613647,-0.12493374943733215,-0.149651899933815
1684199893728497400,10.290497314453125,0.25809013843536377,-0.3858811855316162,-0.07357337325811386
1684199893738522600,10.300522705078125,0.25078532099723816,-0.7129475474357605,0.018102426081895828
1684199893748547600,10.310547607421874,0.24184031784534454,-0.9754571914672852,0.0716380849480629
1684199893758573600,10.320573486328126,0.2405758500099182,-1.0523301362991333,0.08392299711704254
1684199893768598500,10.3305986328125,0.21934033930301666,-1.0050007104873657,0.08150032162666321
1684199893778623200,10.340623291015625,0.1633332520723343,-0.8898429274559021,0.08082204312086105
1684199893788649500,10.3506494140625,0.12395468354225159,-0.745867908000946,0.10513776540756226
1684199893798674400,10.36067431640625,0.09099914133548737,-0.5461185574531555,0.15469466149806976
1684199893808699400,10.370699462890625,0.047173891216516495,-0.27932146191596985,0.23340998589992523
1684199893818725400,10.380725341796875,-0.007020900957286358,-0.045941200107336044,0.3187893331050873
1684199893828750300,10.390750244140625,-0.062353137880563736,0.12313543260097504,0.3907460868358612
1684199893838775300,10.400775390625,-0.12273366004228592,0.2472832202911377,0.4520888030529022
1684199893848801300,10.41080126953125,-0.18388569355010986,0.3006279468536377,0.4989130198955536
1684199893858826500,10.420826416015625,-0.2150404155254364,0.32682305574417114,0.5107936859130859
1684199893868851500,10.4308515625,-0.23908503353595734,0.347978413105011,0.5206828117370605
1684199893878877400,10.44087744140625,-0.273914635181427,0.3855714201927185,0.5433458685874939
1684199893888902400,10.45090234375,-0.31023189425468445,0.4517086148262024,0.6029034852981567
1684199893898928400,10.460928466796876,-0.3407493233680725,0.465154230594635,0.6652894616127014
1684199893908953300,10.470953369140625,-0.3577466905117035,0.4225907623767853,0.6992231607437134
1684199893918978800,10.480978759765625,-0.3603009283542633,0.3900947868824005,0.6955965757369995
1684199893929004800,10.4910048828125,-0.3722659945487976,0.3610050678253174,0.6632319688796997
1684199893939030000,10.501030029296874,-0.3685953617095947,0.33223822712898254,0.6248021125793457
1684199893949055000,10.511054931640626,-0.35046082735061646,0.2598838806152344,0.5644607543945312
1684199893959081000,10.5210810546875,-0.3104811906814575,0.0732874721288681,0.44909971952438354
1684199893969106000,10.53110595703125,-0.25606879591941833,-0.1317863166332245,0.29678019881248474
1684199893979131000,10.541130859375,-0.20631137490272522,-0.245093435049057,0.12464730441570282
1684199893989156900,10.551156982421874,-0.17284688353538513,-0.296314537525177,-0.046452272683382034
1684199893999182000,10.56118212890625,-0.15191896259784698,-0.31108924746513367,-0.17265228927135468
1684199894009207000,10.57120703125,-0.12531158328056335,-0.34843236207962036,-0.24509160220623016
1684199894019233000,10.58123291015625,-0.09827784448862076,-0.43683040142059326,-0.26637640595436096
1684199894029258000,10.591258056640624,-0.07620582729578018,-0.5040403008460999,-0.25278469920158386
1684199894039282700,10.60128271484375,-0.0702989399433136,-0.5237880945205688,-0.2237159162759781
1684199894049309000,10.611308837890626,-0.058546941727399826,-0.5410948991775513,-0.17828930914402008
1684199894059334000,10.621333984375,-0.05284538120031357,-0.5713297128677368,-0.11411772668361664
1684199894069360000,10.631360107421875,-0.06502775102853775,-0.5592176914215088,-0.040505293756723404
1684199894079384800,10.641384765625,-0.09774121642112732,-0.4929666817188263,0.017541008070111275
1684199894089409800,10.651409912109376,-0.1305401772260666,-0.4030192196369171,0.058872200548648834
1684199894099435800,10.661435791015625,-0.1547515094280243,-0.3557851314544678,0.07919105887413025
1684199894109460700,10.671460693359375,-0.17647677659988403,-0.35192516446113586,0.09809417277574539
1684199894119486000,10.68148583984375,-0.1760498732328415,-0.3801827132701874,0.1008366122841835
1684199894129512000,10.691511962890624,-0.15884850919246674,-0.42585644125938416,0.07406891882419586
1684199894139537000,10.701536865234376,-0.14863236248493195,-0.4794476330280304,0.014313608407974243
1684199894149561900,10.711561767578125,-0.14204929769039154,-0.5130271911621094,-0.07534650713205338
1684199894159587800,10.721587890625,-0.1498211920261383,-0.524417519569397,-0.17408721148967743
1684199894169612800,10.73161279296875,-0.16604997217655182,-0.5296332836151123,-0.24817581474781036
1684199894179638000,10.741637939453126,-0.18684393167495728,-0.5201830863952637,-0.3030015230178833
1684199894189664000,10.7516640625,-0.20091819763183594,-0.5028759837150574,-0.3306560516357422
1684199894199689000,10.76168896484375,-0.2057960480451584,-0.5179981589317322,-0.3355972170829773
1684199894209714000,10.7717138671875,-0.19817008078098297,-0.5389550924301147,-0.33569255471229553
1684199894219740000,10.781739990234374,-0.17501336336135864,-0.5369032621383667,-0.3635594844818115
1684199894229764900,10.791764892578126,-0.11217767745256424,-0.47336211800575256,-0.43098142743110657
1684199894239790800,10.801790771484375,-0.018413107842206955,-0.41704103350639343,-0.5285593271255493
1684199894249816000,10.811816162109375,0.09949168562889099,-0.3456169068813324,-0.6329821348190308
1684199894259841000,10.821841064453125,0.25099173188209534,-0.20553331077098846,-0.6940883994102478
1684199894269867000,10.831866943359374,0.43320387601852417,-0.04121841490268707,-0.6838597655296326
1684199894279892000,10.84189208984375,0.6084600687026978,-0.08008665591478348,-0.5863280892372131
1684199894289917000,10.8519169921875,0.7391720414161682,-0.4199345111846924,-0.42816075682640076
1684199894299943000,10.86194287109375,0.7677869200706482,-0.754605770111084,-0.3587305545806885
1684199894309968000,10.8719677734375,0.7320176959037781,-0.8950134515762329,-0.5537503957748413
1684199894319992800,10.881992919921874,0.6791249513626099,-0.8515894412994385,-1.1001454591751099
1684199894330019000,10.89201904296875,0.6677172780036926,-0.588090181350708,-1.9036190509796143
1684199894340043800,10.902043701171875,0.7111327052116394,-0.19193804264068604,-2.7266955375671387
1684199894350068700,10.91206884765625,0.7868255972862244,0.12132134288549423,-3.242975950241089
1684199894360094700,10.9220947265625,0.8483414053916931,0.25189709663391113,-3.403991222381592
1684199894370120000,10.932119873046876,0.9191553592681885,0.38827064633369446,-3.293668746948242
1684199894380145000,10.942144775390625,0.9893680214881897,0.5639562010765076,-3.0597217082977295
1684199894390171000,10.9521708984375,1.0453869104385376,0.7209814786911011,-2.8017470836639404
1684199894400195800,10.96219580078125,1.0526692867279053,0.8662981390953064,-2.490720272064209
1684199894410221800,10.972221923828124,1.0535579919815063,0.8935550451278687,-2.186812162399292
1684199894420246800,10.982246826171876,1.0786420106887817,0.7765286564826965,-1.9055509567260742
1684199894430271700,10.992271728515625,1.0018364191055298,0.5204516053199768,-1.6165117025375366
1684199894440297700,11.002297607421875,0.8336431384086609,0.2903810441493988,-1.2624595165252686
1684199894450323000,11.012322998046875,0.7060484290122986,0.2211010456085205,-0.8672314286231995
1684199894460348000,11.022347900390624,0.6924354434013367,0.2811794877052307,-0.5776060819625854
1684199894470374000,11.032373779296876,0.8098177313804626,0.5109192132949829,-0.40920212864875793
1684199894480398800,11.04239892578125,1.0527875423431396,0.7357432246208191,-0.3860771954059601
1684199894490423800,11.052423828125,1.2961945533752441,0.9939556121826172,-0.37581896781921387
1684199894500449800,11.06244970703125,1.4293569326400757,1.1736255884170532,-0.3141498565673828
1684199894510475000,11.07247509765625,1.4150229692459106,1.2285796403884888,-0.16733086109161377
1684199894520500000,11.0825,1.3722600936889648,1.186385989189148,0.018276594579219818
1684199894530526000,11.09252587890625,1.3180663585662842,1.012001872062683,0.11310882866382599
1684199894540551000,11.102551025390625,1.190016269683838,0.527486264705658,-0.05883822590112686
1684199894550577000,11.112576904296875,1.1394158601760864,0.7819007039070129,-0.03246254473924637
1684199894560601900,11.122601806640626,1.131203532218933,1.3474018573760986,0.18708206713199615
1684199894570627000,11.132626953125,1.1188021898269653,1.4942255020141602,0.358251690864563
1684199894580653000,11.142653076171875,1.0990253686904907,1.416023850440979,0.4847251772880554
1684199894590678000,11.152677978515625,1.0139796733856201,0.7816085815429688,0.3239741325378418
1684199894600703000,11.162702880859374,0.8988527655601501,-0.17105835676193237,-0.21634463965892792
1684199894610729000,11.17272900390625,0.9258569478988647,0.17336267232894897,-0.3242473900318146
1684199894620754000,11.18275390625,0.9611433148384094,0.4409407377243042,-0.08509460091590881
1684199894630779000,11.19277880859375,0.96738600730896,0.33211731910705566,0.1548764556646347
1684199894640805000,11.20280517578125,0.9648861289024353,0.7454516887664795,0.5761461853981018
1684199894650829800,11.212829833984374,0.6007084250450134,0.5056140422821045,0.5660919547080994
1684199894660854800,11.222854736328125,0.5071063041687012,0.49866247177124023,0.6271886825561523
1684199894670880800,11.232880859375,0.5237436294555664,0.6845479011535645,0.8430908918380737
1684199894680905700,11.24290576171875,0.7447694540023804,1.3114631175994873,1.4069088697433472
1684199894690931000,11.252930908203124,0.8209483623504639,1.188116431236267,1.5157592296600342
1684199894700957000,11.26295703125,0.6551141738891602,0.7573559284210205,1.3896206617355347
1684199894710982000,11.27298193359375,0.4028262794017792,0.4089113771915436,1.1269457340240479
1684199894721006800,11.2830068359375,0.17974205315113068,0.3245750963687897,0.8903391361236572
1684199894731032800,11.29303271484375,0.004166502505540848,0.43917515873908997,0.8149903416633606
1684199894741057800,11.303057861328124,-0.17310601472854614,0.5435383915901184,0.8310767412185669
1684199894751083800,11.313083740234376,-0.3357812166213989,0.5381673574447632,0.8458865284919739
1684199894761109000,11.32310888671875,-0.43957552313804626,0.46677926182746887,0.8849357962608337
1684199894771134000,11.333134033203125,-0.5208948850631714,0.28901779651641846,0.9374290704727173
1684199894781160000,11.343159912109375,-0.6164680123329163,0.0487150102853775,0.9719845056533813
1684199894791185000,11.353184814453124,-0.716299295425415,-0.1982516348361969,0.9873951077461243
1684199894801209900,11.3632099609375,-0.7597470879554749,-0.3726204037666321,0.9908106923103333
1684199894811235800,11.37323583984375,-0.8383183479309082,-0.4801231622695923,1.0386441946029663
1684199894821261000,11.383260986328125,-0.9651343822479248,-0.5218953490257263,1.081549048423767
1684199894831286000,11.3932861328125,-1.0763216018676758,-0.5407124161720276,1.0228712558746338
1684199894841312000,11.40331201171875,-1.2604259252548218,-0.45924705266952515,0.9725135564804077
1684199894851337000,11.4133369140625,-1.5550117492675781,-0.2206595242023468,0.9533326625823975
1684199894861362000,11.42336181640625,-1.776424527168274,0.040159571915864944,0.9482372999191284
1684199894871388000,11.433387939453125,-1.9826602935791016,0.22229954600334167,0.9338527917861938
1684199894881412900,11.443412841796874,-1.9348690509796143,0.23051632940769196,0.9351943135261536
1684199894891438800,11.45343896484375,-1.6983788013458252,0.10636802017688751,0.9433580040931702
1684199894901464000,11.463464111328125,-1.5195101499557495,-0.03352624550461769,0.9461750984191895
1684199894911489000,11.473489013671875,-1.4853583574295044,-0.14376993477344513,0.8982698917388916
1684199894921514200,11.48351416015625,-1.6124459505081177,-0.13899976015090942,0.8307988047599792
1684199894931539200,11.493539306640624,-1.6537162065505981,-0.05379113554954529,0.8135221004486084
1684199894941564400,11.503564453125,-1.5554245710372925,0.04687688872218132,0.8790238499641418
1684199894951590400,11.51359033203125,-1.3586782217025757,0.21597616374492645,0.975020706653595
1684199894961615400,11.523615478515625,-1.1954604387283325,0.4710223376750946,1.0015950202941895
1684199894971640300,11.533640380859374,-1.1446316242218018,0.7893848419189453,0.8767759799957275
1684199894981666300,11.543666259765626,-1.5150935649871826,0.6253836750984192,1.3284103870391846
1684199894991691300,11.553691162109375,-2.0905001163482666,0.4078747630119324,1.6483397483825684
1684199895001716500,11.563716552734375,-2.076253652572632,-0.25982457399368286,1.9059206247329712
1684199895011742500,11.573742431640625,-1.7974348068237305,-1.1155495643615723,1.805910587310791
1684199895021767400,11.583767333984374,-1.3535236120224,-1.5287749767303467,0.8734647631645203
1684199895031792000,11.593792236328126,-0.9183897972106934,-1.1807719469070435,0.28425952792167664
1684199895041818400,11.603818359375,-0.653717577457428,-0.6626448631286621,0.43387967348098755
1684199895051843000,11.613843017578125,-0.7959285378456116,-0.5711727738380432,0.9005621671676636
1684199895061869300,11.623869384765625,-1.152142882347107,-1.275014877319336,1.4368785619735718
1684199895071894300,11.633894287109374,-1.6443227529525757,-2.40852689743042,1.6713690757751465
1684199895081919200,11.643919189453126,-2.122035026550293,-3.3829243183135986,1.4506378173828125
1684199895091945200,11.6539453125,-2.29435133934021,-3.9169461727142334,0.948987603187561
1684199895101970200,11.66397021484375,-2.0659375190734863,-3.8135712146759033,0.45860785245895386
1684199895111995100,11.6739951171875,-1.6618719100952148,-3.1471328735351562,0.00340757193043828
1684199895122021000,11.684021240234374,-1.2208417654037476,-2.29089093208313,-0.17812299728393555
1684199895132046300,11.69404638671875,-0.7512239813804626,-1.5379085540771484,0.052238576114177704
1684199895142071300,11.7040712890625,-0.23687247931957245,-1.0867140293121338,0.6224529147148132
1684199895152097300,11.71409716796875,0.26393255591392517,-0.7866610288619995,1.2983965873718262
1684199895162122200,11.724122314453124,0.6644317507743835,-0.28387829661369324,1.7943763732910156
1684199895172147200,11.734147216796876,0.7322043776512146,0.35718849301338196,1.7870606184005737
1684199895182173200,11.744173095703125,0.5021960139274597,1.0222747325897217,1.458824634552002
1684199895192198400,11.754198486328125,0.23566630482673645,1.2698267698287964,1.1826633214950562
1684199895202223400,11.764223388671875,-0.11997754126787186,1.053157925605774,1.074594259262085
1684199895212249300,11.774249267578124,-0.3294801712036133,0.6438732743263245,0.9754343628883362
1684199895222274300,11.7842744140625,-0.4256402552127838,0.6113508939743042,0.6611735820770264
1684199895232300300,11.79430029296875,-0.6198601126670837,0.8900980949401855,0.26152414083480835
1684199895242325200,11.8043251953125,-0.7674617767333984,1.0411118268966675,-0.14970038831233978
1684199895252350200,11.81435009765625,-0.6849003434181213,0.9722875356674194,-0.5075823664665222
1684199895262376200,11.824376220703124,-0.6729616522789001,0.8395413756370544,-0.6723724007606506
1684199895272401400,11.8344013671875,-0.5989313721656799,0.597562313079834,-0.8177570700645447
1684199895282426400,11.84442626953125,-0.38409388065338135,0.41275566816329956,-1.0613306760787964
1684199895292452400,11.854452392578125,-0.1832401305437088,0.5082542300224304,-1.4347124099731445
1684199895302477300,11.864477294921874,0.06985577195882797,0.9162548780441284,-1.9350135326385498
1684199895312502300,11.874502197265626,0.38905346393585205,1.4414852857589722,-2.206322431564331
1684199895322528300,11.8845283203125,0.6341516375541687,1.8549469709396362,-2.325920343399048
1684199895332553500,11.894553466796875,0.7008017301559448,2.228614091873169,-2.6698179244995117
1684199895342578200,11.904578125,0.6816229820251465,2.3401520252227783,-3.0030603408813477
1684199895352604400,11.9146044921875,0.5184924006462097,2.1753344535827637,-3.044109344482422
1684199895362629000,11.924629150390626,0.4261486530303955,1.9251502752304077,-2.4426352977752686
1684199895372654000,11.934654052734375,0.3865034878253937,1.556836724281311,-1.7973442077636719
1684199895382680000,11.94468017578125,0.22263705730438232,1.2499945163726807,-1.621311068534851
1684199895392705300,11.954705322265625,0.10763350129127502,0.6991332173347473,-1.747074007987976
1684199895402731300,11.964731201171874,0.13524116575717926,0.15670636296272278,-1.73501455783844
1684199895412756200,11.974756103515626,0.14407646656036377,0.05789323151111603,-1.5074244737625122
1684199895422781200,11.98478125,0.08944704383611679,0.3453042805194855,-1.060198426246643
1684199895432807200,11.99480712890625,0.1498776376247406,0.1729775220155716,-0.7048789262771606
1684199895442832100,12.00483203125,0.2295977622270584,-0.17134051024913788,-0.29718708992004395
1684199895452857300,12.014857421875,0.3538036048412323,-0.42639997601509094,0.11608675867319107
1684199895462883300,12.02488330078125,0.5263510942459106,-0.39711493253707886,0.42488864064216614
1684199895472908300,12.034908203125,0.609105110168457,-0.4725761413574219,0.5375403761863708
1684199895482933200,12.044933349609375,0.6093820929527283,-0.7453874349594116,0.5495452880859375
1684199895492959200,12.054959228515624,0.46692830324172974,-1.189087986946106,0.532915472984314
1684199895502984200,12.064984130859376,0.24684280157089233,-1.7039844989776611,0.501123309135437
1684199895513009400,12.075009521484375,0.02698233537375927,-2.1473050117492676,0.4247414469718933
1684199895523035400,12.085035400390625,-0.10980667173862457,-2.4681642055511475,0.2578602135181427
1684199895533060400,12.095060302734375,-0.0887615755200386,-2.534637451171875,0.10186503082513809
1684199895543085300,12.105085205078124,0.04246089234948158,-2.48398756980896,-0.02052910439670086
1684199895553111300,12.115111328125,0.17754414677619934,-2.528869152069092,-0.23928195238113403
1684199895563136300,12.12513623046875,0.2071704864501953,-2.512415647506714,-0.4709796905517578
1684199895573162200,12.135162353515625,0.14867255091667175,-3.4225077629089355,-1.2851862907409668
1684199895583187500,12.1451875,-0.0008104122243821621,-4.316739082336426,-2.534207582473755
1684199895593212400,12.15521240234375,0.13395459949970245,-3.646531105041504,-3.0822317600250244
1684199895603238400,12.16523828125,0.7682135105133057,-2.6168549060821533,-3.346017599105835
1684199895613263400,12.175263427734375,1.543280005455017,-1.5938719511032104,-3.517622947692871
1684199895623288300,12.185288330078125,2.0743815898895264,-1.1038247346878052,-3.738741397857666
1684199895633314300,12.195314208984374,1.9364746809005737,-1.150611400604248,-3.979945421218872
1684199895643339300,12.20533935546875,1.188002347946167,-1.6897773742675781,-3.678647994995117
1684199895653364200,12.2153642578125,0.5497006177902222,-3.940798282623291,-2.4614362716674805
1684199895663390200,12.22539013671875,0.23689723014831543,-5.393575191497803,-1.1463332176208496
1684199895673415200,12.235415283203125,-0.09546048939228058,-4.889270305633545,-0.385628342628479
1684199895683440000,12.245440185546874,-0.4277105927467346,-4.0670952796936035,-0.1197255477309227
1684199895693466000,12.255466064453126,-0.7649214267730713,-3.095238447189331,0.03924040123820305
1684199895703491300,12.2654912109375,-1.1781965494155884,-2.430488348007202,0.11168914288282394
1684199895713516300,12.275516357421875,-1.3428102731704712,-2.114029884338379,0.12079156190156937
1684199895723542300,12.285542236328125,-1.363231897354126,-1.828223466873169,0.03694853186607361
1684199895733567200,12.295567138671874,-1.2994345426559448,-1.4096286296844482,-0.3132195770740509
1684199895743593200,12.30559326171875,-1.2747875452041626,-0.6999542713165283,-0.6511529088020325
1684199895753618200,12.3156181640625,-1.3742501735687256,-0.19541096687316895,-0.9375830888748169
1684199895763643400,12.325643310546875,-1.5311287641525269,-0.6897196173667908,-0.7956292629241943
1684199895773669000,12.335669189453125,-1.6877505779266357,-1.925832748413086,-0.31130552291870117
1684199895783694300,12.3456943359375,-1.6908206939697266,-2.3422560691833496,-0.08738943934440613
1684199895793719300,12.35571923828125,-1.6232116222381592,-2.180144786834717,-0.06407106667757034
1684199895803745300,12.365745361328125,-1.676519751548767,-2.00061297416687,0.15677803754806519
1684199895813770200,12.375770263671875,-1.8220818042755127,-2.293248176574707,0.638715922832489
1684199895823795200,12.385795166015624,-2.1642754077911377,-3.2628190517425537,1.3922356367111206
1684199895833821200,12.3958212890625,-2.6418936252593994,-4.599391937255859,2.4598894119262695
1684199895843846400,12.405846435546875,-2.9668362140655518,-5.763695240020752,3.806100606918335
1684199895853871400,12.415871337890625,-2.8230409622192383,-8.216225624084473,4.803318500518799
1684199895863897300,12.4258974609375,-2.4543092250823975,-12.064105033874512,4.273623943328857
1684199895873922300,12.43592236328125,-1.659040927886963,-7.550104141235352,-0.9362124800682068
1684199895883947300,12.445947265625,-0.6061629056930542,-6.2155890464782715,-1.8324718475341797
1684199895893973200,12.45597314453125,-0.18859735131263733,-6.774735927581787,-1.3718925714492798
1684199895903998500,12.46599853515625,-0.5533673763275146,-6.317012786865234,-1.130685806274414
1684199895914024400,12.4760244140625,-0.6498070955276489,-5.422672748565674,-1.3095178604125977
1684199895924049700,12.486049560546874,-0.42820489406585693,-4.073537349700928,-1.525536298751831
1684199895934074600,12.49607470703125,-0.2398080676794052,-2.7259490489959717,-1.5833591222763062
1684199895944100600,12.5061005859375,-0.46164220571517944,-1.6116957664489746,-1.0927953720092773
1684199895954125600,12.51612548828125,-0.7016212940216064,-0.7106341123580933,-0.5839766263961792
1684199895964150800,12.52615087890625,-0.46949025988578796,0.043489646166563034,-0.34220853447914124
