time,seconds_elapsed,z,y,x
1684201260889365500,0.029365478515625,1.0216435194015503,3.3549506664276123,2.6948931217193604
1684201260899391500,0.0393916015625,1.0984197854995728,4.798819541931152,2.6725380420684814
1684201260909418200,0.049418212890625,1.07552969455719,6.426347732543945,2.116780996322632
1684201260919444200,0.0594443359375,1.0195116996765137,7.979233741760254,1.182366967201233
1684201260929471500,0.069471435546875,1.1111254692077637,6.797432899475098,0.0939597561955452
1684201260939497500,0.07949755859375,1.3079344034194946,2.430884599685669,-0.8559728264808655
1684201260949523500,0.0895234375,1.3680049180984497,-2.4708902835845947,-1.5144954919815063
1684201260959550500,0.099550537109375,1.0029064416885376,-5.161426067352295,-2.3453426361083984
1684201260969576400,0.109576416015625,0.3166988790035248,-6.490250110626221,-3.1734976768493652
1684201260979603200,0.119603271484375,-0.2708556354045868,-6.537439823150635,-3.8694238662719727
1684201260989629200,0.129629150390625,-0.6141557693481445,-4.9342732429504395,-4.233912467956543
1684201260999656400,0.139656494140625,-1.0327433347702026,-1.2524423599243164,-4.049744129180908
1684201261009682400,0.149682373046875,-1.2637144327163696,0.9391065835952759,-3.8001160621643066
1684201261019708400,0.15970849609375,-1.2555946111679077,2.37758207321167,-3.496023416519165
1684201261029735400,0.1697353515625,-1.2148088216781616,3.7035951614379883,-3.0258889198303223
1684201261039761400,0.179761474609375,-1.1209162473678589,4.225992202758789,-2.4257988929748535
1684201261049788400,0.189788330078125,-1.0171104669570923,3.986530065536499,-1.7481545209884644
1684201261059814400,0.199814453125,-0.9785343408584595,3.312840700149536,-1.0429675579071045
1684201261069840400,0.20984033203125,-1.0636100769042969,3.0211880207061768,-0.3843179941177368
1684201261079867400,0.219867431640625,-1.1272532939910889,3.23309063911438,0.17946283519268036
1684201261089893400,0.229893310546875,-1.0306282043457031,3.6300315856933594,0.6631996631622314
1684201261099920400,0.23992041015625,-0.7665643095970154,4.177894115447998,1.0763646364212036
1684201261109946400,0.2499462890625,-0.37344181537628174,4.81205415725708,1.3953508138656616
1684201261119973400,0.259973388671875,0.01908540353178978,5.640413284301758,1.5919334888458252
1684201261129999400,0.269999267578125,0.2551184594631195,6.69946813583374,1.6573580503463745
1684201261140025000,0.280025146484375,-0.5844656825065613,7.962160110473633,1.583518624305725
1684201261150052400,0.29005224609375,-1.776620626449585,8.952265739440918,1.5764702558517456
1684201261160078300,0.300078369140625,-2.703496217727661,9.185843467712402,1.6205496788024902
1684201261170105300,0.310105224609375,-3.4179303646087646,9.172780990600586,1.7740602493286133
1684201261180131000,0.320131103515625,-3.8846724033355713,9.009366989135742,1.980551838874817
1684201261190158300,0.330158447265625,-4.282413005828857,8.852972030639648,2.1706249713897705
1684201261200184300,0.340184326171875,-4.839438438415527,8.294624328613281,2.200143337249756
1684201261210210300,0.350210205078125,-5.524739742279053,7.700334548950195,2.151444673538208
1684201261220237300,0.3602373046875,-6.264388084411621,7.231865882873535,2.059352397918701
1684201261230263300,0.37026318359375,-7.124752044677734,6.739990711212158,1.9801961183547974
1684201261240290000,0.3802900390625,-8.051780700683594,6.2181315422058105,1.943655252456665
1684201261250316000,0.39031591796875,-8.832685470581055,5.748070240020752,1.9516446590423584
1684201261260342300,0.40034228515625,-9.240626335144043,5.255465984344482,1.919286847114563
1684201261270369300,0.410369384765625,-9.370560646057129,4.605764389038086,1.7167822122573853
1684201261280395300,0.420395263671875,-9.28141975402832,3.8901288509368896,1.4690155982971191
1684201261290422300,0.43042236328125,-8.894068717956543,3.366424798965454,1.260564923286438
1684201261300448300,0.4404482421875,-8.247602462768555,2.882012128829956,1.212030053138733
1684201261310475300,0.450475341796875,-7.593994140625,2.4449572563171387,1.412911295890808
1684201261320501200,0.460501220703125,-6.970184803009033,1.9627916812896729,1.86257004737854
1684201261330527200,0.47052734375,-6.431956768035889,1.4874645471572876,2.3928282260894775
1684201261340554200,0.48055419921875,-5.865880012512207,1.0857272148132324,2.8183934688568115
1684201261350580200,0.490580322265625,-4.888250827789307,0.45861193537712097,2.91324520111084
1684201261360607200,0.500607177734375,-3.520085334777832,0.3285037577152252,2.72896146774292
1684201261370633500,0.510633544921875,-2.288139581680298,-0.02673955075442791,2.711728811264038
1684201261380659500,0.520659423828125,-1.6007763147354126,-1.2464776039123535,2.6987504959106445
1684201261390686200,0.530686279296875,-1.2640750408172607,-2.524968147277832,2.5491437911987305
1684201261400712200,0.540712158203125,-0.936815619468689,-3.445556163787842,2.196794271469116
1684201261410739200,0.5507392578125,-0.36616411805152893,-3.977623224258423,1.8302589654922485
1684201261420765200,0.56076513671875,0.33110737800598145,-3.8723745346069336,1.660020112991333
1684201261430792400,0.57079248046875,0.9553235769271851,-3.7145659923553467,1.7782220840454102
1684201261440818400,0.580818359375,1.4751980304718018,-3.319669008255005,2.066983938217163
1684201261450844200,0.59084423828125,1.7052985429763794,-3.021176815032959,1.8245400190353394
1684201261460871200,0.60087109375,2.0583770275115967,-2.3218705654144287,1.7961426973342896
1684201261470897200,0.610897216796875,2.0839316844940186,-1.545750379562378,1.801174521446228
1684201261480924400,0.62092431640625,1.7572652101516724,-0.7664793729782104,1.6613863706588745
1684201261490950400,0.630950439453125,1.3479490280151367,-0.17990992963314056,1.2757751941680908
1684201261500977200,0.64097705078125,1.2174499034881592,0.3732607662677765,1.067615032196045
1684201261511003100,0.651003173828125,1.4580113887786865,0.5147886276245117,1.3839056491851807
1684201261521029000,0.661029052734375,1.6364595890045166,0.5578767657279968,1.695578932762146
1684201261531056000,0.67105615234375,2.0239017009735107,0.6501560807228088,1.7397162914276123
1684201261541082000,0.68108203125,2.12837815284729,0.7034648656845093,1.3003618717193604
1684201261551109400,0.691109375,2.3753223419189453,0.7259659171104431,0.7789828777313232
1684201261561135400,0.70113525390625,2.3160297870635986,0.9679341316223145,0.1151634156703949
1684201261571161300,0.711161376953125,2.03719425201416,1.1495132446289062,-0.5344537496566772
1684201261581188000,0.72118798828125,1.8102939128875732,1.3670763969421387,-0.5913471579551697
1684201261591214000,0.731214111328125,1.65848970413208,1.5934134721755981,-0.14357896149158478
1684201261601241300,0.741241455078125,1.5678051710128784,1.7572017908096313,0.2759501338005066
1684201261611267300,0.751267333984375,1.579223394393921,1.819116234779358,0.4839520752429962
1684201261621294300,0.76129443359375,1.7434011697769165,1.7203290462493896,0.4637370705604553
1684201261631320300,0.7713203125,2.122957706451416,1.4988778829574585,0.31052035093307495
1684201261641346300,0.78134619140625,2.965224266052246,1.4385591745376587,0.11382139474153519
1684201261651373000,0.791373046875,3.602302074432373,1.4305005073547363,0.09461627900600433
1684201261661399300,0.8013994140625,3.333275318145752,1.1428499221801758,0.1124478280544281
1684201261671426300,0.81142626953125,2.639187812805176,0.44034215807914734,0.043141454458236694
1684201261681452300,0.821452392578125,1.9299578666687012,-0.26243674755096436,-0.35801172256469727
1684201261691479300,0.831479248046875,1.344250202178955,-0.5993683934211731,-0.6810824275016785
1684201261701505300,0.84150537109375,0.7489287853240967,-0.3808060586452484,-0.41893842816352844
1684201261711531300,0.85153125,0.15250641107559204,0.25534188747406006,0.14570976793766022
1684201261721558300,0.861558349609375,-0.36370280385017395,1.0749613046646118,0.5592062473297119
1684201261731584300,0.871584228515625,-0.5935793519020081,1.5781900882720947,0.6855237483978271
1684201261741611300,0.881611328125,-0.8404819369316101,1.4478815793991089,0.621724545955658
1684201261751637200,0.89163720703125,-1.3910279273986816,0.6825105547904968,0.4278760254383087
1684201261761663200,0.901663330078125,-2.113276958465576,-0.03944823145866394,0.16639284789562225
1684201261771690500,0.9116904296875,-2.9444198608398438,-0.3817017078399658,-0.008884966373443604
1684201261781716200,0.92171630859375,-3.9142441749572754,-0.4846169054508209,-0.05781736597418785
1684201261791743200,0.9317431640625,-4.941740989685059,-0.5485455989837646,-0.1710515022277832
1684201261801769200,0.941769287109375,-5.673137664794922,-0.5634965300559998,-0.09796163439750671
1684201261811796200,0.951796142578125,-5.626077651977539,-0.6192447543144226,0.08905085921287537
1684201261821822200,0.961822265625,-5.291779518127441,-0.8259395956993103,0.18316718935966492
1684201261831848200,0.97184814453125,-4.827444076538086,-1.375413417816162,0.2139461487531662
1684201261841875200,0.981875244140625,-4.200256824493408,-2.100221633911133,0.21022117137908936
1684201261851901200,0.991901123046875,-3.469264030456543,-2.559340476989746,0.18013623356819153
1684201261861928200,1.00192822265625,-2.6197404861450195,-2.7758536338806152,0.2675459086894989
1684201261871954200,1.0119541015625,-1.9679139852523804,-2.907433271408081,0.33991119265556335
1684201261881981400,1.0219814453125,-1.4844379425048828,-2.8921825885772705,0.36327874660491943
1684201261892007400,1.03200732421875,-1.1113638877868652,-2.8329601287841797,0.33812543749809265
1684201261902033400,1.042033447265625,-1.0046446323394775,-2.666632890701294,0.3759024739265442
1684201261912060200,1.05206005859375,-1.0764533281326294,-2.3306946754455566,0.5551958084106445
1684201261922086100,1.062086181640625,-1.3819574117660522,-1.9821072816848755,0.7115015387535095
1684201261932113200,1.072113037109375,-1.7350246906280518,-1.4459248781204224,0.7313205599784851
1684201261942139100,1.08213916015625,-2.0809717178344727,-0.7514014840126038,0.7070316672325134
1684201261952165400,1.092165283203125,-2.2650606632232666,-0.28473731875419617,0.6188104748725891
1684201261962192400,1.1021923828125,-2.0561676025390625,0.0016594689805060625,0.43849462270736694
1684201261972218400,1.11221826171875,-1.8273905515670776,0.1549406349658966,0.31462007761001587
1684201261982245000,1.1222451171875,-1.7999378442764282,0.12912866473197937,0.1366272270679474
1684201261992271000,1.13227099609375,-1.862496018409729,0.09365562349557877,0.00035114213824272156
1684201262002298400,1.14229833984375,-1.8938542604446411,0.21985603868961334,-0.07228513807058334
1684201262012324400,1.152324462890625,-1.776748776435852,0.5013502836227417,-0.05570483207702637
1684201262022350300,1.162350341796875,-1.5457754135131836,0.6065712571144104,-0.07341863960027695
1684201262032377300,1.17237744140625,-1.3639092445373535,0.6153477430343628,-0.08232051879167557
1684201262042403300,1.1824033203125,-1.495341420173645,0.7323431372642517,0.23946508765220642
1684201262052430000,1.19243017578125,-2.144613742828369,1.8104968070983887,1.5598475933074951
1684201262062456300,1.202456298828125,-2.0739479064941406,2.8311471939086914,3.1817572116851807
1684201262072483300,1.2124833984375,-1.5573631525039673,1.4904979467391968,2.856372356414795
1684201262082509300,1.22250927734375,-0.9703414440155029,-1.2919137477874756,1.271795630455017
1684201262092535300,1.232535400390625,-0.32018789649009705,-2.0913496017456055,0.23431919515132904
1684201262102562300,1.242562255859375,0.10572352260351181,-1.152600884437561,0.1889827400445938
1684201262112588300,1.25258837890625,0.35291972756385803,-0.6179004907608032,0.17740438878536224
1684201262122615300,1.262615234375,0.32626640796661377,-0.7207328081130981,-0.062004510313272476
1684201262132641300,1.272641357421875,0.3785035312175751,-0.8861436247825623,-0.15801012516021729
1684201262142667300,1.282667236328125,0.6456162333488464,-0.9287834167480469,-0.07856559008359909
1684201262152694500,1.292694580078125,0.9882004857063293,-0.9853164553642273,0.05488647520542145
1684201262162720500,1.302720458984375,1.3944989442825317,-1.1024996042251587,0.08469009399414062
1684201262172747300,1.312747314453125,1.820124626159668,-1.2413421869277954,-0.18757843971252441
1684201262182773200,1.322773193359375,2.1268680095672607,-1.2910610437393188,-0.8189307451248169
1684201262192800300,1.33280029296875,2.3952362537384033,-1.1557726860046387,-1.5226556062698364
1684201262202826500,1.342826416015625,2.964846134185791,-1.03377366065979,-2.1738040447235107
1684201262212852500,1.3528525390625,3.82704758644104,-0.8441920280456543,-2.7235500812530518
1684201262222879500,1.36287939453125,4.446971893310547,-0.18976235389709473,-3.024343967437744
1684201262232905500,1.372905517578125,4.979395866394043,0.7289464473724365,-3.2930490970611572
1684201262242932200,1.38293212890625,6.064270973205566,1.2878273725509644,-2.939743995666504
1684201262252958200,1.392958251953125,6.098927974700928,2.0619115829467773,-1.7782126665115356
1684201262262985500,1.4029853515625,4.537347793579102,2.4373576641082764,-1.142831802368164
1684201262273011500,1.413011474609375,2.23091459274292,2.003013849258423,-1.119235873222351
1684201262283037400,1.423037353515625,1.5164425373077393,0.7511327862739563,-1.1187688112258911
1684201262293064400,1.433064453125,1.4584633111953735,0.1412479132413864,-1.1487780809402466
1684201262303090400,1.44309033203125,1.4668309688568115,0.13674186170101166,-1.141608476638794
1684201262313117200,1.4531171875,1.0970673561096191,0.08389408886432648,-0.9524121284484863
1684201262323143400,1.463143310546875,0.8417230248451233,0.21787859499454498,-0.8393911123275757
1684201262333169400,1.47316943359375,0.36175212264060974,1.566357135772705,-0.6428096294403076
1684201262343196400,1.483196533203125,-0.20663420855998993,2.12009334564209,-0.29986071586608887
1684201262353222400,1.493222412109375,-0.5680068135261536,2.383294105529785,0.04518002271652222
1684201262363249400,1.50324951171875,-0.5464602708816528,3.1739091873168945,0.32056504487991333
1684201262373275400,1.513275390625,-0.30921730399131775,4.200098514556885,0.3333868384361267
1684201262383302400,1.523302490234375,-0.04870259761810303,4.705911636352539,0.10522005707025528
1684201262393328400,1.533328369140625,0.006557196844369173,4.585701942443848,-0.35858994722366333
1684201262403354400,1.543354248046875,-0.3726460635662079,3.361826181411743,-0.5838285684585571
1684201262413381400,1.55338134765625,-0.9821826219558716,1.7542911767959595,-0.6507956385612488
1684201262423407400,1.563407470703125,-1.4420965909957886,-0.02658301591873169,-0.7378382682800293
1684201262433434400,1.573434326171875,-1.5972201824188232,-1.7724730968475342,-0.8994282484054565
1684201262443460400,1.58346044921875,-1.504191279411316,-2.8019449710845947,-1.1138361692428589
1684201262453486300,1.593486328125,-1.0238653421401978,-3.8556909561157227,-1.2332440614700317
1684201262463513300,1.603513427734375,-0.11492753773927689,-3.6749584674835205,-1.2787187099456787
1684201262473539300,1.613539306640625,1.119087815284729,-3.190816879272461,-1.1256754398345947
1684201262483566300,1.62356640625,2.189018487930298,-2.1632308959960938,-0.7405058741569519
1684201262493592600,1.633592529296875,2.524463176727295,-1.0205252170562744,-0.2831715941429138
1684201262503619300,1.643619384765625,2.2815988063812256,0.01728070341050625,-0.044243812561035156
1684201262513645300,1.653645263671875,1.8139753341674805,0.3160783052444458,-0.0963943675160408
1684201262523671300,1.66367138671875,1.6316932439804077,0.2777685523033142,-0.34106484055519104
1684201262533698300,1.6736982421875,1.4583343267440796,0.3489295542240143,-0.4666251838207245
1684201262543724300,1.683724365234375,1.5248191356658936,0.3974536657333374,-0.48498666286468506
1684201262553751600,1.69375146484375,1.7878353595733643,0.779362142086029,-0.4434698522090912
1684201262563777500,1.703777587890625,1.461568832397461,1.1311525106430054,-0.430241197347641
1684201262573804300,1.71380419921875,0.48395830392837524,1.618044137954712,-0.5420396327972412
1684201262583830300,1.723830322265625,-0.5445927381515503,1.9296047687530518,-0.7899762988090515
1684201262593856300,1.733856201171875,-1.303226113319397,2.378073215484619,-0.9558182954788208
1684201262603883300,1.74388330078125,-1.9517054557800293,2.8616533279418945,-1.2611993551254272
1684201262613909500,1.753909423828125,-1.9664186239242554,3.6720504760742188,-1.4286773204803467
1684201262623936500,1.7639365234375,-1.7439088821411133,3.991015911102295,-1.3482277393341064
1684201262633962500,1.77396240234375,-1.4961576461791992,3.0917375087738037,-1.1275634765625
1684201262643989200,1.7839892578125,-1.3012036085128784,1.5252876281738281,-0.7036803364753723
1684201262654015200,1.79401513671875,-0.9344860911369324,0.4406101107597351,-0.04767875373363495
1684201262664041200,1.804041259765625,-0.48735618591308594,0.06797710061073303,0.6561447381973267
1684201262674068500,1.814068359375,-0.1868610829114914,-0.2538081407546997,1.1059826612472534
1684201262684094500,1.824094482421875,0.12469983100891113,-1.186998724937439,0.8477965593338013
1684201262694121500,1.83412158203125,0.31043294072151184,-1.6288118362426758,0.4016888439655304
1684201262704147500,1.8441474609375,0.3264411985874176,-1.3299024105072021,0.225933238863945
1684201262714173400,1.85417333984375,0.20900537073612213,-0.6083418130874634,0.47244688868522644
1684201262724200400,1.864200439453125,0.12066705524921417,-0.3232775926589966,0.6030910015106201
1684201262734226400,1.874226318359375,0.1257970929145813,-0.18141554296016693,0.605867326259613
1684201262744253400,1.88425341796875,0.11927259713411331,0.06809727847576141,0.5886403918266296
1684201262754279400,1.894279541015625,-0.1370401382446289,0.26739785075187683,0.4764217138290405
1684201262764306400,1.904306396484375,-0.7367528676986694,0.558114230632782,0.4410136938095093
1684201262774332200,1.914332275390625,-1.4940800666809082,0.890388011932373,0.517249345779419
1684201262784358400,1.9243583984375,-2.2569468021392822,1.025028109550476,0.5151150226593018
1684201262794385400,1.934385498046875,-2.9343018531799316,1.2161452770233154,0.5160474181175232
1684201262804411400,1.944411376953125,-3.261488199234009,1.6081315279006958,0.5638479590415955
1684201262814438400,1.9544384765625,-3.062840223312378,1.8197734355926514,0.4768190383911133
1684201262824464400,1.96446435546875,-2.5095300674438477,1.6881886720657349,0.48905932903289795
1684201262834491400,1.974491455078125,-1.9993058443069458,1.2493997812271118,0.46474066376686096
1684201262844517400,1.984517333984375,-1.446112871170044,1.00783109664917,0.5471345782279968
1684201262854543400,1.99454345703125,-0.8546111583709717,0.9916510581970215,0.7135956883430481
1684201262864570400,2.0045703125,-0.27703219652175903,0.883772611618042,0.9053633213043213
1684201262874596400,2.014596435546875,0.012826787307858467,0.5325086116790771,1.1644207239151
1684201262884623400,2.024623291015625,-0.07705944031476974,0.2605789601802826,1.467132329940796
1684201262894649300,2.0346494140625,-0.43109235167503357,0.2990395426750183,1.7670269012451172
1684201262904675600,2.044675537109375,-0.8682020306587219,0.5518167614936829,2.075261354446411
1684201262914702300,2.054702392578125,-1.7050721645355225,0.8174548745155334,2.38546085357666
1684201262924728300,2.064728271484375,-3.003328800201416,1.4380772113800049,1.9306844472885132
1684201262934755300,2.07475537109375,-3.369548797607422,1.6711535453796387,1.8505231142044067
1684201262944781300,2.08478125,-2.398993492126465,1.134476661682129,2.8797640800476074
1684201262954808600,2.09480859375,-1.5471669435501099,0.6556968092918396,3.6626529693603516
1684201262964834600,2.10483447265625,-0.9810920357704163,0.7637081146240234,3.681452512741089
1684201262974860500,2.114860595703125,-0.25337526202201843,1.1709665060043335,3.3209049701690674
1684201262984887300,2.12488720703125,0.22052565217018127,1.6095860004425049,2.832075357437134
1684201262994913300,2.134913330078125,0.1236204132437706,1.6257649660110474,2.4245548248291016
1684201263004940300,2.144940185546875,-0.3333044946193695,1.1010452508926392,2.1442818641662598
1684201263014966500,2.154966552734375,-0.4870051145553589,0.41167089343070984,1.8234648704528809
1684201263024993500,2.16499365234375,0.07803459465503693,0.22549961507320404,1.2779966592788696
1684201263035019500,2.17501953125,0.9746599197387695,1.4897018671035767,0.0575767420232296
1684201263045045200,2.185045166015625,0.5605005621910095,1.236318588256836,-1.2731742858886719
1684201263055072300,2.195072265625,-0.44815224409103394,-0.1787661761045456,-2.321047306060791
1684201263065098200,2.20509814453125,-0.9095059633255005,-1.2090288400650024,-2.9836933612823486
1684201263075125500,2.21512548828125,-0.9158397912979126,-1.4242908954620361,-3.4253034591674805
1684201263085151500,2.2251513671875,-0.9479538798332214,-0.5490110516548157,-3.286534070968628
1684201263095177500,2.235177490234375,-1.2651437520980835,0.2163023203611374,-2.271821975708008
1684201263105204200,2.245204345703125,-1.323891282081604,0.1527879387140274,-1.3398100137710571
1684201263115230200,2.255230224609375,-0.9283082485198975,-0.45372462272644043,-0.8884415626525879
1684201263125257500,2.265257568359375,-0.4350462853908539,-0.6120960712432861,-0.640647828578949
1684201263135283500,2.275283447265625,0.05579614266753197,-0.48163527250289917,-0.4470168352127075
1684201263145310000,2.28531005859375,0.518180787563324,-0.22142282128334045,-0.2631765902042389
1684201263155336000,2.2953359375,0.9276639223098755,0.11925167590379715,-0.052778344601392746
1684201263165362000,2.30536181640625,1.2723900079727173,0.548069953918457,0.22490555047988892
1684201263175389000,2.315388916015625,1.5272595882415771,0.8778725862503052,0.4756712019443512
1684201263185415000,2.325414794921875,1.6915026903152466,1.0584704875946045,0.6818920373916626
1684201263195442000,2.33544189453125,1.7805854082107544,1.0331025123596191,0.8042192459106445
1684201263205468000,2.345468017578125,1.779190182685852,0.8191431760787964,0.8330119848251343
1684201263215495000,2.355494873046875,1.7771224975585938,0.45865345001220703,0.8708485960960388
1684201263225521000,2.36552099609375,1.7535532712936401,-0.028968878090381622,0.8241822719573975
1684201263235547000,2.375546875,1.5658222436904907,-0.45706963539123535,0.6999045610427856
1684201263245574000,2.385573974609375,1.255187749862671,-0.917373776435852,0.5969507694244385
1684201263255599900,2.395599853515625,0.8965060710906982,-1.3096848726272583,0.6093227863311768
1684201263265627000,2.405626953125,0.5054506659507751,-1.582014560699463,0.6833411455154419
1684201263275652900,2.41565283203125,0.17703334987163544,-1.702428936958313,0.7978642582893372
1684201263285678800,2.425678955078125,-0.0039527323096990585,-1.7556196451187134,0.8878943920135498
1684201263295706000,2.4357060546875,-0.015685556456446648,-1.7861589193344116,1.0009421110153198
1684201263305732000,2.445732177734375,-0.03932056948542595,-1.7021112442016602,1.0387378931045532
1684201263315758800,2.4557587890625,-0.060054078698158264,-1.494053602218628,1.0261504650115967
1684201263325784800,2.465784912109375,-0.028142400085926056,-1.0536527633666992,0.8807167410850525
1684201263335811800,2.475811767578125,0.02942022867500782,-0.38344240188598633,0.5215553641319275
1684201263345837800,2.485837890625,0.058134157210588455,0.22318287193775177,0.07827682048082352
1684201263355863800,2.49586376953125,0.063927061855793,0.5713967680931091,-0.36885035037994385
1684201263365891000,2.50589111328125,0.08599287271499634,0.6478667259216309,-0.7379979491233826
1684201263375917000,2.5159169921875,0.12516769766807556,0.5394601225852966,-0.9719417095184326
1684201263385943800,2.52594384765625,0.16911055147647858,0.32176172733306885,-1.0685185194015503
1684201263395969800,2.5359697265625,0.19883915781974792,0.03604688122868538,-1.0426304340362549
1684201263405997000,2.5459970703125,0.2238187938928604,-0.29760441184043884,-0.9190230965614319
1684201263416023000,2.55602294921875,0.23115073144435883,-0.6399638652801514,-0.7506816983222961
1684201263426049000,2.566049072265625,0.21498507261276245,-0.9096552133560181,-0.5753857493400574
1684201263436076000,2.576075927734375,0.18485432863235474,-1.0460255146026611,-0.4304943382740021
1684201263446102000,2.58610205078125,0.1505504697561264,-1.0272916555404663,-0.3224146068096161
1684201263456128800,2.596128662109375,0.11442787200212479,-0.8965570330619812,-0.24539439380168915
1684201263466154800,2.60615478515625,0.0665411725640297,-0.6944913864135742,-0.20006369054317474
1684201263476182000,2.61618212890625,0.015023652464151382,-0.48575761914253235,-0.17805185914039612
1684201263486208000,2.6262080078125,-0.02748042903840542,-0.30260908603668213,-0.16407980024814606
1684201263496234000,2.63623388671875,-0.04861794039607048,-0.17375151813030243,-0.1331719607114792
1684201263506261000,2.646260986328125,-0.060132503509521484,-0.10883181542158127,-0.07823754101991653
1684201263516287000,2.656286865234375,-0.0648937001824379,-0.1322668194770813,-0.0066384500823915005
1684201263526314000,2.66631396484375,-0.060439933091402054,-0.21391849219799042,0.07138523459434509
1684201263536340000,2.676340087890625,-0.049065038561820984,-0.3160480558872223,0.14055071771144867
1684201263546366000,2.686365966796875,-0.04704733192920685,-0.39140281081199646,0.19509705901145935
1684201263556393000,2.69639306640625,-0.041227787733078,-0.43362560868263245,0.23264257609844208
1684201263566419000,2.7064189453125,-0.03137023374438286,-0.4370545744895935,0.2489284723997116
1684201263576445700,2.71644580078125,-0.015814976766705513,-0.4190071225166321,0.24629272520542145
1684201263586472000,2.726471923828125,-0.0013396465219557285,-0.3831547498703003,0.21694646775722504
1684201263596499000,2.7364990234375,0.0027083582244813442,-0.3254339098930359,0.1630326360464096
1684201263606525000,2.74652490234375,0.008568637073040009,-0.2566007077693939,0.07482215017080307
1684201263616551000,2.756551025390625,0.009812066331505775,-0.194985032081604,-0.022699875757098198
1684201263626578000,2.766577880859375,0.019284671172499657,-0.1718134582042694,-0.1283712536096573
1684201263636604000,2.77660400390625,0.03448785841464996,-0.18943345546722412,-0.22059865295886993
1684201263646631000,2.786630859375,0.04272745922207832,-0.24418020248413086,-0.2787873446941376
1684201263656657000,2.796656982421875,0.040208641439676285,-0.31458377838134766,-0.3057134747505188
1684201263666684000,2.806683837890625,0.041259076446294785,-0.3781887888908386,-0.3075176179409027
1684201263676710000,2.8167099609375,0.03642623871564865,-0.42290911078453064,-0.29332056641578674
1684201263686736000,2.82673583984375,0.027881400659680367,-0.44301021099090576,-0.2807106673717499
1684201263696763100,2.83676318359375,0.013769577257335186,-0.4598243534564972,-0.26821911334991455
1684201263706789000,2.8467890625,-0.014852738007903099,-0.4622446894645691,-0.2548903524875641
1684201263716816000,2.85681591796875,-0.050630711019039154,-0.45658066868782043,-0.2509930729866028
1684201263726841900,2.866841796875,-0.08898425847291946,-0.45184844732284546,-0.24528738856315613
1684201263736867800,2.876867919921875,-0.12182290107011795,-0.4486912488937378,-0.24297522008419037
1684201263746894800,2.886894775390625,-0.14842195808887482,-0.44849956035614014,-0.2394813597202301
1684201263756920800,2.8969208984375,-0.17679128050804138,-0.43794599175453186,-0.22814667224884033
1684201263766948000,2.906947998046875,-0.19538304209709167,-0.4291897416114807,-0.21389953792095184
1684201263776974000,2.91697412109375,-0.20444577932357788,-0.4257239103317261,-0.19373062252998352
1684201263787000800,2.927000732421875,-0.2126426100730896,-0.4252384901046753,-0.17346590757369995
1684201263797026800,2.93702685546875,-0.21969546377658844,-0.42652344703674316,-0.14610245823860168
1684201263807052800,2.947052734375,-0.22639721632003784,-0.42225325107574463,-0.10654128342866898
1684201263817080000,2.957080078125,-0.227542906999588,-0.4182654321193695,-0.0631386786699295
1684201263827106000,2.96710595703125,-0.21997053921222687,-0.42109057307243347,-0.013576153665781021
1684201263837133000,2.977133056640625,-0.199171781539917,-0.43532678484916687,0.03859836980700493
1684201263847158800,2.98715869140625,-0.1798049360513687,-0.44100502133369446,0.08645989745855331
1684201263857185800,2.997185791015625,-0.15831029415130615,-0.4347473978996277,0.1369779258966446
1684201263867211800,3.007211669921875,-0.1316366195678711,-0.39785635471343994,0.18572752177715302
1684201263877238000,3.017238037109375,-0.09483252465724945,-0.32613664865493774,0.2199920266866684
1684201263887265000,3.02726513671875,-0.03578924760222435,-0.20935723185539246,0.2405288964509964
1684201263897291000,3.037291015625,0.0474662259221077,-0.053700532764196396,0.23255939781665802
1684201263907317800,3.04731787109375,0.15392936766147614,0.12131796032190323,0.21894283592700958
1684201263917343700,3.05734375,0.2705156207084656,0.2815196216106415,0.196421280503273
1684201263927369700,3.06736962890625,0.3749256730079651,0.37700924277305603,0.17419177293777466
1684201263937397000,3.07739697265625,0.4539323151111603,0.38318803906440735,0.14125433564186096
1684201263947423000,3.087423095703125,0.506585419178009,0.2727721929550171,0.09153439104557037
1684201263957450000,3.097449951171875,0.5037754774093628,-0.026086680591106415,0.021729212254285812
1684201263967476000,3.10747607421875,0.4745403528213501,-0.48417404294013977,-0.07331573218107224
1684201263977502700,3.117502685546875,0.4734489917755127,-0.9776175618171692,-0.18695680797100067
1684201263987529000,3.127529052734375,0.4981313943862915,-1.3590577840805054,-0.35287508368492126
1684201263997555000,3.137554931640625,0.5356611609458923,-1.4942318201065063,-0.5996270775794983
1684201264007582000,3.14758203125,0.5658677220344543,-1.3073076009750366,-0.9481527209281921
1684201264017608000,3.15760791015625,0.5912414789199829,-0.8029653429985046,-1.416469931602478
1684201264027635000,3.167635009765625,0.6358596086502075,-0.12956580519676208,-1.93817138671875
1684201264037661000,3.177660888671875,0.6897007822990417,0.45125576853752136,-2.345454454421997
1684201264047688000,3.18768798828125,0.700989305973053,0.8946758508682251,-2.539180278778076
1684201264057714000,3.1977138671875,0.6942983865737915,1.1773262023925781,-2.5364463329315186
1684201264067740000,3.207739990234375,0.7254982590675354,1.2305724620819092,-2.4537851810455322
1684201264077767000,3.217766845703125,0.845224916934967,1.0737357139587402,-2.3643691539764404
1684201264087793000,3.22779296875,1.0035165548324585,0.9061645269393921,-2.219839096069336
1684201264097820000,3.23781982421875,1.206464171409607,0.6950509548187256,-2.060699224472046
1684201264107846100,3.24784619140625,1.407321572303772,0.5805107355117798,-1.8688989877700806
1684201264117873000,3.257872802734375,1.5299196243286133,0.5464656949043274,-1.6566293239593506
1684201264127899000,3.26789892578125,1.5621002912521362,0.5509689450263977,-1.3651304244995117
1684201264137925000,3.277925048828125,1.5361312627792358,0.5181528925895691,-1.0368680953979492
1684201264147952400,3.287952392578125,1.5250297784805298,0.30835506319999695,-0.8592162728309631
1684201264157978400,3.297978271484375,1.5587093830108643,0.22560641169548035,-0.8557320833206177
1684201264168005000,3.308005126953125,1.615105152130127,0.6601260304450989,-0.9425727725028992
1684201264178031000,3.318031005859375,1.6427884101867676,1.4386744499206543,-1.0621702671051025
1684201264188057000,3.32805712890625,1.591718316078186,2.1304848194122314,-1.014305591583252
1684201264198084400,3.33808447265625,1.478682041168213,2.446096420288086,-0.7595452666282654
1684201264208110300,3.3481103515625,1.378814935684204,2.4848251342773438,-0.3873930871486664
1684201264218137300,3.358137451171875,1.2744935750961304,2.274874448776245,-0.09802465885877609
1684201264228163300,3.368163330078125,1.2358897924423218,2.094031810760498,0.02387486957013607
1684201264238190000,3.378190185546875,1.205522894859314,1.9361449480056763,-0.044095925986766815
1684201264248216000,3.388216064453125,1.1809537410736084,1.8502005338668823,-0.13362213969230652
1684201264258242300,3.3982421875,1.178007960319519,1.7711656093597412,-0.20627929270267487
1684201264268269300,3.408269287109375,1.176864504814148,1.700476884841919,-0.19981299340724945
1684201264278295300,3.41829541015625,1.161590576171875,1.5545244216918945,-0.14967100322246552
1684201264288322300,3.428322265625,1.1237915754318237,1.437755823135376,-0.08218249678611755
1684201264298348300,3.438348388671875,1.0697935819625854,1.270684838294983,-0.05350290611386299
1684201264308375300,3.448375244140625,1.007717490196228,1.131659746170044,-0.006640836130827665
1684201264318401300,3.4584013671875,0.8915826678276062,1.0095980167388916,0.045878563076257706
1684201264328427300,3.46842724609375,0.752108633518219,0.8690630197525024,0.10725486278533936
1684201264338454300,3.478454345703125,0.6273829936981201,0.7463541030883789,0.1559733897447586
1684201264348480300,3.488480224609375,0.4876091182231903,0.609275221824646,0.1969776600599289
1684201264358507300,3.49850732421875,0.4260448217391968,0.47740083932876587,0.26532289385795593
1684201264368533200,3.508533203125,0.3486730456352234,0.24755685031414032,0.30440574884414673
1684201264378560300,3.518560302734375,0.26925304532051086,0.04822111129760742,0.3311718702316284
1684201264388586200,3.528586181640625,0.19105111062526703,-0.1120915338397026,0.33417588472366333
1684201264398612200,3.5386123046875,0.11985123157501221,-0.220466747879982,0.35549476742744446
1684201264408639200,3.54863916015625,0.04195988178253174,-0.261079341173172,0.42099979519844055
1684201264418665200,3.558665283203125,-0.04360295459628105,-0.24005503952503204,0.5061719417572021
1684201264428692200,3.568692138671875,-0.13261061906814575,-0.17486877739429474,0.5893409848213196
1684201264438718200,3.57871826171875,-0.22166460752487183,-0.08796689659357071,0.6601874828338623
1684201264448744200,3.588744140625,-0.30085667967796326,-0.09071055054664612,0.7137287855148315
1684201264458771200,3.598771240234375,-0.365619957447052,-0.20916956663131714,0.7481746077537537
1684201264468797200,3.608797119140625,-0.40891748666763306,-0.3883596658706665,0.7610535025596619
1684201264478824200,3.61882421875,-0.4245630204677582,-0.5950108170509338,0.7523369789123535
1684201264488850400,3.628850341796875,-0.41824871301651,-0.7839305996894836,0.7187690734863281
1684201264498877200,3.638877197265625,-0.41031304001808167,-0.9267359972000122,0.6782938241958618
1684201264508903200,3.648903076171875,-0.4303240180015564,-1.022471308708191,0.6413951516151428
1684201264518929200,3.65892919921875,-0.4783085882663727,-1.0674757957458496,0.6317387819290161
1684201264528956200,3.6689560546875,-0.5351582169532776,-1.1124348640441895,0.6575005650520325
1684201264538982100,3.678982177734375,-0.5799845457077026,-1.1790298223495483,0.6807936429977417
1684201264549009400,3.689009521484375,-0.5974032282829285,-1.21490478515625,0.6945082545280457
1684201264559035400,3.699035400390625,-0.5804798603057861,-1.1936372518539429,0.7373957633972168
1684201264569062100,3.709062255859375,-0.5545827746391296,-1.1764405965805054,0.8378881216049194
1684201264579088100,3.719088134765625,-0.5291962027549744,-1.2092336416244507,0.99040287733078
1684201264589114000,3.729114013671875,-0.509003221988678,-1.2364230155944824,1.1465961933135986
1684201264599141400,3.739141357421875,-0.5182065963745117,-1.1726789474487305,1.2308231592178345
1684201264609167400,3.74916748046875,-0.5535403490066528,-1.0291424989700317,1.2045297622680664
1684201264619194400,3.7591943359375,-0.5914387106895447,-0.855319082736969,1.0980808734893799
1684201264629220400,3.769220458984375,-0.6187984347343445,-0.7014436721801758,0.9353392720222473
1684201264639247000,3.7792470703125,-0.6135237812995911,-0.6142712235450745,0.7558209300041199
1684201264649273000,3.789273193359375,-0.6029011607170105,-0.6736850142478943,0.5952526926994324
1684201264659299300,3.79929931640625,-0.6070591807365417,-0.8267006278038025,0.5060802102088928
1684201264669326300,3.809326416015625,-0.6371315121650696,-0.9902920126914978,0.5112220048904419
1684201264679352300,3.819352294921875,-0.6902034878730774,-1.1019999980926514,0.6014885306358337
1684201264689379300,3.82937939453125,-0.7588907480239868,-1.1663120985031128,0.7333033680915833
1684201264699405300,3.8394052734375,-0.8525549173355103,-1.1769319772720337,0.8570386171340942
1684201264709432300,3.849432373046875,-0.9671103954315186,-1.145717978477478,0.9350753426551819
1684201264719458300,3.859458251953125,-1.0809401273727417,-1.1016067266464233,0.9520716667175293
1684201264729484300,3.869484375,-1.1807262897491455,-1.0475459098815918,0.8975880146026611
1684201264739511300,3.87951123046875,-1.2418444156646729,-0.8830850124359131,0.7199096083641052
1684201264749537300,3.889537353515625,-1.188818335533142,-0.40694859623908997,0.3839769959449768
1684201264759564300,3.899564208984375,-1.0077396631240845,0.36657556891441345,-0.0015254365280270576
1684201264769590000,3.909590087890625,-0.7861054539680481,0.9148237705230713,-0.2273556888103485
1684201264779616300,3.9196162109375,-0.5875119566917419,0.8929259181022644,-0.24759331345558167
1684201264789643300,3.929643310546875,-0.4276926815509796,0.513103723526001,-0.10414229333400726
1684201264799669200,3.939669189453125,-0.3404293954372406,0.1781345158815384,0.0868564248085022
1684201264809696300,3.9496962890625,-0.3714604675769806,0.11066193878650665,0.22992384433746338
1684201264819722200,3.95972216796875,-0.498892217874527,0.32131850719451904,0.30766257643699646
1684201264829749200,3.969749267578125,-0.6088989973068237,0.6350359916687012,0.35193103551864624
1684201264839775200,3.979775146484375,-0.6349157094955444,0.8205289244651794,0.3917980194091797
1684201264849801200,3.98980126953125,-0.6004815697669983,0.8149665594100952,0.4228213429450989
1684201264859828200,3.999828125,-0.5619708895683289,0.6332279443740845,0.42530155181884766
1684201264869854200,4.009854248046875,-0.5594754219055176,0.34483882784843445,0.3700003921985626
1684201264879881200,4.019881103515625,-0.5751614570617676,0.059140224009752274,0.24803240597248077
1684201264889907500,4.029907470703125,-0.5434975624084473,-0.24330000579357147,0.09452448785305023
1684201264899934200,4.039934326171875,-0.4351005256175995,-0.6030113101005554,-0.034948013722896576
1684201264909960200,4.049960205078125,-0.3003835380077362,-1.0253227949142456,-0.11784335970878601
1684201264919986200,4.059986083984375,-0.18511740863323212,-1.469430923461914,-0.15042714774608612
1684201264930013200,4.07001318359375,-0.1097075566649437,-1.8396223783493042,-0.16941356658935547
1684201264940039200,4.0800390625,-0.06697740405797958,-1.9634023904800415,-0.1929018497467041
1684201264950066400,4.09006640625,-0.03363066166639328,-1.7827268838882446,-0.24213829636573792
1684201264960092400,4.100092529296875,-0.03195260465145111,-1.3034300804138184,-0.30922919511795044
1684201264970118400,4.110118408203125,-0.08092791587114334,-0.6877090334892273,-0.3766074776649475
1684201264980145200,4.120145263671875,-0.16242730617523193,-0.10472763329744339,-0.4217696487903595
1684201264990171100,4.130171142578125,-0.23787643015384674,0.4024287462234497,-0.41899779438972473
1684201265000198400,4.140198486328125,-0.30583256483078003,0.7784780263900757,-0.37300845980644226
1684201265010224400,4.150224365234375,-0.3501646816730499,1.0402499437332153,-0.26987558603286743
1684201265020251400,4.16025146484375,-0.3865887224674225,1.1897152662277222,-0.12500442564487457
1684201265030277400,4.17027734375,-0.41603291034698486,1.293216347694397,0.05629658326506615
1684201265040303000,4.18030322265625,-0.4259811341762543,1.4171985387802124,0.2800644338130951
1684201265050330000,4.190330078125,-0.4375612437725067,1.5347281694412231,0.5189487338066101
1684201265060356000,4.200356201171875,-0.4456023871898651,1.350706934928894,0.7268281579017639
1684201265070383400,4.21038330078125,-0.43571746349334717,0.93178391456604,0.8232285976409912
1684201265080409300,4.220409423828125,-0.3784951865673065,0.5311206579208374,0.7530004978179932
1684201265090436000,4.23043603515625,-0.2816929817199707,0.2793451249599457,0.5634075999259949
1684201265100462000,4.240462158203125,-0.19516420364379883,0.1233997493982315,0.3326987326145172
1684201265110488000,4.250488037109375,-0.11138077080249786,-0.0029589745681732893,0.14850018918514252
1684201265120515300,4.260515380859375,-0.041657086461782455,-0.07763081789016724,0.0260017029941082
1684201265130541300,4.270541259765625,0.012174595147371292,-0.10440192371606827,-0.03723900765180588
1684201265140568800,4.28056884765625,0.05510448291897774,-0.10893622040748596,-0.048005104064941406
1684201265150594800,4.2905947265625,0.09332328289747238,-0.11288335919380188,-0.010729506611824036
1684201265160621600,4.30062158203125,0.11125940829515457,-0.13279661536216736,0.057568326592445374
1684201265170647800,4.310647705078125,0.12868419289588928,-0.19422374665737152,0.15282666683197021
1684201265180673800,4.320673828125,0.15373095870018005,-0.22363783419132233,0.25950515270233154
1684201265190700800,4.33070068359375,0.1826252043247223,-0.31838759779930115,0.3562755882740021
1684201265200726800,4.340726806640625,0.21874140202999115,-0.5444209575653076,0.43836620450019836
1684201265210753800,4.35075390625,0.25736409425735474,-0.8261140584945679,0.4923580586910248
1684201265220779800,4.36077978515625,0.27428528666496277,-1.0085110664367676,0.5032562017440796
1684201265230806800,4.370806884765625,0.2582898437976837,-1.0931974649429321,0.4536306858062744
1684201265240832800,4.380832763671875,0.21548566222190857,-1.047240972518921,0.36233487725257874
1684201265250858800,4.390858642578125,0.1805974841117859,-0.8419378399848938,0.23064284026622772
1684201265260885800,4.4008857421875,0.1544303297996521,-0.5385358929634094,0.0601470060646534
1684201265270911700,4.410911865234375,0.12819619476795197,-0.2851872742176056,-0.09030754864215851
1684201265280938800,4.420938720703125,0.08805250376462936,-0.1892051100730896,-0.14866672456264496
1684201265290964700,4.43096484375,0.05488003417849541,-0.21752095222473145,-0.1459450125694275
1684201265300990700,4.44099072265625,0.02673707902431488,-0.25229117274284363,-0.11691229790449142
1684201265311017700,4.451017822265625,0.02273048274219036,-0.19671115279197693,-0.10322059690952301
1684201265321043700,4.461043701171875,0.027813391759991646,-0.07567714154720306,-0.13038405776023865
1684201265331070700,4.47107080078125,0.04459710419178009,0.042836543172597885,-0.18961359560489655
1684201265341096700,4.4810966796875,0.05849160999059677,0.09403873980045319,-0.2816159427165985
1684201265351123700,4.491123779296875,0.06726650893688202,0.07189709693193436,-0.3758971393108368
1684201265361149700,4.501149658203125,0.0778440535068512,-0.002240515314042568,-0.4445270597934723
1684201265371175700,4.51117578125,0.07298740744590759,-0.1083495169878006,-0.4683026373386383
1684201265381202700,4.52120263671875,0.05389680340886116,-0.20439349114894867,-0.4291642904281616
1684201265391228700,4.531228759765625,0.03606241196393967,-0.2660166323184967,-0.3533475697040558
1684201265401256000,4.541255859375,0.012264669872820377,-0.290907621383667,-0.24757051467895508
1684201265411282000,4.551281982421875,-0.02075701393187046,-0.3084574043750763,-0.13267368078231812
1684201265421308700,4.56130859375,-0.058511316776275635,-0.3372807800769806,-0.04248199611902237
1684201265431334700,4.571334716796875,-0.09763915836811066,-0.3797592520713806,0.015949128195643425
1684201265441360600,4.581360595703125,-0.13446375727653503,-0.43354952335357666,0.03746160864830017
1684201265451387600,4.5913876953125,-0.16882987320423126,-0.4985401928424835,0.025651849806308746
1684201265461414000,4.601413818359375,-0.2067767083644867,-0.5450334548950195,-0.0011190434452146292
1684201265471441000,4.61144091796875,-0.25804802775382996,-0.5090113282203674,-0.01621628925204277
1684201265481467000,4.621466796875,-0.3153832256793976,-0.38826894760131836,0.008118610829114914
1684201265491493600,4.63149365234375,-0.3640653192996979,-0.26218628883361816,0.06132151931524277
1684201265501519600,4.64151953125,-0.4131721556186676,-0.17770417034626007,0.1245388388633728
1684201265511545600,4.651545654296875,-0.44289904832839966,-0.18315377831459045,0.18367283046245575
1684201265521572900,4.66157275390625,-0.4413760006427765,-0.23892517387866974,0.22911487519741058
1684201265531598800,4.671598876953125,-0.41278183460235596,-0.2969606816768646,0.27023810148239136
1684201265541625900,4.6816259765625,-0.3644856810569763,-0.3854452669620514,0.27093690633773804
1684201265551651800,4.69165185546875,-0.3221491575241089,-0.4127887487411499,0.2666579484939575
1684201265561678600,4.7016787109375,-0.2762117385864258,-0.4149533808231354,0.2546375095844269
1684201265571704800,4.711704833984375,-0.23145709931850433,-0.4178351163864136,0.23278507590293884
1684201265581730800,4.721730712890625,-0.1797638088464737,-0.4243404269218445,0.1785692423582077
1684201265591757800,4.7317578125,-0.0985182449221611,-0.38154616951942444,0.08949500322341919
1684201265601783800,4.74178369140625,-0.017759747803211212,-0.2135409116744995,-0.03626398369669914
1684201265611810600,4.751810546875,0.07211758941411972,0.027589935809373856,-0.17395298182964325
1684201265621836500,4.76183642578125,0.17418056726455688,0.29240483045578003,-0.28748565912246704
1684201265631862500,4.771862548828125,0.28336307406425476,0.543476402759552,-0.3566149175167084
1684201265641889800,4.781889892578125,0.3655546307563782,0.68153977394104,-0.3650621771812439
1684201265651915800,4.791915771484375,0.4075716435909271,0.5715063810348511,-0.2808727025985718
1684201265661942800,4.80194287109375,0.4150972068309784,0.14157631993293762,-0.09129635989665985
1684201265671968800,4.81196875,0.4281255602836609,-0.46324995160102844,0.11037861555814743
1684201265681995800,4.821995849609375,0.47370022535324097,-1.0078669786453247,0.19806505739688873
1684201265692021800,4.832021728515625,0.5344505906105042,-1.4306293725967407,0.13479463756084442
1684201265702047700,4.8420478515625,0.6262140274047852,-1.6752727031707764,-0.09208644181489944
1684201265712074800,4.85207470703125,0.7592038512229919,-1.653435230255127,-0.49253690242767334
1684201265722100700,4.862100830078125,0.9606642723083496,-1.0857113599777222,-1.2971733808517456
1684201265732127700,4.872127685546875,1.2143638134002686,0.15509256720542908,-2.512369155883789
1684201265742153700,4.88215380859375,1.2737619876861572,0.911874532699585,-3.2367584705352783
1684201265752180700,4.8921806640625,1.1748487949371338,1.1108072996139526,-3.303290367126465
1684201265762206700,4.902206787109375,1.131334900856018,1.008110523223877,-3.0168380737304688
1684201265772232700,4.912232666015625,1.3184453248977661,0.9557800889015198,-2.5289130210876465
1684201265782259700,4.922259765625,1.5845178365707397,1.1620831489562988,-1.8627163171768188
1684201265792285700,4.93228564453125,1.7558702230453491,1.2223012447357178,-1.3561127185821533
1684201265802313000,4.94231298828125,1.7753437757492065,0.9522300362586975,-1.190020203590393
1684201265812339000,4.9523388671875,1.679808497428894,0.818865954875946,-1.148471713066101
1684201265822365700,4.96236572265625,1.4847105741500854,1.136455774307251,-1.0084887742996216
1684201265832391700,4.9723916015625,1.3731679916381836,1.6063010692596436,-0.9354486465454102
1684201265842417700,4.982417724609375,1.4090436697006226,2.0118093490600586,-1.0343738794326782
1684201265852444700,4.992444580078125,1.5429717302322388,2.0757107734680176,-1.1797279119491577
1684201265862471000,5.002470947265625,1.730576992034912,1.8700587749481201,-1.1382172107696533
1684201265872498000,5.012497802734375,1.8945609331130981,1.8239120244979858,-0.9168060421943665
1684201265882523600,5.022523681640625,1.941810965538025,2.0899128913879395,-0.6133476495742798
1684201265892550700,5.032550537109375,1.8741151094436646,2.40051007270813,-0.40206271409988403
1684201265902576600,5.04257666015625,1.807796835899353,2.6242055892944336,-0.26682206988334656
1684201265912602600,5.0526025390625,1.6663039922714233,2.6675288677215576,-0.16863152384757996
1684201265922630000,5.0626298828125,1.47908353805542,2.5787930488586426,-0.09420736879110336
1684201265932655900,5.07265576171875,1.3462799787521362,2.410773992538452,-0.04539596289396286
1684201265942682600,5.0826826171875,1.2709441184997559,2.224628210067749,-0.013170119374990463
1684201265952708600,5.09270849609375,1.1760534048080444,2.022207498550415,0.010493098758161068
1684201265962735600,5.102735595703125,1.1053000688552856,1.801666021347046,-0.006107982248067856
1684201265972761900,5.112761962890625,1.044466495513916,1.6315544843673706,-0.003043761942535639
1684201265982787800,5.122787841796875,0.988579511642456,1.414388656616211,-0.009793544188141823
1684201265992814800,5.13281494140625,0.8972633481025696,1.1223022937774658,-0.021359959617257118
1684201266002840800,5.1428408203125,0.8036207556724548,0.9197402596473694,0.01521802507340908
1684201266012867600,5.15286767578125,0.6593741178512573,0.6734205484390259,-0.009121433831751347
1684201266022893600,5.1628935546875,0.5561886429786682,0.5292220711708069,-0.0010464631486684084
1684201266032920800,5.1729208984375,0.44938334822654724,0.37934139370918274,0.011735539883375168
1684201266042946800,5.18294677734375,0.3458274006843567,0.259734570980072,0.050712235271930695
1684201266052972800,5.192972900390625,0.2527008056640625,0.056098490953445435,0.06261718273162842
1684201266062999800,5.202999755859375,0.19612114131450653,-0.09030559659004211,0.10261865705251694
1684201266073025800,5.21302587890625,0.1458907127380371,-0.18684852123260498,0.16784097254276276
1684201266083052800,5.223052734375,0.07337577641010284,-0.17605632543563843,0.2640945315361023
1684201266093078800,5.233078857421875,-0.01546594500541687,-0.05918962135910988,0.40506282448768616
1684201266103105800,5.243105712890625,-0.126036137342453,0.08664428442716599,0.5869048237800598
1684201266113131800,5.2531318359375,-0.23205068707466125,0.1789013147354126,0.7673606276512146
1684201266123157800,5.26315771484375,-0.3455839157104492,0.18421058356761932,0.8971729278564453
1684201266133184800,5.273184814453125,-0.45501643419265747,0.09728247672319412,0.9789361953735352
1684201266143210500,5.28321044921875,-0.5619258284568787,-0.09829874336719513,1.0189217329025269
1684201266153237200,5.2932373046875,-0.6644407510757446,-0.40685173869132996,1.019417643547058
1684201266163263200,5.30326318359375,-0.7540662288665771,-0.8067964315414429,0.9921045899391174
1684201266173289200,5.313289306640625,-0.8261116147041321,-1.2785714864730835,0.9511728882789612
1684201266183316500,5.32331640625,-0.8657887578010559,-1.7322537899017334,0.9144201874732971
1684201266193342500,5.333342529296875,-0.8756775259971619,-2.0743818283081055,0.883983314037323
1684201266203369500,5.343369384765625,-0.8695117235183716,-2.2597832679748535,0.8616575002670288
1684201266213395500,5.3533955078125,-0.8740724325180054,-2.2748186588287354,0.8595762848854065
1684201266223422200,5.363422119140625,-0.9021722078323364,-2.1629865169525146,0.888905942440033
1684201266233448200,5.3734482421875,-0.9638431072235107,-1.998691201210022,0.942592442035675
1684201266243474400,5.383474365234375,-1.0585675239562988,-1.8027721643447876,0.9944098591804504
1684201266253501400,5.39350146484375,-1.1327481269836426,-1.600827932357788,1.0366675853729248
1684201266263527400,5.40352734375,-1.190247654914856,-1.4233404397964478,1.0699286460876465
1684201266273554400,5.413554443359375,-1.2392346858978271,-1.3223668336868286,1.071114182472229
1684201266283580400,5.423580322265625,-1.2826918363571167,-1.2771010398864746,1.0541770458221436
1684201266293607400,5.433607421875,-1.3175009489059448,-1.266039252281189,1.0308730602264404
1684201266303633400,5.44363330078125,-1.3186637163162231,-1.2834739685058594,0.9798240661621094
1684201266313659400,5.453659423828125,-1.280547857284546,-1.3189964294433594,0.9251925349235535
1684201266323686400,5.463686279296875,-1.2154570817947388,-1.3442996740341187,0.8811638355255127
1684201266333712400,5.47371240234375,-1.1357160806655884,-1.3076785802841187,0.8350120782852173
1684201266343739400,5.483739501953125,-1.0548914670944214,-1.2299076318740845,0.7780145406723022
1684201266353765400,5.493765380859375,-0.9797393083572388,-1.126797080039978,0.7121781706809998
1684201266363792400,5.50379248046875,-0.9382787346839905,-1.0245940685272217,0.6683284044265747
1684201266373818400,5.513818359375,-0.9353410005569458,-0.9577618837356567,0.6331201791763306
1684201266383844400,5.52384423828125,-0.95648592710495,-0.9304074645042419,0.5910763144493103
1684201266393871400,5.533871337890625,-0.9412094354629517,-0.842140257358551,0.4761447608470917
1684201266403897300,5.5438974609375,-0.8214665651321411,-0.5230240821838379,0.17436093091964722
1684201266413924400,5.55392431640625,-0.579739511013031,0.12846256792545319,-0.30147287249565125
1684201266423950300,5.563950439453125,-0.29982900619506836,0.7891739010810852,-0.5837064385414124
1684201266433977300,5.573977294921875,-0.13402894139289856,0.912096381187439,-0.485289990901947
1684201266444003300,5.58400341796875,-0.059614088386297226,0.47635582089424133,-0.17662590742111206
1684201266454029300,5.594029296875,-0.015775449573993683,-0.0196993425488472,0.13150793313980103
1684201266464056600,5.604056640625,-0.0040261149406433105,-0.2088271826505661,0.35543984174728394
1684201266474082600,5.61408251953125,-0.06534804403781891,-0.12296567112207413,0.47774216532707214
1684201266484109300,5.624109375,-0.1449320912361145,0.13402830064296722,0.5031623244285583
1684201266494135300,5.63413525390625,-0.1903804987668991,0.39516696333885193,0.458237886428833
1684201266504162300,5.644162353515625,-0.24212120473384857,0.5430416464805603,0.34293127059936523
1684201266514188300,5.654188232421875,-0.33460673689842224,0.5181315541267395,0.1834467649459839
1684201266524214300,5.66421435546875,-0.4388907849788666,0.35168957710266113,0.022366788238286972
1684201266534241500,5.674241455078125,-0.5130842924118042,0.11375053226947784,-0.10377149283885956
1684201266544267500,5.684267578125,-0.5256317257881165,-0.18695685267448425,-0.1674940139055252
1684201266554294300,5.694294189453125,-0.47773221135139465,-0.5704393982887268,-0.16263991594314575
1684201266564320300,5.7043203125,-0.38315749168395996,-1.0647751092910767,-0.11828310787677765
1684201266574347500,5.714347412109375,-0.32279980182647705,-1.4326863288879395,-0.08342359215021133
1684201266584373500,5.72437353515625,-0.34122809767723083,-1.4206371307373047,-0.09724140167236328
1684201266594399500,5.7343994140625,-0.4055391550064087,-1.0332950353622437,-0.15694396197795868
1684201266604426500,5.744426513671875,-0.48402437567710876,-0.41692477464675903,-0.21175901591777802
1684201266614452500,5.754452392578125,-0.5605855584144592,0.2377801239490509,-0.2639324963092804
1684201266624479200,5.764479248046875,-0.6469518542289734,0.9015799760818481,-0.2976742088794708
1684201266634505200,5.774505126953125,-0.7098888754844666,1.543310284614563,-0.31174153089523315
1684201266644532500,5.784532470703125,-0.6784438490867615,2.016732931137085,-0.29337024688720703
1684201266654558500,5.794558349609375,-0.5368252396583557,2.2346031665802,-0.2059365063905716
1684201266664584400,5.80458447265625,-0.3610752522945404,1.980124831199646,-0.05427108705043793
1684201266674611500,5.814611572265625,-0.21028688549995422,1.2207834720611572,0.14070384204387665
1684201266684637200,5.82463720703125,-0.11028144508600235,0.4387073814868927,0.3121371269226074
1684201266694664400,5.83466455078125,-0.031574152410030365,-0.06478133797645569,0.3944768011569977
1684201266704690400,5.8446904296875,0.07261323928833008,-0.2876253128051758,0.43495792150497437
1684201266714717400,5.854717529296875,0.21128496527671814,-0.5420477986335754,0.45315495133399963
1684201266724743400,5.864743408203125,0.26210206747055054,-0.9051806926727295,0.4437297582626343
1684201266734769400,5.874769287109375,0.27159640192985535,-1.2334755659103394,0.4064749777317047
1684201266744796200,5.884796142578125,0.2754555940628052,-1.391897439956665,0.3504961431026459
1684201266754822400,5.894822509765625,0.25167328119277954,-1.3022953271865845,0.31372326612472534
1684201266764849400,5.904849365234375,0.20092888176441193,-1.0453444719314575,0.2660449743270874
1684201266774875400,5.91487548828125,0.1508961021900177,-0.7299714088439941,0.1921565681695938
1684201266784902400,5.92490234375,0.07265535742044449,-0.35546356439590454,0.12444116175174713
1684201266794928400,5.934928466796875,-0.005516627803444862,0.04348495975136757,0.09135854989290237
1684201266804954400,5.944954345703125,-0.06390377134084702,0.3465406894683838,0.0941506028175354
1684201266814981400,5.9549814453125,-0.09411472082138062,0.5058850049972534,0.12607954442501068
1684201266825007400,5.96500732421875,-0.07430373132228851,0.5619232654571533,0.19185270369052887
1684201266835034400,5.975034423828125,-0.021233215928077698,0.46437570452690125,0.2686402499675751
1684201266845060400,5.985060302734375,0.024273015558719635,0.24273252487182617,0.36612793803215027
1684201266855087400,5.99508740234375,0.05809558928012848,-0.013540581800043583,0.46414467692375183
1684201266865113600,6.005113525390625,0.10212003439664841,-0.22965823113918304,0.4961841106414795
1684201266875139600,6.0151396484375,0.13491573929786682,-0.3903622329235077,0.4408841133117676
1684201266885166300,6.025166259765625,0.16966333985328674,-0.4746025502681732,0.30907443165779114
1684201266895192300,6.0351923828125,0.1758040189743042,-0.48721662163734436,0.13689421117305756
1684201266905219300,6.04521923828125,0.15818987786769867,-0.4710528254508972,-0.025971947237849236
1684201266915245300,6.055245361328125,0.12860125303268433,-0.46040669083595276,-0.14225347340106964
1684201266925272600,6.0652724609375,0.10234782099723816,-0.47189050912857056,-0.19558300077915192
1684201266935298600,6.075298583984375,0.07044363766908646,-0.505065381526947,-0.22552016377449036
1684201266945325300,6.0853251953125,0.030606474727392197,-0.4918036162853241,-0.23636296391487122
1684201266955351300,6.095351318359375,-0.02456243894994259,-0.44826287031173706,-0.2502635419368744
1684201266965377300,6.105377197265625,-0.09133267402648926,-0.40529143810272217,-0.2563163638114929
1684201266975404500,6.115404541015625,-0.14515337347984314,-0.3836507797241211,-0.2608632743358612
1684201266985430500,6.125430419921875,-0.1779019981622696,-0.3968387544155121,-0.2680008113384247
1684201266995457500,6.13545751953125,-0.19877928495407104,-0.4059986472129822,-0.25879767537117004
1684201267005483300,6.145483154296875,-0.2165825217962265,-0.4095723330974579,-0.22221623361110687
1684201267015509200,6.15550927734375,-0.24315661191940308,-0.40103963017463684,-0.16158732771873474
1684201267025536300,6.165536376953125,-0.27135732769966125,-0.3764232397079468,-0.08621879667043686
1684201267035562200,6.175562255859375,-0.29020753502845764,-0.3502601981163025,-0.0021603680215775967
1684201267045589500,6.185589599609375,-0.30925846099853516,-0.3036937713623047,0.0855039730668068
1684201267055615500,6.195615478515625,-0.3247649371623993,-0.26805388927459717,0.17849227786064148
1684201267065642200,6.205642333984375,-0.3456086814403534,-0.24286438524723053,0.2935629189014435
1684201267075668200,6.215668212890625,-0.352107971906662,-0.25359848141670227,0.40141451358795166
1684201267085694200,6.225694091796875,-0.3464040160179138,-0.28637638688087463,0.46588751673698425
1684201267095721500,6.235721435546875,-0.3336729109287262,-0.3231019377708435,0.47376298904418945
1684201267105747500,6.24574755859375,-0.3067646026611328,-0.35745272040367126,0.44279763102531433
1684201267115774500,6.2557744140625,-0.28207215666770935,-0.38589373230934143,0.3842394948005676
1684201267125800400,6.265800537109375,-0.2661072909832001,-0.3985022008419037,0.3032042980194092
1684201267135827200,6.2758271484375,-0.24870483577251434,-0.3790445029735565,0.20361162722110748
1684201267145853400,6.285853515625,-0.22459815442562103,-0.35029488801956177,0.09739357233047485
1684201267155879400,6.29587939453125,-0.2029869109392166,-0.334391325712204,-0.026885179802775383
1684201267165906400,6.305906494140625,-0.20577336847782135,-0.3227413296699524,-0.14255692064762115
1684201267175932400,6.315932373046875,-0.19479282200336456,-0.3115348517894745,-0.22345976531505585
1684201267185959700,6.325959716796875,-0.18536575138568878,-0.2827807068824768,-0.2599501311779022
1684201267195985700,6.335985595703125,-0.1786375492811203,-0.2515796422958374,-0.2773227095603943
1684201267206012400,6.346012451171875,-0.14628733694553375,-0.2513117492198944,-0.2554512321949005
1684201267216038400,6.356038330078125,-0.0995744988322258,-0.29932016134262085,-0.19849207997322083
1684201267226064400,6.366064453125,-0.06273525208234787,-0.3760559558868408,-0.1274794340133667
1684201267236091600,6.376091552734375,-0.037300970405340195,-0.4040028750896454,-0.08447183668613434
1684201267246117600,6.38611767578125,0.015476753003895283,-0.32585692405700684,-0.09517880529165268
1684201267256144600,6.39614453125,0.08602462708950043,-0.16452844440937042,-0.15224109590053558
1684201267266170600,6.406170654296875,0.15519596636295319,0.0035923912655562162,-0.2280397266149521
1684201267276197400,6.416197265625,0.2095448225736618,0.15800049901008606,-0.3184616267681122
1684201267286223400,6.426223388671875,0.2695469260215759,0.33073872327804565,-0.4141892194747925
1684201267296250600,6.436250732421875,0.34655308723449707,0.5002384185791016,-0.5027494430541992
1684201267306276600,6.446276611328125,0.4115254282951355,0.6287095546722412,-0.5612204670906067
1684201267316302600,6.456302490234375,0.45883721113204956,0.6500596404075623,-0.5534026026725769
1684201267326329300,6.466329345703125,0.49935322999954224,0.4345635771751404,-0.466695100069046
1684201267336355300,6.476355224609375,0.4963340759277344,-0.049083441495895386,-0.30077439546585083
1684201267346382600,6.486382568359375,0.42385002970695496,-0.6666086912155151,-0.11059516668319702
1684201267356408600,6.49640869140625,0.3081696033477783,-1.1858476400375366,0.05809783190488815
1684201267366435600,6.506435546875,0.19979679584503174,-1.4142485857009888,0.17781996726989746
1684201267376461600,6.516461669921875,0.14707207679748535,-1.3205068111419678,0.2542269825935364
1684201267386487600,6.526487548828125,0.16171786189079285,-0.9812093377113342,0.2841196358203888
1684201267396514300,6.536514404296875,0.20974953472614288,-0.47693756222724915,0.2495722472667694
1684201267406540300,6.546540283203125,0.22471515834331512,0.1264713704586029,0.08766909688711166
1684201267416567600,6.556567626953125,0.18843211233615875,0.6800053715705872,-0.29367801547050476
1684201267426593500,6.566593505859375,0.1922558844089508,1.0447512865066528,-0.8663583397865295
1684201267436620500,6.57662060546875,0.2783433496952057,1.1276423931121826,-1.4757848978042603
1684201267446646500,6.586646484375,0.40655404329299927,1.017271876335144,-1.9520936012268066
1684201267456672500,6.596672607421875,0.5537348985671997,0.8740950226783752,-2.2354559898376465
1684201267466699500,6.606699462890625,0.6476132273674011,0.7695784568786621,-2.345916509628296
1684201267476725500,6.6167255859375,0.6832939386367798,0.756568968296051,-2.31866192817688
1684201267486752500,6.62675244140625,0.6912919282913208,0.9133652448654175,-2.188356637954712
1684201267496778500,6.636778564453125,0.7139835953712463,1.0680032968521118,-1.997692346572876
1684201267506805500,6.646805419921875,0.7290618419647217,1.1523610353469849,-1.7184089422225952
1684201267516831500,6.65683154296875,0.7246545553207397,0.9686147570610046,-1.3879071474075317
1684201267526857700,6.666857666015625,0.7197599411010742,0.6268789768218994,-0.9729635119438171
1684201267536884500,6.676884521484375,0.719382643699646,0.17982101440429688,-0.48591044545173645
1684201267546910500,6.686910400390625,0.7545808553695679,-0.24650871753692627,0.01846110075712204
1684201267556937500,6.6969375,0.8002784252166748,-0.5886098146438599,0.46431809663772583
1684201267566963500,6.70696337890625,0.9159539341926575,-0.7397846579551697,0.7279306054115295
1684201267576990700,6.71699072265625,1.1217466592788696,-0.514743983745575,0.6380197405815125
1684201267587016700,6.7270166015625,1.3415272235870361,0.2273581326007843,0.29013368487358093
1684201267597043500,6.73704345703125,1.4505348205566406,1.1262564659118652,0.03621259331703186
1684201267607069400,6.7470693359375,1.4172247648239136,1.703771710395813,0.04345373064279556
1684201267617095400,6.757095458984375,1.213908314704895,1.888334035873413,0.2206631749868393
1684201267627122400,6.767122314453125,1.023468017578125,1.9602676630020142,0.5266894102096558
1684201267637148700,6.777148681640625,0.898758590221405,1.9756416082382202,0.8331800103187561
1684201267647175400,6.787175537109375,0.8189985156059265,1.9957332611083984,1.0513231754302979
1684201267657201400,6.797201416015625,0.7647757530212402,2.007924795150757,1.146130919456482
1684201267667227400,6.807227294921875,0.7204530835151672,1.9667456150054932,1.1795663833618164
1684201267677254400,6.81725439453125,0.6528432965278625,1.8971506357192993,1.2103863954544067
1684201267687280400,6.8272802734375,0.59205561876297,1.8268295526504517,1.263183355331421
1684201267697307600,6.8373076171875,0.5159043669700623,1.7090424299240112,1.2689931392669678
1684201267707333600,6.847333740234375,0.4444001019001007,1.6133794784545898,1.2870680093765259
1684201267717360400,6.8573603515625,0.37445342540740967,1.5215789079666138,1.328818678855896
1684201267727386400,6.867386474609375,0.303000271320343,1.4089282751083374,1.3815511465072632
1684201267737413400,6.877413330078125,0.22114810347557068,1.317794680595398,1.4529509544372559
1684201267747439600,6.887439697265625,0.13302916288375854,1.2501150369644165,1.5271072387695312
1684201267757465600,6.897465576171875,0.043381694704294205,1.1720483303070068,1.588955283164978
1684201267767492600,6.90749267578125,-0.048564475029706955,1.0955476760864258,1.6576834917068481
1684201267777518600,6.9175185546875,-0.13671448826789856,1.0548956394195557,1.7028931379318237
1684201267787545300,6.92754541015625,-0.21276985108852386,1.057843804359436,1.6913819313049316
1684201267797571300,6.9375712890625,-0.2770029902458191,1.1379884481430054,1.6147315502166748
1684201267807598600,6.9475986328125,-0.32500675320625305,1.3249809741973877,1.4816443920135498
1684201267817624600,6.95762451171875,-0.3336780369281769,1.6071789264678955,1.3074182271957397
1684201267827650600,6.967650634765625,-0.3166351318359375,1.9604506492614746,1.1190943717956543
1684201267837677600,6.977677490234375,-0.28564584255218506,2.3415791988372803,0.9535066485404968
1684201267847703600,6.98770361328125,-0.26841333508491516,2.6639962196350098,0.8342399597167969
1684201267857730300,6.997730224609375,-0.2609041929244995,2.822214126586914,0.7525047063827515
1684201267867756500,7.007756591796875,-0.2327604591846466,2.7825567722320557,0.7015203237533569
1684201267877783600,7.017783447265625,-0.1350250244140625,2.549034833908081,0.6637282371520996
1684201267887809500,7.0278095703125,-0.005510976538062096,2.179166316986084,0.646445631980896
1684201267897835500,7.03783544921875,0.09682421386241913,1.752726674079895,0.6687241792678833
1684201267907862500,7.047862548828125,0.18233779072761536,1.393255352973938,0.7464708685874939
1684201267917888500,7.057888427734375,0.25134217739105225,1.1695183515548706,0.8668072819709778
1684201267927915500,7.06791552734375,0.3017432987689972,1.108345866203308,1.0061955451965332
1684201267937941500,7.07794140625,0.3442700505256653,1.1863528490066528,1.1633459329605103
1684201267947968500,7.087968505859375,0.3946053981781006,1.3506213426589966,1.3219553232192993
1684201267957994500,7.097994384765625,0.43528470396995544,1.480665922164917,1.4049506187438965
1684201267968020500,7.1080205078125,0.47295618057250977,1.5913578271865845,1.4240516424179077
1684201267978047500,7.118047607421875,0.5007306933403015,1.708821415901184,1.4075860977172852
1684201267988073500,7.128073486328125,0.4885656237602234,1.797000765800476,1.3545122146606445
1684201267998100500,7.1381005859375,0.44509369134902954,1.832288384437561,1.311113953590393
1684201268008126500,7.14812646484375,0.4050021767616272,1.8140978813171387,1.3484545946121216
1684201268018153500,7.158153564453125,0.37257906794548035,1.773154377937317,1.4679073095321655
1684201268028179500,7.168179443359375,0.3634161949157715,1.7471539974212646,1.618421196937561
1684201268038205700,7.178205810546875,0.3331988751888275,1.711819052696228,1.7439922094345093
1684201268048232400,7.188232421875,0.27014854550361633,1.6983634233474731,1.8199312686920166
1684201268058258400,7.198258544921875,0.16244813799858093,1.6863821744918823,1.8287321329116821
1684201268068285400,7.208285400390625,-0.030841955915093422,1.6338680982589722,1.772774338722229
1684201268078311400,7.2183115234375,-0.26705801486968994,1.5569251775741577,1.6763010025024414
1684201268088338700,7.228338623046875,-0.5185898542404175,1.4899636507034302,1.5665262937545776
1684201268098364700,7.23836474609375,-0.780022144317627,1.4502609968185425,1.4572770595550537
1684201268108391400,7.248391357421875,-1.0514185428619385,1.4391143321990967,1.3613977432250977
1684201268118417400,7.25841748046875,-1.3310260772705078,1.4435317516326904,1.3002123832702637
1684201268128443400,7.268443359375,-1.5696778297424316,1.470253348350525,1.302491545677185
1684201268138470400,7.278470458984375,-1.6930121183395386,1.514905571937561,1.3571288585662842
1684201268148497000,7.288496826171875,-1.535092830657959,1.5872313976287842,1.4223108291625977
1684201268158524000,7.29852392578125,-0.9751644134521484,1.619195580482483,1.3996533155441284
1684201268168550000,7.3085498046875,-0.4517883062362671,1.6534478664398193,1.330791711807251
1684201268178576600,7.31857666015625,-0.08679867535829544,1.6517808437347412,1.2887132167816162
1684201268188602600,7.3286025390625,0.11692781746387482,1.6196510791778564,1.2450528144836426
1684201268198628600,7.338628662109375,0.19216583669185638,1.617005467414856,1.1958218812942505
1684201268208656000,7.34865576171875,0.17489203810691833,1.64492928981781,1.1594481468200684
1684201268218681900,7.358681884765625,0.09615306556224823,1.637284755706787,1.1438517570495605
1684201268228708900,7.368708984375,0.001393793849274516,1.6490696668624878,1.1658270359039307
1684201268238734800,7.37873486328125,-0.07220296561717987,1.8166738748550415,1.2301568984985352
1684201268248761600,7.38876171875,-0.0809735506772995,2.211874008178711,1.321979284286499
1684201268258787800,7.398787841796875,-0.04025408253073692,2.6507930755615234,1.3996484279632568
1684201268268814800,7.40881494140625,-0.01225040853023529,2.8319034576416016,1.4460487365722656
1684201268278840800,7.4188408203125,-0.024060441181063652,2.743394374847412,1.5300549268722534
1684201268288866800,7.42886669921875,-0.045734576880931854,2.5986998081207275,1.6689084768295288
1684201268298893600,7.4388935546875,-0.046455856412649155,2.6287131309509277,1.7908562421798706
1684201268308919600,7.44891943359375,-0.015468912199139595,2.806469202041626,1.8669323921203613
1684201268318946800,7.45894677734375,0.05517715960741043,2.9321701526641846,1.9117395877838135
1684201268328972800,7.468972900390625,0.130142480134964,2.9090535640716553,1.9473845958709717
1684201268338999800,7.478999755859375,0.17285461723804474,2.765608787536621,1.9383357763290405
1684201268349025800,7.48902587890625,0.17509274184703827,2.6722428798675537,1.88264799118042
1684201268359051800,7.4990517578125,0.15582652390003204,2.674314022064209,1.823923945426941
1684201268369078800,7.509078857421875,0.12379855662584305,2.706195592880249,1.7593486309051514
1684201268379104800,7.519104736328125,0.07471977174282074,2.816267728805542,1.6806559562683105
1684201268389131800,7.5291318359375,0.027772238478064537,3.109548568725586,1.6016501188278198
1684201268399157800,7.53915771484375,-0.01713702082633972,3.5383028984069824,1.530432105064392
1684201268409184800,7.549184814453125,-0.042067937552928925,3.9048402309417725,1.481496810913086
1684201268419210800,7.559210693359375,-0.05682392045855522,4.070450782775879,1.4583244323730469
1684201268429236700,7.56923681640625,-0.06157766655087471,4.120570182800293,1.4661767482757568
1684201268439263700,7.579263671875,-0.054536692798137665,4.0584306716918945,1.5087389945983887
1684201268449289700,7.589289794921875,-0.03414806351065636,3.9494495391845703,1.5755822658538818
1684201268459316700,7.599316650390625,-0.010612593032419682,3.8310980796813965,1.6898696422576904
1684201268469342700,7.6093427734375,-0.02031448855996132,3.715667486190796,1.8252458572387695
1684201268479369700,7.61936962890625,-0.05720384046435356,3.6240878105163574,1.9547185897827148
1684201268489396000,7.62939599609375,-0.12104859948158264,3.588169574737549,2.0435593128204346
1684201268499422000,7.639421875,-0.20476415753364563,3.525766134262085,2.066067695617676
1684201268509448700,7.64944873046875,-0.2832009196281433,3.44809627532959,2.028421401977539
1684201268519474700,7.659474609375,-0.3419731557369232,3.3480255603790283,1.9394490718841553
1684201268529501700,7.669501708984375,-0.3487500846385956,3.270075559616089,1.8215309381484985
1684201268539527700,7.679527587890625,-0.30333003401756287,3.183880567550659,1.6790574789047241
1684201268549555000,7.689554931640625,-0.22148577868938446,3.0685009956359863,1.5344080924987793
1684201268559581000,7.699580810546875,-0.12607119977474213,2.9108917713165283,1.4081056118011475
1684201268569607700,7.709607666015625,-0.049598269164562225,2.721010208129883,1.305389642715454
1684201268579633700,7.719633544921875,-0.016311829909682274,2.519656181335449,1.2481608390808105
1684201268589659600,7.72965966796875,-0.029871849343180656,2.28940749168396,1.2396305799484253
1684201268599687000,7.73968701171875,-0.0639059841632843,2.056971549987793,1.2457691431045532
1684201268609713000,7.749712890625,-0.11095311492681503,1.8461663722991943,1.234961748123169
1684201268619739600,7.75973974609375,-0.16065099835395813,1.66853928565979,1.222277283668518
1684201268629765600,7.769765625,-0.20927472412586212,1.509217619895935,1.2153303623199463
1684201268639792600,7.779792724609375,-0.2517821192741394,1.3653255701065063,1.207374095916748
1684201268649818600,7.789818603515625,-0.3008170425891876,1.2138862609863281,1.2010711431503296
1684201268659844900,7.799844970703125,-0.3624541163444519,1.0682913064956665,1.1897550821304321
1684201268669871900,7.809871826171875,-0.4200124740600586,0.9675443172454834,1.159140706062317
1684201268679897900,7.81989794921875,-0.4763484597206116,0.9408572912216187,1.1108028888702393
1684201268689924600,7.829924560546875,-0.5240941047668457,1.0069319009780884,1.046041488647461
1684201268699950600,7.83995068359375,-0.5556146502494812,1.1335572004318237,0.9715505242347717
1684201268709977900,7.849977783203125,-0.5746051073074341,1.2492763996124268,0.9008175134658813
1684201268720003800,7.86000390625,-0.5790548920631409,1.2777888774871826,0.8279489278793335
1684201268730030800,7.87003076171875,-0.5543245077133179,1.1802772283554077,0.7169076204299927
1684201268740056800,7.880056884765625,-0.483677476644516,1.0593128204345703,0.5271722674369812
1684201268750082800,7.890082763671875,-0.3747270107269287,1.029960036277771,0.2641555070877075
1684201268760109600,7.900109619140625,-0.25095975399017334,1.1232235431671143,-0.023689277470111847
1684201268770135600,7.910135498046875,-0.10112468898296356,1.2814286947250366,-0.3314196765422821
1684201268780162800,7.920162841796875,0.05771595984697342,1.456948161125183,-0.638443112373352
1684201268790188800,7.930188720703125,0.2277071177959442,1.622399926185608,-0.932691752910614
1684201268800215800,7.9402158203125,0.3923206627368927,1.7228833436965942,-1.2150603532791138
1684201268810241800,7.95024169921875,0.5380576252937317,1.71670401096344,-1.4458009004592896
1684201268820267800,7.960267822265625,0.655495822429657,1.6079001426696777,-1.5806410312652588
1684201268830294800,7.970294677734375,0.7563145756721497,1.4173232316970825,-1.5968722105026245
1684201268840320800,7.98032080078125,0.8353185057640076,1.1212338209152222,-1.4965401887893677
1684201268850347800,7.99034765625,0.9058451652526855,0.8137704730033875,-1.26422917842865
1684201268860373800,8.000373779296876,0.9776042699813843,0.5403819680213928,-0.9234307408332825
1684201268870400800,8.01040087890625,1.0380703210830688,0.33734947443008423,-0.5390836000442505
1684201268880426800,8.0204267578125,1.0600982904434204,0.2054014950990677,-0.15745998919010162
1684201268890453800,8.030453857421875,1.0268518924713135,0.14125898480415344,0.17882642149925232
1684201268900479700,8.040479736328125,0.9835191965103149,0.07456034421920776,0.45039209723472595
1684201268910505700,8.050505615234375,0.9620586633682251,0.07137813419103622,0.748999834060669
1684201268920532700,8.06053271484375,1.0055280923843384,0.06662744283676147,1.0274786949157715
1684201268930558700,8.070558837890625,1.1727242469787598,0.13969659805297852,1.163106918334961
1684201268940585700,8.080585693359374,1.439096212387085,0.5159010887145996,1.0095146894454956
1684201268950611700,8.09061181640625,1.7463358640670776,1.3508225679397583,0.5754037499427795
1684201268960638700,8.100638671875,1.8874589204788208,2.1961982250213623,0.20317047834396362
1684201268970664700,8.110664794921876,1.7905890941619873,2.699436902999878,0.11112922430038452
1684201268980690700,8.120690673828125,1.5478302240371704,2.7847936153411865,0.22167621552944183
1684201268990717700,8.1307177734375,1.3171535730361938,2.6792714595794678,0.47094303369522095
1684201269000744000,8.140743896484375,1.204626202583313,2.6120073795318604,0.7302250266075134
1684201269010770700,8.150770751953125,1.1474080085754395,2.540043354034424,0.8761007785797119
1684201269020796700,8.160796630859375,1.0637688636779785,2.449842691421509,0.8756864666938782
1684201269030823700,8.17082373046875,0.9766963124275208,2.371171236038208,0.7859054803848267
1684201269040849700,8.180849609375,0.9239161014556885,2.3000283241271973,0.6279295682907104
1684201269050877000,8.190876953125,0.919467568397522,2.1202354431152344,0.39408376812934875
1684201269060903000,8.20090283203125,0.9433243274688721,1.9245392084121704,0.178963303565979
1684201269070929000,8.210928955078124,0.9702627658843994,1.7749290466308594,0.03498242050409317
1684201269080955600,8.22095556640625,0.9815840721130371,1.6074575185775757,-0.030459212139248848
1684201269090981600,8.230981689453126,0.941247284412384,1.3887643814086914,-0.023205293342471123
1684201269101008600,8.241008544921876,0.8493163585662842,1.1306706666946411,0.014261450618505478
1684201269111035000,8.251034912109375,0.7530694603919983,0.9341639876365662,0.06334377080202103
1684201269121062000,8.261061767578125,0.6968514323234558,0.8967239260673523,0.13213315606117249
1684201269131088000,8.271087890625,0.631831705570221,0.8259325623512268,0.14162279665470123
1684201269141113900,8.28111376953125,0.5958753824234009,0.8090328574180603,0.13021573424339294
1684201269151140000,8.29114013671875,0.6001204252243042,0.8566685914993286,0.11320771276950836
1684201269161166000,8.301166015625,0.593866229057312,0.8531612753868103,0.06771088391542435
1684201269171192800,8.31119287109375,0.6136457920074463,0.9282001256942749,0.08260301500558853
1684201269181218800,8.32121875,0.6053082942962646,0.9238519072532654,0.09775566309690475
1684201269191245800,8.331245849609376,0.5583388805389404,0.8763245940208435,0.12216699868440628
1684201269201271800,8.341271728515625,0.5195711255073547,0.9100499153137207,0.1712770164012909
1684201269211298000,8.351298095703125,0.47418129444122314,0.9224370718002319,0.19965113699436188
1684201269221324800,8.36132470703125,0.41894492506980896,0.8352704048156738,0.19847872853279114
1684201269231350800,8.371350830078125,0.38294246792793274,0.6812363862991333,0.2041371464729309
1684201269241377800,8.381377685546875,0.36371859908103943,0.5239847898483276,0.26081594824790955
1684201269251403800,8.39140380859375,0.33516445755958557,0.33386197686195374,0.3323225975036621
1684201269261431000,8.40143115234375,0.28757211565971375,0.1489991694688797,0.39569416642189026
1684201269271457000,8.41145703125,0.23723091185092926,0.028066346421837807,0.4484788179397583
1684201269281483800,8.42148388671875,0.18143101036548615,-0.06666003167629242,0.49326351284980774
1684201269291509800,8.431509765625,0.12648175656795502,-0.14237289130687714,0.531385600566864
1684201269301535700,8.44153564453125,0.06604070216417313,-0.20027676224708557,0.5701855421066284
1684201269311562800,8.451562744140626,0.006676173768937588,-0.24743787944316864,0.6035161018371582
1684201269321589000,8.461589111328125,-0.04610169678926468,-0.2883898615837097,0.6338592171669006
1684201269331616000,8.471615966796875,-0.07938109338283539,-0.30886346101760864,0.6676539778709412
1684201269341642000,8.48164208984375,-0.09898071736097336,-0.2781100869178772,0.7025492787361145
1684201269351668700,8.491668701171875,-0.11334899812936783,-0.1780727207660675,0.7373064756393433
1684201269361694700,8.50169482421875,-0.11554684489965439,-0.07619693875312805,0.7903541326522827
1684201269371720700,8.511720703125,-0.11776286363601685,-0.06522364914417267,0.8640075922012329
1684201269381748000,8.521748046875,-0.11057985574007034,-0.20839433372020721,0.9359642267227173
1684201269391774000,8.53177392578125,-0.07093417644500732,-0.431229829788208,0.963850200176239
1684201269401801000,8.541801025390624,-0.002132937079295516,-0.5753774642944336,0.911745548248291
1684201269411827000,8.551826904296876,0.06379015743732452,-0.6286702752113342,0.7694448828697205
1684201269421853700,8.561853759765626,0.11118580400943756,-0.6340488791465759,0.5756933093070984
1684201269431880000,8.5718798828125,0.10840252786874771,-0.6631196737289429,0.45220866799354553
1684201269441907000,8.581906982421875,-0.025885291397571564,-0.6883572340011597,0.4745226800441742
1684201269451933000,8.591932861328125,-0.28510966897010803,-0.7491076588630676,0.602637529373169
1684201269461960000,8.6019599609375,-0.5132243633270264,-0.8805792927742004,0.7533266544342041
1684201269471986000,8.61198583984375,-0.6634088158607483,-1.0115532875061035,0.8956148624420166
1684201269482012000,8.622011962890625,-0.7400338649749756,-1.00295090675354,0.9473705887794495
1684201269492039000,8.632038818359375,-0.7806886434555054,-0.8981220126152039,0.8816030025482178
1684201269502065000,8.64206494140625,-0.7872121930122375,-0.7877649068832397,0.7570696473121643
1684201269512092000,8.652091796875,-0.7876918315887451,-0.7489114999771118,0.6537237763404846
1684201269522118000,8.662117919921876,-0.7883532047271729,-0.7920659780502319,0.5979451537132263
1684201269532145000,8.672144775390626,-0.7934747338294983,-0.8585286140441895,0.5480058193206787
1684201269542171000,8.6821708984375,-0.7982255220413208,-0.8768323659896851,0.4903242588043213
1684201269552196900,8.69219677734375,-0.8078731298446655,-0.8115508556365967,0.4278465211391449
1684201269562223900,8.702223876953125,-0.8148996829986572,-0.726336658000946,0.37038952112197876
1684201269572249900,8.712249755859375,-0.8105171918869019,-0.6922457814216614,0.32581567764282227
1684201269582276900,8.72227685546875,-0.7795446515083313,-0.692369282245636,0.302257776260376
1684201269592302800,8.732302734375,-0.7403437495231628,-0.6738643050193787,0.26488640904426575
1684201269602329900,8.742329833984375,-0.7004457712173462,-0.6889294385910034,0.22163817286491394
1684201269612355800,8.75235595703125,-0.6431154012680054,-0.7154433131217957,0.15005533397197723
1684201269622381800,8.7623818359375,-0.5378307104110718,-0.6588966250419617,0.05020095780491829
1684201269632408800,8.772408935546874,-0.3810482919216156,-0.4432750940322876,-0.05871034786105156
1684201269642434800,8.782434814453126,-0.2045241892337799,-0.15888644754886627,-0.1545807421207428
1684201269652461800,8.7924619140625,-0.08539140969514847,0.03813954442739487,-0.19949042797088623
1684201269662488000,8.802488037109375,-0.05602097883820534,0.11842592805624008,-0.1854371726512909
1684201269672514800,8.812514892578125,-0.11914268881082535,0.18105921149253845,-0.13015981018543243
1684201269682540800,8.822540771484375,-0.2119753211736679,0.3009902536869049,-0.03793514147400856
1684201269692567800,8.83256787109375,-0.2491205632686615,0.4958662688732147,0.09603463858366013
1684201269702593800,8.84259375,-0.23431721329689026,0.6596465706825256,0.23372866213321686
1684201269712619800,8.852619873046875,-0.19471041858196259,0.6941113471984863,0.32364392280578613
1684201269722647000,8.86264697265625,-0.16357089579105377,0.621975839138031,0.3481580317020416
1684201269732673000,8.872673095703124,-0.1646137833595276,0.4099429249763489,0.3027218282222748
1684201269742699800,8.88269970703125,-0.1802562028169632,0.017980316653847694,0.20642314851284027
1684201269752725800,8.892725830078126,-0.17817626893520355,-0.4582253694534302,0.09208273887634277
1684201269762752800,8.902752685546876,-0.1703091859817505,-0.8818414211273193,-0.019901027902960777
1684201269772779000,8.912779052734376,-0.1530013084411621,-1.1614435911178589,-0.11531197279691696
1684201269782806000,8.922805908203125,-0.12632927298545837,-1.2663129568099976,-0.16618727147579193
1684201269792832000,8.93283203125,-0.09723184257745743,-1.2098877429962158,-0.17285476624965668
1684201269802858000,8.94285791015625,-0.07899947464466095,-1.0518133640289307,-0.13471128046512604
1684201269812884700,8.952884765625,-0.1094449982047081,-0.8412710428237915,-0.09383787959814072
1684201269822910700,8.96291064453125,-0.19428589940071106,-0.6414938569068909,-0.09270421415567398
1684201269832938000,8.97293798828125,-0.2905226945877075,-0.4724492132663727,-0.1400669366121292
1684201269842964000,8.9829638671875,-0.3707674741744995,-0.3379587233066559,-0.21113111078739166
1684201269852991000,8.992990966796874,-0.4206647276878357,-0.24343648552894592,-0.263985276222229
1684201269863017000,9.003016845703126,-0.43533822894096375,-0.1970474123954773,-0.28230249881744385
1684201269873043000,9.01304296875,-0.4467112421989441,-0.17643827199935913,-0.26972517371177673
1684201269883070000,9.023070068359376,-0.45250898599624634,-0.09887969493865967,-0.23874206840991974
1684201269893096000,9.033095947265625,-0.44079452753067017,0.08301180601119995,-0.19640766084194183
1684201269903123000,9.043123046875,-0.44615438580513,0.36497458815574646,-0.11933735758066177
1684201269913149000,9.05314892578125,-0.4374288022518158,0.681397020816803,0.02161869965493679
1684201269923176000,9.063176025390625,-0.37387698888778687,0.9846118092536926,0.2070581614971161
1684201269933201700,9.07320166015625,-0.2660607695579529,1.206853985786438,0.40675368905067444
1684201269943229000,9.08322900390625,-0.15904226899147034,1.2001166343688965,0.5696485042572021
1684201269953255000,9.0932548828125,-0.11353364586830139,0.9585050940513611,0.6295092105865479
1684201269963281000,9.103281005859374,-0.08849890530109406,0.7106814980506897,0.5823729634284973
1684201269973308000,9.113307861328124,-0.02419794723391533,0.5529795289039612,0.4655829668045044
1684201269983334000,9.123333984375,0.0529344379901886,0.3966253697872162,0.33591359853744507
1684201269993361000,9.13336083984375,0.1235465556383133,0.23887969553470612,0.23658809065818787
1684201270003387000,9.143386962890625,0.17190498113632202,0.10896427184343338,0.1728493571281433
1684201270013414000,9.153413818359375,0.18620163202285767,-0.0019622440449893475,0.13601677119731903
1684201270023440000,9.16343994140625,0.15975996851921082,-0.0771537646651268,0.11787380278110504
1684201270033467000,9.173466796875,0.13658593595027924,-0.14568330347537994,0.13662511110305786
1684201270043492900,9.183492919921875,0.1373491883277893,-0.19333809614181519,0.20594541728496552
1684201270053518800,9.193518798828125,0.16353152692317963,-0.25563448667526245,0.3081764280796051
1684201270063545900,9.2035458984375,0.17821045219898224,-0.39337795972824097,0.38764867186546326
1684201270073571800,9.21357177734375,0.17793934047222137,-0.5646751523017883,0.42228227853775024
1684201270083598800,9.223598876953124,0.16011616587638855,-0.6816152930259705,0.4214545786380768
1684201270093624800,9.233624755859376,0.12565645575523376,-0.6814592480659485,0.38739699125289917
1684201270103652000,9.243652099609376,0.10571923851966858,-0.5781701803207397,0.31119483709335327
1684201270113678000,9.253677978515626,0.07315437495708466,-0.4206860065460205,0.20527799427509308
1684201270123704800,9.263704833984375,0.020133789628744125,-0.2472265362739563,0.11629753559827805
1684201270133730800,9.273730712890625,-0.029707804322242737,-0.12282895296812057,0.06933322548866272
1684201270143757300,9.28375732421875,-0.08042777329683304,-0.08740485459566116,0.07890748977661133
1684201270153784300,9.293784423828125,-0.12429696321487427,-0.09907882660627365,0.13915352523326874
1684201270163810300,9.303810302734375,-0.1565861701965332,-0.13900426030158997,0.22735272347927094
1684201270173837300,9.31383740234375,-0.14680065214633942,-0.20272038877010345,0.27216947078704834
1684201270183863300,9.32386328125,-0.10754598677158356,-0.29489901661872864,0.24909792840480804
1684201270193890300,9.333890380859375,-0.07738861441612244,-0.3845788240432739,0.18373063206672668
1684201270203916300,9.343916259765624,-0.09861807525157928,-0.4483702778816223,0.11856821924448013
1684201270213942300,9.3539423828125,-0.1444324404001236,-0.4883784353733063,0.07981549948453903
1684201270223969300,9.36396923828125,-0.183396115899086,-0.5236054062843323,0.048383601009845734
1684201270233995300,9.373995361328125,-0.21215106546878815,-0.536325991153717,0.02941843308508396
1684201270244022300,9.384022216796875,-0.2364805042743683,-0.5217964053153992,0.031704191118478775
1684201270254048300,9.39404833984375,-0.24739493429660797,-0.48673534393310547,0.03908780589699745
1684201270264075300,9.4040751953125,-0.251802921295166,-0.4224311113357544,0.026254460215568542
1684201270274101200,9.414101318359375,-0.24939516186714172,-0.3492826223373413,-0.014581385999917984
1684201270284128300,9.424128173828125,-0.26070913672447205,-0.28225263953208923,-0.0713091716170311
1684201270294154500,9.434154541015625,-0.2662074863910675,-0.2255678027868271,-0.10608526319265366
1684201270304180500,9.444180419921874,-0.25562217831611633,-0.209009051322937,-0.1268836110830307
1684201270314207200,9.454207275390624,-0.23821628093719482,-0.23806945979595184,-0.13540439307689667
1684201270324233200,9.464233154296876,-0.21944092214107513,-0.27907538414001465,-0.13613101840019226
1684201270334260200,9.47426025390625,-0.2113763391971588,-0.32694703340530396,-0.15686798095703125
1684201270344286200,9.4842861328125,-0.20881590247154236,-0.38006383180618286,-0.19401277601718903
1684201270354313500,9.4943134765625,-0.19496986269950867,-0.4270406663417816,-0.2242380529642105
1684201270364339500,9.50433935546875,-0.19478173553943634,-0.4476352632045746,-0.22970110177993774
1684201270374366200,9.5143662109375,-0.2046482115983963,-0.46066293120384216,-0.20501545071601868
1684201270384392200,9.52439208984375,-0.22650933265686035,-0.45737791061401367,-0.168400377035141
1684201270394418200,9.534418212890625,-0.24693737924098969,-0.4517812728881836,-0.11464208364486694
1684201270404445400,9.544445556640625,-0.27751582860946655,-0.45504918694496155,-0.057970669120550156
1684201270414471400,9.554471435546875,-0.3195863366127014,-0.43690454959869385,-0.017787562683224678
1684201270424498400,9.56449853515625,-0.3583863377571106,-0.40278488397598267,0.0022857636213302612
1684201270434524400,9.5745244140625,-0.371622771024704,-0.3679156005382538,0.01913558319211006
1684201270444551200,9.58455126953125,-0.3713200092315674,-0.3534599542617798,0.036638740450143814
1684201270454577200,9.5945771484375,-0.3594422936439514,-0.3699377179145813,0.06183677166700363
1684201270464604400,9.6046044921875,-0.34377095103263855,-0.37036606669425964,0.06840410828590393
1684201270474630400,9.61463037109375,-0.3271171450614929,-0.3261498510837555,0.03368660807609558
1684201270484656400,9.624656494140625,-0.2951951026916504,-0.2533787488937378,-0.02774074301123619
1684201270494683400,9.634683349609375,-0.24789123237133026,-0.18328702449798584,-0.08031873404979706
1684201270504709000,9.644709228515625,-0.17708812654018402,-0.13836386799812317,-0.10091467201709747
1684201270514736400,9.654736328125,-0.09332264959812164,-0.11253200471401215,-0.11363846063613892
1684201270524762400,9.664762451171875,-0.0029879792127758265,-0.04054931178689003,-0.14571590721607208
1684201270534789400,9.674789306640625,0.09693488478660583,0.10141554474830627,-0.202617809176445
1684201270544815400,9.6848154296875,0.18349365890026093,0.29824844002723694,-0.2531846761703491
1684201270554842000,9.694842041015624,0.2637467086315155,0.4651806950569153,-0.25471916794776917
1684201270564868000,9.7048681640625,0.3339393138885498,0.4830968379974365,-0.17351794242858887
1684201270574894000,9.71489404296875,0.41464853286743164,0.2874232232570648,-0.020500423386693
1684201270584921300,9.72492138671875,0.5003193020820618,-0.1100037693977356,0.13821293413639069
1684201270594947300,9.734947265625,0.524298906326294,-0.6225022077560425,0.2338355928659439
1684201270604974300,9.744974365234375,0.5259684324264526,-1.2249560356140137,0.26060736179351807
1684201270615000300,9.755000244140625,0.5263404846191406,-1.7362734079360962,0.08988407999277115
1684201270625027000,9.765027099609375,0.6016873121261597,-1.1720341444015503,-0.7839423418045044
1684201270635053300,9.77505322265625,0.8005111813545227,0.6761194467544556,-2.310650587081909
1684201270645080300,9.785080322265625,0.9046363830566406,1.5064008235931396,-3.150308847427368
1684201270655106300,9.795106201171874,0.9116338491439819,1.3891953229904175,-3.356962203979492
1684201270665132300,9.80513232421875,0.9451485276222229,1.1329935789108276,-3.2995896339416504
1684201270675159300,9.8151591796875,1.0363792181015015,1.1391910314559937,-3.0868799686431885
1684201270685185300,9.825185302734376,1.0903139114379883,1.273876667022705,-2.8193628787994385
1684201270695212300,9.83521240234375,1.0485340356826782,1.3752405643463135,-2.5178141593933105
1684201270705238300,9.84523828125,0.9082377552986145,1.4381980895996094,-2.1592609882354736
1684201270715265300,9.855265380859375,0.7116464376449585,1.4365178346633911,-1.6845518350601196
1684201270725291300,9.865291259765625,0.5596741437911987,1.2699755430221558,-1.0777360200881958
1684201270735317200,9.875317138671875,0.48475784063339233,0.6781876087188721,-0.33530160784721375
1684201270745344500,9.885344482421875,0.5629514455795288,-0.380452036857605,0.5002021193504333
1684201270755370500,9.89537060546875,0.7657309174537659,-1.491705298423767,1.142714500427246
1684201270765397200,9.905397216796874,1.130578875541687,-2.0557267665863037,0.9490702748298645
1684201270775423200,9.91542333984375,1.711050033569336,-0.7461258769035339,-0.3500058650970459
1684201270785450200,9.9254501953125,2.1217470169067383,1.282950758934021,-1.352232813835144
1684201270795476200,9.935476318359376,2.1183671951293945,2.491732120513916,-1.5266752243041992
1684201270805503500,9.94550341796875,1.8755892515182495,2.660789728164673,-1.055106282234192
1684201270815529500,9.955529541015625,1.6818286180496216,2.1991419792175293,-0.41649341583251953
1684201270825556200,9.96555615234375,1.584957242012024,1.6821026802062988,-0.014898302033543587
1684201270835582200,9.975582275390625,1.547438621520996,1.6972243785858154,0.10067330300807953
1684201270845608200,9.985608154296875,1.5575898885726929,1.889924168586731,-0.1233113706111908
1684201270855635500,9.995635498046875,1.6051549911499023,2.1167171001434326,-0.3653112053871155
1684201270865661400,10.005661376953125,1.664432406425476,2.1318421363830566,-0.47961872816085815
1684201270875688200,10.015688232421875,1.695887565612793,1.904099702835083,-0.4930895268917084
1684201270885714200,10.025714111328124,1.6502491235733032,1.5580374002456665,-0.462863028049469
1684201270895741200,10.0357412109375,1.4984694719314575,1.3655308485031128,-0.44180917739868164
1684201270905767200,10.04576708984375,1.2882483005523682,1.3770787715911865,-0.42305299639701843
1684201270915793200,10.055793212890626,1.0893276929855347,1.4104756116867065,-0.4079486131668091
1684201270925820400,10.0658203125,0.977668285369873,1.3301223516464233,-0.38692334294319153
1684201270935846400,10.075846435546875,0.9278756976127625,1.085507869720459,-0.34611040353775024
1684201270945873200,10.085873046875,0.9589456915855408,0.8537276983261108,-0.26111868023872375
1684201270955899100,10.095899169921875,0.9331806898117065,0.7205065488815308,-0.13554581999778748
1684201270965926400,10.105926513671875,0.8358373641967773,0.7763880491256714,0.028199266642332077
1684201270975952400,10.115952392578125,0.7177461385726929,0.8983573913574219,0.1650306135416031
1684201270985979400,10.1259794921875,0.5863202810287476,0.964464545249939,0.25192558765411377
1684201270996005400,10.13600537109375,0.49674320220947266,1.0145699977874756,0.3419662415981293
1684201271006032100,10.1460322265625,0.382259726524353,0.8365339040756226,0.3543766140937805
1684201271016058000,10.15605810546875,0.25914764404296875,0.6624718308448792,0.402978777885437
1684201271026084000,10.166083984375,0.1443711668252945,0.43754303455352783,0.4364972412586212
1684201271036111400,10.176111328125,0.04302084445953369,0.21151551604270935,0.45820412039756775
1684201271046137300,10.186137451171875,-0.02989022806286812,-0.016493722796440125,0.4915899336338043
1684201271056164400,10.196164306640625,-0.08050040900707245,-0.2554205656051636,0.5419596433639526
1684201271066190300,10.2061904296875,-0.14493872225284576,-0.48325029015541077,0.5961089730262756
1684201271076217300,10.21621728515625,-0.23680712282657623,-0.6564178466796875,0.656748354434967
1684201271086243300,10.226243408203125,-0.349107950925827,-0.7981943488121033,0.7291234731674194
1684201271096269300,10.236269287109375,-0.461603581905365,-0.9508557915687561,0.8130194544792175
1684201271106296300,10.24629638671875,-0.5666818618774414,-1.117324709892273,0.9149149060249329
1684201271116322300,10.256322265625,-0.6614632606506348,-1.2588491439819336,0.9992567300796509
1684201271126349300,10.266349365234374,-0.7492632269859314,-1.3593156337738037,1.0763523578643799
1684201271136375300,10.276375244140626,-0.8396194577217102,-1.4084242582321167,1.1351627111434937
1684201271146402600,10.286402587890626,-0.9252555966377258,-1.3946740627288818,1.1871036291122437
1684201271156428500,10.296428466796876,-1.0287939310073853,-1.3827335834503174,1.2349857091903687
1684201271166455600,10.30645556640625,-1.144897699356079,-1.40226149559021,1.2893887758255005
1684201271176481500,10.3164814453125,-1.2574849128723145,-1.430212140083313,1.361893892288208
1684201271186508500,10.326508544921875,-1.3594826459884644,-1.450421929359436,1.4039050340652466
1684201271196534500,10.336534423828125,-1.4452881813049316,-1.466180682182312,1.4323697090148926
1684201271206560500,10.346560546875,-1.4834872484207153,-1.5070804357528687,1.4403672218322754
1684201271216587500,10.35658740234375,-1.4693553447723389,-1.5488861799240112,1.460936188697815
1684201271226613500,10.366613525390624,-1.450650930404663,-1.5639053583145142,1.474254846572876
1684201271236640500,10.376640625,-1.4094328880310059,-1.5458353757858276,1.4693889617919922
1684201271246666500,10.38666650390625,-1.3411935567855835,-1.466145634651184,1.4185612201690674
1684201271256693500,10.396693603515626,-1.2702181339263916,-1.335536241531372,1.311172366142273
1684201271266719500,10.406719482421876,-1.1846774816513062,-1.1279977560043335,1.1379060745239258
1684201271276746500,10.41674658203125,-1.111241340637207,-0.8570713996887207,0.9351150989532471
1684201271286772500,10.4267724609375,-1.071944236755371,-0.6066218018531799,0.7466951012611389
1684201271296798500,10.436798583984375,-1.048567533493042,-0.43090006709098816,0.5975314378738403
1684201271306825700,10.44682568359375,-1.0164200067520142,-0.38004693388938904,0.4980047047138214
1684201271316851700,10.456851806640625,-0.9606339931488037,-0.3999559283256531,0.46172794699668884
1684201271326878500,10.46687841796875,-0.8816459774971008,-0.4560690224170685,0.4483318626880646
1684201271336904400,10.476904541015625,-0.7893115282058716,-0.49616289138793945,0.42905136942863464
1684201271346931500,10.486931396484374,-0.66808021068573,-0.5105549693107605,0.36175626516342163
1684201271356957400,10.49695751953125,-0.5004544854164124,-0.46270647644996643,0.2570016086101532
1684201271366984700,10.506984619140624,-0.2950342893600464,-0.37914976477622986,0.09947692602872849
1684201271377010700,10.5170107421875,-0.09196930378675461,-0.35321110486984253,-0.0856977179646492
1684201271387036700,10.52703662109375,0.07725822925567627,-0.4123446047306061,-0.23665732145309448
1684201271397063400,10.5370634765625,0.18015159666538239,-0.48290160298347473,-0.3351317048072815
1684201271407089400,10.54708935546875,0.23347537219524384,-0.37258192896842957,-0.39719709753990173
1684201271417116700,10.55711669921875,0.23366552591323853,-0.04500219225883484,-0.40600869059562683
1684201271427142700,10.567142578125,0.19081224501132965,0.43930622935295105,-0.3093703091144562
1684201271437169700,10.577169677734375,0.11123166233301163,0.9935721158981323,-0.08771807700395584
1684201271447195600,10.587195556640625,0.009433494880795479,1.5199886560440063,0.17138344049453735
1684201271457222400,10.597222412109375,-0.09480342268943787,1.9447505474090576,0.32846707105636597
1684201271467248400,10.607248291015624,-0.18269364535808563,2.1993520259857178,0.3645279109477997
1684201271477274600,10.617274658203126,-0.3212318420410156,2.2317683696746826,0.33600836992263794
1684201271487301600,10.627301513671876,-0.4540853202342987,2.0776007175445557,0.3087667226791382
1684201271497327600,10.63732763671875,-0.4827369153499603,1.7456649541854858,0.32470786571502686
1684201271507354600,10.647354736328126,-0.3850080668926239,1.2235280275344849,0.39420774579048157
1684201271517380400,10.65738037109375,-0.23201796412467957,0.43329283595085144,0.5028477311134338
1684201271527407600,10.66740771484375,-0.08751460909843445,-0.34992659091949463,0.5935747027397156
1684201271537433600,10.67743359375,0.010732332244515419,-0.8482456207275391,0.6103901863098145
1684201271547460600,10.687460693359375,0.044405873864889145,-1.0703753232955933,0.5434558987617493
1684201271557486600,10.697486572265625,0.032968129962682724,-1.1586743593215942,0.41157108545303345
1684201271567512600,10.7075126953125,0.003326248377561569,-1.2063244581222534,0.2545248568058014
1684201271577539300,10.717539306640624,-0.034308210015296936,-1.1951032876968384,0.10306049883365631
1684201271587565600,10.727565673828124,-0.06871359050273895,-1.0952086448669434,-0.05597975105047226
1684201271597592600,10.737592529296874,-0.09484053403139114,-0.8436024785041809,-0.21114537119865417
1684201271607618600,10.74761865234375,-0.12200921028852463,-0.4551994204521179,-0.34239766001701355
1684201271617645600,10.7576455078125,-0.14353688061237335,-0.033030614256858826,-0.42057716846466064
1684201271627671600,10.767671630859375,-0.17206983268260956,0.3393467366695404,-0.43654754757881165
1684201271637698600,10.777698486328125,-0.1930432915687561,0.6199586987495422,-0.40007686614990234
1684201271647724500,10.787724609375,-0.21450874209403992,0.8094619512557983,-0.322513610124588
1684201271657750500,10.79775048828125,-0.22161619365215302,0.9057197570800781,-0.20856277644634247
1684201271667777500,10.807777587890625,-0.20811602473258972,0.9238275289535522,-0.07871335744857788
1684201271677803500,10.817803466796875,-0.1804087609052658,0.8865712285041809,0.043961696326732635
1684201271687830500,10.82783056640625,-0.1582482010126114,0.818399965763092,0.13552884757518768
1684201271697856800,10.837856689453124,-0.13133135437965393,0.7493287920951843,0.20397421717643738
1684201271707883500,10.847883544921874,-0.11283247917890549,0.6838568449020386,0.2436968982219696
1684201271717909500,10.857909423828126,-0.07173804193735123,0.5640734434127808,0.23871783912181854
1684201271727936500,10.8679365234375,-0.017332158982753754,0.4178234338760376,0.2129441201686859
1684201271737962500,10.87796240234375,0.04841010645031929,0.27507612109184265,0.1889788657426834
1684201271747988500,10.887988525390625,0.11431481689214706,0.10052856057882309,0.17581778764724731
1684201271758015700,10.898015625,0.17066064476966858,-0.09401482343673706,0.1604287177324295
1684201271768041700,10.908041748046875,0.2071678191423416,-0.29854869842529297,0.1357814520597458
1684201271778068500,10.918068359375,0.20479653775691986,-0.4886464774608612,0.09663297981023788
1684201271788094500,10.928094482421875,0.19826994836330414,-0.6276949048042297,0.05614354833960533
1684201271798121500,10.93812158203125,0.19212336838245392,-0.6915221214294434,0.019628148525953293
1684201271808147500,10.9481474609375,0.1551252007484436,-0.7318180799484253,0.011391213163733482
1684201271818174700,10.9581748046875,0.07896997779607773,-0.6807548999786377,0.05880746617913246
1684201271828200700,10.96820068359375,0.014558782801032066,-0.5642414689064026,0.17098622024059296
1684201271838227500,10.9782275390625,-0.031073682010173798,-0.5033382177352905,0.3197091221809387
1684201271848253400,10.98825341796875,-0.04131203144788742,-0.545005202293396,0.4903770089149475
1684201271858279400,10.998279541015625,-0.036764685064554214,-0.6077316999435425,0.6183304190635681
1684201271868306700,11.008306640625,-0.05162719637155533,-0.6436949968338013,0.6498834490776062
1684201271878332700,11.018332763671875,-0.09269580245018005,-0.5631855130195618,0.5785512328147888
1684201271888359400,11.028359375,-0.13919472694396973,-0.36510488390922546,0.45047733187675476
1684201271898385400,11.038385498046875,-0.13988076150417328,-0.16582824289798737,0.3230575919151306
1684201271908412400,11.048412353515625,-0.1265546977519989,-0.09718669950962067,0.24939772486686707
1684201271918438400,11.0584384765625,-0.14074082672595978,-0.2202918529510498,0.23588591814041138
1684201271928465700,11.068465576171874,-0.15161575376987457,-0.46450290083885193,0.23979657888412476
1684201271938491600,11.07849169921875,-0.15006446838378906,-0.6820487976074219,0.2371067851781845
1684201271948517600,11.088517578125,-0.13935881853103638,-0.8197718262672424,0.2025970220565796
1684201271958544400,11.09854443359375,-0.12324802577495575,-0.9006900787353516,0.12698321044445038
1684201271968570400,11.1085703125,-0.12219928950071335,-0.890826404094696,0.013119658455252647
1684201271978597600,11.11859765625,-0.12107330560684204,-0.7912873029708862,-0.11258181184530258
1684201271988623600,11.12862353515625,-0.10955788940191269,-0.7007544040679932,-0.2224837988615036
1684201271998650600,11.138650634765625,-0.09774037450551987,-0.6511476635932922,-0.2991865873336792
1684201272008676600,11.148676513671875,-0.08752753585577011,-0.6315417289733887,-0.33283448219299316
1684201272018703400,11.158703369140625,-0.07923099398612976,-0.646446943283081,-0.31575509905815125
1684201272028729300,11.168729248046875,-0.08183518797159195,-0.6618913412094116,-0.25454550981521606
1684201272038755600,11.178755615234374,-0.09970606118440628,-0.6640780568122864,-0.17757217586040497
1684201272048782600,11.188782470703124,-0.1238330751657486,-0.6705688834190369,-0.11828997731208801
1684201272058808600,11.19880859375,-0.14622600376605988,-0.6784989833831787,-0.06670188903808594
1684201272068835600,11.208835693359376,-0.1498832255601883,-0.6928564310073853,-0.030097760260105133
1684201272078861600,11.218861572265626,-0.14793752133846283,-0.7312749624252319,-0.026038572192192078
1684201272088888600,11.228888671875,-0.159622922539711,-0.7540200352668762,-0.04874130338430405
1684201272098914600,11.23891455078125,-0.18801115453243256,-0.7536042928695679,-0.08658615499734879
1684201272108941600,11.248941650390625,-0.23774303495883942,-0.7183827757835388,-0.1284807175397873
1684201272118967600,11.258967529296875,-0.28828132152557373,-0.6579583287239075,-0.16228501498699188
1684201272128994600,11.26899462890625,-0.3402237594127655,-0.5691163539886475,-0.17895852029323578
1684201272139020500,11.2790205078125,-0.37262457609176636,-0.4768575131893158,-0.17504633963108063
1684201272149046500,11.289046630859374,-0.3904009461402893,-0.40352559089660645,-0.15371650457382202
1684201272159073300,11.2990732421875,-0.4001595675945282,-0.36861154437065125,-0.11083295196294785
1684201272169099300,11.309099365234376,-0.3891398012638092,-0.33893489837646484,-0.04397803172469139
1684201272179126500,11.31912646484375,-0.37411239743232727,-0.31200847029685974,0.029455972835421562
1684201272189152500,11.329152587890626,-0.3535183072090149,-0.3261750638484955,0.10621928423643112
1684201272199179500,11.339179443359376,-0.31708601117134094,-0.39986100792884827,0.17495600879192352
1684201272209205500,11.34920556640625,-0.28014108538627625,-0.48198533058166504,0.21115711331367493
1684201272219232300,11.359232177734375,-0.25264155864715576,-0.5289075374603271,0.1891825795173645
1684201272229258200,11.36925830078125,-0.24489673972129822,-0.5270140171051025,0.12321274727582932
1684201272239284200,11.3792841796875,-0.24960015714168549,-0.4982002079486847,0.04760028421878815
1684201272249311500,11.3893115234375,-0.26013004779815674,-0.4672660827636719,-0.024428121745586395
1684201272259337500,11.39933740234375,-0.2588290870189667,-0.44525161385536194,-0.08380702883005142
1684201272269364500,11.409364501953124,-0.24564939737319946,-0.4272114634513855,-0.13583384454250336
1684201272279390200,11.41939013671875,-0.21329838037490845,-0.4081355035305023,-0.19192534685134888
1684201272289417200,11.429417236328124,-0.16021376848220825,-0.37826982140541077,-0.2531253397464752
1684201272299443500,11.439443359375,-0.06841167062520981,-0.3288620710372925,-0.31075161695480347
1684201272309470500,11.449470458984376,0.034153711050748825,-0.24566040933132172,-0.3479465842247009
1684201272319496400,11.459496337890625,0.1172211691737175,-0.12421892583370209,-0.36451810598373413
1684201272329523200,11.469523193359375,0.18735745549201965,0.02050931379199028,-0.37223365902900696
1684201272339549200,11.479549072265625,0.2607555091381073,0.18022866547107697,-0.37344273924827576
1684201272349575200,11.4895751953125,0.30769529938697815,0.34321659803390503,-0.3597685694694519
1684201272359602400,11.4996025390625,0.33724865317344666,0.44070106744766235,-0.2920217514038086
1684201272369628400,11.50962841796875,0.3620455265045166,0.4400922358036041,-0.16149260103702545
1684201272379655400,11.519655517578125,0.4187764525413513,0.29084551334381104,0.024517221376299858
1684201272389681400,11.529681396484374,0.47838303446769714,-0.03499239310622215,0.2108306735754013
1684201272399708200,11.539708251953124,0.49154090881347656,-0.4516977369785309,0.33006706833839417
1684201272409734400,11.549734375,0.4728422462940216,-0.8307000398635864,0.3482171595096588
1684201272419761400,11.559761474609376,0.4641694128513336,-1.1187330484390259,0.2828866243362427
1684201272429787400,11.569787353515625,0.4805617034435272,-1.4884510040283203,0.13306835293769836
1684201272439813400,11.5798134765625,0.5457177758216858,-1.7948193550109863,-0.3259170651435852
1684201272449840400,11.58984033203125,0.7524511814117432,-1.0439504384994507,-1.6578272581100464
1684201272459866400,11.599866455078125,1.1057943105697632,0.14794176816940308,-3.2141215801239014
1684201272469893400,11.609893310546875,1.3379684686660767,0.6039126515388489,-3.940232992172241
1684201272479919400,11.61991943359375,1.3481686115264893,0.72920823097229,-3.9477057456970215
1684201272489946400,11.6299462890625,1.29006028175354,0.7631135582923889,-3.6695611476898193
1684201272499972400,11.639972412109374,1.267484426498413,0.8529377579689026,-3.3401522636413574
1684201272509999400,11.649999267578124,1.2202311754226685,1.1125365495681763,-2.9685914516448975
1684201272520025600,11.660025634765624,1.0856914520263672,1.485381841659546,-2.5059051513671875
1684201272530051600,11.670051513671876,0.8937268257141113,1.639500617980957,-1.9911627769470215
1684201272540078300,11.680078369140626,0.713677167892456,1.1776398420333862,-1.5261796712875366
1684201272550104300,11.690104248046875,0.5316978096961975,0.3205130696296692,-0.9719211459159851
1684201272560131300,11.70013134765625,0.5466256141662598,-0.3848688006401062,-0.24246028065681458
1684201272570157300,11.7101572265625,0.8629294037818909,-1.076838731765747,0.28372669219970703
1684201272580184600,11.7201845703125,1.510149359703064,-1.4130909442901611,-0.010456740856170654
1684201272590210600,11.73021044921875,2.3045544624328613,-0.5651473999023438,-0.9255089163780212
1684201272600237300,11.7402373046875,2.7599291801452637,1.0977429151535034,-1.5056623220443726
1684201272610263300,11.75026318359375,2.679802179336548,2.3653128147125244,-1.5590794086456299
1684201272620290300,11.760290283203124,2.2807698249816895,2.6056582927703857,-1.215680480003357
1684201272630316500,11.770316650390624,1.868863821029663,2.3485875129699707,-0.6597330570220947
1684201272640342500,11.780342529296876,1.58876371383667,2.235907554626465,-0.261884480714798
1684201272650369300,11.790369384765626,1.420993685722351,2.2870562076568604,-0.12980465590953827
1684201272660395300,11.800395263671875,1.3381028175354004,2.369584560394287,-0.15873457491397858
1684201272670422300,11.81042236328125,1.3057379722595215,2.367140293121338,-0.24836449325084686
1684201272680448300,11.8204482421875,1.270970344543457,2.1871914863586426,-0.27252575755119324
1684201272690475500,11.8304755859375,1.213976502418518,1.7405667304992676,-0.25791582465171814
1684201272700501500,11.84050146484375,1.193204641342163,1.3094062805175781,-0.17859728634357452
1684201272710528300,11.8505283203125,1.1517841815948486,1.0267601013183594,-0.1174580454826355
1684201272720554200,11.86055419921875,1.0253857374191284,0.9494280815124512,-0.09520839899778366
1684201272730580200,11.870580322265624,0.8833698034286499,0.9567776322364807,-0.05317624658346176
1684201272740607500,11.880607421875,0.7256033420562744,0.8982917070388794,0.019143490120768547
1684201272750633500,11.890633544921876,0.6055349111557007,0.7979487180709839,0.08333522081375122
1684201272760660500,11.900660400390626,0.5513888597488403,0.7270391583442688,0.21488818526268005
1684201272770686500,11.9106865234375,0.4674602746963501,0.485902339220047,0.30639106035232544
1684201272780713200,11.920713134765625,0.3713372051715851,0.261900931596756,0.3973105847835541
1684201272790739200,11.9307392578125,0.3122253715991974,0.13877712190151215,0.5002766847610474
1684201272800766500,11.940766357421875,0.22843913733959198,0.05067893862724304,0.5770270824432373
1684201272810792400,11.95079248046875,0.10579995065927505,-0.015273930504918098,0.6528510451316833
1684201272820819500,11.9608193359375,-0.008037403225898743,0.022879580035805702,0.751275360584259
1684201272830845400,11.970845458984375,-0.11651773750782013,0.0783778727054596,0.8211396932601929
1684201272840871400,11.980871337890624,-0.2223307192325592,0.145143061876297,0.8750849366188049
1684201272850898200,11.990898193359374,-0.3018316626548767,0.1641358733177185,0.9193116426467896
1684201272860924400,12.00092431640625,-0.3681802749633789,0.09586839377880096,0.9528421759605408
1684201272870951400,12.010951416015626,-0.4159938097000122,-0.05555127188563347,0.9760013222694397
1684201272880977400,12.020977294921876,-0.4547390937805176,-0.2947521507740021,0.9769773483276367
1684201272891004400,12.03100439453125,-0.48700737953186035,-0.5672870874404907,0.966211199760437
1684201272901030400,12.041030517578125,-0.5179282426834106,-0.8060482740402222,0.9507635235786438
1684201272911057400,12.051057373046875,-0.5494387745857239,-0.9664715528488159,0.942629337310791
1684201272921083400,12.06108349609375,-0.599856972694397,-1.0316848754882812,0.9538162350654602
1684201272931110400,12.0711103515625,-0.6717109084129333,-1.0084351301193237,0.9622662663459778
1684201272941136400,12.081136474609375,-0.7418082356452942,-0.9529718160629272,0.9540805220603943
1684201272951162400,12.091162353515625,-0.8103476166725159,-0.9136180877685547,0.9545608162879944
1684201272961189400,12.101189453125,-0.8752576112747192,-0.9010223746299744,0.9637375473976135
1684201272971215400,12.11121533203125,-0.9344492554664612,-0.9302257299423218,0.9723036289215088
1684201272981242400,12.121242431640624,-0.9856328368186951,-0.9780496954917908,0.9943794012069702
1684201272991268400,12.131268310546876,-1.0293418169021606,-1.0171810388565063,1.0333285331726074
1684201273001295400,12.14129541015625,-1.0655386447906494,-1.0561087131500244,1.0669666528701782
1684201273011321300,12.1513212890625,-1.0950312614440918,-1.1115918159484863,1.0878608226776123
1684201273021348400,12.161348388671875,-1.1086266040802002,-1.1431688070297241,1.1055479049682617
1684201273031374300,12.171374267578125,-1.1249892711639404,-1.1165564060211182,1.129523515701294
1684201273041400300,12.181400390625,-1.1483805179595947,-1.0606833696365356,1.1344257593154907
1684201273051427300,12.19142724609375,-1.186870813369751,-0.9589515924453735,1.124576449394226
1684201273061453300,12.201453369140625,-1.2409186363220215,-0.8292854428291321,1.1049065589904785
1684201273071480300,12.211480224609375,-1.2975772619247437,-0.7169065475463867,1.078780174255371
1684201273081506600,12.221506591796874,-1.3221265077590942,-0.6479804515838623,1.0376991033554077
1684201273091533300,12.231533203125,-1.3074214458465576,-0.6152682304382324,0.972485363483429
1684201273101559300,12.241559326171876,-1.268311619758606,-0.5572976469993591,0.8686262965202332
1684201273111586300,12.25158642578125,-1.1924489736557007,-0.44686880707740784,0.729768693447113
1684201273121612300,12.2616123046875,-1.1161755323410034,-0.2882477641105652,0.5247452259063721
1684201273131639600,12.2716396484375,-1.0524072647094727,-0.17973928153514862,0.24595920741558075
1684201273141665500,12.28166552734375,-1.1187437772750854,-0.43197232484817505,-0.0760398656129837
1684201273151691800,12.29169189453125,-1.0259829759597778,-0.953460156917572,-0.22049793601036072
1684201273161718500,12.301718505859375,-0.7242380976676941,-1.6736103296279907,-0.3655611276626587
1684201273171744500,12.31174462890625,-0.21055318415164948,-2.02671480178833,-0.4887486398220062
1684201273181771500,12.321771484375,0.21462927758693695,-1.8017792701721191,-0.5491020083427429
1684201273191797800,12.3317978515625,0.3168356120586395,-1.1833844184875488,-0.3999570310115814
1684201273201824800,12.34182470703125,0.2334938496351242,-0.4670350253582001,-0.2494434118270874
1684201273211850800,12.351850830078124,0.17374154925346375,0.07127942889928818,-0.21908162534236908
1684201273221877500,12.36187744140625,0.16341860592365265,0.4547261595726013,-0.19935451447963715
1684201273231903500,12.371903564453126,0.15650208294391632,0.7059041261672974,-0.1273113340139389
1684201273241930800,12.3819306640625,0.123110830783844,0.8495805859565735,-0.07867616415023804
1684201273251956700,12.391956787109375,0.017206041142344475,1.0027101039886475,-0.051783859729766846
1684201273261982700,12.401982666015625,-0.14449390769004822,1.1605730056762695,-0.06776255369186401
1684201273272009700,12.412009765625,-0.28377777338027954,1.2601168155670166,-0.10645883530378342
1684201273282035700,12.42203564453125,-0.43140771985054016,1.1394662857055664,-0.16291119158267975
1684201273292062500,12.4320625,-0.5316540002822876,0.8030730485916138,-0.12420561909675598
1684201273302088700,12.442088623046875,-0.5053411722183228,0.28649091720581055,0.04085071384906769
1684201273312115700,12.45211572265625,-0.444297730922699,-0.17337332665920258,0.24092316627502441
1684201273322141700,12.4621416015625,-0.43073102831840515,-0.3551868200302124,0.3859080374240875
1684201273332168700,12.472168701171874,-0.39936038851737976,-0.2608310878276825,0.46152934432029724
1684201273342194400,12.4821943359375,-0.28277307748794556,0.035403236746788025,0.4790598750114441
1684201273352221700,12.4922216796875,-0.16844294965267181,0.28860488533973694,0.4784940779209137
1684201273362247700,12.50224755859375,-0.3016843795776367,0.4303598999977112,0.5303583741188049
