time,seconds_elapsed,z,y,x
1684208142668759300,0.03575927734375,0.08300035476982592,-0.06256020880937575,0.08131050198674201
1684208142678783500,0.045783447265625,0.01191957037448883,-0.034221418553590774,0.046513913893699646
1684208142688808400,0.055808349609375,-0.03281854775203392,-0.10252338588535785,0.06853986774086952
1684208142698832400,0.065832275390625,-0.048799960737954826,-0.113082773822546,0.08960662116706371
1684208142708857600,0.075857666015625,-0.01161503446996212,-0.11489128454923629,0.09452245025932789
1684208142718882300,0.08588232421875,0.05234917765213176,-0.10888123047947883,0.10522738414704799
1684208142728906500,0.095906494140625,0.0798123723834753,-0.07926467537283897,0.08896656969785689
1684208142738931500,0.105931396484375,0.07223404608368873,-0.046370121508836744,0.08452011168301105
1684208142748956400,0.115956298828125,0.06633797378242015,-0.008879472026228904,0.07935176913440227
1684208142758980600,0.125980712890625,0.061612096037995064,0.028407763838768002,0.09456745844483375
1684208142769005600,0.136005615234375,0.004186345773935318,0.11156827760636806,0.10035831680595875
1684208142779030300,0.1460302734375,-0.04294889662219211,0.14961422288417817,0.0036398178070783612
1684208142789054500,0.156054443359375,-0.042152193286549296,0.15467852053642273,-0.0928308439105749
1684208142799079400,0.166079345703125,-0.058784179135691374,0.1494903042435646,-0.09534370351433753
1684208142809104400,0.1761044921875,-0.08040447479141875,0.1307674835950136,-0.059117959401011465
1684208142819128600,0.186128662109375,-0.09117956957221031,0.09425415471196175,-0.014679682737588882
1684208142829153500,0.196153564453125,-0.14015722496462985,0.06638765814304351,0.00909925225675106
1684208142839177500,0.206177490234375,-0.15679562228824942,0.04884615623354911,-0.014943886631727217
1684208142849202400,0.216202392578125,-0.12532794115589932,0.1250245560288429,-0.07054828495383263
1684208142859227400,0.226227294921875,-0.09032320847120136,0.20076281084120273,-0.06491817011237144
1684208142869251600,0.23625146484375,-0.11814707147479056,0.13547288480699063,-0.005466448712348937
1684208142879276500,0.246276611328125,-0.1587450393229723,0.1486842485576868,-0.03942600145936012
1684208142889301500,0.256301513671875,-0.17110826181173325,0.10768705225884914,-0.1027168626308441
1684208142899325400,0.266325439453125,-0.1726788721293211,0.024313772523403165,-0.13634148433506488
1684208142909350400,0.276350341796875,-0.1467658385825809,0.02314765135347843,-0.17715689432621
1684208142919375400,0.286375244140625,-0.09519464129931293,0.06396949108541011,0.16114625524580478
1684208142929399600,0.296399658203125,-0.10989477316988631,-0.9624936173021793,0.7531529477298259
1684208142939424500,0.306424560546875,-0.0028957031751982868,-1.0739040739983319,0.36126316939890385
1684208142949448400,0.316448486328125,0.026774609678983687,0.010155483311414719,-0.06131400814056396
1684208142959473400,0.326473388671875,0.16888707863092423,-0.02552840901017189,0.09963467870652674
1684208142969498400,0.336498291015625,0.07462943505393341,-0.013868366354703902,0.01342705232799053
1684208142979522600,0.3465224609375,-0.0203431153267622,-0.009586158990859985,0.06197101074457168
1684208142989547500,0.356547607421875,-0.009185158708225935,-0.12064882516264915,0.10208557898998259
1684208142999572500,0.366572509765625,-0.010603802467649802,-0.18315642700195311,0.15368483332395552
1684208143009596400,0.376596435546875,0.007741992428898811,-0.06736322517693043,0.15018530077040196
1684208143019621400,0.386621337890625,-0.03210194218158722,-0.16952537653446195,0.1792448065161705
1684208143029646300,0.396646240234375,-0.03637712614960037,0.13822481386363505,0.0974193407446146
1684208143039670500,0.40667041015625,-0.01481762077040039,0.2015302880823612,0.03496609944105148
1684208143049695500,0.416695556640625,-0.16319149733781813,0.04679273083508014,-0.12509995935261248
1684208143059720400,0.426720458984375,-0.280506209641695,0.04246025458872318,-0.19349603470861912
1684208143069744400,0.436744384765625,-0.2643108616441488,-0.06685176852345466,-0.3429325629383325
1684208143079769300,0.446769287109375,-0.25930852331221105,0.042698739519715305,-0.21144144124388695
1684208143089794300,0.456794189453125,-0.2335287698894739,0.3084662297129631,-0.21796879718601703
1684208143099818500,0.466818603515625,-0.16588731229305267,0.5110983415573835,-0.3983703725218773
1684208143109843500,0.476843505859375,-0.10192600451409817,0.3988479269057512,-0.5742950947046279
1684208143119868400,0.486868408203125,-0.11395546500384807,0.15714695647656918,-0.5497773240417242
1684208143129892400,0.496892333984375,-0.16680853705750778,-0.1409159526437521,-0.5821259344607591
1684208143139917300,0.506917236328125,-0.19706220275759695,-0.4396680130720138,-0.5981646305918693
1684208143149941500,0.51694140625,0.012616320466995238,-2.938525979489088,-0.9730103351414203
1684208143159966500,0.526966552734375,0.3055237465202808,-6.290420578667521,-1.5102508336931466
1684208143169991400,0.536991455078125,0.10658289040923118,-4.974590493312478,-1.1168705245435238
1684208143180015400,0.547015380859375,-0.09243104007118381,-2.4742969411343334,-0.7803519203007221
1684208143190040300,0.557040283203125,-0.1544482189118862,-0.40716801148355003,-0.35815059033632274
1684208143200065300,0.567065185546875,-0.21256606135964393,0.772934922042489,0.05099778130948543
1684208143210089500,0.57708935546875,-0.20400164663195608,0.25931261496543884,0.5268628969222307
1684208143220114400,0.587114501953125,-0.21697335640788076,-0.7588391766726971,-0.2037134773403406
1684208143230139400,0.597139404296875,-0.3815127612233162,-0.8179501218110322,-0.7141127307176589
1684208143240163300,0.607163330078125,-0.5079752411007881,-0.4813724808573723,-0.634614831110835
1684208143250188300,0.617188232421875,-0.27341946625113484,0.008980009791254996,-0.011211714366078375
1684208143260213200,0.627213134765625,-0.21628245153427123,0.08006780844926834,0.10386720170974731
1684208143270237400,0.637237548828125,-0.2416939561665058,0.19321078802645206,-0.06478519138246774
1684208143280262400,0.647262451171875,-0.4328419664442539,0.4121984068661928,-0.13310294080525636
1684208143290286600,0.65728662109375,-0.451695135474205,0.784798378315568,-0.010011398665606975
1684208143300311300,0.667311279296875,-0.4677016829013824,1.1104705943733453,0.2316378415763378
1684208143310336300,0.677336181640625,-0.40182953653242437,1.0165361731350422,0.36099341254681344
1684208143320360400,0.6873603515625,-0.38924598582386966,0.8258709779381751,0.4458846956297755
1684208143330385400,0.697385498046875,-0.36310032169818873,1.0856903733819723,0.48670448953509327
1684208143340409900,0.707409912109375,-0.4331388670315966,1.4995125820577144,0.5173895506560802
1684208143350433800,0.717433837890625,-0.4435913239955902,1.9145576105266808,0.6350882938414811
1684208143360458800,0.727458740234375,-0.48175475817322727,2.35315185688734,0.894369052363932
1684208143370484000,0.73748388671875,-0.6501157671034336,2.760513345116377,1.277943130031228
1684208143380507600,0.747507568359375,-0.62447863702178,2.986892243251204,1.1813254610583186
1684208143390532600,0.75753271484375,-0.1556067047646269,0.5981061784029007,-0.4529162017017603
1684208143400557800,0.767557861328125,-0.29685766151640564,-0.5422521892338991,-0.4239180707544088
1684208143410581800,0.777581787109375,-0.42190326033327724,-0.5262865583389997,-0.17332944499254227
1684208143420607000,0.78760693359375,-0.40566056606266643,-0.7002326739251613,-0.2674240252286196
1684208143430632000,0.7976318359375,-0.3543850637903437,-0.5155488912254571,-0.22697452594041823
1684208143440655600,0.807655517578125,-0.40217787504605945,-0.3864566473662853,-0.21447569437325
1684208143450680800,0.817680908203125,-0.47811439237687736,-0.3166606420844793,-0.25469869142919777
1684208143460705800,0.827705810546875,-0.5357505887875333,-0.17332126168608664,-0.25268822838962074
1684208143470729700,0.837729736328125,-0.5712193405210971,0.027793431332707404,-0.29240619853287936
1684208143480755000,0.8477548828125,-0.6258476603526621,0.3495966970026493,-0.35946079615205523
1684208143490778600,0.857778564453125,-0.6938613853275776,0.3666232351273298,-0.3527233045905828
1684208143500803600,0.867803466796875,-0.8146597750287502,0.34665772094130515,-0.4496396642491221
1684208143510828800,0.877828857421875,-0.8190507765293121,0.4696557395786047,-0.5050587691321968
1684208143520852700,0.887852783203125,-0.818722202162072,0.6179495275139808,-0.5229948233172297
1684208143530878000,0.8978779296875,-0.7977859432477503,0.8032634248107672,-0.590160772356391
1684208143540903000,0.90790283203125,-0.7535502764843404,0.9534832123726605,-0.7725871315181255
1684208143550926600,0.917926513671875,-0.6388496191363782,0.8766717753708362,-0.9492790386810899
1684208143560951800,0.927951904296875,-0.5262976642549038,0.6652040306419134,-1.0963812787443399
1684208143570976800,0.937976806640625,-0.4964730924207717,0.5047504338353872,-1.2390414447069167
1684208143581000700,0.948000732421875,-0.38458734636306763,0.28993045606911183,-1.3065028695613146
1684208143591026000,0.95802587890625,-0.3012169892370701,0.1634627154946327,-1.3145786239892243
1684208143601051000,0.96805078125,-0.05998349018916487,0.0020773907959461212,-1.221287761351466
1684208143611074600,0.978074462890625,0.006708046271279454,-0.07693594016432762,-0.7882341979831456
1684208143621099800,0.988099853515625,0.12327676251344383,-0.24257015447914598,-0.39510727907270193
1684208143631124700,0.998124755859375,0.2534147890985012,-0.2554483407527208,0.016352292124927042
1684208143641149000,1.00814892578125,0.4761690669953823,-0.18952771559953688,0.4867573887661099
1684208143651174000,1.018173828125,0.5632160668075085,-0.23921266074478625,0.6004764146655798
1684208143661197800,1.02819775390625,0.6691863782763481,-0.02633446469604969,0.6870055280834436
1684208143671222800,1.038222900390625,0.7302572983760386,0.14264847552478313,0.7760030774414539
1684208143681247700,1.048247802734375,0.8147511065740137,-0.1613502533853054,0.6258049171894788
1684208143691271700,1.058271728515625,0.876752439391613,-0.07660217816531657,0.8418556057944894
1684208143701297000,1.068296875,0.7601344771802425,-0.25808628804087635,0.8911372308358549
1684208143711321900,1.07832177734375,0.683399612545967,-0.3782786016076803,0.804649326211214
1684208143721345800,1.088345703125,0.5460766428928822,-0.28548458257615567,0.5389198299407959
1684208143731370800,1.098370849609375,0.22396416514329612,-0.15159282948076724,0.4898728904381394
1684208143741395700,1.108395751953125,-0.06132343355603516,-0.06450082148313523,0.5824611577644944
1684208143751420000,1.118419921875,-0.2828898899078369,-0.1719540649861097,0.6945183879315853
1684208143761444900,1.12844482421875,-0.45769591025896367,-0.4040425729393959,0.9081082393810153
1684208143771469800,1.1384697265625,-0.5866051987666636,-0.6503595127314329,1.0475263546824454
1684208143781494000,1.148493896484375,-0.7357868754524737,-0.7649158662378788,1.1124261123552919
1684208143791518700,1.158518798828125,-0.8615292243618518,-0.715022831299901,1.085990817633271
1684208143801543700,1.168543701171875,-0.8206663950324058,-0.5930722758889198,0.9895426600083708
1684208143811567900,1.17856787109375,-0.7192671178061515,-0.4262912296265363,0.9235220816120505
1684208143821592800,1.1885927734375,-0.5386182166457176,-0.30333120491206644,0.809917914263904
1684208143831616800,1.19861669921875,-0.28556334690079094,-0.20702830097675323,0.7857505644738674
1684208143841642000,1.20864208984375,-0.07764211567230522,-0.15790625041127204,0.8634431682243943
1684208143851666700,1.218666748046875,0.13278349959254265,-0.20329379062354563,1.0839587272837758
1684208143861691000,1.22869091796875,0.21100787213221192,-0.3089057901740074,1.31378484326303
1684208143871715800,1.2387158203125,0.10736490763239562,-0.4533464098125696,1.4067898746967316
1684208143881740800,1.24874072265625,-0.016687077037245035,-0.32231296875774856,1.4692355172157288
1684208143891765000,1.258764892578125,0.09178739927224815,-0.43633857638835905,1.4647896437227725
1684208143901790000,1.2687900390625,0.002690992649644613,-0.18006605977118015,1.2177338682621717
1684208143911814700,1.278814697265625,-0.29235096121430393,-0.03363514309823513,0.774076493293047
1684208143921838800,1.2888388671875,-0.611191431555897,-0.017573066091537474,0.3529790329173207
1684208143931863800,1.29886376953125,-0.935350758832693,0.028128362375497817,-0.1386667124122381
1684208143941888800,1.308888671875,-1.095869822090864,0.11052373698949813,-0.5336714078933
1684208143951913000,1.318912841796875,-1.005373047151044,0.11666530848443507,-0.8007128635451197
1684208143961938000,1.32893798828125,-0.8615467600185424,0.15358429555892944,-0.7515829219341278
1684208143971962600,1.338962646484375,-0.6849708804506808,-0.1868693100452423,-0.5700245777785777
1684208143981986800,1.34898681640625,-0.5713081878483295,-0.5593640675544739,-0.257033271856606
1684208143992011800,1.35901171875,-0.6098902858294546,-0.7526409065544605,-0.019061843344569205
1684208144002036000,1.369035888671875,-0.6050139119647443,-0.8262094161123037,0.3572524724528193
1684208144012061000,1.37906103515625,-0.423679001301527,-0.9063292470097541,0.4901680739924311
1684208144022086000,1.3890859375,-0.333539953758195,-0.8456880235642195,0.6670216014578938
1684208144032109800,1.39910986328125,-0.29955234396047886,-0.8746218571037053,0.7297881464943289
1684208144042134800,1.409134765625,-0.17314364009685812,-1.063241810208559,0.7164300677493214
1684208144052159700,1.41915966796875,-0.004770721533149481,-1.2571575316339731,0.8158779917120933
1684208144062184000,1.429183837890625,0.2226841352701187,-1.2974731754094362,0.8951718931794166
1684208144072209000,1.439208984375,0.28198505002260205,-1.219058979386091,0.7729583029180764
1684208144082233900,1.44923388671875,0.16538813059926033,-1.2471622073203326,0.7726584431886673
1684208144092257800,1.4592578125,0.006165536892414092,-1.4392261633992194,0.9963210681021213
1684208144102282800,1.46928271484375,-0.17236279191747306,-0.9875526552349329,0.812516114063561
1684208144112307700,1.4793076171875,-0.17746435284018516,-0.461320457431674,0.7092027468442916
1684208144122332000,1.489331787109375,-0.1833236002624035,0.0445727166980505,0.5652417274162173
1684208144132356900,1.49935693359375,-0.37065950490608807,0.4902735801935196,0.1138084577485919
1684208144142381800,1.5093818359375,-0.6730534289680421,0.9820242472022771,-0.2858727051109075
1684208144152405800,1.51940576171875,-0.7197042671144008,1.3359125039190054,-0.6324024157583713
1684208144162430700,1.5294306640625,-0.381832933088392,1.2114286306381226,-0.6460217757880687
1684208144172455000,1.539454833984375,-0.012017916182428598,0.6587193447977304,0.06530979977846145
1684208144182480000,1.54947998046875,0.2949509145796299,-0.034191607937216754,1.1030886674284934
1684208144192504800,1.5595048828125,0.6530876225210726,-0.6949766530930995,2.1810253579437733
1684208144202528800,1.56952880859375,0.8901473430156708,-1.146892737841606,3.0028955758079885
1684208144212553700,1.5795537109375,1.0511829774938524,-1.2504583262562752,3.5364883655071258
1684208144222578700,1.58957861328125,1.1773872448265552,-0.9504267474114895,3.946915378786623
1684208144232603000,1.599602783203125,1.1435071870565414,-0.4520727366149425,4.180567482794821
1684208144242627800,1.6096279296875,0.9836202842220664,-0.04605681777596474,3.777024968332052
1684208144252652800,1.61965283203125,0.655817047484964,0.49930093625783917,3.677750647370517
1684208144262676700,1.6296767578125,0.24464359975233674,0.8610480897814035,3.202837717916071
1684208144272701700,1.63970166015625,0.06594327537640929,0.41633915993273257,1.5434475853741167
1684208144282726700,1.6497265625,-0.2541055478416383,0.12501345011293888,0.1834919425666332
1684208144292750800,1.659750732421875,-0.6402972606614231,0.04702303245961666,-0.6640756111338735
1684208144302775800,1.66977587890625,-0.8036345962107181,0.059656888583302495,-0.8259294301271438
1684208144312800800,1.67980078125,-0.7492800518192351,0.07664192565381527,-0.7478501651465892
1684208144322824700,1.68982470703125,-0.6312124753214419,0.133879478135705,0.01731704550385475
1684208144332849700,1.699849609375,-0.35036943494081496,0.018577859219908715,1.6037170528978109
1684208144342875100,1.709875244140625,-0.3601693828128278,-0.24828911664783954,2.8383254835933447
1684208144352899000,1.719899169921875,-0.6691865244068205,-0.5294458991527558,2.9194910241514442
1684208144362924000,1.729924072265625,-1.1221429119884967,-0.38891280834674835,2.8757635261058807
1684208144372948200,1.7399482421875,-1.5659074005939067,-0.16746552139520643,2.491071842585504
1684208144382973200,1.74997314453125,-1.7616064983047544,-0.11059972483515738,1.8813596898019314
1684208144392998100,1.759998046875,-1.5299381154596805,0.032198388293385505,2.1212807910770177
1684208144403022000,1.77002197265625,-1.267484279859066,0.039489129823446274,2.179337550987303
1684208144413047000,1.780047119140625,-1.1131471931714565,-0.25114509060084816,1.8029574764773248
1684208144423072000,1.790072021484375,-1.0732828002948314,-0.7007470531880855,1.902522597078979
1684208144433096200,1.80009619140625,-1.023220765465498,-0.7327806063085794,1.8119798641055822
1684208144443121200,1.81012109375,-0.7675894693613052,-0.5752385130345821,1.9681585600718854
1684208144453146000,1.82014599609375,-0.2669499779760837,-0.3426683590441942,1.7472724141344427
1684208144463170000,1.830170166015625,0.21752865220308304,-0.15856383753716946,1.2658999332770704
1684208144473195000,1.840195068359375,0.5994844810187816,0.654391544726491,0.8469605277180671
1684208144483220200,1.85022021484375,0.693817546185851,1.8565917437702417,0.03033200989961624
1684208144493244200,1.860244140625,1.158170503181219,2.4119179341107606,-0.8350058860301971
1684208144503269000,1.87026904296875,1.2256705064803362,2.5541765335351228,-1.3361840143367647
1684208144513294300,1.88029443359375,0.5366641599684954,2.7985598749160765,-1.5203244839400052
1684208144523318000,1.890318115234375,1.5668255383521317,3.3645909991443155,-1.3578583782672882
1684208144533343000,1.900343017578125,1.9726853898465633,3.725483581665158,-1.490188288873434
1684208144543368200,1.9103681640625,2.4554893648117777,3.880469560715556,-1.4460837742090225
1684208144553392000,1.92039208984375,2.864386392045021,3.07242883850038,-1.8192267664939163
1684208144563417000,1.9304169921875,3.044280602380633,1.150412144139409,-2.3949802433133125
1684208144573441000,1.94044091796875,2.931666030591726,0.40074996113479133,-2.369180616146326
1684208144583466000,1.950466064453125,3.025549013903737,0.28685996258258817,-2.2104624648302793
1684208144593491200,1.9604912109375,3.1433582317262885,0.3362812883555889,-1.9127309796214103
1684208144603515100,1.97051513671875,3.590914367699623,0.27040800947546956,-1.5185019446879624
1684208144613540000,1.9805400390625,2.9276830984354016,0.29589842456281185,-1.605225703895092
1684208144623565300,1.9905654296875,2.3215292226552964,-0.13131167347431183,-1.7012077053129673
1684208144633589000,2.000589111328125,1.7521603323064743,-0.9093336895227432,-2.353143089058995
1684208144643614000,2.010614013671875,1.224352409619093,-1.9328888015091419,-3.1915234199583526
1684208144653639200,2.02063916015625,0.9072276571542024,-2.875281295546889,-3.9716263339340685
1684208144663663000,2.0306630859375,0.7152829435408115,-3.3716415021777153,-4.613715446448325
1684208144673688000,2.04068798828125,0.5851823994219303,-3.193390382874012,-4.9713440587371585
1684208144683713300,2.05071337890625,0.5186616164185106,-2.22219148106873,-4.923478730234503
1684208144693737000,2.060737060546875,0.4888048228152096,-0.796558958736062,-4.304894996470213
1684208144703762200,2.07076220703125,0.6381529421091079,0.6980021383941173,-3.4469553940981625
1684208144713787100,2.080787109375,1.0968968270510435,2.280948790463805,-2.1564105566471814
1684208144723811000,2.09081103515625,1.1284628357250244,3.8141415238052603,-0.7198334464520215
1684208144733836300,2.100836181640625,0.6935368295483291,4.930462597772479,0.21806465877592562
1684208144743861200,2.110861328125,-0.03362286813855171,5.134257323655485,0.38631928472220894
1684208144753885000,2.120885009765625,-0.6959113035947084,3.9713451789051293,-0.04541267465353012
1684208144763910100,2.13091015625,-1.1392027678608894,2.0816946306198836,-0.8761644103705882
1684208144773934000,2.14093408203125,-1.6806716977626084,0.9007418022662401,-1.7854010692596434
1684208144783959000,2.150958984375,-2.3466262545108796,0.4852086980193853,-2.027518803796172
1684208144793984300,2.160984375,-2.5440374168366193,0.22822949443757531,-1.3544079455524682
1684208144804008200,2.17100830078125,-2.369916090814024,-0.04474281256794929,-0.06343465355634689
1684208144814033200,2.181033203125,-2.1267641909241677,-0.380196417927742,1.56677293138206
1684208144824058000,2.19105810546875,-1.8349954135119915,-1.0246960987150668,2.605931855213642
1684208144834082000,2.20108203125,-1.6100282818712293,-1.998601921391487,2.4708669666856524
1684208144844107300,2.211107177734375,-0.8751309756696224,-3.01797185664773,1.869185267883539
1684208144854132200,2.22113232421875,0.49148456341847774,-3.7824662826031443,1.2318611778140067
1684208144864156200,2.23115625,1.8992190254889427,-4.13721729362905,0.30676819362342356
1684208144874181000,2.24118115234375,3.0344360847145317,-3.5027708048224446,-0.7400748549699783
1684208144884206000,2.2512060546875,3.749223353692889,-2.0710265216112136,-1.7054279533565044
1684208144894230000,2.26122998046875,4.107450516396761,-0.6581348229080438,-2.4021003044515847
1684208144904255200,2.271255126953125,4.133117457094788,0.27684827165603637,-2.0216151327103375
1684208144914280200,2.2812802734375,3.288914119130373,0.6399141065627336,-0.5581038383603095
1684208144924304100,2.29130419921875,1.4925380668699741,0.4952133746832609,0.8815344129711389
1684208144934329000,2.3013291015625,-0.3694510789643973,0.009368716847896575,2.035236246305704
1684208144944354000,2.31135400390625,-1.2985188850700855,-0.4936877725511789,2.9550358002632855
1684208144954378200,2.321378173828125,-1.4783645800888539,-0.948127822819352,2.9297289250493046
1684208144964403200,2.3314033203125,-1.1394167028725146,-0.8682014686673879,1.8010826225161551
1684208144974428200,2.34142822265625,-0.6550508854180574,-0.20394377896487711,0.5358464138448238
1684208144984452400,2.351452392578125,-0.4990559485208243,0.17985796997845171,-0.8122872737437487
1684208144994477000,2.36147705078125,-0.37595622307471926,0.4495855959743261,-2.0037164879262446
1684208145004502000,2.371501953125,-0.11131218395344912,0.23218320049941538,-2.97024622887671
1684208145014526200,2.381526123046875,0.1330033894209191,-0.44588732597827907,-3.258568080705404
1684208145024551200,2.39155126953125,-0.18941724096238613,-0.9290595497339963,-2.487662034142017
1684208145034576100,2.401576171875,-0.8661579070758074,-0.8455833941459655,-1.1958733341097831
1684208145044600300,2.411600341796875,-1.310979722714424,-0.3805997380316257,-0.07409282569289206
1684208145054625000,2.421625,-1.0793407120943068,0.2451221770495176,0.48324353542625903
1684208145064649200,2.431649169921875,-0.6028215164870023,0.8979162234514951,0.4972480953812599
1684208145074674200,2.441674072265625,-0.34604163486957545,1.3349480428010225,0.24337007268518207
1684208145084699100,2.45169921875,-0.20541618960499763,1.4010925398379563,0.21055296797156334
1684208145094723300,2.461723388671875,-0.09766721455845981,0.9824766671448946,0.30973201186507937
1684208145104748300,2.471748291015625,-0.3378536522388458,0.4362620040208101,0.647170069040358
1684208145114773000,2.48177294921875,-0.6662573390871286,0.07068740116357802,1.1571215786501765
1684208145124797200,2.491797119140625,-1.056744264882803,-0.42903146824538707,1.3250257837235926
1684208145134822100,2.501822265625,-1.4223703056663275,-0.8604390179723501,1.334708388826251
1684208145144847000,2.51184716796875,-1.5531085631668566,-1.130284717389941,1.1831830716237426
1684208145154871300,2.521871337890625,-1.4628139597356318,-1.3991881675213576,0.9385276353031397
1684208145164896000,2.53189599609375,-1.3898931004315613,-1.5439537813305855,0.8093217019364237
1684208145174921000,2.5419208984375,-1.3261638478428124,-1.5098556968957184,0.8296390983000397
1684208145184945200,2.551945068359375,-1.4104875601708888,-1.1323597700983286,1.1132564256995916
1684208145194970000,2.56197021484375,-1.3447843771606682,-0.6491460452884436,1.5357695980921386
1684208145204995000,2.5719951171875,-1.1075836407601833,-0.36846038742661474,1.585728684003651
1684208145215019300,2.582019287109375,-0.8514338737398386,-0.13772797025740147,1.54917677667588
1684208145225044000,2.5920439453125,-0.5943658228307962,0.00899988353550434,1.445716986723244
1684208145235069000,2.60206884765625,-0.31427053207755085,-0.10620938092172146,1.278027301183343
1684208145245093000,2.612093017578125,-0.1923766752898693,-0.5654325738132,1.0825599664017558
1684208145255118000,2.6221181640625,-0.2944832970678806,-0.9964718747496605,0.8904162230849265
1684208145265143000,2.63214306640625,-0.407479561650753,-1.1572072111070155,0.6845175106599927
1684208145275167200,2.642167236328125,-0.43795185680389404,-1.1293752013295888,0.5208128031030297
1684208145285192000,2.65219189453125,-0.3636813364565372,-1.0401514420002698,0.45912879260629413
1684208145295217200,2.662217041015625,-0.1119628298819065,-0.9652484689682721,0.4134188885718584
1684208145305241000,2.672240966796875,0.2652045956134796,-1.0721662904202938,0.36199645210951564
1684208145315266000,2.68226611328125,0.5905962776968255,-1.4174796110153198,0.24821371332406997
1684208145325291300,2.692291259765625,0.6156967801511287,-1.848815849071741,-0.018446341794729232
1684208145335315200,2.702315185546875,0.18666702893879264,-2.0473112995028493,-0.3509834751859307
1684208145345340000,2.71233984375,-0.48349550089333204,-1.7890829726427793,-0.7662737105876207
1684208145355365000,2.722365234375,-1.0675988363742828,-0.3976706998199224,-0.4229419191986322
1684208145365389000,2.73238916015625,-0.6226093360185623,1.2010223874360322,0.19566461091935633
1684208145375414000,2.7424140625,0.37126963616106656,2.139671018770337,0.25440555370151996
1684208145385439000,2.75243896484375,1.087483102017641,2.3516911366850137,0.5450263301223516
1684208145395463000,2.762462890625,1.4294249003529549,1.3565800288945435,0.8482797936230897
1684208145405488000,2.772488037109375,1.4296692305028438,0.6585720452815294,0.595543049916625
1684208145415512000,2.782511962890625,1.3366530931532383,0.36191257321834563,-0.13512480202168226
1684208145425537000,2.792537109375,1.0170926379740237,0.2861053448230028,-1.0651964514076708
1684208145435562000,2.80256201171875,0.7462906607449055,0.29301322451531886,-1.6484887992992996
1684208145445586000,2.8125859375,0.40715920712258663,0.3197586080998182,-1.8870041254296899
1684208145455611000,2.82261083984375,0.3391957510301843,0.2983709521561861,-2.15137782317698
1684208145465636000,2.832635986328125,0.4716109652996063,0.0920031609147787,-2.088774944269657
1684208145475660000,2.842659912109375,0.3807108702559024,-0.397775913760066,-1.835234775225818
1684208145485685000,2.85268505859375,0.3030722617149353,-0.9282488178730011,-1.3192767186775802
1684208145495710000,2.8627099609375,0.25521160938739773,-1.2077794604808092,-0.7883899730667472
1684208145505734000,2.87273388671875,-0.13657003239393234,-1.2260247267454862,-0.4597247126728296
1684208145515759000,2.882759033203125,-0.3293009279489517,-0.8295768467187881,-0.42259646676182744
1684208145525784000,2.8927841796875,-0.8495827659804374,0.012715689188241957,-0.512007565356791
1684208145535808000,2.90280810546875,-1.8775581055618822,0.6761316673696041,-1.1409709465771913
1684208145545833200,2.912833251953125,-2.532597738933563,1.4321616318404673,-1.8092261814832686
1684208145555858000,2.92285791015625,-2.5291502288281915,3.465147468870878,-1.9596119732618331
1684208145565881900,2.9328818359375,-2.7625883978247643,7.712938768371939,-1.236370471931994
1684208145575907000,2.942906982421875,-1.604486868226528,7.791784926071762,-1.5432318967968224
1684208145585932000,2.95293212890625,0.38112230060100555,1.7517986593872308,-2.605886554767191
1684208145595956000,2.9629560546875,0.3437478979092091,-0.5092588511705398,-1.2620093555793166
1684208145605981200,2.972981201171875,0.679994188016653,-1.4169453580081461,-0.026304069557785987
1684208145616006000,2.983005859375,1.2335282342433929,-2.1792525030523535,0.6273986161217093
1684208145626030000,2.993030029296875,1.5809727216482161,-2.471243398782611,1.5364745314911008
1684208145636055000,3.003054931640625,1.728639463726431,-2.3791923070728775,2.490032854926586
1684208145646080000,3.013080078125,1.670495902315527,-1.9368968681067227,3.474443120482564
1684208145656104200,3.023104248046875,1.5588731180429458,-1.286374858289957,4.664720826542378
1684208145666129200,3.033129150390625,1.134963742051646,-0.8017074275404215,5.032161807793378
1684208145676153900,3.04315380859375,0.9833703280489892,-0.46238604083657264,4.949760587960482
1684208145686178000,3.053177978515625,0.9668715401254594,-0.4993091195642948,3.963905384293198
1684208145696203000,3.063203125,0.6905586905203759,-0.6963403426617384,2.7186922652140257
1684208145706228000,3.07322802734375,0.4802560440480709,-0.7185445756852626,1.5846555018141866
1684208145716252200,3.083252197265625,0.5592471631765366,-0.3520709781616926,0.6057692603766918
1684208145726277000,3.093277099609375,0.600696925548464,0.17058569924235342,-0.26670564782619477
1684208145736301800,3.1033017578125,0.45832843600884077,0.5819476552844047,-0.9491469367340206
1684208145746326000,3.113325927734375,0.4020658660389483,0.8866670996844768,-1.5025997344180941
1684208145756351000,3.12335107421875,0.35415238754563033,0.951110053500533,-1.8095552673071622
1684208145766376000,3.1333759765625,0.26575163503699,0.8732318640500306,-1.8802853385686873
1684208145776400100,3.143400146484375,0.07250175710916519,0.7740303160637617,-1.8679668320044873
1684208145786425000,3.153425048828125,-0.19485724005922675,0.522539188504219,-1.7836220768883824
1684208145796449800,3.16344970703125,-0.2892237691044807,0.2836035911351442,-1.500669350877404
1684208145806474000,3.173473876953125,-0.094330142557621,0.12727671886980532,-0.9906430224657058
1684208145816499000,3.1834990234375,-0.08916998331546783,-0.0240945768147707,-0.5582350635245442
1684208145826523100,3.193523193359375,-0.27243863852024075,-0.09152502200901508,-0.2462704703018069
1684208145836548000,3.203548095703125,-0.5735153425037861,-0.015650573596358297,-0.12312047597318887
1684208145846573000,3.213572998046875,-0.9773487296719103,0.0801478879481554,0.2070437908068299
1684208145856597000,3.223596923828125,-1.3104431316196918,0.11026128666102886,0.4128577475577593
1684208145866622000,3.2336220703125,-1.4237094453155994,0.045241994261741636,0.6203089501217007
1684208145876647000,3.24364697265625,-1.4870973371207714,-0.16876023738086224,0.728508628077805
1684208145886671000,3.253671142578125,-1.644122128522396,-0.3419184174597263,0.7893281306996941
1684208145896696000,3.263696044921875,-1.6157554273463786,-0.581581744581461,0.8840215536117553
1684208145906721000,3.273720947265625,-1.0674468606829643,-0.9078414051383733,1.0988161046758294
1684208145916745000,3.283744873046875,-0.8359083878278731,-0.9909569107204675,1.1858850240588188
1684208145926770000,3.29377001953125,-1.10689975014925,-0.936218189316988,1.0297788088068365
1684208145936795000,3.303794921875,-1.1445501202382147,-0.998376831588149,0.8496636491969227
1684208145946819000,3.313819091796875,-0.7986895410239696,-1.1154811160117386,0.6484229917109012
1684208145956844000,3.323843994140625,-0.5197803913153708,-1.3008031966149807,0.5601175162702798
1684208145966869000,3.333868896484375,-0.19674305380582807,-1.5512468609482049,0.5926499588236213
1684208145976893000,3.343892822265625,-0.22947730254158377,-1.6929735454529522,0.6305339915379882
1684208145986918000,3.35391796875,-0.14654796718135477,-1.7376175738215445,0.6648512716814875
1684208145996943000,3.363943115234375,0.45750732888430357,-1.667237046650052,0.7684855414181947
1684208146006967000,3.373967041015625,1.2470343431569635,-1.6214514470309018,0.8278188971355557
1684208146016992000,3.383991943359375,1.4343291851378976,-1.1971949381023645,0.9998872361510992
1684208146027017200,3.394017333984375,1.6475848361968992,-0.00583235941529274,0.9655851535767316
1684208146037041000,3.404041015625,-0.10997209445610642,1.4313573297202586,0.6665878862157464
1684208146047065900,3.41406591796875,-2.2151463848628103,1.8902865081012248,0.8886471675857901
1684208146057091000,3.424091064453125,-1.3419044378101825,1.8185726864993572,1.3301827280953527
1684208146067115000,3.434114990234375,-0.23149872536659238,1.5036393065989018,1.7654267872452736
1684208146077140000,3.444139892578125,-0.4729740703463554,1.0098135868817568,1.785830985109508
1684208146087165200,3.454165283203125,-0.8087970935404301,0.7480027253597974,1.6126017856210468
1684208146097188900,3.46418896484375,-0.5347790768742561,0.47564825799167154,1.6061305437803268
1684208146107214000,3.474214111328125,0.0007457038007676601,0.036233342897892,1.7736857892856002
1684208146117239000,3.484239013671875,0.7888184276118874,-0.15968845765292644,2.3253365059837696
1684208146127263000,3.494262939453125,1.4946924684248863,0.09135083448588847,2.981294569374621
1684208146137288200,3.5042880859375,1.8144271111272274,0.8341437162429094,3.6235336117535826
1684208146147313200,3.514313232421875,1.6605588840603827,1.9614187304228543,4.490697261805832
1684208146157336800,3.5243369140625,1.5509445170007645,2.2117782236039636,3.742519764401018
1684208146167362000,3.534362060546875,1.159533169836551,1.5059785632014273,2.1986434322208166
1684208146177387000,3.544386962890625,0.30118805540353055,0.7557020476907491,0.6307452962011099
1684208146187411000,3.554410888671875,0.044991818892955775,0.35473172180354595,-0.866791309608519
1684208146197436200,3.564436279296875,0.14202975910454987,0.1924251906067133,-1.6762299159228802
1684208146207461000,3.574461181640625,0.03457885368913412,0.13940730164647103,-1.7214985059306025
1684208146217485000,3.584485107421875,-0.2168459306359291,0.2103442936569452,-0.9879583134263753
1684208146227510000,3.594510009765625,-0.12493307835310696,0.3895125278055668,0.10237345602065324
1684208146237535000,3.604534912109375,0.5685045286044478,0.25121640227138997,1.1740034476071595
1684208146247559200,3.61455908203125,1.3301745447888969,-0.3878407952010631,1.878958181618154
1684208146257584000,3.624584228515625,1.5447827795006335,-1.218820494455099,2.4372934906467796
1684208146267609000,3.634609130859375,0.9409761974990367,-1.9486843365341424,2.626295428806543
1684208146277633000,3.644633056640625,0.32086963808164,-1.7818407464295625,2.4261568873435255
1684208146287658000,3.654657958984375,-0.2973990383841097,-0.03688976098001003,0.7582356578215956
1684208146297683000,3.664682861328125,-0.8502947867073118,1.8089748370707035,-1.5898761590719221
1684208146307707100,3.67470703125,-0.966062854091078,2.4168974760890007,-3.2777097112879154
1684208146317732000,3.684732177734375,-0.8206019514940679,2.2363258048832417,-4.132115294314921
1684208146327757000,3.694757080078125,-0.29522081756219265,1.9102473461121319,-4.092246809785068
1684208146337780500,3.704780517578125,0.38591757205352184,1.4505571202307939,-3.526206625467539
1684208146347805400,3.714805419921875,0.6485713141404091,0.9689315413951873,-2.316829374401271
1684208146357830400,3.724830322265625,0.6683679745655506,0.32375264617204663,-0.9313964682489633
1684208146367854600,3.7348544921875,1.103555042831227,-0.37846915574371814,0.5082467515185475
1684208146377879600,3.744879638671875,2.3069757966458795,-1.0813795244455338,1.1948583118483425
1684208146387904500,3.754904541015625,3.5568320653557777,-1.4146546167224645,1.4365385317504404
1684208146397928400,3.764928466796875,3.8544308640956877,-1.136939499104023,1.3461194251567123
1684208146407953400,3.774953369140625,3.550724980652332,-0.6645259852498769,0.848937673009932
1684208146417978600,3.784978515625,2.7716274443268776,-0.3261591227918863,0.28893647659569976
1684208146428002600,3.79500244140625,1.520171923726797,-0.0011029928058385848,-0.12202288999482988
1684208146438027500,3.805027587890625,0.12409991546459495,0.23045126214027403,-0.5726306686237455
1684208146448052500,3.815052490234375,-0.7247778440516441,0.4945195472002029,-1.0919102708101271
1684208146458076400,3.825076416015625,-0.7949743198931217,0.905035115545988,-1.7406927434831856
1684208146468101400,3.835101318359375,-0.6179074419379234,1.2926964625269173,-2.2276401018634435
1684208146478126600,3.845126708984375,-0.4107364810874685,1.5383540616273879,-2.665039585481584
1684208146488150500,3.855150634765625,-0.3110147451519966,1.4449626612246036,-3.1230764911979434
1684208146498175700,3.86517578125,-0.15864157894849776,1.1106932972133159,-3.3616604986503718
1684208146508200400,3.875200439453125,0.417466702657938,0.7271738723427057,-3.3183015416562553
1684208146518224400,3.885224365234375,0.9041220923542976,0.33032033412456513,-3.093893651333451
1684208146528249600,3.89524951171875,1.1045283448427914,0.16761223638951778,-2.839438121010363
1684208146538274600,3.905274658203125,1.1225158369541168,0.1378267544567585,-2.67403596188575
1684208146548298500,3.915298583984375,1.2172305949151516,0.0625718992471695,-2.6114883202970027
1684208146558323700,3.92532373046875,1.2678566203027963,-0.06671557492315769,-2.536610189445317
1684208146568348400,3.935348388671875,1.3069985441237688,-0.40568157231807705,-2.374119241592288
1684208146578372400,3.945372314453125,1.1804665061414241,-0.9699152917355298,-2.094364434839785
1684208146588397600,3.9553974609375,1.112589413158223,-1.628110904920101,-1.6712442364647984
1684208146598422500,3.965422607421875,0.8393927228122949,-1.9151719430327414,-1.42251468257308
1684208146608446700,3.97544677734375,0.9688456897426396,-1.9639795208215713,-0.9549977085888385
1684208146618471700,3.9854716796875,0.8608775555200874,-1.5957628790229559,-0.729651952894032
1684208146628496400,3.995496337890625,1.0330869104415177,-0.7243009472548961,-0.31221944476664065
1684208146638520600,4.0055205078125,1.5923007558703421,0.22222937723994254,0.2834893171057105
1684208146648545500,4.015545654296875,1.6520424001276492,0.7549988678574562,0.831572696711123
1684208146658570500,4.025570556640625,1.2611604836650192,0.9579407763034105,1.4746709862679241
1684208146668594700,4.0355947265625,0.9501847553491591,0.7243798577100038,1.935586954551935
1684208146678619600,4.04561962890625,0.9489547751627861,-0.026689269483089445,2.1730466341495513
1684208146688644400,4.055644287109375,0.9353910908430815,-0.8277490467697382,2.246798683580756
1684208146698668500,4.06566845703125,0.7062714426327497,-1.443995862019062,2.4621912005379794
1684208146708693500,4.075693603515625,0.7276185473702848,-1.879985478839278,2.5136522154450414
1684208146718718500,4.085718505859375,0.7847001786381006,-2.260756481784582,1.9955124309435486
1684208146728742700,4.09574267578125,0.8543243344843388,-2.4123206696927544,1.641240727867186
1684208146738767600,4.105767578125,0.8386516221214085,-2.538371646159887,1.248485272617638
1684208146748792300,4.115792236328125,0.7363117761094122,-2.7811557356506587,0.7878878687635064
1684208146758816500,4.12581640625,0.4626106433726847,-2.71763048120141,0.45863282578289505
1684208146768841500,4.135841552734375,0.0717477969367057,-2.2027526211053132,0.35561084272563454
1684208146778866400,4.145866455078125,-0.21944595706649123,-1.8938573523253202,0.3241919143721461
1684208146788890600,4.155890625,-0.6149730689864605,-1.4896300704687833,0.2407385551378131
1684208146798915300,4.165915283203125,-1.0893114134233444,-0.8445370999634265,0.10931289989501237
1684208146808940300,4.175940185546875,-1.5609639528423547,-0.2652431740581989,0.019556933385133743
1684208146818964500,4.185964599609375,-1.7716589596331118,-0.09378010745942592,-0.2083554579272866
1684208146828989400,4.195989501953125,-1.7113497446209192,-0.3158300364792347,-0.7958338593319058
1684208146839014700,4.2060146484375,-1.5485761804342268,-0.634077655494213,-1.4420637249127028
1684208146849038600,4.21603857421875,-1.3213690147817134,-0.6984492976397275,-1.9132617254972457
1684208146859063300,4.226063232421875,-0.9596306290864944,-0.387503526070714,-2.0792007679775355
1684208146869088500,4.236088623046875,-0.47580311975982037,0.3379828315764665,-1.9286565707668661
1684208146879112400,4.246112548828125,-0.06573821779098361,1.195498655578494,-1.5037278616651892
1684208146889137400,4.256137451171875,0.010256678663566709,1.7237275801569223,-1.126907642172277
1684208146899162600,4.26616259765625,-0.09242810832858085,1.6131956598609685,-0.9560556932091713
1684208146909186600,4.2761865234375,-0.15693473849799483,1.0545482161432504,-0.7785039543464779
1684208146919211300,4.286211181640625,-0.28554652363015337,0.2370405774027109,-0.44016982511430974
1684208146929236500,4.296236572265625,-0.43571196892261504,-0.562303043615818,0.08283318150937556
1684208146939260400,4.306260498046875,-0.49572892298996446,-1.065574637070298,0.5733446621119975
1684208146949285600,4.31628564453125,-0.4139531415790319,-1.3114157760441303,0.8578054545983672
1684208146959310600,4.326310546875,-0.3109749976634979,-1.431383048683405,0.9388055754616856
1684208146969334500,4.33633447265625,-0.3117524117767811,-1.5539683948665857,0.9620292146608233
1684208146979359500,4.346359375,-0.35884383329749103,-1.7237363479852676,0.9822805600509047
1684208146989384400,4.356384521484375,-0.5609235719561576,-1.997201406943798,0.8598664787814021
1684208146999408400,4.366408447265625,-0.9054571403503417,-2.2774136020749807,0.6360945482745767
1684208147009433600,4.37643359375,-1.3204735272467136,-2.3715748178064824,0.4137713552713394
1684208147019458600,4.38645849609375,-1.9689643234968184,-1.6694354334771633,0.19872136814147232
1684208147029483500,4.3964833984375,-2.6897370966255663,0.541700400570035,0.407244583851099
1684208147039507500,4.406507568359375,-2.6213433593571183,3.77620839125216,1.307449502761662
1684208147049532400,4.416532470703125,-1.9224504096031187,5.486279786500335,1.8372130895614622
1684208147059557400,4.426557373046875,-1.5831693549096584,4.780064531034231,1.9241484456926583
1684208147069581600,4.43658154296875,-1.7076935602009296,3.391220647394657,2.274659919452667
1684208147079606500,4.4466064453125,-2.3564544055640697,2.11597976205945,2.509026309210062
1684208147089631500,4.456631591796875,-2.4151848269522187,1.3164321429014205,1.9857693278253077
1684208147099655400,4.466655517578125,-1.056024133914709,0.6492278783529997,1.4449734748795628
1684208147109680400,4.476680419921875,0.6533166089713573,-0.30797172419428825,0.17360153993219135
1684208147119705300,4.486705322265625,1.5478887826919554,-0.929324922671914,-1.1608382610857486
1684208147129729500,4.4967294921875,1.7424352032363413,-1.0009335303336382,-2.1997797427743673
1684208147139754500,4.50675439453125,1.8386463372349737,-0.7511071211159229,-3.13447817517817
1684208147149779500,4.516779541015625,2.0694787076473236,-0.300411518073082,-3.783035899184644
1684208147159803400,4.526803466796875,2.3158570222377777,0.03963233768641949,-3.8019016354352235
1684208147169828400,4.536828369140625,2.413442951720953,0.01961246296465397,-3.29841259983778
1684208147179853300,4.546853271484375,2.3133225353240965,-0.1992249337494373,-2.606612823215127
1684208147189877500,4.55687744140625,1.6767548165798187,-0.11315174740552901,-2.0903540301546455
1684208147199902500,4.56690234375,0.4409235660910606,0.4334481156438589,-1.835525867126882
1684208147209927700,4.576927734375,-0.9298071532309055,1.3398983586847781,-1.0275909433737396
1684208147219951400,4.586951416015625,-1.7023393396914004,2.2744500760942694,0.08565174606144428
1684208147229976300,4.596976318359375,-1.5322633435368538,2.1088784056216476,0.30677900727838275
1684208147240001500,4.60700146484375,-0.9576724807560444,1.1348124239474535,0.6374281349658966
1684208147250025500,4.617025390625,-0.44586628319025035,0.06431669708788394,1.0574275709718466
1684208147260050400,4.627050537109375,-0.10090367572903633,-0.8390291501969098,1.079775011858344
1684208147270075600,4.63707568359375,-0.11611410434246063,-1.2052104867756366,0.5345183801114559
1684208147280099300,4.647099365234375,-0.17108130073957145,-1.2142618082374335,-0.1250529053404927
1684208147290124500,4.65712451171875,0.06541848431732505,-0.9418956504315137,-0.5968786824345589
1684208147300149500,4.6671494140625,-0.09908931978344916,-0.45141281140148637,-0.7486942147552966
1684208147310174500,4.677174560546875,-0.2771427976232022,0.006384732601046562,-0.8405591362431645
1684208147320198700,4.68719873046875,-0.25573066482543944,0.6395435196846723,-1.2241142169490455
1684208147330223600,4.6972236328125,-0.35901787469014523,1.2677221802681684,-1.38802116907984
1684208147340249300,4.707249267578125,-0.520095887005329,1.5723668058663605,-1.7629890387043357
1684208147350273300,4.717273193359375,-0.446814377695322,1.4241478367328644,-1.9032167168229817
1684208147360298500,4.727298583984375,0.1596411113798618,0.9036106357008218,-1.5142211986288427
1684208147370323500,4.737323486328125,0.9858827492613345,0.2757160527557134,-0.7373863465383649
1684208147380347400,4.747347412109375,1.378828685581684,-0.15574527298510074,-0.20754881771951914
1684208147390372400,4.757372314453125,1.2693559189498425,-0.34328035346269603,0.11519055975675582
1684208147400397300,4.767397216796875,0.86187518825531,-0.4046738565802574,0.0030126258194446563
1684208147410421200,4.777421142578125,0.4983471426643431,-0.39737259365618227,-0.2986272650048137
1684208147420446500,4.787446533203125,0.1803762947641313,-0.33375206213891506,-0.4767050735682249
1684208147430471400,4.797471435546875,0.021185338304564354,-0.2808715358227491,-0.506173744636774
1684208147440495600,4.80749560546875,0.051761605288833376,-0.19181261166632174,-0.16218232029527424
1684208147450520300,4.817520263671875,0.01061827851757407,-0.0911491744339466,0.36253070511668917
1684208147460545300,4.827545166015625,0.0008078092515468597,-0.2263485029965639,0.8192863388508558
1684208147470569500,4.837569580078125,0.101588735383749,-0.5548550656974315,1.2433052396312356
1684208147480594400,4.847594482421875,0.19873861153721809,-0.8430687809765338,1.5957809992015362
1684208147490619400,4.857619384765625,0.2790951737999916,-0.8922183040708302,1.7147452322781085
1684208147500643600,4.8676435546875,0.2049427268743515,-0.8312824815928935,1.636438588282466
1684208147510668300,4.877668212890625,0.1974608466863632,-0.6319008959770203,1.5499106439083814
1684208147520693200,4.887693359375,0.3179121034502983,-0.3925391821503639,1.3108067042350768
1684208147530717400,4.897717529296875,0.45419338203072546,-0.1280798519462347,1.1757964685037732
1684208147540742400,4.907742431640625,0.5673498056113719,0.06750701756179332,1.1586094791203736
1684208147550767400,4.917767333984375,0.5095335033934563,0.11083294906914233,1.063070253033936
1684208147560791600,4.92779150390625,0.16606486081704497,0.11688742680251597,0.7938616824761032
1684208147570816300,4.937816162109375,-0.08636435131020843,0.11031330910921096,0.5894771740064024
1684208147580841200,4.94784130859375,-0.1668636099793017,0.041812604334950446,0.43798663585633035
1684208147590865400,4.957865478515625,-0.18785488701649009,-0.11678104381859301,0.33761692087352274
1684208147600890400,4.967890380859375,-0.032637218102067704,-0.29786241811215874,0.3746948979020118
1684208147610915300,4.977915283203125,0.2029904237627983,-0.33141923527717587,0.38962534053027625
1684208147620939500,4.987939453125,0.21916882062554358,-0.28068799594938754,0.3671510583937168
1684208147630964200,4.997964111328125,0.08088014774546026,-0.26803368155956264,0.2646191969409585
1684208147640989200,5.0079892578125,-0.18890936450548468,-0.27310499347448347,-0.00230009363591671
1684208147651013400,5.018013427734375,-0.7472587020594627,-0.231340904456377,-0.4157692510902881
1684208147661038300,5.028038330078125,-1.3816530953526496,-0.16700316458046435,-0.7711591445416212
1684208147671063300,5.038063232421875,-1.8598656508743763,0.02031388923227787,-0.9554092119991778
1684208147681088500,5.048088623046875,-2.121995807478577,0.03853752818703651,-1.1491647744268179
1684208147691112200,5.0581123046875,-2.1279674292340873,-0.1762684210538864,-1.0033984591424465
1684208147701137400,5.068137451171875,-1.8428093021333216,-0.3929056773751974,-0.38323067105710507
1684208147711162400,5.078162353515625,-1.6399150322213767,-0.4870797525882721,0.23676789794117212
1684208147721186300,5.088186279296875,-1.5806031576834618,-0.5345429300308228,0.6501970156461
1684208147731211500,5.09821142578125,-1.5192776052355765,-0.5586076962292194,1.0198889906942843
1684208147741236500,5.108236572265625,-1.5502734858714042,-0.5863409218072891,1.313059451597929
1684208147751260200,5.11826025390625,-1.643121573177725,-0.572390722388029,1.5431304822489618
1684208147761285400,5.128285400390625,-1.7077238092087208,-0.6492378152251244,1.6618717202246187
1684208147771310300,5.138310302734375,-1.7739071769513188,-0.8224655534088611,1.7522729989007115
1684208147781334500,5.14833447265625,-1.825481881365925,-1.010150856012106,1.8034277243375778
1684208147791359500,5.158359375,-1.6698879995502531,-1.2336048066109417,1.685092436814308
1684208147801384400,5.168384521484375,-1.3268237730562686,-1.4312024314194918,1.4856415853545069
1684208147811408400,5.178408447265625,-0.7011351757228375,-1.5402555113345384,1.4132701766267417
1684208147821433300,5.188433349609375,-0.35121012354865666,-1.5421201361626387,1.4273495553836226
1684208147831458300,5.198458251953125,-0.30116555131077766,-1.474294554170966,1.489986921082437
1684208147841482500,5.208482421875,-0.32692893812060353,-1.4886802223980427,1.6396408914551137
1684208147851507500,5.218507568359375,-0.3185129919528961,-1.466955881845951,1.8441162930786608
1684208147861532400,5.228532470703125,0.5218832088135182,-1.2445926490932702,2.02875331402719
1684208147871556400,5.238556396484375,1.5862952318452297,-0.6609446196317672,2.166034125038981
1684208147881581300,5.248581298828125,2.6793217933341857,0.9220312585324049,2.575468327888846
1684208147891606300,5.258606201171875,4.3513188939929,3.63030822045505,2.9663860463172194
1684208147901630500,5.26863037109375,5.221091557499766,5.81908024700284,2.3596759979590773
1684208147911655400,5.278655517578125,4.158405627608299,4.986621122846007,1.0133931989341973
1684208147921680400,5.288680419921875,2.209737073165178,2.573231362617016,-0.40004648904055357
1684208147931704300,5.298704345703125,0.508253181259334,1.061637882143259,-1.6580884022936224
1684208147941729300,5.308729248046875,-0.2093827551484108,0.4508978476166725,-2.5645173102855683
1684208147951754200,5.318754150390625,-0.6326375396884978,0.1258884793817997,-2.7023423111766576
1684208147961778400,5.3287783203125,-1.082745844362676,-0.4265864131808281,-2.2174308425381777
1684208147971803400,5.338803466796875,-1.6037810580447316,-0.8759528134465218,-1.1820099361911416
1684208147981828400,5.348828369140625,-2.113554434608668,-0.7205068156689405,0.03316284941136837
1684208147991852300,5.358852294921875,-2.047914526093006,-0.07769348053336143,1.3190136838272213
1684208148001877200,5.368877197265625,-0.792132520595938,0.945170142057538,2.5712583089783787
1684208148011902200,5.378902099609375,1.3547462375961243,1.193144785928726,3.5958220134854315
1684208148021926400,5.388926513671875,2.5148013854801654,0.8321464049458503,4.527019452030957
1684208148031951400,5.398951416015625,1.734336360193789,0.5420704029262066,3.960446476010978
1684208148041976600,5.4089765625,0.7311343004062771,0.3845663035750389,2.3181156148195265
1684208148052001500,5.41900146484375,0.43907560013681646,0.16796119595766065,0.8516697283223271
1684208148062025200,5.429025146484375,0.21968583023697136,0.029493220987915993,-0.02331453235298395
1684208148072050400,5.439050537109375,-0.2366623917400837,-0.01856441521644592,-0.5163485171705484
1684208148082075400,5.449075439453125,-1.0804564182512462,-0.23782968195378779,-0.845325035470724
1684208148092099300,5.459099365234375,-2.2380077666208145,-0.3196720988601446,-1.2946250925019382
1684208148102124500,5.46912451171875,-3.1726740503206847,-0.23706804993152616,-1.8292974941313265
1684208148112149500,5.4791494140625,-3.7266216457843777,-0.03550502862334251,-1.8008401920624075
1684208148122173200,5.489173095703125,-3.350266705715656,0.16976269242167472,-1.0825400926575064
1684208148132198400,5.499198486328125,-2.0470447575211526,0.18294483007788656,-0.1291755382284522
1684208148142223400,5.509223388671875,-0.6932685340009629,0.019012158983945846,0.8751673621572553
1684208148152247600,5.51924755859375,0.595861541281268,-0.31493571798801423,2.0304117487587034
1684208148162272500,5.5292724609375,1.5457938562393188,-0.7546218512386084,3.178283414635062
1684208148172297500,5.53929736328125,2.3015444192469117,-1.2309388022720813,3.944547772872448
1684208148182321400,5.5493212890625,2.4576386518001554,-1.6671411850601434,4.459198838475347
1684208148192346400,5.559346435546875,2.2403519916594026,-1.9683616814285516,5.224377155041695
1684208148202371300,5.569371337890625,2.2601251981437205,-2.1266303354114293,5.609250332608819
1684208148212395500,5.5793955078125,2.307183886438608,-2.0842975065946576,5.1828433676481245
1684208148222420500,5.58942041015625,2.082700592792034,-1.915197077473998,4.552659796983003
1684208148232445400,5.599445556640625,1.7835633324384688,-1.7336632832378147,3.751675715281069
1684208148242469400,5.609469482421875,1.609777960371971,-1.4860229858875273,2.788750428563356
1684208148252494300,5.619494384765625,1.348936236143112,-1.108815228381753,1.9284119483560322
1684208148262519300,5.629519287109375,0.9888310046076774,-0.6265560278177261,1.2345061393648384
1684208148272543500,5.63954345703125,0.6329156259775162,-0.3619371231377125,0.6908122268900275
1684208148282568400,5.649568359375,0.596384176915884,-0.15170096603035926,0.2042117822512984
1684208148292593400,5.659593505859375,0.5380803834419697,0.09451426695287227,-0.311955825394392
1684208148302617300,5.669617431640625,0.4817091654658317,0.3186252201557159,-0.62108431840837
1684208148312642300,5.679642333984375,0.46030397386550903,0.3588894260048866,-0.8445598963171244
1684208148322667300,5.689667236328125,0.4511632205545902,0.44964930886030197,-1.1340098753929138
1684208148332692500,5.6996923828125,0.5460451517760754,0.5429156215786933,-1.1756357249841094
1684208148342715600,5.709715576171875,0.6203641874402761,0.5062070623844862,-1.1666381795361638
1684208148352740900,5.719740966796875,0.7039461414903402,0.39667584356367586,-0.9741808402255177
1684208148362765800,5.729765869140625,0.7257441318005323,0.257331670281291,-0.7545239438220858
1684208148372789800,5.739789794921875,1.029486840122938,0.4013397437214851,-0.646869917050004
1684208148382814700,5.749814697265625,1.8185405377954245,0.618695377445221,-0.20289222408533095
1684208148392839700,5.759839599609375,1.9008821363955735,0.6146890644133091,0.16724106498956678
1684208148402863600,5.769863525390625,1.804080050766468,0.5831704750776291,0.28444968657046554
1684208148412888800,5.779888916015625,1.8138007959224283,0.665945204398036,0.5307727638423443
1684208148422913800,5.789913818359375,1.895437314993143,0.6202203950554133,0.7108297635242342
1684208148432938000,5.79993798828125,1.7706700947262346,0.5048614929944276,0.7603130486175418
1684208148442962700,5.809962646484375,1.4379448914170265,0.3725637310922146,0.9171955089390277
1684208148452987600,5.819987548828125,1.3577275914944709,0.2209977896183729,1.105240000243485
1684208148463011800,5.83001171875,1.4943611906439065,0.20938450871407985,1.2112813311219215
1684208148473036800,5.840036865234375,1.5948342198707162,0.0914110402405262,1.2581772300705314
1684208148483061800,5.850061767578125,1.813194938983768,-0.22132103022336957,1.0839084584012626
1684208148493086000,5.8600859375,1.7070329043351113,-0.28696576104462146,0.5915495963662862
1684208148503110700,5.870110595703125,1.719782057401538,-0.213556241440773,0.25355069043785333
1684208148513135600,5.880135498046875,1.663397322356701,-0.20859657320678232,-0.023806115262210367
1684208148523159800,5.890159912109375,1.4724416197806596,-0.2656301275491714,-0.4427531196057796
1684208148533184800,5.900184814453125,1.2199427764832973,-0.2862573205143213,-0.7518643692240119
1684208148543209700,5.910209716796875,0.9848305367946624,-0.1992962454199791,-0.9037555971294641
1684208148553234000,5.92023388671875,0.9145382724285125,-0.017380758389830588,-0.9740005152225494
1684208148563258600,5.930258544921875,0.8955648380197584,0.1868465136915445,-0.9441814232811331
1684208148573283600,5.94028369140625,0.8751619553297758,0.28452538215518,-0.8677709682956337
1684208148583308800,5.950308837890625,1.0093255111038684,0.3048468701720238,-0.6702209820210934
1684208148593332700,5.960332763671875,1.1847547048546374,0.326180165579915,-0.39870764165222644
1684208148603357700,5.970357666015625,1.3588159712530672,0.25491876392066476,-0.15453151328116654
1684208148613383000,5.9803828125,1.3601451740302144,0.182477797088027,0.003387304350733757
1684208148623406600,5.990406494140625,1.3905578479506076,0.03667290335893631,0.10486410379260777
1684208148633431600,6.000431640625,1.4743117975667117,-0.183514738920331,0.2595356100663543
1684208148643456800,6.010456787109375,1.5821885271787643,-0.3358504957228899,0.5537845138564705
1684208148653480700,6.020480712890625,1.9066618888407945,-0.5558756409168243,0.8148506944909691
1684208148663506000,6.030505859375,1.9930653300523757,-0.6679109515130519,0.913147987113893
1684208148673531000,6.04053076171875,1.8539380143910644,-0.6596995880067348,0.755676036466658
1684208148683554600,6.050554443359375,1.813141893622279,-0.6740636289238929,-0.05461918667703867
1684208148693579800,6.060579833984375,1.2749151605121791,-0.7709411178767681,-0.9272264890879393
1684208148703604700,6.070604736328125,0.9681985509455203,-1.0665490350604057,-1.622055550403893
1684208148713628700,6.080628662109375,1.1071885039627551,-1.384276429593563,-2.3399393240928648
1684208148723654000,6.09065380859375,1.5721405958950518,-1.6899977445125578,-2.8535882269158956
1684208148733678800,6.100678955078125,2.1228974324934184,-1.9522481664955615,-3.1540967756226657
1684208148743702500,6.11070263671875,2.4748785404145717,-2.0392472355127333,-3.4419285058468576
1684208148753727700,6.120727783203125,1.9858090753138065,-1.7467121499031781,-3.8417528765693305
1684208148763752700,6.130752685546875,0.16361293762028217,-1.0515303296267986,-4.524887992960214
1684208148773777000,6.14077685546875,-2.260452530401945,-0.03581891687810421,-5.1674692729055876
1684208148783801900,6.1508017578125,-3.6557740856230256,1.831536797490716,-5.139681686791778
1684208148793826800,6.160826904296875,-2.5732149960041046,4.6169051824003455,-3.4238565503224727
1684208148803851800,6.170851806640625,-0.3438905943155289,7.099440375047922,-0.19552081853449343
1684208148813875700,6.180875732421875,0.44969775111190974,8.369692950576543,3.0754291893601415
1684208148823900700,6.190900634765625,-0.17756613271422683,7.563073201075196,4.40890219117254
1684208148833925600,6.200925537109375,-0.21975502301566302,3.6586300595760344,3.2240126078918574
1684208148843949800,6.21094970703125,0.32608028540201484,-0.4733545940965414,1.4706035906985402
1684208148853974800,6.220974853515625,1.035620739768073,-2.307976498121023,0.4753282322570681
1684208148863999700,6.230999755859375,2.2995840789593753,-3.018305034124851,-0.09981529597043991
1684208148874023700,6.241023681640625,3.5637048737347126,-3.4042139844805,-0.10697101294398308
1684208148884048600,6.251048583984375,4.23166141795516,-3.321823870563507,0.18446955542713403
1684208148894073600,6.261073486328125,4.222719402086734,-2.8694541968286034,0.7708072623640299
1684208148904097800,6.271097900390625,3.7143630527138707,-2.206438031619787,1.3112585396558045
1684208148914122800,6.281122802734375,2.9954630877196786,-1.3982511789321899,1.67902743768692
1684208148924148000,6.29114794921875,2.460751815384626,-0.7765700636744499,1.9550398430407046
1684208148934171600,6.301171630859375,2.015955207252502,-0.3021545623481273,2.1376704926028847
1684208148944196600,6.311196533203125,1.5578081191599369,0.08449965341687202,2.044048498314619
1684208148954221800,6.321221923828125,1.1000538297772406,0.31012218022644517,1.7296335893303154
1684208148964245800,6.331245849609375,0.8239496544867754,0.3205225782096386,1.2069468090489506
1684208148974270700,6.341270751953125,0.7793887012917547,0.18426643407046794,0.8110618236020207
1684208148984296000,6.3512958984375,0.8078560132980346,-0.05564531485438347,0.6588610913559794
1684208148994319600,6.361319580078125,0.7168875291932374,-0.34198213034570213,0.6289855930522084
1684208149004344600,6.371344482421875,0.7192618571091443,-0.5198918888658285,0.8426812429636716
1684208149014369800,6.381369873046875,1.0955167708694935,-0.7058119353622198,1.3179562837287784
1684208149024393700,6.391393798828125,1.7531880679190157,-0.8186673301696776,1.8138760531157254
1684208149034419000,6.4014189453125,2.2208301295876502,-0.7341244221329689,2.24159731554538
1684208149044444000,6.41144384765625,2.552281513568759,-0.6166255854338407,2.477565879802406
1684208149054468900,6.42146875,2.7083564568996428,-0.4607698378115892,2.459293141008913
1684208149064492800,6.431492919921875,2.70701907081604,-0.2665063258618116,2.155245896781981
1684208149074517800,6.441517822265625,2.3957255087226628,-0.11300970858633518,1.5970350909158586
1684208149084542700,6.451542724609375,2.054615485036373,-0.040381694748997686,1.0513032428726554
1684208149094567000,6.46156689453125,1.7290987518012522,0.04538227951526642,0.5070388370335102
1684208149104592000,6.471591796875,1.416319335064292,0.16047288602888582,-0.09691314478814601
1684208149114616800,6.481616943359375,1.2441554267197847,0.18470599453151226,-0.8464663144603372
1684208149124640800,6.491640869140625,1.053109123250842,0.24989070662558077,-1.0028975238829851
1684208149134665700,6.501665771484375,0.6970757442642003,0.3715577689200639,-1.0281810182213782
1684208149144690700,6.511690673828125,0.2765115870475769,0.6886135478019714,-1.0903510586693883
1684208149154715000,6.52171484375,-0.3222457487404346,0.9248129982054233,-0.9247662364542484
1684208149164739800,6.53173974609375,-0.8492933545798063,0.8751315601915121,-0.4093891946643591
1684208149174764800,6.541764892578125,-0.9174024296879768,0.9631482818186282,-0.19644991607815027
1684208149184788700,6.551788818359375,-0.8809089745491743,1.0077098926007748,-0.18457155449688434
1684208149194813700,6.561813720703125,-0.8437941726416349,0.8181751627385616,-0.11454407854676246
1684208149204838700,6.571838623046875,-0.8866022177547216,0.4559644833564758,-0.04318023942634463
1684208149214864000,6.58186376953125,-0.9735480952799319,0.12426584661602973,0.49453138376846906
1684208149224887800,6.5918876953125,-1.0209352848768234,-0.24248890593647957,1.0422874311156571
1684208149234912800,6.601912841796875,-0.7607990785688161,-0.7364145788967609,1.505072846533358
1684208149244937700,6.611937744140625,-0.004297404932975769,-1.1618266876012087,2.2499539327412843
1684208149254961700,6.621961669921875,1.1616828952163458,-1.3822224196732043,3.1498025855600833
1684208149264987000,6.63198681640625,2.1232652428925034,-1.5777759714335202,4.172836888542771
1684208149275011800,6.64201171875,2.533008073300123,-1.4146131156682968,4.688014023846388
1684208149285035800,6.652035888671875,2.3129478567928072,-0.9559323590904474,4.623670438751578
1684208149295061000,6.66206103515625,2.325586389091611,-0.21336744087040424,5.11280127865076
1684208149305085700,6.672085693359375,2.079645881396532,0.3621270927518606,4.48754961142987
1684208149315109600,6.682109619140625,2.0437281803190706,1.0627800379157066,3.783461138859391
1684208149325134800,6.692134765625,2.3438801706731316,1.708791292309761,3.221171246986091
1684208149335159800,6.702159912109375,2.2943863641858098,2.196718017116189,2.581216808412969
1684208149345184300,6.712184326171875,2.030017634874582,2.4503145925223824,1.7863690375089645
1684208149355209500,6.72220947265625,1.9075696513354776,2.188686686351895,0.9468591180577873
1684208149365234200,6.732234130859375,2.0568384217828513,1.5421341646879911,0.0262467864125967
1684208149375258000,6.742258056640625,2.225637237608433,0.8603262052476406,-1.061061835820973
1684208149385283300,6.752283447265625,2.542859020707011,0.5010813899338246,-1.8712801943361759
1684208149395308300,6.762308349609375,3.0087311500936744,0.28761516486406324,-2.4223040113076566
1684208149405332200,6.772332275390625,3.295252674502134,-0.03273264130055904,-2.783062446054816
1684208149415357400,6.782357421875,3.2449457980662584,-0.5059077871769666,-2.5354189338341353
1684208149425382100,6.792382080078125,2.8151176264852285,-0.7874293113410472,-1.7029063259243964
1684208149435407000,6.802406982421875,1.882376757889986,-0.606009498873353,-0.8929358046904206
1684208149445431300,6.812431396484375,0.9915402635663747,-0.06056991177499294,-0.4707482109904289
1684208149455456300,6.822456298828125,0.6315086817890405,0.4273509678125381,-0.33290041374564167
1684208149465481200,6.832481201171875,0.6481617104262113,0.6169727914363146,-0.5753831822022796
1684208149475505400,6.84250537109375,0.7226870823174715,0.6510469104737043,-1.0802312311932445
1684208149485530000,6.852530029296875,0.8615864344418048,0.701005411863327,-1.559456470888853
1684208149495555000,6.86255517578125,0.9838859494209289,0.6510708758711814,-2.0139929672688246
1684208149505579300,6.872579345703125,1.1067220554947852,0.6108867495208978,-2.2908964762434363
1684208149515604200,6.882604248046875,1.1463153032798319,0.6537403873413801,-2.5932564980357884
1684208149525629200,6.892629150390625,0.9313678266763686,0.7731395047038793,-2.7368802483335135
1684208149535653400,6.9026533203125,0.7786462854266166,0.9553595276385545,-2.759756097008288
1684208149545678000,6.912677978515625,0.34539456913769245,0.6990794122368097,-2.974169539800286
1684208149555703000,6.922703125,0.4003717754721641,0.9018968175202607,-2.556798406471312
1684208149565727200,6.932727294921875,0.4039116400361061,1.1357423982739447,-2.318001340790093
1684208149575752200,6.942752197265625,0.14900748916268347,1.2128969496250153,-2.344615206949413
1684208149585777400,6.95277734375,-0.11862400480415672,1.0180611907452344,-2.3429469814762474
1684208149595801300,6.96280126953125,-0.3639168622454628,0.7801964374780654,-2.1605288056209684
1684208149605826000,6.972825927734375,-0.5494832729985937,0.571098344489932,-2.0280799448102713
1684208149615851300,6.982851318359375,-0.9015887744843959,0.32927754707336426,-1.8776441764101386
1684208149625876200,6.992876220703125,-1.0977193224150688,0.2557148827344179,-1.683369266283512
1684208149635900200,7.002900146484375,-1.148379103941843,0.16724106498956678,-1.5292758521586656
1684208149645925400,7.01292529296875,-1.0725935759216547,0.0832236421316862,-1.4478048989132046
1684208149655950300,7.022950439453125,-1.0724690727591515,0.0155938749730587,-1.5431445107743142
1684208149665974000,7.03297412109375,-1.076695750543475,-0.10961305188536644,-1.598696009865403
1684208149675999200,7.042999267578125,-1.0058669681478292,-0.23508535168170927,-1.602282343919575
1684208149686024200,7.053024169921875,-0.8524638013094663,-0.17996493748426437,-1.4502598908498883
1684208149696048400,7.06304833984375,-0.7235281362514943,0.06308686303198337,-1.1520569887369871
1684208149706073300,7.0730732421875,-0.4662550642896443,0.24422259786128997,-0.7696867339015007
1684208149716098300,7.083098388671875,-0.06973046576492488,0.2782505396693945,-0.3647363984674215
1684208149726122200,7.093122314453125,0.32009697320871056,0.10714286237955092,-0.17732465210855006
1684208149736147200,7.103147216796875,0.4828898996829986,-0.2089461172968149,-0.18206717046052218
1684208149746172200,7.113172119140625,0.5807504813890904,-0.5802940428584814,-0.12507687073796986
1684208149756196400,7.1231962890625,1.0414308873515576,-1.0401087719023228,-0.36229631183892486
1684208149766221300,7.13322119140625,1.2906652489602566,-1.4538210904628037,-0.43886429547369477
1684208149776246300,7.143246337890625,1.566685253098607,-1.8305378495812414,-0.3659083648562431
1684208149786271200,7.153271240234375,1.936191350185871,-2.157806979441643,-0.15976941393464802
1684208149796295200,7.163295166015625,2.222708198419213,-2.4534295096725223,0.16627017413079737
1684208149806320000,7.173320068359375,2.4931524482518435,-2.6523382170796395,0.4652171726092696
1684208149816345000,7.183344970703125,2.719973244935274,-2.666522225254774,0.6713944097146392
1684208149826369300,7.193369384765625,2.7219869228452445,-2.5136989771962166,0.9166358292296528
1684208149836394200,7.203394287109375,2.568284553864598,-2.213771443247795,1.2013257542967795
1684208149846419500,7.21341943359375,2.310669390466809,-1.8731413120329379,1.46250971609205
1684208149856443100,7.223443115234375,2.1011124477952716,-1.4272656764924525,1.6674615030556916
1684208149866468000,7.233468017578125,1.7998282385408877,-0.8727595703631639,1.7888439031898975
1684208149876493300,7.243493408203125,1.1587830821216105,-0.4290817371279001,1.5637006843298673
1684208149886517200,7.253517333984375,0.22952654851078985,-0.2475146251440048,0.8683297712221741
1684208149896542200,7.263542236328125,-0.5306418309390545,-0.3904197057783603,0.0918748583599925
1684208149906567400,7.2735673828125,-0.527207180315256,-0.653011488544941,-0.42432431346774097
1684208149916591000,7.283591064453125,-0.09280103329420089,-0.7678624410837889,-0.5159715005517006
1684208149926616000,7.293615966796875,0.15068039081096649,-0.6876736366033553,-0.38546938989460466
1684208149936641300,7.303641357421875,0.23236849393844602,-0.60905485791862,-0.3815925484612584
1684208149946666200,7.313666259765625,0.11075286957025528,-0.42350715186595916,-0.344599034845829
1684208149956690400,7.3236904296875,-0.13277527975346892,-0.10929507197737694,-0.33577333883345123
1684208149966715400,7.33371533203125,-0.14875965188145637,0.12448562684655189,-0.40210342157036066
1684208149976740400,7.343740234375,0.001939443629980087,0.28942133750319476,-0.43055823942124843
1684208149986764300,7.353764404296875,0.021581680678389965,0.3385691070318222,-0.4503185864239931
1684208149996789200,7.363789306640625,-0.3820154500484466,0.3691512923002243,-0.5244160882920027
1684208150006814200,7.373814208984375,-1.075744733428955,0.7502659941166638,-0.5773080127850174
1684208150016838400,7.38383837890625,-1.2734674459218978,1.831978696039319,-0.6260387259453535
1684208150026863400,7.39386328125,-0.8614753752827644,3.2566496798634526,-0.40517362279593944
1684208150036888300,7.403888427734375,-0.33290158278942106,4.358111622872948,0.38260698620080946
1684208150046912300,7.413912353515625,0.10781155542135239,4.912917004209756,1.89884653891474
1684208150056937200,7.423937255859375,0.23022797477841375,4.793855155977607,3.203271140897274
1684208150066962200,7.433962158203125,0.2851110000234097,4.019585185939073,3.461445107221603
1684208150076987400,7.4439873046875,0.4372983247986063,2.6430495797306297,2.743044908443093
1684208150087011300,7.45401123046875,0.8379214812159538,0.8702461262375116,2.1710563371151683
1684208150097036300,7.464036376953125,1.5904782166182994,-0.7727922987014055,1.9356030289039015
1684208150107061200,7.474061279296875,2.102881795555353,-2.1786937001258133,1.3364610777124761
1684208150117085200,7.484085205078125,1.9609072737693785,-3.277621156221628,0.4879223408922553
1684208150127110100,7.494110107421875,1.0175520721793174,-3.633973172703385,-0.5412371669724584
1684208150137135400,7.50413525390625,-0.4834382177481428,-3.155973967671394,-1.6015166202440856
1684208150147159300,7.5141591796875,-1.2751824331462382,-2.5866917326927186,-1.7110568991541861
1684208150157184300,7.524184326171875,-1.5627169339895248,-2.2393822698444126,-1.2171934777751565
1684208150167209200,7.534209228515625,-1.9079799857020376,-1.4789391651064157,-0.5087029708534478
1684208150177233200,7.544233154296875,-2.0466098732352256,-0.22555822940170764,0.18964812710881232
1684208150187258400,7.55425830078125,-2.2915303902328015,0.9849924493581056,0.8501324357524513
1684208150197283300,7.564283447265625,-2.3950492168962954,2.3295780890762803,1.1859858540847896
1684208150207307300,7.574307373046875,-2.3137737862229346,3.2742087174296377,1.2350225644543766
1684208150217332500,7.58433251953125,-1.848489685857296,2.7283739935338494,1.456500538805127
1684208150227357200,7.594357177734375,-1.0810159518301485,1.3955816674619912,1.5543696691438555
1684208150237382100,7.604382080078125,-0.24913378731105476,-0.0056780456364154816,1.4154539504066108
1684208150247406300,7.61440625,0.45907644136454906,-0.9248363790810108,1.0745292201593517
1684208150257431300,7.624431396484375,1.2649100454568862,-1.5072294400453567,0.9507026417434215
1684208150267456300,7.634456298828125,1.9280770173132418,-1.768788372632861,0.9513897472247481
1684208150277480400,7.64448046875,2.3349100977540016,-1.554728857845068,0.9779074595332146
1684208150287505200,7.654505126953125,2.357695930057764,-0.8325456333965062,0.489000783778727
1684208150297530000,7.664530029296875,1.9125404254853724,0.050800797432661055,-0.09758563722223043
1684208150307554300,7.67455419921875,1.401471894544363,0.7379021871060133,-0.5974857084169983
1684208150317579300,7.684579345703125,0.8985679653584957,0.933264015686512,-1.1354165273204446
1684208150327604200,7.694604248046875,0.5998655892908573,0.8603460789918899,-1.8684540309995412
1684208150337628400,7.70462841796875,0.7396189278960228,0.5958405715584755,-2.4257526904568074
1684208150347653600,7.714653564453125,1.0471195274472236,0.2635381237059832,-2.994343436039984
1684208150357678600,7.7246787109375,1.0952607502818108,0.12747194918096064,-3.593499123495817
1684208150367702800,7.734702880859375,1.2023428223848343,0.1452852537691593,-3.9034415632411834
1684208150377727700,7.744727783203125,0.9537351413071155,0.34705461130440235,-3.826762812708318
1684208150387752400,7.75475244140625,0.38429866561479864,0.6574386573374271,-3.6805791487947106
1684208150397777700,7.764777587890625,-0.06155136056039482,1.0183750789999961,-3.269816327689588
1684208150407801600,7.774801513671875,-0.29851532906293865,1.3682675440788268,-2.9271967762231825
1684208150417826600,7.78482666015625,-0.24799627118110656,1.666405272001028,-2.494176822863519
1684208150427851800,7.794851806640625,0.14465988841243088,1.658617102342844,-2.0865981847524644
1684208150437875700,7.804875732421875,0.3598621434945613,1.3573375692635774,-1.757074261702597
1684208150447900400,7.814900390625,0.29444245360083876,1.0917945354759693,-1.2681900900408625
1684208150457925600,7.824925537109375,0.26021511676311493,0.7367933490812778,-0.8574573718130588
1684208150467949600,7.834949462890625,0.30953480879254636,0.35324060646295546,-0.5312760371893644
1684208150477974500,7.844974609375,0.30250293739438056,-0.010931728380918502,-0.2195841234281659
1684208150487999700,7.854999755859375,0.23700360639318824,-0.38056525124013424,0.03526420560479164
1684208150498024700,7.865024658203125,0.1944599113047123,-0.7177934650570154,0.2500678167581558
1684208150508048600,7.875048583984375,0.242948267076537,-0.8995563918739556,0.44612668769210573
1684208150518073600,7.885073486328125,0.33402496079616245,-0.9449924474030733,0.742311527980864
1684208150528098600,7.8950986328125,0.36607312696389854,-0.8592284731388091,1.0096958057209848
1684208150538122800,7.905122802734375,0.2021965699713677,-0.6490367396950721,1.3099927575036883
1684208150548147700,7.915147705078125,-0.022924875448271632,-0.2777612948477268,1.6213558777019381
1684208150558171600,7.925171630859375,-0.20910116172805426,-0.1835802053719759,1.8230401873022317
1684208150568196600,7.935196533203125,-0.408288466880843,-0.16164368337392807,1.9006091646730898
1684208150578221600,7.9452216796875,-0.691260189853236,0.1332651456296444,1.595329748302698
1684208150588245500,7.95524560546875,-0.7849287997622042,0.11761223394572734,1.1381298779323696
1684208150598270700,7.965270751953125,-0.869643557234481,-0.08305880695879458,0.6483247920334338
1684208150608295700,7.975295654296875,-0.9786942990619689,-0.20633155088424682,0.2996469634413719
1684208150618320600,7.985320556640625,-1.0395874514419585,-0.24235329685807228,0.04594371279031038
1684208150628344600,7.995344482421875,-1.0099742573361843,-0.21142916628420352,-0.051235097196698186
1684208150638369500,8.00536962890625,-0.8590169492799788,-0.12938567384779454,-0.007410276256501674
1684208150648394500,8.01539453125,-0.6105915659666061,-0.05378419715762138,0.10901654729694127
1684208150658418700,8.025418701171875,-0.43380284736566244,-0.051314592173695564,0.14907617048472166
1684208150668443600,8.035443603515626,-0.37331783739514646,-0.07975041306316852,0.08347907819747924
1684208150678468600,8.045468505859375,-0.42425197888389227,-0.16379238584041594,-0.10953589499592781
1684208150688492500,8.055492431640625,-0.45511232350654895,-0.24623569124937056,-0.33172201761603354
1684208150698517500,8.065517578125,-0.6744810506183654,-0.2476239307373762,-0.5637181711107492
1684208150708542500,8.07554248046875,-0.9758055918831378,-0.16031448059678077,-0.7823769963875412
1684208150718567700,8.085567626953125,-1.074813078602031,-0.009089899906516074,-0.8848694026127457
1684208150728591600,8.095591552734374,-1.0604664272110909,0.13722878856360912,-0.9769532275483012
1684208150738616800,8.105616943359376,-1.0574971290767192,0.1923462801516056,-1.0039993476450442
1684208150748641800,8.115641845703125,-1.0203928485631941,0.13473054200708864,-0.8349398350566625
1684208150758665500,8.12566552734375,-0.990111107546091,0.07526070042848587,-0.5736351694911718
1684208150768690700,8.135690673828124,-0.9876597688712179,0.0021896189987659453,-0.3680976915940642
1684208150778715600,8.145715576171876,-1.0562369729477912,0.002366144609451294,-0.23372224663496016
1684208150788739600,8.155739501953125,-1.1577217365004122,0.12631225775182248,-0.2591226453512907
1684208150798764800,8.165764892578125,-1.207091478216648,0.15793606102764607,-0.3988452965572476
1684208150808789800,8.175789794921876,-1.171845831181854,0.09865326645374298,-0.47759062423110005
1684208150818813400,8.1858134765625,-1.219864304419607,0.015995441511273384,-0.4555316448971629
1684208150828838700,8.195838623046875,-1.4162509460031985,0.01578209102153778,-0.2927662640169263
1684208150838863600,8.205863525390624,-1.6295334850691259,0.05275310054421425,0.0005023965641856193
1684208150848888600,8.215888671875,-1.7597943343162537,0.06388064375817776,0.36200361250266433
1684208150858912800,8.225912841796875,-1.7571721691191196,0.0013256956458091735,0.6492844308458269
1684208150868937700,8.235937744140625,-1.7249568296909332,-0.09651625442504883,0.7701955602064728
1684208150878962400,8.24596240234375,-1.6052479157269,-0.1425713186353445,0.667708560808748
1684208150888986600,8.255986572265625,-1.4298726441204548,-0.07046002214848995,0.4507129925690591
1684208150899011600,8.266011474609375,-1.6880945412397383,0.5197539416998624,-0.365699690541625
1684208150909036500,8.27603662109375,-2.724995457011461,1.3152765431255102,-1.1849486199915409
1684208150919060700,8.286060791015625,-3.1376456992983814,1.245232700562477,-1.2545822743184865
1684208150929085700,8.296085693359375,-2.184116455826908,0.5156108505457639,-0.8815129317916929
1684208150939110400,8.3061103515625,-1.1760475206553935,0.0017845453292131422,-0.1607804906733334
1684208150949134600,8.316134521484376,-0.6280991656064987,0.18679449124336242,1.0784715280443429
1684208150959159600,8.32615966796875,0.9072996994771063,0.8977993190735578,2.54636673656702
1684208150969184500,8.3361845703125,2.249678769061714,1.6418120980143547,3.5077187826186416
1684208150979209700,8.346209716796874,2.626210088610649,2.1320073522746563,3.816303378014266
1684208150989233700,8.356233642578125,2.5880864019215104,2.3674621217906475,3.339362449863553
1684208150999258600,8.366258544921875,2.150420960843563,2.4131413384258744,1.922714613497257
1684208151009283600,8.37628369140625,1.2303285614192485,2.257528751909733,0.3413511389657855
1684208151019307500,8.3863076171875,-0.31502105818390846,1.8267279359042643,-0.806065768880397
1684208151029332700,8.396332763671875,-1.8385586589515208,0.9954150591731071,-1.5519089781187474
1684208151039357700,8.406357666015625,-2.749147901493311,0.09599486089944839,-2.2557158572688696
1684208151049381600,8.416381591796876,-2.6296435701906677,-0.6908966903030872,-2.3764649279356003
1684208151059406600,8.426406494140625,-2.064776959697157,-1.1466834790050984,-1.795346124690771
1684208151069431600,8.436431640625,-1.40129551506415,-1.37230892842412,-1.1541057379603386
1684208151079455500,8.44645556640625,-0.679567560102418,-1.4716139367848633,-0.5934834870383143
1684208151089480700,8.456480712890626,-0.0037808337129652497,-1.5913766267627476,0.021725801856815812
1684208151099505700,8.466505615234375,0.9251707256019115,-1.8128981479942798,0.7957581637471913
1684208151109530600,8.476530517578125,1.9965116711139679,-2.0021762727469206,1.9288719670832155
1684208151119554600,8.486554443359376,2.9222306782484053,-2.00139359793663,2.997948474794626
1684208151129579500,8.49657958984375,3.4990053148090836,-1.972368578982353,3.713862701976299
1684208151139604500,8.5066044921875,3.5808699435472486,-1.8508008854091167,3.8038188672333955
1684208151149628700,8.516628662109374,3.238833452665806,-1.4570517429471015,3.3262013549953697
1684208151159653600,8.526653564453126,2.5896178492724893,-0.6961772610545158,1.7008301041722296
1684208151169678600,8.5366787109375,1.6220529200553893,0.2551297763228416,-0.0072658993497490875
1684208151179702500,8.54670263671875,0.6890941709257662,0.8254904541879892,-1.2278010887682438
1684208151189727500,8.5567275390625,-0.18998941482715306,0.7335106741487979,-2.1216244899481533
1684208151199752400,8.56675244140625,-1.0176713146448135,0.022819734573364257,-2.6054946328401565
1684208151209777700,8.576777587890625,-1.433397311115265,-0.8794652054816484,-2.908241023601591
1684208151219801600,8.586801513671874,-1.3551941274940966,-1.6990373755365609,-2.9839766480654477
1684208151229826800,8.596826904296876,-0.7780384557265788,-2.1348989820629356,-2.6940786329612134
1684208151239851800,8.606851806640625,-0.1505238120097667,-1.81787710545063,-2.255332995431125
1684208151249875500,8.61687548828125,0.33047114077210427,-1.010327966144681,-1.7669506358116864
1684208151259900700,8.626900634765626,1.0967745889108627,-0.018599486529827118,-1.0584104445293545
1684208151269925600,8.636925537109375,1.7699626771092414,1.007211295428872,-0.37209026836156844
1684208151279949600,8.646949462890625,2.2366426157474515,1.6150135229378937,0.22814736911207437
1684208151289974800,8.656974853515624,1.9018822533488273,1.6039192974716423,0.3785460203722119
1684208151299999700,8.666999755859376,0.9409131422001868,0.8940010958343744,-0.07094254496842622
1684208151310023400,8.6770234375,-0.05364624999165535,0.418024336540699,-1.0278984018877149
1684208151320048600,8.687048583984375,-0.7275040541451424,0.5019371299803257,-1.6645055758595466
1684208151330073600,8.697073486328126,-0.9180465728104114,1.0600719480007885,-1.6256702337697146
1684208151340098600,8.7070986328125,-0.8600047182083129,2.1075527099758387,-1.2960302831247448
1684208151350121700,8.717121826171875,-0.7375333537936211,3.0100381410390136,-0.8374746142312884
1684208151360146700,8.727146728515624,-0.594162993735075,3.5061452496916052,-0.6144345051303506
1684208151370172000,8.737171875,-0.6828946586985141,3.2510622351199387,-0.5700526348292827
1684208151380195800,8.74719580078125,-0.8272397820733487,2.6017583689212795,-0.7553016501963138
1684208151390220800,8.757220703125,-0.9714227736890315,1.947866005888581,-1.139194292293489
1684208151400246000,8.76724609375,-1.1254467758394777,1.5805688170224428,-1.4272174534365534
1684208151410269700,8.777269775390625,-1.1057658507484942,1.4010434399992227,-1.5724951084211467
1684208151420294700,8.787294677734375,-0.7519114232361316,1.0709393789738415,-1.4427031918600202
1684208151430319900,8.79731982421875,-0.38144853688068686,0.514898318362236,-1.2000795536279678
1684208151440343800,8.80734375,-0.12598207594938576,-0.013710545444488525,-0.994490053282678
1684208151450368800,8.81736865234375,0.6159364341259003,-0.5708838249564171,-0.6544388909995555
1684208151460394000,8.82739404296875,1.4331611642718314,-1.167208380639553,-0.14487725749015806
1684208151470418700,8.837418701171876,1.8706839820086956,-1.5158020380795,0.33490064765214916
1684208151480443000,8.84744287109375,2.122856077569723,-1.6688631865471601,0.804998285779357
1684208151490467800,8.8574677734375,2.2031775685191155,-1.659931692072749,1.428516261075437
1684208151500492800,8.867492919921874,2.3098738561749457,-1.6600047573089598,1.7686890039116143
1684208151510517000,8.87751708984375,1.9881775580108165,-1.5724270116209982,1.7372396804198622
1684208151520542000,8.8875419921875,1.590380016940832,-1.451383049660921,1.457915958561003
1684208151530566700,8.897566650390624,1.0546154361605644,-1.1053548587948083,0.8966367050349712
1684208151540590800,8.9075908203125,0.4979576684227213,-0.9328940133303403,0.299572144639492
1684208151550615800,8.91761572265625,-0.1136123689209111,-0.7882681002527475,-0.056014732688665386
1684208151560640800,8.927640869140625,-0.43657004705667496,-0.4165495878130197,-0.2762564432427287
1684208151570665000,8.9376650390625,-0.6421732836663723,-0.12934300374984742,-0.33387159686535595
1684208151580690000,8.94768994140625,-0.8652911341786385,0.18712708419859408,-0.3564563536390662
1684208151590714600,8.957714599609375,-0.41630818027257915,0.47117374292612074,-0.16451690072268246
1684208151600739800,8.96773974609375,-0.17942367021441458,0.4126584255933761,0.0020095862567424774
1684208151610763800,8.977763671875,-0.252687607335113,0.24122926126420496,0.09362316333204507
1684208151620788700,8.987788818359375,-0.3682043303063139,0.049119712477922434,0.10106237342208624
1684208151630814000,8.99781396484375,-0.47292029433250427,-0.07762216886281967,-0.05982844575792551
1684208151640838000,9.007837890625,-0.34867556356973944,-0.13185995500683784,0.0017196633994579313
1684208151650862600,9.017862548828125,-0.015718999190069735,-0.49727206077873704,0.24106588739603757
1684208151660887800,9.0278876953125,-0.41533670489192004,-0.8972066138774156,0.3904787424892187
1684208151670911700,9.037911865234374,-0.6918120515823364,-1.2877122443735598,0.6200932615444064
1684208151680936700,9.047936767578125,-0.5913514069130644,-1.7605477830320595,1.0134060584157705
1684208151690962000,9.0579619140625,-0.40067923398613925,-2.327148816102743,1.4525643683999776
1684208151700985900,9.06798583984375,-0.45100887024309483,-2.80916544008255,1.7668664646595715
1684208151711010800,9.0780107421875,-0.08465400372836739,-3.256104905462265,2.1124632783710955
1684208151721035800,9.088035888671875,0.4077273258667439,-3.5078771880507467,2.346167989349365
1684208151731060700,9.098060791015625,0.524756901086308,-3.515889229592681,2.047843798944354
1684208151741085000,9.1080849609375,0.4090881658911705,-3.3869039532393215,1.4404121583133935
1684208151751110000,9.11810986328125,0.31749705637600273,-3.018221447494626,0.9618658407926559
1684208151761134800,9.128134765625,0.5478980861663818,-2.7368957381635903,0.6474988626033067
1684208151771158800,9.13815869140625,0.6070937869787216,-2.2438924407452343,0.6107049632132053
1684208151781183700,9.148183837890626,0.37155367726683614,-1.60733699696064,0.4945505268603563
1684208151791208700,9.158208740234375,-0.47812600974943487,-0.8102689196586609,0.018933540789782998
1684208151801233000,9.16823291015625,-2.3861025248527525,0.6633598640799522,-0.9730360541045665
1684208151811257900,9.1782578125,-3.286325856202841,3.1389024213612076,-1.8368489324241875
1684208151821282800,9.18828271484375,-1.103977140700817,5.407946254497766,-1.3423413679227232
1684208151831306800,9.198306640625,1.9436708922863006,5.775816859337687,0.13737550355792044
1684208151841331700,9.208331787109374,3.7935108237087722,4.183279372102022,1.8815107887104152
1684208151851356700,9.218356689453126,4.921053548914194,1.3408973065942524,3.360875193491578
1684208151861382000,9.2283818359375,5.036603005111218,-0.4495733210146427,4.611593924249709
1684208151871405800,9.23840576171875,3.4157039312660693,-0.4290478348582983,4.479797097606957
1684208151881430800,9.2484306640625,0.5340191984176635,0.016900865918397904,1.8284785789638756
1684208151891456000,9.2584560546875,0.14264089500652624,0.012201309925317764,-1.1654530614048242
1684208151901479700,9.268479736328125,1.1258920353889466,-0.12139467509388922,-2.8553987834692
1684208151911504600,9.278504638671874,1.632837348920107,-0.1766565435886383,-3.1665202038660643
1684208151921529900,9.28852978515625,1.916577133655548,-0.005313888499140739,-3.048195145475864
1684208151931553800,9.2985537109375,2.1866788536608217,0.23911212297976014,-3.0081887137800454
1684208151941578800,9.308578857421875,2.282517062693834,0.30695640967190263,-2.657874223896861
1684208151951604000,9.31860400390625,1.8542191694200039,0.4123761015206575,-2.4708722273826598
1684208151961627600,9.328627685546875,1.2681038730621337,0.6052689096391201,-2.431736441041529
1684208151971652900,9.33865283203125,1.0944704766869544,0.5999205343484878,-2.419388708382845
1684208151981677800,9.348677734375,0.7584989849328995,0.5553069011181593,-2.227232982367277
1684208151991702800,9.358702880859376,0.17653494476927442,0.44216684415042395,-1.5144973852217196
1684208152001727000,9.36872705078125,-0.2377460953235626,0.27363807743787766,-0.4651315401524305
1684208152011752000,9.378751953125,-0.361747738045454,0.11983400164842604,0.5539797441676259
1684208152021777000,9.38877685546875,-0.12560323269963264,-0.107096100628376,1.4743684961900114
1684208152031800800,9.39880078125,0.5321171641886234,-0.4475216491818428,2.0872055029958485
1684208152041825800,9.40882568359375,1.3032768932521341,-0.7691559880256652,2.3754829311609265
1684208152051850800,9.418850830078124,1.7243197008311748,-0.9452753559976815,2.206650797587633
1684208152061875000,9.428875,1.814997750622034,-1.125655888545513,1.8839789323896168
1684208152071900000,9.43889990234375,1.7354560118734836,-1.1855921785920858,1.6033061340093613
1684208152081924900,9.4489248046875,1.8264204773902892,-0.955041547730565,1.2008949616640805
1684208152091948800,9.45894873046875,1.793654518342018,-0.6979097839355468,0.9646279989823698
1684208152101973800,9.468973876953125,1.5048188717722892,-0.505567595437169,0.8629951321959495
1684208152111998700,9.478998779296875,1.0796025779008864,-0.3213052530199289,0.6603124592080712
1684208152122024000,9.48902392578125,0.5128267727851867,-0.05863572884202003,0.3191635648161173
1684208152132048000,9.4990478515625,0.00929853768851608,0.21859774273931978,-0.1078372743844986
1684208152142072600,9.509072509765625,-0.3875813040146604,0.459179353749752,-0.6268573488518595
1684208152152097800,9.519097900390625,-0.5395827142963185,0.602236410075426,-0.944492973448336
1684208152162121700,9.529121826171876,-0.5091198080260306,0.7218734278470277,-1.162025425043702
1684208152172146700,9.539146728515625,-0.3534392708402127,0.8489654377996921,-1.340866326934099
1684208152182172000,9.549171875,-0.29228896536137905,0.6849725609511137,-1.1548366825833916
1684208152192195800,9.55919580078125,-0.24868363239075988,0.19358195942640302,-0.9839145909935235
1684208152202220800,9.569220703125,-0.13450316299200057,-0.3437292662739754,-0.6695715782016516
1684208152212245800,9.579245849609375,-0.26944124680254605,-0.6486199755877256,-0.34349107360392805
1684208152222269700,9.589269775390624,-0.5644868173956871,-0.6051245327323674,0.05378741202801466
1684208152232295000,9.599294921875,-0.6752163060903549,-0.3644417994350195,0.44184009641408917
1684208152242320000,9.60931982421875,-0.7507587460696696,-0.13654782056212425,0.552159250742197
1684208152252344800,9.6193447265625,-0.7792588643670082,0.07141337735056877,0.42697424345463514
1684208152262368800,9.62936865234375,-0.6832149036288261,0.36342356230318545,0.0038163434177637097
1684208152272393700,9.639393798828126,-0.4627812141666189,0.631060353499651,-0.5039519769340753
1684208152282418700,9.649418701171875,-0.08294829578902572,0.8174643841207027,-0.9415954984411596
1684208152292443000,9.65944287109375,0.2765256155729294,0.9738134682178496,-1.1795742334768176
1684208152302467800,9.6694677734375,0.7153975098311901,1.2124667415142059,-1.2785761672377585
1684208152312492800,9.679492919921875,1.227391923445463,1.2619149552941322,-1.4764324429824947
1684208152322516700,9.689516845703125,1.569061334580183,1.1366402238965034,-1.5720841895326971
1684208152332541700,9.699541748046874,1.6885995681524275,0.8876607868969439,-1.7387679129004479
1684208152342566700,9.709566650390625,1.5116846658885479,0.46389995253086086,-1.8924013082981108
1684208152352591000,9.719591064453125,0.9221849877893924,-0.16081950750946997,-2.2301173056319357
1684208152362616000,9.729615966796874,0.500688554691337,-0.45193128231763835,-2.314638001836836
1684208152372641000,9.73964111328125,0.23372805532123891,-0.4234814329028129,-1.9977885591819882
1684208152382666000,9.749666015625,0.0842038488080725,-0.15486030684411525,-1.4569102886497973
1684208152392690000,9.75968994140625,0.10096793660428374,0.2715402283757925,-0.9390721174433827
1684208152402715000,9.76971484375,0.3358545873761177,0.5978560030341148,-0.6355427596107125
1684208152412740000,9.779739990234376,0.5035784674465656,0.6991255894660949,-0.4243421413853764
1684208152422764000,9.789763916015625,0.5265852124920115,0.5973018762826919,-0.4255544397845864
1684208152432789000,9.7997890625,0.5407177827408537,0.39679040985405445,-0.4251686553373933
1684208152442814200,9.809814208984376,0.6009691666185856,0.06037058981060981,-0.4012959045797586
1684208152452838000,9.819837890625,0.6292787307798862,-0.34837913790643216,-0.30786154181808234
1684208152462862800,9.82986279296875,0.7241454644322395,-0.5619359638690948,-0.08427256666272878
1684208152472888000,9.83988818359375,0.7722749968290329,-0.6250538065612316,0.15697744512856004
1684208152482912000,9.849912109375,0.6852876182496548,-0.5440975248396396,0.3762251762092113
1684208152492937200,9.859937255859375,0.36318449285030363,-0.4741518819540739,0.43877486362457274
1684208152502962200,9.869962158203125,-0.03260116040799767,-0.5703180077672004,0.3271513486996293
1684208152512987000,9.87998681640625,-0.21496614477131515,-0.8500824591308832,0.18037790219932792
1684208152523011000,9.890010986328125,-0.3629997839331627,-1.130868654757738,0.22648791146725414
1684208152533036000,9.9000361328125,-0.5607551565866917,-1.0744815816253424,0.5179828403741121
1684208152543061000,9.91006103515625,-0.8287432454388588,-0.7927081285268068,0.7763762946680187
1684208152553085200,9.920085205078125,-1.3596271415054797,-0.36641339176893234,0.8754363883569836
1684208152563110100,9.930110107421875,-1.9996505536615847,0.3220966956585645,0.7868103026598692
1684208152573134800,9.940134765625,-2.518994745516777,0.9080810591131449,0.39506168636530636
1684208152583159000,9.950158935546876,-2.6085247943162915,1.2018605918258427,-0.12409107457101344
1684208152593184000,9.96018408203125,-2.347038926964998,1.2172434543967245,-0.5488236765787005
1684208152603209000,9.970208984375,-2.0104162778258323,0.9538497075974941,-0.8582780405461787
1684208152613233200,9.980233154296876,-1.8110300160348414,0.6526134291380643,-1.0549337083294987
1684208152623258000,9.990258056640625,-1.7021218975484371,0.39657881292998787,-1.0899190969929098
1684208152633282800,10.00028271484375,-1.4785609794437884,0.17625439252853392,-0.9983578346267342
1684208152643308000,10.01030810546875,-1.3084592643260955,0.09055763828158378,-0.8988704554364084
1684208152653332000,10.02033203125,-1.2216940040647983,0.13005261332392692,-0.8818556077495217
1684208152663357000,10.03035693359375,-1.2707353906095027,0.2387701776742935,-0.94556732468158
1684208152673382100,10.040382080078125,-1.4713234294056892,0.48004970782101153,-1.1404618280112744
1684208152683406000,10.050406005859376,-1.7434465722359715,0.8263941250294446,-1.3271505207926033
1684208152693430800,10.0604306640625,-1.7813140922069548,1.069360585349798,-1.5064631318479775
1684208152703456000,10.0704560546875,-1.6783694121696053,1.2079378659129143,-1.5321458546370268
1684208152713480000,10.08047998046875,-1.5751999834656714,1.3936919081926344,-1.3507719271376728
1684208152723505000,10.0905048828125,-1.4645675254046917,1.3854343674570322,-1.218176935854554
1684208152733530000,10.100530029296875,-1.3703262301743029,1.087962409967184,-1.141102171741426
1684208152743555000,10.11055517578125,-1.4008639917790888,0.665536623597145,-1.0524629343017935
1684208152753579000,10.1205791015625,-1.3507634515702724,0.13960779265463352,-0.8337018176943063
1684208152763604000,10.13060400390625,-1.3235188862919807,-0.4743722467064857,-0.48078795896768567
1684208152773629000,10.14062890625,-1.4744377620339393,-0.8311363511204719,0.053576107364892954
1684208152783653000,10.150653076171874,-1.5649942312717438,-0.8176631215631961,0.6149827866628765
1684208152793678000,10.160677978515626,-1.087806781014055,-0.9601350714772939,0.8934577827379107
1684208152803703000,10.170703125,-0.9623043052751571,-1.1219015044480563,0.9326137350842356
1684208152813727000,10.18072705078125,-2.3870085337817666,0.5434282472759485,1.140238540649414
1684208152823752000,10.190751953125,-2.598928113931417,2.2104981206655503,1.1664201528713107
1684208152833777000,10.20077685546875,-0.6832628344237804,1.3450988499373198,0.8932882713899016
1684208152843801000,10.210801025390625,0.14069675693511963,-0.039293314990401264,1.2392249845802783
1684208152853826000,10.220825927734374,0.20921667786650358,-0.685130381861329,1.7137722955927253
1684208152863851000,10.23085107421875,0.5649018279373645,-0.535452446091175,1.8585238808766007
1684208152873876000,10.2408759765625,0.6431121719516814,-0.22572189553081987,1.7360078005373476
1684208152883900000,10.25089990234375,0.8670435308039188,-0.15341361516714094,1.4405427989557384
1684208152893924900,10.2609248046875,0.9901017551958561,0.046746553605794904,1.1328823326677084
1684208152903950000,10.2709501953125,0.7216447336576879,0.48688978297412394,0.8725494347438215
1684208152913974000,10.28097412109375,0.06390694724321365,1.1147264982521534,0.6330453898370265
1684208152923999000,10.2909990234375,-0.6410461793325841,1.7503882080674171,0.11678250512331724
1684208152934024200,10.301024169921876,-0.8820597520194947,1.9659446834146976,-0.872531899087131
1684208152944047900,10.3110478515625,-1.1106664092063903,1.942728058478236,-1.8093831256106494
1684208152954072800,10.32107275390625,-1.4668050751984119,1.7440736180931329,-2.5400667596399784
1684208152964098000,10.33109814453125,-1.4529858086824416,1.4783242480784653,-2.6294226209163662
1684208152974123000,10.341123046875,-1.3231282795391976,1.146352055093646,-2.0664517610415816
1684208152984147000,10.35114697265625,-1.13897348914966,0.7453133401453494,-1.1998805239245294
1684208152994172200,10.361172119140624,-0.6533401359774172,0.2905547254472971,-0.2850584661185741
1684208153004197000,10.371197021484376,-0.2173787223383784,-0.2452490182995796,0.3280687558054924
1684208153014221000,10.381220947265625,0.21971827120184897,-0.9900076471716165,0.9842369548156857
1684208153024246000,10.39124609375,0.45791678646802897,-1.627786495271325,1.527529300752282
1684208153034271000,10.40127099609375,0.6060824179790913,-2.109780322897434,2.1451102872148153
1684208153044295200,10.411295166015625,0.7081624440111219,-2.4317022465109823,2.752806131739914
1684208153054320000,10.421320068359375,0.6639747811079025,-2.3289514816105363,3.3656600896805524
1684208153064345000,10.431344970703124,0.8173731987059116,-1.7498533705383539,3.96719419670552
1684208153074369800,10.441369873046876,1.108279148743674,-0.9485691368460655,4.258359455266595
1684208153084394000,10.45139404296875,1.2542787613272666,-0.19120237081348895,3.9002804688617583
1684208153094419000,10.4614189453125,1.9643664743125437,0.12233984698951243,3.4576679267704487
1684208153104444000,10.47144384765625,2.289282319045067,0.1282663144290447,2.700664441092312
1684208153114468000,10.481468017578125,1.9496715940058231,-0.08699848449528216,1.7429250325798988
1684208153124493000,10.4914931640625,1.6010884579598903,-0.29089491718709465,0.7838625587701797
1684208153134518000,10.50151806640625,1.6988941676735878,-0.2512263391435146,0.042217385743558405
1684208153144542000,10.5115419921875,1.4878198061764238,0.0990314521163702,-0.6568319236159325
1684208153154567000,10.52156689453125,0.751267280113697,0.636159137943387,-1.2783312525659798
1684208153164592000,10.531592041015625,-0.039956601204723115,1.0946060857653617,-1.7826684294253587
1684208153174616000,10.541615966796876,-0.7519557738345116,1.4764642994254826,-2.2599144780024885
1684208153184641000,10.55164111328125,-1.212789470662549,1.4654951616436243,-2.533292150938511
1684208153194666000,10.561666015625,-1.1871359739679843,0.8750894746154546,-2.394926759560406
1684208153204691000,10.57169091796875,-0.6763736594319343,0.03453121515512466,-2.0236367016658185
1684208153214715000,10.58171484375,-0.053221814034506675,-0.5747738181322812,-1.2748083391368388
1684208153224740000,10.591739990234375,0.37668223579432814,-0.8300637534528971,-0.5049982711166143
1684208153234765000,10.60176513671875,0.7593804439425468,-0.8680442322790622,-0.11047142228037118
1684208153244789200,10.611789306640626,1.016760702605918,-0.7328770524203777,-0.035786768174171445
1684208153254814000,10.62181396484375,1.271999126935005,-0.5784738416939974,0.051047465670108795
1684208153264839000,10.6318388671875,1.414730020046234,-0.6139771167516708,0.2240782199770212
1684208153274863000,10.641863037109376,1.4980407559394835,-0.7510124285697937,0.5005941909387708
1684208153284888000,10.65188818359375,1.5051917967379091,-0.8737374754846096,0.8145882441624999
1684208153294913000,10.6619130859375,1.3508476227223873,-0.9405717083513736,1.205845569808781
1684208153304938000,10.67193798828125,1.2113257547855376,-0.7927069594830274,1.5191843739941715
1684208153314962000,10.6819619140625,1.0188485417306423,-0.5073153158873319,1.6528437796384094
1684208153324987000,10.69198681640625,0.9202057966709136,-0.08599193780124187,1.9434858911082147
1684208153335011800,10.70201171875,0.9236287568569183,0.2483604283183813,1.8692127404123544
1684208153345036000,10.7120361328125,0.8504489543557167,0.20657471199035643,1.4844070751234888
1684208153355061500,10.7220615234375,0.6137221921425312,0.07135375611782073,0.7822790889710187
1684208153365086500,10.73208642578125,0.2970633766889572,-0.004640519282221794,-0.082317633202672
1684208153375110400,10.7421103515625,0.15723054310679435,-0.31904607591629025,-0.7891419604778289
1684208153385135400,10.75213525390625,0.09727028766274452,-0.6256091023564339,-1.2813479700386523
1684208153395160300,10.762160400390625,-0.06254269141899421,-0.6611603082090616,-1.7122560458108782
1684208153405185500,10.772185546875,-0.04907647612439468,-0.5543143829494714,-1.93905579970628
1684208153415209500,10.78220947265625,-0.00774610234843567,-0.2909755812078714,-1.8466253532901404
1684208153425234400,10.792234375,-0.23159109809147194,0.22617197738587855,-1.6536980583801864
1684208153435259600,10.802259765625,-0.2511912678301334,0.7296148357540369,-1.2731699242800474
1684208153445283300,10.812283447265624,-0.1401519825339317,1.049312069055438,-0.9519397823229432
1684208153455308500,10.82230859375,0.06629764177203178,1.136997366771102,-0.6427624817311763
1684208153465333500,10.83233349609375,0.46528994558453557,0.9649924483805894,-0.23199644575566053
1684208153475357400,10.842357421875,1.0318588299512863,0.3336491862863302,0.03715951783210039
1684208153485382700,10.852382568359374,1.6400667156517506,-0.40770401805639267,0.14806144048422573
1684208153495407600,10.86240771484375,2.239831182655692,-1.1213239968210458,0.3398039095237851
1684208153505432600,10.8724326171875,2.3860481643170117,-1.581340385916829,0.46166854021698234
1684208153515456500,10.88245654296875,2.1806851662039755,-1.8362743474066257,0.29800737954080103
1684208153525481500,10.8924814453125,1.8572037381887434,-1.9227005849719045,0.09188391844928263
1684208153535506400,10.90250634765625,1.5248445917129516,-1.9357091196268796,0.19477496860325336
1684208153545530600,10.912530517578125,1.2404670935958624,-1.7556126647174357,0.5925672489762306
1684208153555555600,10.9225556640625,1.0241484017044304,-1.5597861412346363,0.9810410813838243
1684208153565580500,10.93258056640625,0.9488654894441365,-1.3988111509025096,1.3488234234184027
1684208153575604500,10.9426044921875,0.9759399588525295,-1.1656745952010155,1.8535501841172575
1684208153585629400,10.95262939453125,0.7717711389601231,-1.0192062691271304,2.1256334333285687
1684208153595654400,10.962654296875,0.8202063763052224,-1.061108305311203,2.0045520619675514
1684208153605679600,10.9726796875,0.9278244549810886,-1.2807821528494356,1.706845711199939
1684208153615703600,10.98270361328125,1.051932480686903,-1.4738935721546411,1.3815858753353356
1684208153625728500,10.992728515625,1.2661527389943599,-1.7226017909973859,0.997215094332397
1684208153635753500,11.00275341796875,1.5341291374087334,-1.9381343009471892,0.8005325385421515
1684208153645777400,11.01277734375,1.6067290941953658,-1.8799825562298296,0.8412374738961458
1684208153655802400,11.02280224609375,1.680321569150686,-1.6820155135869979,1.031893024481833
1684208153665827600,11.03282763671875,1.7642963219106196,-1.2767787624269724,1.224350071531534
1684208153675851500,11.0428515625,1.8323416841328144,-0.895877995622158,1.432615220826864
1684208153685876500,11.05287646484375,1.7574164992690084,-0.587646743708849,1.4788316130787134
1684208153695901400,11.0629013671875,1.5591419981122017,-0.5253396328777075,1.2190420282512902
1684208153705926400,11.072926513671876,1.3211188394129276,-0.7589934904515743,0.6822507347717881
1684208153715950600,11.08295068359375,1.1816495784461498,-1.1792167983412742,0.11095160701274871
1684208153725975600,11.0929755859375,1.203523556602001,-1.7339362549602984,-0.309809168754518
1684208153736000500,11.10300048828125,1.2825170138180255,-2.354240236645937,-0.48989714809656143
1684208153746024700,11.113024658203125,1.3068202649474143,-2.8715619827628136,-0.49912996360510586
1684208153756049400,11.12304931640625,1.3494763343691825,-3.2354619304060934,-0.3198091692432761
1684208153766074400,11.133074462890624,1.300496907144785,-3.3533377837240694,0.09066782065778971
1684208153776099300,11.143099365234375,1.133190375703573,-3.2549457985550165,0.7071504904896021
1684208153786123500,11.15312353515625,0.9727882168233394,-3.071356825354695,1.37179601046592
1684208153796148500,11.1631484375,0.8432429684996604,-2.9036937355607746,1.8160306008011102
1684208153806173400,11.17317333984375,0.34359709126167,-2.5443641645729542,1.8039412268176673
1684208153816197400,11.183197265625,-0.5913807426054031,-0.9691419692754745,1.190222468741238
1684208153826222300,11.193222412109375,-1.6552128468573093,4.45904160208702,0.8865949112311005
1684208153836247600,11.20324755859375,-1.1837129407167435,11.683425869143008,2.022885006515682
1684208153846271500,11.213271484375,-1.6390578308701513,15.223663358050583,2.0918179652273654
1684208153856296400,11.22329638671875,-2.5497172160387036,16.350328131377697,1.9381375158175824
1684208153866321700,11.23332177734375,-3.4051065494060513,15.423737017583846,1.7106199690416455
1684208153876346600,11.2433466796875,-3.2872681054890154,8.880902935814857,0.1203764379620552
1684208153886370300,11.253370361328125,-1.9785013826489448,1.2786428027331829,-2.3388307783290743
1684208153896395500,11.2633955078125,-0.437910940271616,-3.0245810456544158,-3.4167893884152174
1684208153906420500,11.27342041015625,0.40604748302102084,-5.670772430542111,-3.61772960164994
1684208153916444400,11.2834443359375,1.0398106657385826,-6.68084437609911,-3.0714538559883833
1684208153926469600,11.2934697265625,1.7907950372576713,-7.209157471829652,-3.0147292214646932
1684208153936494600,11.30349462890625,2.0206629465520383,-7.138418632739782,-3.6410531940922137
1684208153946518500,11.3135185546875,1.6908546536028384,-5.546427088949084,-3.947672334633767
1684208153956543500,11.32354345703125,1.8816367531776428,-3.8521816238641735,-3.5905434885606167
1684208153966568400,11.333568359375,1.8726538207769392,-2.5923785461574793,-2.944793515451252
1684208153976593400,11.343593505859374,1.2124421915948391,-1.3806196606516836,-1.793158259257674
1684208153986617600,11.35361767578125,0.49350832433104513,0.058094461572170256,-0.3785615102022886
1684208153996642600,11.363642578125,-0.1906289548397064,1.4915315201759338,1.0844950261175632
1684208154006667500,11.37366748046875,-0.9411573992848395,2.739724824109673,2.7171055805444717
1684208154016691500,11.38369140625,-1.604486868226528,3.2325545185267925,3.9053605486050245
1684208154026716400,11.39371630859375,-2.0219874731540677,2.926350973048806,4.199877747942507
1684208154036741400,11.403741455078125,-2.1899767261624334,2.055514479702711,3.8788571570828556
1684208154046765600,11.413765625,-1.8945371512830256,0.8602408650517464,3.027159956231713
1684208154056790500,11.42379052734375,-0.9498749587476253,-0.5306365702420472,2.1575424832865595
1684208154066815500,11.4338154296875,0.2922562686681747,-1.2740034524947403,1.750571163418889
1684208154076840400,11.44384033203125,1.3809738809168337,-1.5527496667265892,1.4314868013188242
1684208154086864400,11.453864501953126,2.0366320845782755,-1.5128303287923335,1.076022965848446
1684208154096889600,11.4638896484375,2.2076257800996304,-1.146982169690728,0.7663263175576925
1684208154106914600,11.47391455078125,2.0524048232495784,-0.8734382002770901,0.5126701209187507
1684208154116938500,11.4839384765625,1.743176376992464,-0.5393284107416868,-0.17808248473852872
1684208154126963700,11.493963623046875,1.2323872475147246,0.04427870218753814,-1.2493953731998801
1684208154136988400,11.503988525390625,0.6702922936916351,0.5233703786313534,-1.9872092975005506
1684208154147012400,11.514012451171874,0.28978958629369733,0.6763169608086347,-2.657501006670296
1684208154157037600,11.52403759765625,0.23360530572440474,0.7184832008868456,-3.0475828587964173
1684208154167062500,11.5340625,0.30708208187818525,0.6358627853453159,-3.039793812355399
1684208154177087500,11.54408740234375,0.4019453083992004,0.5398293460011482,-2.962514173319936
1684208154187111700,11.554111572265626,0.4606032490730285,0.5411357524245977,-2.9690590649187563
1684208154197136400,11.564136474609375,0.4216518793880939,0.6497948645859957,-3.1686157148405907
1684208154207161300,11.574161376953125,0.4047218604404479,0.8706587986916303,-3.476022498628497
1684208154217185500,11.584185546875,0.376064944146201,1.28269529299438,-3.780052207198739
1684208154227210500,11.59421044921875,0.36468203793168064,1.787252250084281,-4.211029841075837
1684208154237235500,11.6042353515625,0.35600773308873174,1.8367074781268835,-4.269800594474375
1684208154247259600,11.614259765625,0.14737557711191474,1.7309563623666762,-4.071523462969065
1684208154257284400,11.624284423828126,-0.38821956538558006,1.4715888023436068,-3.4362972219616172
1684208154267309300,11.634309326171875,-0.20636428411006927,1.0630115085840224,-2.955719106352329
1684208154277334500,11.64433447265625,0.3017559184193611,0.5416963089168071,-2.6765070281744
1684208154287358500,11.6543583984375,0.8150842109858989,0.4510509923517704,-2.7870900941357015
1684208154297383400,11.664383544921876,1.0564684436161071,0.4144909017175436,-2.4621646047919987
1684208154307408600,11.67440869140625,0.9660650460481643,0.34305881966650487,-1.7626088072150945
1684208154317432300,11.684432373046874,0.7626210332989692,0.3248644068062305,-1.210151742570102
1684208154327457500,11.69445751953125,0.5164355378668755,0.3488175293236971,-0.5915013733103871
1684208154337482500,11.704482421875,-0.08247136245965957,0.11389409020543098,0.08766863884180784
1684208154347506400,11.71450634765625,-0.284428351521492,-0.14144436043202877,0.6290332315862178
1684208154357531600,11.72453173828125,-0.0755214702565223,-0.854821762612462,1.1383765461698174
1684208154367556600,11.734556640625,0.44687049179673194,-0.5062310277819633,0.6044903264820576
1684208154377581600,11.74458154296875,0.25427513225488363,0.13706512243449687,0.7306620067194104
1684208154387605500,11.75460546875,0.3433283573228866,-0.1148386775791645,1.1669853855386376
1684208154397630500,11.76463037109375,0.34339849994964894,-0.39668110426068304,1.615828054191172
1684208154407655400,11.774655517578125,-0.02256020685434341,-0.9499158752799034,2.087915697091818
1684208154417679600,11.7846796875,-0.28573775361962617,-1.3105728954792022,2.731784678760171
1684208154427704600,11.79470458984375,-1.4433129943214356,-0.8088228125035762,2.974569060511887
1684208154437729500,11.8047294921875,-0.1777859860099852,-0.9400865551829337,1.7994412850499153
1684208154447754500,11.81475439453125,-0.16761998130455613,0.16402268746495247,0.4212093963176012
1684208154457778400,11.8247783203125,-0.5391267506897449,0.4260486530423164,-0.17194617394059897
1684208154467803400,11.834803466796876,-0.5773135657429694,0.008628127613663673,0.16357085204422472
1684208154477828600,11.84482861328125,0.02245966908931732,-0.751248575413227,0.5009299987643957
1684208154487852500,11.8548525390625,-0.36715814572162925,-0.07183540215492248,0.13576660705655813
1684208154497877500,11.86487744140625,-0.14564889944978057,0.2507557990223169,0.07050006189793348
1684208154507902700,11.87490283203125,0.19908106829933822,-0.2004021608352661,-0.6367424907892942
1684208154517926400,11.884926513671875,-1.6827788991749286,1.2910533714950083,-2.996414981617033
1684208154527951400,11.894951416015624,-0.5618485047813505,0.47323301354348657,-2.05115219283998
1684208154537976600,11.9049765625,-0.12522329347133634,0.6909943054586648,-1.3088339428573845
1684208154548001500,11.91500146484375,-0.6291945596277714,0.4531102629691362,-0.38094489820748567
1684208154558025500,11.925025390625,-1.0396670194841922,0.5188064317166805,-0.3832689572408795
1684208154568050700,11.93505078125,-0.974897317931801,0.7277870358049869,-1.5037629329785704
1684208154578075400,11.945075439453126,-1.0341817199409007,1.545584597402811,-1.5422846790745854
1684208154588099600,11.955099609375,-0.3405249172747135,5.09381659219563,-3.9347897644460197
1684208154598124500,11.96512451171875,-1.6100724132739006,1.0514210240334272,-3.1424279651388525
1684208154608149500,11.9751494140625,-1.1613094587940722,-1.0425959125429392,-0.09645283380001783
1684208154618173700,11.985173583984375,-0.36837972340583797,-0.8133727308928966,1.18797118268311
1684208154628198700,11.99519873046875,-0.4086065198540687,-0.7001853276520967,1.5743208625435827
1684208154638223400,12.005223388671874,-0.31105215455293656,-0.5637210937201976,1.6302268741607666
1684208154648248300,12.015248291015626,0.05767243676781654,-0.3116933750659227,1.061789273312688
1684208154658272500,12.0252724609375,-0.09755107736550271,0.056470659762620924,0.18365970034897328
1684208154668297500,12.03529736328125,-0.40779644558019934,0.2231979300111532,-0.0033361586853861806
1684208154678322400,12.045322509765626,-0.5101707783836871,0.3691822719603777,-0.021821078924834727
1684208154688346400,12.055346435546875,-0.8625509686250239,0.6031862581461668,-0.07786036153286695
1684208154698371300,12.065371337890625,-1.0240402651548386,0.82595514909029,-0.02264876192063093
1684208154708396500,12.075396484375,-1.1170305374108254,0.5536491970390081,0.45657910812348124
1684208154718421500,12.08542138671875,-1.227817455381155,0.5046726924240589,0.5388736527115107
1684208154728445400,12.095445556640625,-1.291401600410789,0.2013046626329422,0.7015110232979059
1684208154738470700,12.105470703125,-1.645619673603773,0.24883564461469648,0.45824470324814315
1684208154748495600,12.11549560546875,-2.1860370486259457,0.5694219357103109,-0.17199556604027746
1684208154758519300,12.125519287109375,-2.333863949701935,0.11668868936002254,-0.029716508349776266
1684208154768544500,12.13554443359375,-2.5396166777849194,-0.40182606593370435,-0.4786860182523727
1684208154778569500,12.145569580078124,-2.7702748606741427,-0.9594389059066772,-0.7601888377159833
1684208154788593400,12.155593505859375,-2.8037913458287713,-0.9466197563439607,-0.8866922341257333
1684208154798618600,12.16561865234375,-2.7413959721922874,-1.6020312917679547,-0.7322282331228256
1684208154808643600,12.1756435546875,-2.348362138392776,-3.265964620697498,-0.30113457165062424
1684208154818668500,12.18566845703125,-1.872868924832344,-4.109323324531316,-0.0774009273275733
1684208154828692500,12.1956923828125,-0.9452443763375282,-3.693435415497422,0.23121757033765314
1684208154838717400,12.205717529296875,0.2644482242882252,-2.6935411650836465,1.133388528624177
1684208154848742400,12.215742431640624,1.2828219881139695,-1.9012047924786806,2.531953011289239
1684208154858766600,12.2257666015625,1.0504056364458054,-0.7166723520725965,3.9686400115996596
1684208154868791600,12.23579150390625,-0.196350364693813,1.2345523165941237,4.12135599989146
1684208154878816500,12.24581640625,-1.4970669424712657,4.121539247503876,1.7613371798440813
1684208154888840400,12.25584033203125,-0.9911761064290999,5.217416668379307,-2.0449460316762327
1684208154898865400,12.265865478515625,-1.4254454753279686,5.382713613563776,-3.61729997806102
1684208154908890400,12.275890380859375,-1.3010194697141646,4.30143111975193,-4.479863440841436
1684208154918915600,12.28591552734375,-0.059237777255242687,2.0349720424115656,-5.85192219389677
1684208154928939500,12.295939453125,0.9336234966486692,0.518165795725584,-6.228740075302124
1684208154938964500,12.305964599609375,1.5602935062348842,0.22401392256915567,-5.169352602434158
1684208154948989400,12.315989501953124,2.310254379925132,0.11288754351139067,-3.5292879326090216
1684208154959013400,12.326013427734376,3.0645377929896114,-0.277208921661973,-1.2469997102349997
1684208154969038600,12.33603857421875,3.4273844321876763,0.5626502496182918,0.26609189984202386
1684208154979063600,12.3460634765625,3.0099300044894215,1.7471148854851721,1.9922651195853947
1684208154989088500,12.356088623046874,2.1779478501945735,1.6612942125976085,3.549564704701304
1684208154999112700,12.36611279296875,1.9497487508952616,2.8520664241760967,3.207935625576973
1684208155009137400,12.376137451171875,1.9499936655670402,3.6851375427514315,2.3086042746305466
1684208155019162400,12.386162353515624,1.7459259679615498,3.5972149291485547,1.3405901403412221
1684208155029187300,12.396187255859376,1.1946470071852207,3.348609001636505,0.5455103142470121
1684208155039211500,12.40621142578125,0.908316109978035,3.222126648014784,0.13991291308104992
1684208155049236500,12.416236572265625,1.316200087711215,2.90170694565773,-0.14201017762124538
1684208155059261400,12.426261474609374,1.2879139044255017,0.9194377349078655,-0.313845000141859
1684208155069286700,12.43628662109375,1.0229572191584855,-1.1255056664198637,-0.4993713711455464
1684208155079310300,12.446310302734375,1.0965081199944018,-2.4298814608246087,-0.28565087905377146
1684208155089335600,12.45633544921875,1.2272592369765043,-2.390943535143137,-0.4076636860460043
1684208155099360500,12.466360595703126,1.3329875563830136,-2.4023808749586344,-1.0170707184031604
1684208155109384400,12.476384521484375,1.4955232201606035,-1.9583318703234194,-1.8498782176062463
1684208155119409700,12.48640966796875,1.836820290851593,-1.17814303162992,-2.893859447027743
1684208155129434600,12.4964345703125,2.2581892616450787,-1.609834074473381,-3.7374768017977473
1684208155139459600,12.50645947265625,2.4504496170789003,-2.0563415781766174,-3.9967826947614546
1684208155149483500,12.5164833984375,2.365579376783967,-1.7025258021742105,-3.572661794911325
1684208155159508500,12.526508544921874,2.1588912675470113,-0.6317635333329439,-2.9782699608564376
1684208155169533400,12.536533447265626,1.7611638691037892,1.461183728185296,-2.912096529985964
1684208155179557600,12.5465576171875,1.2437392471343278,3.103235480174422,-2.46381266425997
1684208155189582600,12.55658251953125,0.8622668179214,1.7829034072250127,-1.179426349438727
