time,seconds_elapsed,z,y,x
1684200986442919700,0.031919677734375,0.679013360285759,-0.9112591046273708,0.2383306172132492
1684200986452944600,0.041944580078125,0.690078359657526,-0.8936755171418189,0.32465105631649493
1684200986462969900,0.051969970703125,0.5440080929905176,-0.694599051952362,0.19408406372964382
1684200986472993500,0.06199365234375,0.04590132582015358,-0.2556231127977371,0.1386672969341278
1684200986483018800,0.072018798828125,-0.3448872041374445,0.009936872124671935,0.07358896782398223
1684200986493043700,0.082043701171875,-0.6041068801224231,0.01532499490380287,-0.08309621635973453
1684200986503068700,0.092068603515625,-0.7239946577847004,0.03712999947667121,-0.12001695699989795
1684200986513092900,0.1020927734375,-0.5136632236093283,0.08495908762216567,0.017446809363365172
1684200986523117800,0.112117919921875,-0.3212497234404087,-0.03287701820731163,0.1152133561104536
1684200986533142500,0.122142578125,-0.171414551281929,-0.35240824729204173,0.005071896436810493
1684200986543167500,0.13216748046875,-0.11828268055319785,-1.1543126587092876,-0.4889198274970054
1684200986553191700,0.142191650390625,-0.003985270243883132,-2.15465991358757,-1.0500830534279346
1684200986563216600,0.152216552734375,0.1156090682966169,-2.9428409200787544,-1.4041308846205471
1684200986573241600,0.16224169921875,0.1852443757245317,-3.6956899164259434,-2.123528277742863
1684200986583266800,0.172266845703125,0.23163079078104346,-3.763253632611036,-2.523262924355268
1684200986593290500,0.18229052734375,0.0485632111063227,-3.650850073224306,-2.5257225924670696
1684200986603315700,0.192315673828125,-0.4240566024422645,-3.3777222833961247,-2.29587864857018
1684200986613340700,0.202340576171875,-0.7009924793165176,-2.204713107523322,-2.15442639709264
1684200986623365600,0.21236572265625,-1.0072481203079222,-0.8753548475533723,-2.3211107049822806
1684200986633389800,0.222389892578125,-0.6020645606398582,-0.09308978710770606,-2.1906202847629785
1684200986643414800,0.232414794921875,-0.38663909126110374,-1.761212384420633,-0.638913697348535
1684200986653439700,0.242439697265625,-0.018694252141192556,-3.029043285760283,0.905104089128971
1684200986663464400,0.25246435546875,1.0293757809638977,-2.2940292213112112,2.1543407646358013
1684200986673488600,0.262488525390625,0.9440834427993744,-1.5891367388814688,1.8674398855209349
1684200986683513600,0.272513671875,0.6253823078632355,-1.713703614270687,1.0072104186460376
1684200986693538600,0.28253857421875,0.37093181904144584,-2.040663532051444,0.2696646437622607
1684200986703563800,0.292563720703125,0.6256208658594637,-1.7660849588930605,-0.6119293904416263
1684200986713588700,0.302588623046875,0.05084412511773407,-1.634972022861242,-1.6352531778901815
1684200986723612700,0.31261279296875,0.594979205488786,-1.3239461717933416,-2.044638427031785
1684200986733637600,0.3226376953125,0.9500094718474894,-0.45432373041212554,-2.015323923611641
1684200986743662600,0.33266259765625,0.6809562379818409,-0.10327157390415669,-0.6787741447024047
1684200986753687600,0.3426875,0.2771652286507189,0.8557511524170637,0.6344125865370035
1684200986763711700,0.352711669921875,-1.0945325090724973,11.645471693801879,3.652158817735314
1684200986773736700,0.36273681640625,-1.8343571156084537,22.596211064660547,4.06547073880136
1684200986783761700,0.37276171875,0.12077172088995575,14.180879813981056,0.1959106946349144
1684200986793787000,0.382786865234375,1.0498726255476474,3.832940332299471,2.483283380666375
1684200986803810600,0.392810546875,0.8291208465795964,-1.0434762025088071,1.9588821976825594
1684200986813835500,0.40283544921875,-0.2908370495200157,-2.2283061645567415,0.4834932724036276
1684200986823860700,0.41286083984375,-0.6602022768318653,-1.5632979487478733,0.6744400610208511
1684200986833885700,0.4228857421875,0.2898271418251097,-0.8800415440648793,0.3890161225907504
1684200986843909600,0.43290966796875,0.8123638461112975,-0.49439972021281714,0.08228986841291189
1684200986853934800,0.442934814453125,0.41217575664296746,-0.5330646741718054,-0.00980856956988573
1684200986863959600,0.45295947265625,0.0004560732044279575,-0.5892980180472135,0.16322262312844393
1684200986873984500,0.462984619140625,-0.039417672022432085,-0.6362538304895162,0.34494711763113733
1684200986884008700,0.4730087890625,-0.20850231905207037,-0.5396960750102997,0.533524108377099
1684200986894034200,0.4830341796875,-0.4727086974084377,-0.3843558756947517,0.8134870049223303
1684200986904059100,0.49305908203125,-0.5006769007861613,-0.4221890550047159,0.9373224972970783
1684200986914084000,0.503083984375,-0.24388693616613744,-0.32257541908621784,0.9362585213273763
1684200986924108300,0.5131083984375,-0.2592692142151296,-0.019178747722506523,0.9096398328624665
1684200986934133000,0.523133056640625,-0.5362871433496474,0.17967384558320043,0.7551967285171151
1684200986944158000,0.533157958984375,-1.183537438019365,0.1747609391003847,0.6215697638377546
1684200986954183200,0.54318310546875,-2.1078722973190245,-0.021245617124438284,0.7075437275908887
1684200986964208000,0.5532080078125,-2.261154979582876,0.35373218937218187,0.15801657891795037
1684200986974232300,0.563232421875,-1.4320096561491489,0.44633623878955836,-0.2305949083946645
1684200986984257300,0.57325732421875,-0.5522225983019918,0.37115737142562866,0.3265592280253768
1684200986994282200,0.5832822265625,-0.24888715560622512,0.3681733871787786,0.7533673211328685
1684200987004307200,0.59330712890625,-0.20649521701335904,0.19223054481744764,0.8179477837234735
1684200987014331100,0.6033310546875,-0.07544540934562682,-0.08797814318239688,0.5964169101417064
1684200987024356000,0.613356201171875,0.11703392260111868,-0.2591881118029356,-0.005460165102034807
1684200987034381000,0.623381103515625,0.25715938245430586,-0.3203741096496582,-0.5860089133739471
1684200987044406300,0.63340625,0.3054278849303722,-0.298339387974143,-1.0831778060391544
1684200987054430200,0.64343017578125,0.36213702962398525,-0.27689737149477006,-1.3836425156041978
1684200987064455200,0.653455078125,0.3613372575484216,-0.2634387549847364,-1.359744776535779
1684200987074480000,0.663480224609375,0.30398046260103584,-0.13850889150202272,-1.149766831973195
1684200987084505000,0.673505126953125,0.31831206255331634,0.0674035571873188,-0.9661661683350801
1684200987094529000,0.683529052734375,0.3587912263274193,0.256803847014904,-0.7287403910070658
1684200987104554200,0.69355419921875,0.32992505119666454,0.40078912410140033,-0.26194705512225624
1684200987114579200,0.7035791015625,0.26280907877907156,0.43840427674651145,0.2274218313165009
1684200987124604200,0.713604248046875,0.007092442478984594,0.436679937171936,0.6415706415981054
1684200987134628000,0.723628173828125,-0.45775312033891674,0.39568683252632614,0.8585285081759094
1684200987144653000,0.733653076171875,-0.7643092786468565,0.1642699402242899,0.8292283255420625
1684200987154678000,0.743677978515625,-0.46536827151775356,-0.38005496363043784,0.6630521133050322
1684200987164703200,0.753703125,0.13446809167861937,-0.7404103705346584,0.6462954781629144
1684200987174727200,0.76372705078125,0.6874548792861401,-0.8590630534440279,0.8958660129234194
1684200987184752000,0.773752197265625,0.6753377405129373,-0.6350427011340856,1.3907225369930267
1684200987194777300,0.78377734375,0.36775311594009397,-0.19356325472593305,1.8214964649915695
1684200987204802300,0.79380224609375,0.21680735219120978,0.07815934447944164,2.152300344849378
1684200987214826000,0.803825927734375,-0.13253916944265365,0.04821837972402572,2.194608916007727
1684200987224851200,0.813851318359375,-0.5123040640853345,-0.2010860514461994,2.0118382734529674
1684200987234876200,0.823876220703125,-0.9019745589315891,-0.4698346032768488,1.6898451842993496
1684200987244901000,0.833901123046875,-1.0590076797701418,-0.6569985123544931,1.3297415601991116
1684200987254925300,0.84392529296875,-0.8665219911478459,-0.7353612704515456,1.079823527175188
1684200987264950300,0.8539501953125,-0.6007515783451497,-0.5739765302747488,0.9832232477284968
1684200987274975000,0.86397509765625,-0.5418902240537107,-0.3272872500389814,1.013720604257658
1684200987285000200,0.874000244140625,-0.7285537823937833,-0.19367197579741477,1.0526748965520412
1684200987295025200,0.884025146484375,-1.0234756170094013,-0.19774375528097152,1.0509996568161994
1684200987305049000,0.894049072265625,-1.1141079279623924,-0.329337752828002,1.07482871456258
1684200987315074300,0.90407421875,-0.8489970019817352,-0.3356348071455955,1.264130877777934
1684200987325099300,0.914099365234375,-0.4522609526634216,-0.06772738231420516,1.6924226335719226
1684200987335124200,0.924124267578125,-0.1843034050799906,0.34402620339393614,2.2664330661162735
1684200987345148200,0.934148193359375,-0.0005577800132334232,0.7717500961720943,2.837843837556243
1684200987355173000,0.944173095703125,-0.059845689153671264,1.0303946026176214,3.3712413969442245
1684200987365198000,0.954197998046875,-0.3665313190601766,1.2450444845139979,3.6929195749297734
1684200987375223000,0.96422314453125,-0.8435213470496237,1.4226052834659815,3.613929040323198
1684200987385247200,0.974247314453125,-1.23261506492123,1.522770123526454,3.073923460972309
1684200987395272200,0.984272216796875,-1.152105504053831,1.5192466255754231,2.3445839350283144
1684200987405297200,0.994297119140625,-1.148183362174034,1.3174077099353074,1.6060753064617515
1684200987415322000,1.004322021484375,-1.4537036015629767,0.8793003703087567,0.9318598479770124
1684200987425346000,1.014345947265625,-1.7029412511073052,0.47724634083807466,0.5944384496755898
1684200987435371300,1.024371337890625,-1.7032886032402514,0.04316752607524395,0.708344084188342
1684200987445396200,1.034396240234375,-1.636802599289268,-0.3050269029140472,1.2808994956187902
1684200987455421200,1.044421142578125,-1.82561734431386,-0.37464755162894725,2.0305432661838827
1684200987465445400,1.0544453125,-2.1943616632483898,-0.22669044830203056,2.6096236954689025
1684200987475470000,1.064469970703125,-2.5538240668356416,-0.06636778439879416,2.819735641674697
1684200987485495000,1.0744951171875,-2.8618881454885003,0.04300912064313888,2.4741864664971827
1684200987495520000,1.08452001953125,-3.0503532002925873,0.07160042435526848,1.7010137901760636
1684200987505544200,1.094544189453125,-2.7062884184539318,-0.02524725398123264,1.172686958181113
1684200987515569200,1.104569091796875,-2.2602409334778786,-0.27679332659840583,0.9116595021218061
1684200987525594000,1.114593994140625,-2.2951053261101246,-0.32537820154726504,0.8914746460966765
1684200987535619300,1.124619384765625,-1.9887422061562536,-0.2273410211652517,1.2233388486623764
1684200987545643000,1.13464306640625,-1.2326187181830406,-0.1474859786838293,1.7310691750913858
1684200987555668200,1.144668212890625,-0.5730816272616386,0.1694756921738386,2.330808946045488
1684200987565693200,1.154693115234375,-0.102014842708176,0.4803852233856916,2.5910329767674205
1684200987575718100,1.16471826171875,0.5667260842224583,0.7736164745658636,2.698360840325057
1684200987585742300,1.174742431640625,1.65970606662333,1.3355220432966948,2.670769361305237
1684200987595767300,1.184767333984375,2.663608968156576,2.1977058591097594,2.4431106524929405
1684200987605792000,1.1947919921875,2.370200606843829,3.181026575863361,1.7544757696419953
1684200987615817000,1.20481689453125,1.2875164295405148,4.07399365247488,0.4785612228289246
1684200987625841200,1.214841064453125,0.5953648438055068,4.475463160055876,-1.4088465149655938
1684200987635866000,1.2248662109375,0.9823563287008553,4.245981619730592,-3.3963694084599614
1684200987645891000,1.23489111328125,2.304832793267816,3.8478608380556105,-4.660375198553503
1684200987655916300,1.244916259765625,3.4310967307090756,3.518919391068816,-5.5113259649515145
1684200987665940000,1.25493994140625,3.9019682758182284,3.208801887017488,-6.0601224612623446
1684200987675965200,1.264965087890625,3.4960593244850635,2.7882722896575927,-5.617459942549467
1684200987685990100,1.274990234375,2.0139115725956858,2.356023028409481,-3.9741999838143585
1684200987696015000,1.28501513671875,0.4225263241350651,1.8629338062733412,-2.0264424067363143
1684200987706040000,1.2950400390625,-0.04432531780824065,1.2890151436656714,-0.573797082054615
1684200987716064300,1.305064208984375,0.6059937167823314,0.7595125458896159,0.05584171420931816
1684200987726089200,1.315089111328125,2.1041667207993564,0.19605039536654947,-0.2797001539558172
1684200987736114200,1.3251142578125,3.263285172355175,-0.3741097914904356,-0.6689046387255192
1684200987746139100,1.33513916015625,3.7024516656458375,-0.6961065339058637,-0.8245315460279583
1684200987756163000,1.3451630859375,3.4722964638426896,-0.7850970690011978,-1.0454913417235017
1684200987766188000,1.35518798828125,2.9491140089988708,-0.6252671570509671,-1.0687912610292434
1684200987776213200,1.365213134765625,2.576231128954887,-0.7699690579742193,-1.4793474536463618
1684200987786238200,1.37523828125,2.362285888196528,-1.1838976496338844,-2.010004482154548
1684200987796262100,1.38526220703125,2.265266068163514,-1.4423720602095127,-2.335923074188828
1684200987806287000,1.395287109375,2.237154656922817,-1.8672388099908828,-2.9286943213045595
1684200987816312000,1.40531201171875,2.0429960666522384,-1.9288024089783429,-3.5510298088178036
1684200987826337000,1.4153369140625,1.8350949283637106,-1.9954653769314288,-3.879406023137271
1684200987836361200,1.425361328125,1.747416644910723,-2.1180098065823314,-4.168611087541282
1684200987846386200,1.43538623046875,1.6922949155390261,-2.180052128997445,-4.490956497263908
1684200987856411100,1.4454111328125,1.4999271542079746,-2.1260627646565435,-4.707126428334415
1684200987866436400,1.455436279296875,1.148666761776805,-2.0619740311056374,-4.953245507466793
1684200987876460000,1.4654599609375,0.7674734417662024,-1.977889388230443,-5.004267254173755
1684200987886485000,1.475485107421875,0.37855040428638453,-1.747210162553191,-4.921445178580284
1684200987896510000,1.485510009765625,-0.022908289639651774,-1.3829331982910633,-4.595396238164604
1684200987906534700,1.49553466796875,-0.41496202636063095,-0.7968810302972793,-3.9313054294615983
1684200987916558800,1.505558837890625,-0.7356715054444968,-0.025241408762335774,-3.2126880808010694
1684200987926583800,1.515583740234375,-0.9555321077264844,0.5371989974975586,-2.608804488040507
1684200987936608800,1.52560888671875,-1.0599908455885947,0.8378659516364335,-1.9112588612422345
1684200987946633700,1.5356337890625,-1.038483070396632,0.960556511759758,-1.006010395206511
1684200987956658000,1.545657958984375,-0.9967974534422158,1.1058119549125431,0.21334172190725803
1684200987966682600,1.5556826171875,-0.9344120166778563,1.067223573321104,1.6411925048112868
1684200987976707600,1.56570751953125,-0.7972352505624294,0.8130553355067968,2.7612562724381684
1684200987986732800,1.57573291015625,-0.5535059891760349,0.26433073538839813,3.5359389149308202
1684200987996756700,1.5857568359375,-0.24023133626803755,-0.6928489934146403,3.539330310934782
1684200988006781700,1.59578173828125,-0.005914630871266127,-1.6454419789493082,3.2135701243326067
1684200988016807000,1.605806884765625,0.1896202161885798,-2.4008739775270223,2.5157094402357933
1684200988026832000,1.615831787109375,0.6026392917878926,-2.975663577750325,1.6946981772884726
1684200988036855800,1.625855712890625,1.2186615045011042,-3.1949709300637243,0.8295262855753303
1684200988046880800,1.635880859375,1.8627999507606028,-2.978661006000638,0.12793284469097851
1684200988056905700,1.64590576171875,2.338930439311266,-2.3130033863723276,-0.3444958667322993
1684200988066930700,1.6559306640625,2.8151205490946767,-1.5577140111356973,-0.2606368493065238
1684200988076955000,1.665954833984375,3.017377982407808,-0.7374222946345805,0.6958852923706174
1684200988086979800,1.675979736328125,2.48955939219594,-0.16625789917111397,2.0309215979769824
1684200988097004800,1.6860048828125,1.3622294329583644,0.037896892195940016,3.3216227950334547
1684200988107029800,1.69602978515625,0.1309240989288315,-0.06235094997286796,4.22533922919631
1684200988117053700,1.7060537109375,-0.7490887670308352,-0.45700902397334575,4.354525873340666
1684200988127078700,1.71607861328125,-1.065544826453924,-0.7290577863931655,3.622701544843614
1684200988137104000,1.726103759765625,-0.9274573752343654,-0.7892559422463178,2.7983172983318565
1684200988147128800,1.73612890625,-0.46775253630578517,-0.7750380318015814,2.2534669092983006
1684200988157152800,1.74615283203125,0.6122539462208747,-0.6168593941897154,1.8057219727545974
1684200988167177700,1.756177734375,1.9553402872920036,-0.17401742725670336,0.9129322985365986
1684200988177202700,1.76620263671875,2.6042449250400064,0.8370365150749682,-0.39013884301036594
1684200988187227600,1.7762275390625,2.37777074983716,2.3206799123495814,-1.1444988284423947
1684200988197252900,1.7862529296875,1.3022598251640796,3.396880572852492,-0.2455702130779624
1684200988207276800,1.79627685546875,-0.46718967825863505,3.1081448795259,1.1371467121139167
1684200988217301800,1.8063017578125,-2.7965082030832766,1.54834646333158,0.32084464977085586
1684200988227327000,1.816326904296875,-4.346130677700042,1.135835337254405,0.0031397593304514884
1684200988237352000,1.82635205078125,-4.856364511382579,2.8872593181103468,2.219107543578744
1684200988247375600,1.836375732421875,-4.179750028932094,4.999215816003084,5.829831358119845
1684200988257400800,1.84640087890625,-2.943388032567501,4.263862728857994,6.71368573847115
1684200988267425800,1.85642578125,-3.032208471792936,1.5136638570070267,5.57825138323307
1684200988277450800,1.86645068359375,-2.611185537958145,-0.9254998114258051,4.5068660140573975
1684200988287475000,1.876474853515625,-1.6588579253613949,-2.267280330595374,3.482471820898354
1684200988297500000,1.8865,-0.43657702478673305,-3.0803683993279933,2.133757703073323
1684200988307524600,1.896524658203125,2.4283248790323735,-3.377534651869535,1.0258090283930301
1684200988317549800,1.9065498046875,4.807436522084474,-3.316470819097757,-0.03281593566983938
1684200988327573800,1.91657373046875,4.424579360514879,-3.513571015778184,-1.35862907037884
1684200988337598700,1.9265986328125,2.2176783875584603,-3.80192676987648,-2.6857418895095586
1684200988347624000,1.9366240234375,-0.21337153252363203,-3.8088632911413907,-3.55900034930557
1684200988357649000,1.94664892578125,-1.5884101781725883,-2.7317957846760748,-3.729131875039637
1684200988367672600,1.956672607421875,-1.3928642251968384,0.21221125657260417,-2.910064147375524
1684200988377697800,1.96669775390625,-0.13449381064176558,4.432384481307864,-1.6792448798298836
1684200988387722800,1.97672265625,1.3671639667510986,7.953216427999735,-0.5337149547740817
1684200988397747700,1.986747802734375,1.522393106907606,9.063597590523958,0.35867110707908867
1684200988407772000,1.99677197265625,1.1757564287543296,8.16990103059411,0.950369756527245
1684200988417796900,2.006796875,0.9031260670542717,4.475097249352932,0.8264242279067635
1684200988427821800,2.01682177734375,0.4122901768028736,-0.02866027729511261,-0.7338847681581974
1684200988437846800,2.0268466796875,-0.07953121735453605,-2.967114945113659,-2.32726630500257
1684200988447870700,2.03687060546875,-0.5827017615873367,-4.7175171817064285,-3.535685816952586
1684200988457895700,2.046895751953125,-1.3867816904127597,-5.03613188046813,-4.555725029772519
1684200988467921000,2.0569208984375,-1.3167512918531894,-4.525498233813047,-4.1262557546317575
1684200988477945900,2.06694580078125,-1.212326456260681,-2.974154926753044,-2.949315084528923
1684200988487969800,2.0769697265625,-1.7077520123898982,-0.9321475788772106,-1.6699889757066964
1684200988497995000,2.0869951171875,-2.289261276257038,1.103759114035964,-0.36528014995530245
1684200988508019700,2.097019775390625,-1.8947066626310347,2.7362083404213187,1.2224832547463476
1684200988518044700,2.107044677734375,-0.5206698875010013,2.907717584249377,2.183398955207318
1684200988528068900,2.11706884765625,0.4734054475009441,1.6473527810066937,2.202280181287974
1684200988538093800,2.12709375,1.3177800503790378,0.6638795040398836,1.888701723127812
1684200988548118800,2.137118896484375,2.2613936106443404,-0.21666180624067782,1.440244985052943
1684200988558143700,2.147143798828125,3.636731531500816,-0.5156429992496967,1.158559356368333
1684200988568167700,2.157167724609375,3.2947593380272386,-0.06403671110272408,0.5286167548522352
1684200988578192600,2.167192626953125,1.7087889542222021,0.2909685669451952,0.10799494916424154
1684200988588217900,2.1772177734375,0.9027309302568435,0.39196576617658135,-0.11832739647775888
1684200988598242800,2.187242919921875,0.9345476257562637,0.1743243012487888,-0.3742892397105694
1684200988608266800,2.197266845703125,1.0268412940502165,-0.07880173403620719,-0.39566403617262835
1684200988618292000,2.2072919921875,1.092849012964964,-0.13418810569345951,-0.572416002959758
1684200988628317000,2.21731689453125,1.0333844320833683,-0.12152969965040683,-1.21812418275401
1684200988638342000,2.227341796875,0.7431856804668903,-0.3033680297911167,-1.2449177893944083
1684200988648365800,2.23736572265625,0.49492283077146854,-0.4476081584215164,-1.3514245458275078
1684200988658390800,2.247390869140625,0.400509649572894,-0.854722978413105,-1.2187145498625933
1684200988668415700,2.257415771484375,0.372536843085289,-1.0341425569742917,-0.7891644645705819
1684200988678440700,2.267440673828125,0.3537561182370409,-0.8205798857927322,-0.7996244837865233
1684200988688465000,2.27746484375,0.12017642187792807,-0.4473801948845386,-1.2371174909070133
1684200988698489900,2.28748974609375,-0.2151460679154843,-0.005152560457587242,-1.5180910257995128
1684200988708514800,2.297514892578125,-0.4586356753271073,0.28077450518906116,-1.7145457641832529
1684200988718539800,2.307539794921875,-0.9888321736514568,0.3838116858154535,-1.6852020346686243
1684200988728563700,2.317563720703125,-0.7523954804260283,0.42286476230919356,-1.0044377390623092
1684200988738589000,2.3275888671875,-0.5092483297765255,0.35833296116590496,-0.30089608671963214
1684200988748614000,2.33761376953125,-0.3507774312198162,0.2944967410713434,0.23835925878584382
1684200988758638800,2.347638916015625,-0.16110015108175574,0.2205050376653671,0.5167646967560052
1684200988768662800,2.357662841796875,-0.10426241157241165,0.061733694857358926,0.5721840939000249
1684200988778687700,2.367687744140625,-0.025844123895838855,-0.08839432276785374,0.48380058478713034
1684200988788712700,2.377712646484375,0.047338016692921515,-0.2623854465395212,0.36188305486291644
1684200988798737700,2.387737548828125,-0.35612229937911033,-0.42977790269851684,0.29834640223681924
1684200988808761900,2.397761962890625,-0.5645278069932014,-0.39224516763985157,0.3128840461552143
1684200988818786800,2.407786865234375,-0.5538718998789787,-0.21797698049247263,0.3539090072438121
1684200988828811800,2.417811767578125,-0.77608491050601,-0.14878537084460258,0.40193420248329637
1684200988838837000,2.4278369140625,-1.193945653982833,0.054447044980525966,0.5053489842504263
1684200988848860700,2.437860595703125,-1.2074000327091663,0.3946779477447271,0.6462386334091424
1684200988858886000,2.447885986328125,-0.9958043507516383,0.660545975703001,0.6681038437366486
1684200988868910800,2.457910888671875,-0.8946879090547561,0.6747457659691571,0.42734044641852376
1684200988878935800,2.467935791015625,-1.0307972651343793,0.5082809460490941,0.01192658463716507
1684200988888960000,2.4779599609375,-0.8029460294246673,0.0539139610171318,-0.27020547264069317
1684200988898985200,2.487985107421875,-0.19911029439382255,-0.39679917768239975,-0.10897533850371836
1684200988909010200,2.49801025390625,0.09965513697266579,-0.7198667641997337,0.392302158524096
1684200988919035100,2.50803515625,0.08626249837093054,-0.8408364918798208,1.146388149320334
1684200988929059300,2.518059326171875,-0.007107713113352656,-0.7351783151000738,1.8919263842627405
1684200988939084300,2.528084228515625,-0.01411503459215164,-0.5831956095188856,2.302455688872933
1684200988949109200,2.538109130859375,-0.2388882510960102,-0.45057226892411706,2.2068659016430376
1684200988959134500,2.548134521484375,-0.7696002977270633,-0.360153162330389,1.6206269789054988
1684200988969158100,2.558158203125,-1.170153201919794,-0.330523747742176,0.7850552756860851
1684200988979183000,2.56818310546875,-1.356379537886381,-0.26733634694516656,-0.37710035160854455
1684200988989208300,2.578208251953125,-1.3575778077602385,-0.0526940638333559,-1.6487296223178505
1684200988999233300,2.5882333984375,-1.6099977406024932,0.2805722606152296,-2.678758606493473
1684200989009257200,2.59825732421875,-2.194588603872061,0.5315343958646058,-3.670180796638131
1684200989019282400,2.608282470703125,-2.396268675688654,0.7618126395255327,-3.9915857106402512
1684200989029307400,2.618307373046875,-2.3925462941646574,0.8484615799307823,-3.7880917212694882
1684200989039332000,2.62833203125,-2.0820786615014075,0.8631096984863281,-3.1948996183931824
1684200989049356300,2.638356201171875,-1.7830021914243697,0.9422954634040593,-2.5465064372986554
1684200989059381200,2.64838134765625,-1.4995545215032995,0.589644055005908,-2.159035790584236
1684200989069406200,2.65840625,-0.7978991212986409,0.24973113214969633,-1.4948172638483344
1684200989079431200,2.66843115234375,0.32199674241542814,0.08587912507653236,-0.9413277874156832
1684200989089455400,2.678455322265625,0.7763841126482933,-0.2500420977950096,-0.4541412134520709
1684200989099480000,2.68847998046875,0.7662436077103019,-0.5826145947605371,0.34428076267689467
1684200989109505300,2.69850537109375,0.298701207023859,-0.49943829890191554,1.391648711927235
1684200989119530200,2.7085302734375,-0.1512342253014445,0.06422142001986503,2.293139871256053
1684200989129554200,2.71855419921875,-0.4018586530290544,0.5999994448035955,2.556706636534631
1684200989139579400,2.728579345703125,-0.36237113064080473,0.893371565759182,2.0151251861691475
1684200989149604400,2.738604248046875,0.17604878695383666,0.892687090626359,1.1578797035411
1684200989159629300,2.74862939453125,0.9650608374416828,0.5712099881708622,0.4390206550791859
1684200989169653200,2.7586533203125,1.1363432867765426,0.02174479881823063,0.19368994984552262
1684200989179678200,2.76867822265625,0.8128430079303681,-0.5074637844473123,0.6281342369198799
1684200989189703200,2.778703125,0.18394450863972306,-0.7214046412914991,1.2630680708520114
1684200989199728000,2.78872802734375,-0.22385902426838875,-0.7365303142309189,1.8689687025234103
1684200989209752300,2.79875244140625,-0.43897608528509735,-0.5495780020773411,2.247419299697131
1684200989219777300,2.80877734375,-0.3216695562876761,-0.10334580818414688,2.2459071415685115
1684200989229802200,2.81880224609375,-0.20960107407420872,0.46389995253086086,1.9964958890229463
1684200989239827200,2.8288271484375,-0.2858284275777638,0.8509311849147081,1.5694583710737526
1684200989249851100,2.83885107421875,-0.29560221809521314,1.3137427576869725,0.9298783187709748
1684200989259876400,2.84887646484375,-0.5445161886431277,2.0951754589617253,0.4888387250848114
1684200989269901300,2.8589013671875,-0.9957654800459742,2.7832243586182592,0.2442227439917624
1684200989279926300,2.86892626953125,-1.4916776506483553,3.287709419515729,0.34233342800140376
1684200989289950200,2.8789501953125,-1.8865797625377774,3.3689790049701926,0.5897491228155791
1684200989299975200,2.88897509765625,-1.8693794752813875,2.856936660560965,0.8016801011420785
1684200989310000000,2.899000244140625,-1.5119631905689834,2.0665005686193703,1.0663448907904327
1684200989320025000,2.909025146484375,-1.0049605938926338,1.2536164980262516,1.1765857191853224
1684200989330049300,2.91904931640625,-0.640787966787815,0.5481950232863426,0.993949370534718
1684200989340074200,2.92907421875,-0.09569237082153559,0.04068856874108314,0.8946870322719216
1684200989350099200,2.93909912109375,0.5341700050652027,-0.5424614480704069,0.9064631025224924
1684200989360124400,2.94912451171875,0.8140939578395336,-0.7541209159791469,1.4680653043925762
1684200989370148000,2.959148193359375,0.6189478909015655,-1.0260323157548903,1.5406315050400792
1684200989380173300,2.96917333984375,0.13658639900684355,-0.9253320536434649,1.6013395101115107
1684200989390198300,2.9791982421875,-0.1863818918544799,-0.5487064799398184,1.7742442999511956
1684200989400223200,2.98922314453125,-0.8031074305314571,-0.30374037023484707,1.0639173713825643
1684200989410247400,2.999247314453125,-0.7090251252550631,-0.049797173348069185,0.6279948284491896
1684200989420272400,3.0092724609375,0.12663779991175977,0.0814981335133314,0.12842194338217378
1684200989430297000,3.019297119140625,1.1621838304758072,0.1613981841802597,-0.22017712088525293
1684200989440322000,3.029322021484375,2.368313185662031,0.2672399008333683,-0.417782782869786
1684200989450346200,3.03934619140625,3.326256300053,0.18127718912661075,-0.7901727648302912
1684200989460371200,3.04937109375,3.7031332181692123,0.03707739250659942,-0.711982732951641
1684200989470396200,3.059396240234375,3.650570671761036,-0.0774900669157505,-0.4404489343166351
1684200989480421400,3.06942138671875,3.1522850500255823,-0.21653379594683647,0.11575696146786212
1684200989490445000,3.079445068359375,2.861973485684395,0.09538812717795371,0.4397530610069632
1684200989500470300,3.08947021484375,2.7297464509308336,0.8504144675642251,0.9986442503526807
1684200989510495200,3.0994951171875,2.1422253794282673,1.3362234695643185,1.2192638543084262
1684200989520520200,3.109520263671875,1.706169127112627,1.8056413087338208,1.2360022231414913
1684200989530544400,3.11954443359375,1.4785323378711939,2.192126013150811,1.136141042202711
1684200989540569300,3.1295693359375,1.224320918502286,2.2730150748550892,0.8121899508491158
1684200989550594300,3.13959423828125,1.0365338360249996,1.7166121951937674,0.028262510149180887
1684200989560619300,3.149619384765625,1.1655682852823286,0.8213800962597131,-0.6570321223631501
1684200989570643200,3.159643310546875,1.342186761882901,-0.06692541828155517,-1.5407444638952612
1684200989580668200,3.169668212890625,1.3664566952645778,-0.7122603808492421,-2.1782719675824045
1684200989590693000,3.179693115234375,1.1708756709754466,-1.1213877097070217,-2.241899513362348
1684200989600718300,3.18971826171875,0.9542425793725997,-1.3245283555954694,-2.2987772926211356
1684200989610742300,3.1997421875,0.711563703821972,-1.3375029879808424,-2.4317773575738073
1684200989620767200,3.209767333984375,0.2912257565766573,-1.236049861675501,-2.703454656332731
1684200989630792200,3.219792236328125,-0.003922288010269403,-1.0927782858163118,-3.012176906633377
1684200989640817200,3.229817138671875,-0.10505020094923674,-0.9571306289643049,-3.2938214726552366
1684200989650841300,3.23984130859375,-0.22085502014681696,-0.908558028975129,-3.480331886260211
1684200989660866300,3.2498662109375,-0.4611519689969718,-1.0395254190564156,-3.4833243460744616
1684200989670891300,3.259891357421875,-0.6880350172616541,-1.3941840756237507,-3.357827204097807
1684200989680916200,3.269916259765625,-0.8672498670309782,-1.8526772006750105,-3.1570901122197506
1684200989690940200,3.279940185546875,-0.9094899029977619,-2.235578785908222,-2.9610008461475372
1684200989700965000,3.289965087890625,-0.8645750948637724,-2.436302433782816,-2.7435814995378256
1684200989710990000,3.299989990234375,-0.6841168209046125,-2.3936750059336425,-2.153975438454747
1684200989721014300,3.31001416015625,-0.30891090474054217,-2.190632559722662,-1.5927441157236695
1684200989731039200,3.320039306640625,-0.030001170510053632,-1.853584963169694,-0.9575725275129079
1684200989741064200,3.330064208984375,0.23994755089059472,-1.2893226021796464,-0.3885264393776655
1684200989751089400,3.34008935546875,0.5500673930294812,-0.6748661774784326,0.16953385210186242
1684200989761113000,3.350113037109375,0.6678925390735269,-0.1337397774040699,0.8058958191409706
1684200989771138300,3.36013818359375,0.6750276516504585,0.39739422096610066,1.4046885185033082
1684200989781163300,3.370163330078125,0.7911256816409528,0.80141165946424,2.010582866564393
1684200989791188200,3.380188232421875,0.9874152925908565,0.8990016806006431,2.68003286421299
1684200989801212400,3.39021240234375,1.2728404000647364,0.6788204680621623,3.274487826631963
1684200989811237400,3.4002373046875,1.5383612220205365,0.15157412478029728,3.4674145370200273
1684200989821262300,3.410262451171875,1.6307437376417218,-0.6436603073537349,3.131229402515292
1684200989831287000,3.420287109375,1.6439971869684755,-1.4304928218454123,2.2428683583945035
1684200989841311200,3.430311279296875,1.7138522289611398,-1.886505820518732,1.6768626608684658
1684200989851336200,3.440336181640625,1.7235105764053762,-1.944904817995429,1.4431608724996448
1684200989861361200,3.450361083984375,1.6002126980386673,-1.6929606859713793,1.2406865815654395
1684200989871386400,3.460386474609375,1.2527518440209329,-1.126062715780735,1.4701070393532514
1684200989881410300,3.470410400390625,0.8832166669696568,-0.5618190594911575,1.8507263588681815
1684200989891435300,3.480435302734375,0.5763737276095897,-0.3437263436645269,2.238232515287399
1684200989901459700,3.490459716796875,0.30121706230230627,-0.2702396671712398,2.226307976476848
1684200989911484700,3.500484619140625,-0.026739538365602493,-0.30288755279779433,1.8240321209490298
1684200989921508900,3.5105087890625,-0.2100140387892723,-0.44919571987390516,1.228819033639133
1684200989931533800,3.520533935546875,-0.0935936449766159,-0.7548357862502336,0.6790043001964687
1684200989941558800,3.530558837890625,0.6216705938637256,-1.1008090320587158,-0.029423370622098443
1684200989951583700,3.540583740234375,1.5059031598776578,-1.3276853583216666,-1.317658469825983
1684200989961607700,3.550607666015625,1.8256249430984257,-1.3817571402490139,-2.6796394809812307
1684200989971632600,3.560632568359375,1.4345838905513286,-0.9109270961940288,-3.8333924599811433
1684200989981657900,3.570657958984375,0.6932821241348981,-0.19083178393542766,-4.404942932152748
1684200989991682800,3.580682861328125,-0.5015384860515594,0.33928982252180573,-3.5390737058252095
1684200990001706800,3.590706787109375,-2.398962006425857,0.3864204070091247,-3.274226545347273
1684200990011732000,3.60073193359375,-4.2024587043464185,-0.6122691437900066,-3.459584866307676
1684200990021757000,3.6107568359375,-6.016895313954353,-1.3103577914237976,-2.654504455202818
1684200990031781600,3.62078173828125,-8.173215269708633,0.1768956130415201,0.2932593082308769
1684200990041805800,3.630805908203125,-7.552153747653961,3.573437163197994,5.8654515375554555
1684200990051830800,3.640830810546875,-3.6116058580726382,5.796316042008995,10.711987897884844
1684200990061855700,3.650855712890625,-0.6632271776109934,5.288191747826337,11.006455997383593
1684200990071880700,3.660880615234375,-1.7019313434123993,2.480185999172926,8.210422426074743
1684200990081905000,3.67090478515625,-2.515285369604826,0.6597907734215259,6.062956807905435
1684200990091929600,3.6809296875,-2.304660505440831,0.17545242849588394,4.243271191728115
1684200990101954800,3.690954833984375,-2.2717197743475435,-0.48874154832065103,2.158198316846788
1684200990111979800,3.700979736328125,-0.2595487618088722,-1.0259580814749,0.8223273139819502
1684200990122003700,3.711003662109375,4.309720809191465,-1.7765239353209732,-0.03677519468963146
1684200990132029000,3.72102880859375,7.3793106248736375,-3.074322689422965,-1.4324869182720779
1684200990142054000,3.731053955078125,6.84084263035357,-4.632677921071648,-2.275887707681954
1684200990152078800,3.741078857421875,4.777003974419832,-5.572803639221191,-2.168328665716946
1684200990162102800,3.751102783203125,2.3149410764366385,-4.981732181760669,-1.8429788134813307
1684200990172127700,3.761127685546875,-0.2637549813270569,-3.51383872680366,-1.4924632480680942
1684200990182152700,3.771152587890625,-2.214562301364541,-1.7226771943211554,-1.4980816724717616
1684200990192177700,3.781177734375,-3.400690486529469,0.5824211180150508,-1.851799833318591
1684200990202201900,3.791201904296875,-3.9373043776154515,3.226597071427107,-1.9572654101356863
1684200990212226800,3.801226806640625,-3.902676131826639,4.665198965448141,-1.0048319990769028
1684200990222251800,3.811251708984375,-4.592816450804472,6.481999381577968,-0.2673214416369796
1684200990232276700,3.82127685546875,-3.182429428398609,9.883147548747061,-0.7334115976884961
1684200990242300700,3.83130078125,0.23727730876803396,11.967087327945231,0.11399608927518129
1684200990252326000,3.841325927734375,1.896259737291932,8.94921133288741,1.1100891938403248
1684200990262350800,3.851350830078125,1.989465259733796,1.908167617228627,-0.24196838919371366
1684200990272375800,3.861375732421875,2.493057755705714,-2.463982467868924,-2.5122587152600286
1684200990282400000,3.87139990234375,3.476428741341829,-4.765543253728747,-3.7062393674910066
1684200990292424700,3.8814248046875,4.201023118585348,-6.406246513718366,-5.184916082268953
1684200990302449700,3.89144970703125,3.8476930802732703,-6.722445383509993,-6.483520307534933
1684200990312474600,3.901474609375,2.4091408706128594,-5.1703638253033155,-6.64199471322298
1684200990322498800,3.911498779296875,2.3636498700261113,-5.189877504068613,-6.567240793272853
1684200990332523800,3.921523681640625,0.9921686245977878,-2.7112439950346947,-4.919613871499895
1684200990342548700,3.931548828125,-0.7329752520978451,0.06912731224000454,-1.4505390000522136
1684200990352572700,3.94157275390625,-2.1749802325606344,2.286092583093047,1.5849126914456486
1684200990362597600,3.95159765625,-2.5954198135495186,3.4411493381679055,3.470924006445706
1684200990372622800,3.961622802734375,-2.290546055370569,2.976473140567541,3.9764758197918533
1684200990382647800,3.971647705078125,-1.4776713371276855,1.7634014188975096,3.0649814451038835
1684200990392671700,3.981671630859375,-0.10995207458138465,0.8074024243116378,1.6471867767900228
1684200990402697000,3.991697021484375,1.3113655071616173,0.11010171218514442,0.12400208111330865
1684200990412722000,4.001721923828125,2.008693107295036,-0.18428630781471728,-1.7056415961071847
1684200990422747000,4.011746826171875,1.4883844543218612,-0.1278396134495735,-3.0077523681893945
1684200990432770800,4.021770751953125,0.23634203721191732,0.3109118692994118,-3.7814743489563463
1684200990442795800,4.031795654296875,-0.4059644443800673,0.6637234366953373,-3.868510827374458
1684200990452820700,4.04182080078125,0.0702268344471231,0.6773942346513271,-3.146183226019144
1684200990462845000,4.051844970703125,0.5147674219915643,0.4312339467257261,-1.9563380661576986
1684200990472870000,4.061869873046875,0.5689490940341726,0.22324936793744563,-0.6350783569693566
1684200990482894800,4.071894775390625,0.6022130291998387,0.10503566096723078,0.41182489737868305
1684200990492919800,4.081919921875,0.6991209132909775,-0.04538637116849422,1.1348208995148539
1684200990502943700,4.09194384765625,0.8855097463428974,-0.22026304560303686,1.3730560935296117
1684200990512968700,4.10196875,1.1255576888680456,-0.5270943675905466,1.32598629931882
1684200990522994000,4.111993896484375,1.298458094793558,-0.7136942130446433,1.1470889910660684
1684200990533019000,4.122018798828125,1.35061849014163,-0.842507055440545,0.7378966341480613
1684200990543042800,4.132042724609375,1.3212345747470855,-0.9844517666101456,0.10711597437262535
1684200990553067800,4.14206787109375,1.164830545592308,-1.0612713869184256,-0.512043951844424
1684200990563092700,4.1520927734375,1.0610592054724692,-0.8490770814806222,-0.8540227211892605
1684200990573117700,4.16211767578125,0.7822855917770415,-0.42175826237201686,-0.8601274678051472
1684200990583142000,4.172141845703125,0.7405273479778319,0.06569967587888241,-0.8191608127750456
1684200990593166800,4.182166748046875,0.9083084381282329,0.36163784793019293,-0.5102098682850599
1684200990603191800,4.19219189453125,0.8861526473563164,0.262124749776721,-0.1416121182143688
1684200990613216800,4.202216796875,0.7676723984044045,-0.037522213664650916,0.15571999241337178
1684200990623240700,4.21224072265625,0.49014038226790724,-0.22234745066165923,0.373236223526299
1684200990633265700,4.222265625,0.13634089981317518,-0.13868132545948028,0.4480040258713066
1684200990643291000,4.232290771484375,-0.35363808134794233,0.12987491866946219,0.3671456515662372
1684200990653315800,4.24231591796875,-0.7621779657065868,0.388316596019268,0.2272369762688875
1684200990663339800,4.25233984375,-0.9734429544050246,0.4652098660856485,0.326132673176378
1684200990673365000,4.262364990234375,-1.0080734652161598,0.3587736906707287,0.5876831301964819
1684200990683390000,4.272389892578125,-1.0264964261353016,0.0750502725481987,0.8994789427235722
1684200990693414700,4.28241455078125,-0.9671487496316432,-0.2924018146187067,1.1764856198117137
1684200990703438800,4.29243896484375,-0.8438404229361564,-0.7230138300538063,1.3818242141358554
1684200990713463800,4.3024638671875,-0.79400057949014,-0.9744377375960349,1.4267870991952716
1684200990723488800,4.31248876953125,-0.7380044784367084,-0.9726642981827258,1.3354887255489825
1684200990733513700,4.322513671875,-0.825416219907999,-0.9426204575747251,1.194730301554501
1684200990743538000,4.332537841796875,-0.9241863907396792,-0.7907108172297477,0.8823477751806378
1684200990753562600,4.342562744140625,-0.9221639450013637,-0.5011018481999635,0.5483502138480544
1684200990763587800,4.352587890625,-0.8751882588148117,-0.1327636258482933,0.367132061432302
1684200990773612800,4.36261279296875,-0.6624350773852318,0.1550198813199997,0.4295632370345294
1684200990783637800,4.3726376953125,0.15994162869639694,0.5600087951987981,1.3164553776465355
1684200990793662000,4.382661865234375,0.3863725492794066,0.5428507396489382,1.6412177853830159
1684200990803687000,4.39268701171875,0.38029929378032684,0.25012685346901414,1.5036857760891318
1684200990813712000,4.4027119140625,0.09600647827200591,0.003072247052192688,1.0740661326922476
1684200990823736800,4.41273681640625,-0.47517786400094625,0.054795420026779174,0.6209457867205143
1684200990833760800,4.4227607421875,-1.0838532210826872,0.07316577397584914,0.30154344471246003
1684200990843785700,4.43278564453125,-1.605303006915003,-0.0067751932233572005,0.047767567216604946
1684200990853810700,4.442810791015625,-1.9723533814132213,0.026492870128154752,-0.18650018447190522
1684200990863835000,4.4528349609375,-2.2328888161718843,0.03711830903887749,-0.30178602129668
1684200990873859800,4.46285986328125,-2.2984746564127505,-0.06938333282768726,-0.2535734867915511
1684200990883884800,4.472884765625,-2.1562720249593257,-0.217538004553318,-0.3354008522592485
1684200990893909500,4.482909423828125,-1.9267665192365646,-0.40644028173089025,-0.6529365236125886
1684200990903934500,4.4929345703125,-1.8080968851923942,-0.5178010540664195,-1.2049288933552802
1684200990913958700,4.502958740234375,-1.7339900309741496,-0.5536953742682933,-1.7869675879240035
1684200990923983600,4.512983642578125,-1.6213151073001324,-0.5327648144423961,-2.2566360408537087
1684200990934008600,4.523008544921875,-1.4574211607813834,-0.4492243614464998,-2.420122429484874
1684200990944033500,4.533033447265625,-1.3988405231274663,-0.3388701358050108,-2.425952450812608
1684200990954057500,4.543057373046875,-1.3580828346729277,-0.22444296163618563,-1.9265148825630545
1684200990964082400,4.55308251953125,-1.234858752194792,0.0038999300479888913,-1.0028018084235488
1684200990974107400,4.563107421875,-1.2759762138724327,0.25645021127164364,-0.15599851709380744
1684200990984131600,4.573131591796875,-1.2989933707140386,0.36527006695270536,0.4853450377501547
1684200990994156500,4.583156494140625,-1.185039805406332,0.20621113937497138,0.8494212187431752
1684200991004181500,4.593181396484375,-0.9771220082439481,0.04610708665847778,1.1695957872327416
1684200991014206700,4.603206787109375,-0.9753684425748884,0.010925883162021637,1.5850263809531926
1684200991024230400,4.61323046875,-1.2124093122385442,0.21723288412690162,1.9452260127738117
1684200991034255600,4.623255615234375,-1.2826703046835959,0.6125193191587924,2.1020386227294803
1684200991044280600,4.633280517578125,-1.0607963167525827,0.8423638475775718,1.8325968279376625
1684200991054305500,4.643305419921875,-0.6516087821401655,0.8998252719432115,1.5875170287251472
1684200991064329700,4.653329833984375,-0.1923429191507399,0.9425988302648067,1.9320131877183913
1684200991074354700,4.663354736328125,0.3363900094270706,1.0723509993374347,2.439086803804338
1684200991084379400,4.67337939453125,1.1953602700211108,1.2694167092263697,2.8972964357391
1684200991094404400,4.683404296875,2.471276716530323,1.5223463451564312,3.381157226280868
1684200991104428500,4.693428466796875,3.638434828287363,1.8060557347536086,3.5829639932170507
1684200991114453500,4.70345361328125,3.808922327852249,1.9077894315659998,3.378106022016704
1684200991124478500,4.713478515625,3.0292519600749013,1.900797380721569,2.565092187564075
1684200991134503700,4.723503662109375,1.5416696159161627,1.7556150028049944,1.4033993554756043
1684200991144527400,4.73352734375,0.3734006203077733,1.387178580775857,0.33513730595223606
1684200991154552600,4.743552490234375,-0.31932343155294657,0.594595539933443,-0.21879618792086838
1684200991164577500,4.75357763671875,-0.9897453429736196,-0.040005847173929215,-0.6962273838065565
1684200991174602500,4.7636025390625,-1.4281788458146154,-0.8171247769027948,-0.7021114734090864
1684200991184626700,4.773626708984375,-1.7807737017199397,-1.621749553194642,-0.6395867743045092
1684200991194651600,4.783651611328125,-1.8209331320203839,-2.0243401737600566,-0.23171119907349347
1684200991204676600,4.793676513671875,-1.7088251945793627,-1.7841344103246926,0.14305997893512248
1684200991214701600,4.80370166015625,-1.7984873453259467,-0.8429127136319875,0.4156508854076266
1684200991224725500,4.8137255859375,-1.8725602972745894,0.1922013187229633,-0.10444076381400227
1684200991234750500,4.82375048828125,-1.1762030034780502,0.7152811899751425,-0.5483318014085292
1684200991244775400,4.833775390625,-0.12543266190569846,0.9695072954565286,-0.6141121413081884
1684200991254800600,4.843800537109375,0.7585644513845443,1.260773968565464,-0.72855056752339
1684200991264824600,4.853824462890625,1.1261387036263941,1.1900479889571667,-0.8919920940995216
1684200991274849500,4.863849609375,1.5349123967409133,0.8210001570314168,-0.5689426277607679
1684200991284874500,4.87387451171875,2.045087193712592,0.43147476974427695,0.1810622312016785
1684200991294899500,4.8838994140625,2.3114579104959962,-0.2280512152612209,1.3303751819275318
1684200991304923600,4.893923583984375,2.3759271677970886,-0.6779062758266925,2.456860653164983
1684200991314948600,4.903948486328125,2.4170611422181127,-0.8209984034657478,3.3706320328742265
1684200991324973600,4.9139736328125,2.371393616020679,-0.9783715699136256,3.7656063332170246
1684200991334998500,4.92399853515625,2.296471353766322,-0.9756699097394943,3.812728734397888
1684200991345022500,4.9340224609375,2.186379578453302,-0.8507160808593034,3.3124586608469486
1684200991355047400,4.94404736328125,1.9232050273627042,-0.7716787845015526,2.689155205084383
1684200991365072400,4.954072265625,1.703891829830408,-0.6836848592281342,2.2144531419016418
1684200991375097600,4.96409765625,1.3932786512166262,-0.4809036943018436,1.4396074178017675
1684200991385121500,4.97412158203125,1.0803057577341795,-0.29160920293629167,0.6409542632654309
1684200991395146500,4.984146484375,0.9344844973921775,-0.17760054644048212,0.2807417719632387
1684200991405171700,4.994171630859375,0.813521199452877,-0.28503625428676604,0.25038521214425563
1684200991415196700,5.00419677734375,0.6673246760576963,-0.4926116677522659,0.5235550875484943
1684200991425220600,5.014220703125,0.5571721470007672,-0.6459750140368938,0.9349977076113224
1684200991435245600,5.02424560546875,0.39084231510460377,-0.873369226694107,1.2221890941053628
1684200991445270500,5.0342705078125,0.23891623508147894,-0.934948023250699,1.4594886147052049
1684200991455295500,5.04429541015625,0.06366020594052971,-0.7962491621345281,1.436416074414551
1684200991465319700,5.054319580078125,0.012971125254034994,-0.6066857906997204,1.2556515109851956
1684200991475344600,5.0643447265625,0.48583347885422407,-0.3734697400212288,1.3267398941650985
1684200991485369300,5.074369384765625,0.6483470769304782,-0.2362035420566797,1.0167784574583172
1684200991495393500,5.0843935546875,0.8188520390868187,-0.16038813035488128,0.7788780483558774
1684200991505418500,5.09441845703125,1.162969500960782,-0.17651859642267226,0.5380658434599638
1684200991515443500,5.104443359375,1.5823375802606343,-0.33692776956558224,0.36715748813450333
1684200991525468700,5.11446875,1.8721394415140151,-0.4292103319436312,0.290125978641212
1684200991535492400,5.124492431640625,2.2744683424033223,-0.5727256534308195,0.3072723437532782
1684200991545517600,5.134517578125,2.574235571223497,-0.7188450199365616,0.44932723729908464
1684200991555542500,5.14454248046875,2.5739210984468457,-0.8957657674193382,0.42438627278804775
1684200991565567500,5.1545673828125,2.571644970208406,-0.9159329416573047,0.4416626940205693
1684200991575591700,5.164591796875,2.411775310769677,-0.8785703024685382,0.4472603678971529
1684200991585616600,5.17461669921875,2.183697061371058,-0.7831254766672849,0.6162172968938946
1684200991595641600,5.1846416015625,1.9484809229165314,-0.5454091919600963,0.7666366986811161
1684200991605666600,5.19466650390625,1.8364438587546348,-0.3269534880399704,0.7582561160877347
1684200991615690500,5.2046904296875,1.8368981783933938,-0.04693535417616367,0.8443772332265973
1684200991625715500,5.214715576171875,1.8170464998453855,0.09861234992146492,0.7402987268537282
1684200991635740400,5.224740478515625,1.7688374724715947,0.05413023411631584,0.6073068452075123
1684200991645765600,5.234765625,1.7961891513861714,-0.12906067967712878,0.5178004695445299
1684200991655789600,5.24478955078125,1.8959655766509471,-0.3965741367548704,0.4567173475503921
1684200991665814500,5.254814453125,2.0346745207697152,-0.6728852327942848,0.36288375633805986
1684200991675839500,5.264839599609375,2.107880042234063,-0.7829916211545467,0.4040951799094677
1684200991685864400,5.274864501953125,2.4370786788523198,-0.8526689684927463,0.4115887505352497
1684200991695888600,5.284888671875,2.825100091317296,-1.1024170517772436,0.4851972998425364
1684200991705913600,5.29491357421875,3.016567250546813,-1.3959656983435154,0.8391767419740557
1684200991715938600,5.3049384765625,3.049679831075668,-1.6933301038056612,1.1550526634216307
1684200991725963500,5.314963623046875,2.9402573333263398,-1.9646376924693583,1.3640277145519852
1684200991735987500,5.324987548828125,3.0182255391478536,-1.9975684866905212,1.5195421013906598
1684200991746012400,5.335012451171875,3.4000878444612024,-1.7961492577672005,1.5933444197043776
1684200991756037400,5.345037353515625,3.732589029756188,-1.2051754154622554,1.683742483510077
1684200991766062600,5.3550625,3.783293381077051,0.13809329643845558,1.8016113225653767
1684200991776086500,5.36508642578125,3.7588901767045257,1.7441332393258808,2.056213567882776
1684200991786111500,5.375111572265625,3.6095524326741693,3.0836545813918113,1.9165832711353896
1684200991796136700,5.38513671875,3.4561534305542705,4.161943738606572,1.1756664123833178
1684200991806161700,5.39516162109375,3.1839059306919575,4.7438376178771255,0.04456774826198816
1684200991816185600,5.405185546875,2.630658300191164,4.577238942444324,-1.0059224246621132
1684200991826210600,5.41521044921875,2.009084736961126,3.9167876592874524,-1.507842311246693
1684200991836235500,5.425235595703125,1.7334579699240624,3.001131781005859,-1.66559921631515
1684200991846260500,5.435260498046875,1.817990064305812,2.0185960771501064,-1.7895074816651642
1684200991856284700,5.44528466796875,1.9439276435263453,1.2009908232539892,-1.931006641024351
1684200991866309600,5.4553095703125,2.311170471856743,0.31668869913518427,-2.198547278369963
1684200991876334300,5.465334228515625,3.033504941344261,-0.3685428050130605,-2.3293271830551325
1684200991886358500,5.475358642578125,3.9362002157658336,-0.8465840956211089,-2.442016135254502
1684200991896383700,5.4853837890625,4.629796228155493,-1.15277887327075,-2.7740947112232446
1684200991906408700,5.49540869140625,4.704274838295579,-1.1479606593340634,-3.113513420821726
1684200991916434000,5.505433837890625,4.1000767727583645,-0.801273712298274,-3.1650632830560204
1684200991926457900,5.515457763671875,3.109046796801686,-0.4027063558995723,-2.7553514323085544
1684200991936482800,5.52548291015625,2.1886264805972573,-0.032628011882305144,-1.7245777672454714
1684200991946508000,5.535508056640625,1.382672501528263,0.3112596598237753,-0.4173758095040917
1684200991956533000,5.545532958984375,0.8987674334533512,0.5179863475054503,0.9061443919621407
1684200991966556700,5.555556640625,1.0016892440717666,0.5227127915054559,1.902520551252365
1684200991976582000,5.565581787109375,1.6225205375671385,0.4216846126139164,2.5924057264253495
1684200991986606800,5.57560693359375,2.293797166121006,0.20982056204378605,2.7351085624858738
1684200991996631800,5.5856318359375,2.7563024494230746,0.1390805539101362,2.3058761648409067
1684200992006656000,5.595656005859375,2.8730419921875,0.059735214516520495,1.4499185300663113
1684200992016681000,5.605680908203125,2.7833073607265946,0.06566577360928058,0.6052950669936835
1684200992026706000,5.615705810546875,2.550371880555153,0.08972644815444945,0.028921850840747356
1684200992036731000,5.62573095703125,2.5883342392027378,0.10446750569045543,-0.4961988785892725
1684200992046754800,5.6357548828125,2.501357382017374,0.04722060085833072,-0.5452142539098859
1684200992056779800,5.64577978515625,2.616362648335099,-0.2163672072082758,-0.4912392103552818
1684200992066805000,5.655804931640625,2.9833003562390803,-0.5078004690557718,-0.45009237645268435
1684200992076830000,5.665829833984375,2.958773817747831,-0.6692284638524055,-0.27604426179677244
1684200992086854000,5.67585400390625,2.6119693818122145,-0.8698094883859157,-0.11920856322646141
1684200992096878800,5.68587890625,2.223297981005907,-1.0556862802624702,-0.18286212023049592
1684200992106903800,5.69590380859375,1.7574878109395502,-1.1882909161567687,-0.156363989405334
1684200992116928800,5.7059287109375,1.15339437482059,-1.16294312441051,0.2548642572544515
1684200992126953000,5.715952880859375,0.6224339794516563,-1.19453653254807,0.6926454336665571
1684200992136978000,5.72597802734375,0.3549251985490322,-1.1207429820626973,1.037048361418396
1684200992147003000,5.7360029296875,0.24296295318901537,-1.0011176547288894,1.468755332483351
1684200992157026800,5.74602685546875,0.15653262397050857,-0.8631243115335703,1.7562478938810526
1684200992167051800,5.7560517578125,0.12322655756301246,-0.790281193640828,2.016534322314709
1684200992177076700,5.76607666015625,0.132770630977815,-0.8487953419297933,2.1804474119253454
1684200992187102000,5.77610205078125,0.1670575251162052,-1.0754518879622221,2.0766319404028355
1684200992197126000,5.7861259765625,0.44504678350090976,-1.6337001032292842,1.9351520702660083
1684200992207150800,5.79615087890625,1.0482441475629807,-2.32732183458209,1.7136819869607687
1684200992217176000,5.806176025390625,1.6864041039347648,-2.802477340620756,1.5959744759470222
1684200992227201000,5.816200927734375,1.9690905802249907,-2.868191045024991,1.5535843639850615
1684200992237224700,5.826224609375,1.8556442337870598,-1.8480331742614506,1.5417143318407236
1684200992247250000,5.83625,1.631779364299774,0.9322054465442895,1.644041756762564
1684200992257275000,5.84627490234375,1.612549763172865,4.571702351105213,1.694955513050407
1684200992267299800,5.8562998046875,1.36145435693264,7.377013453847169,1.1893915708750487
1684200992277324000,5.866323974609375,1.3143161736607551,8.156824106878041,0.05860811018273234
1684200992287349000,5.876348876953125,1.407115453389287,7.391281048652529,-0.6659718001440167
1684200992297373700,5.886373779296875,1.7096148836523293,5.282381015720963,-1.3414508488237857
1684200992307399000,5.89639892578125,1.6976783621430396,3.275015942159295,-2.110268983197212
1684200992317422800,5.9064228515625,1.0696510927289724,2.089576908302307,-2.682346401852369
1684200992327447800,5.91644775390625,0.13927815884146838,1.3626789302915334,-2.8728210429131984
1684200992337473000,5.92647314453125,-0.6484609856337309,0.7077420266419648,-2.7300772903203963
1684200992347498000,5.936498046875,-1.3775836539566515,0.0925438436627388,-2.396680763620883
1684200992357521700,5.946521728515625,-1.7325620439976452,-0.18417115700244902,-1.80351174935922
1684200992367547000,5.956546875,-1.319627724072337,-0.34979835705459117,-0.7421174667134881
1684200992377571800,5.96657177734375,-0.7211947248678654,-0.5881804121941328,0.45574411860406394
1684200992387596800,5.9765966796875,-0.5663876825809478,-0.8050491391837596,1.2566834843814372
1684200992397621000,5.98662109375,-1.0029700045973062,-0.4559124609082937,1.293705931830406
1684200992407646000,5.99664599609375,-1.6356506527751684,0.20813363187015055,0.7972060244679451
1684200992417671000,6.0066708984375,-1.8295295493215322,0.7772901946425438,0.0439341265335679
1684200992427695900,6.01669580078125,-1.0092495232582093,1.3721055148065089,-0.9363201883867383
1684200992437719800,6.0267197265625,0.5991087065089493,1.6189935324847697,-1.3967448660224675
1684200992447744800,6.036744873046875,2.100842983204126,1.1361626695126295,-1.3845976243719458
1684200992457770000,6.04677001953125,3.339863385123014,0.7298316933751106,-0.6956038450807333
1684200992467794000,6.0567939453125,3.6358208463966846,1.0164631078988313,0.22603110761046408
1684200992477819000,6.06681884765625,2.979072801671922,1.801754238167405,1.0652329840257764
1684200992487844000,6.076843994140625,2.331624061820656,2.219872098210454,0.91363840097934
1684200992497868800,6.086868896484375,1.9054380461342633,2.2039134815782306,-0.1580894980236888
1684200992507892700,6.096892822265625,1.5661679512262343,1.6471400150388478,-1.8334005455359816
1684200992517918000,6.10691796875,1.4220593400210142,0.8939081568539142,-3.2170652729719875
1684200992527943000,6.11694287109375,1.6185691695928572,0.23449673813879487,-4.283679774484038
1684200992537967900,6.1269677734375,1.9266094289787112,-0.551394696110487,-5.022697229355574
1684200992547992000,6.136991943359375,2.0136720647513866,-1.3979706084251402,-5.4453790363132955
1684200992558016800,6.147016845703125,1.8964533601678906,-2.1883874111443755,-5.30010488846004
1684200992568041700,6.157041748046875,1.6228753423541784,-2.910779894429445,-4.452849761709571
1684200992578067000,6.16706689453125,1.2279754224218427,-3.308895415407419,-3.2579069864481687
1684200992588091000,6.1770908203125,0.7884500326909124,-3.3525708910048007,-2.291195166929066
1684200992598115800,6.18711572265625,0.42219665378928184,-3.115723790347576,-1.7516551592633127
1684200992608141000,6.19714111328125,0.19851079413071274,-2.69713480566144,-1.4667854937151072
1684200992618166000,6.207166015625,0.0278764334410429,-2.1232675809800625,-1.27467565266788
1684200992628189700,6.217189697265625,-0.039346360351890326,-1.5440163251727819,-1.1764750984176993
1684200992638215000,6.22721484375,-0.04585398868024349,-0.9520306754767894,-1.1124302040085197
1684200992648239900,6.237239990234375,-0.05379471855163574,-0.5062327813476324,-0.926139570634067
1684200992658264800,6.247264892578125,-0.21336349534764884,-0.18326280998587607,-0.9256313288509845
1684200992668289000,6.2572890625,-0.39231472574472426,-0.025091186636686323,-0.9512962237223982
1684200992678314000,6.26731396484375,-0.5689701002895832,0.19360650934576987,-0.8062856952413916
1684200992688338700,6.277338623046875,-0.7793465426504611,0.4728671028405428,-0.4553440133705735
1684200992698364000,6.287364013671875,-1.009965124181658,0.7332651749551296,0.08848667722642421
1684200992708387800,6.297387939453125,-1.043890628528595,1.0802128187537192,0.8436322600781917
1684200992718412800,6.307412841796875,-1.0500035584509373,1.2568933277398346,1.6988140881747007
1684200992728438000,6.31743798828125,-1.0333655812524258,1.0928501820087433,2.1316528397485612
1684200992738463000,6.327462890625,-0.8974928834728896,0.47401744191944595,2.2792110068857667
1684200992748486700,6.337486572265625,-0.622034604870528,-0.44672553036808965,2.3207105997487902
1684200992758511900,6.347511962890625,-0.31941300953254104,-1.2840040375053883,2.274604097612202
1684200992768536800,6.357536865234375,-0.10960019240379333,-1.961301826044917,2.1112404585778712
1684200992778560800,6.367560791015625,0.13210026656873525,-2.3294500787824393,1.842092386035621
1684200992788586000,6.3775859375,0.44601833194680507,-2.3571704448789355,1.5605840136140583
1684200992798611000,6.38761083984375,1.0224300534792243,-2.2712422199636695,1.22338794850111
1684200992808636000,6.397635986328125,1.6745488309681416,-2.242567329621315,0.9885828750655055
1684200992818659800,6.407659912109375,2.1032531130857763,-2.2864514795333144,0.9790390939116478
1684200992828684800,6.417684814453125,2.1843390125364066,-2.262658516013622,1.1161100615650414
1684200992838709800,6.427709716796875,2.0802993768692017,-2.2310329591721296,1.5700699271008371
1684200992848735000,6.43773486328125,1.5134879159182308,-2.0686954483151436,2.0466937521263957
1684200992858759000,6.447759033203125,0.5903531165907159,-1.9033330366790293,2.3342741379380225
1684200992868783900,6.457783935546875,-0.03059851534869522,-1.8690999276876448,2.1532672901853918
1684200992878809000,6.46780908203125,-0.004069971118960529,-1.8129513394862413,1.5273761560171841
1684200992888833800,6.477833740234375,0.1943786810283549,-1.6222984192490577,0.5286804677382111
1684200992898857500,6.487857421875,0.3053203329026699,-1.1846148579925297,-0.5768666987583041
1684200992908882200,6.497882080078125,0.46109074032902714,-0.20697803209424018,-1.642471730966866
1684200992918907100,6.5079072265625,0.13461772014922463,0.6183341429173946,-1.7925477261438965
1684200992928932000,6.51793212890625,-1.6499439665436744,1.8717928200334308,-0.6940887643426656
1684200992938956300,6.527956298828125,-4.855403557395935,2.916196074259281,-0.7001011564999818
1684200992948981200,6.537981201171875,-8.443305299276114,2.729999548909068,-1.1115955067500471
1684200992959006200,6.548006103515625,-8.274394255247712,2.951169187963009,1.2530236466996372
1684200992969031400,6.558031494140625,-4.017009197971224,3.8653339509040117,5.300658430689573
1684200992979055000,6.56805517578125,-0.09745497831357643,3.8398096335470675,7.149725039651989
1684200992989080000,6.578080078125,0.40051790594458575,2.1724095052897927,6.430110204386711
1684200992999105300,6.588105224609375,-0.575850507453084,-0.21613807462751863,4.831675475805998
1684200993009130200,6.598130126953125,-0.7625164038807153,-1.6091969456136226,3.27734672319442
1684200993019154400,6.608154541015625,-0.9962146851181983,-2.498303839665651,1.2750073688402772
1684200993029179400,6.618179443359375,-1.982496005243063,-2.988968465003371,-0.327468013433367
1684200993039204400,6.628204345703125,-2.533127900287509,-2.661090847855806,-1.4271378123290837
1684200993049229000,6.63822900390625,-1.6763924130082128,-1.7472300362974404,-1.9687043573863803
1684200993059253200,6.648253173828125,0.039132553204428405,-0.9737871647328138,-2.0148826095849275
1684200993069278200,6.6582783203125,2.065708541458845,-0.7826911769032477,-1.6463322057873009
1684200993079303200,6.66830322265625,3.8305928923904893,-0.9156944567263126,-0.7248157649092376
1684200993089327400,6.678327392578125,4.648690898239613,-1.0928957747161387,0.406361517406255
1684200993099352300,6.688352294921875,4.412605429604649,-1.0009440517276524,1.5264892901800573
1684200993109377000,6.698376953125,3.366647347152233,-0.22613339894115925,2.4361124641686676
1684200993119402200,6.70840234375,1.5244436096966265,1.4631459681689738,3.1800612379625437
1684200993129426200,6.71842626953125,-0.9722025258898734,4.004218689981102,3.7526860613673922
1684200993139451400,6.728451416015625,-3.4396576383054254,6.842177678349613,3.8750221089646217
1684200993149476400,6.738476318359375,-5.166986457824707,8.89456905759573,3.1403207637265322
1684200993159501300,6.748501220703125,-4.832109191048145,9.108228759410977,2.480423899582028
1684200993169525200,6.758525146484375,-2.6603999429821967,5.759414006069302,1.8596674979537724
1684200993179550200,6.76855029296875,-0.4488222103863954,1.1461930651396512,0.0779801885202527
1684200993189575200,6.7785751953125,1.2189561035335064,-2.1287615022212267,-1.9424016030028461
1684200993199600000,6.78860009765625,2.091054579639435,-4.301157563507557,-4.152289190554619
1684200993209624300,6.798624267578125,2.086021846169233,-5.470094375374913,-6.070422906002402
1684200993219649300,6.808649169921875,1.722249324297905,-5.781828666973114,-7.049473105829954
1684200993229674200,6.81867431640625,1.3821417556524276,-5.17977521224916,-7.2770660559296605
1684200993239699500,6.828699462890625,1.2881079656928778,-3.565734918257594,-6.030517012071609
1684200993249723100,6.83872314453125,1.2516589342176914,-1.6282985364466904,-4.064450455842912
1684200993259748000,6.848748046875,0.8413479485332965,0.07318447867631912,-2.610512753263116
1684200993269773300,6.858773193359375,0.3677262279331684,1.572502414944768,-1.1869772032096981
1684200993279798300,6.86879833984375,-0.004283960929512978,2.7250509865909813,0.4929457220122218
1684200993289822500,6.878822509765625,-0.40883682147860523,3.056304802173376,2.194778281225264
1684200993299847400,6.888847412109375,-0.7598445543229579,2.662138895604014,3.103177612507343
1684200993309872000,6.8988720703125,-0.8972025222241878,1.8836831643134355,3.228806564170122
1684200993319897000,6.90889697265625,-0.84195702034235,1.157730358198285,2.9231249967396256
1684200993329921300,6.91892138671875,-0.759945092087984,0.5543108758181333,2.097877995918691
1684200993339946200,6.9289462890625,-0.36787586553692814,-0.024518939706683156,1.0220485068157315
1684200993349971200,6.93897119140625,0.5021674316048622,-0.6962129168897867,0.0485787374690175
1684200993359995400,6.948995361328125,1.639799004626274,-1.2012784080237149,-0.8056032659351825
1684200993370020000,6.95902001953125,2.5821874070107937,-1.4542115510851144,-1.583569167882204
1684200993380045000,6.969045166015625,3.0437668076395985,-1.4727917483925819,-2.2448896350890397
1684200993390070300,6.9790703125,3.008099281930923,-1.2369044326782226,-2.63668881252706
1684200993400094200,6.98909423828125,2.426322307038307,-0.880167216271162,-2.540255560210347
1684200993410119200,6.999119140625,1.463885972881317,-0.5868079547971486,-2.235987366709113
1684200993420144400,7.009144287109375,0.6113865157365799,-0.29252105708420273,-2.078764860778302
1684200993430169300,7.01916943359375,-0.11433244509007781,-0.19127602057158946,-1.8765549198687075
1684200993440193300,7.029193359375,-0.6486860265612602,-0.33714170457720755,-1.5924256974242628
1684200993450218200,7.03921826171875,-1.0792612901825458,-0.5395160422682762,-1.3206160044573247
1684200993460243200,7.0492431640625,-1.5035048665642738,-0.4890694651007652,-1.0912383628979325
1684200993470268200,7.05926806640625,-1.9388439105212687,-0.03796352769136429,-0.956433002088964
1684200993480292400,7.069292236328125,-2.076411137259006,0.4515022432506084,-0.9467666174687445
1684200993490317300,7.0793173828125,-1.744821221590042,0.6275117211073636,-0.9367569723688065
1684200993500342000,7.089342041015625,-1.228356384563446,0.7883475952297448,-0.9002284459166229
1684200993510367200,7.0993671875,-0.47726446101665493,0.7522486923664807,-0.7431652222007512
1684200993520391200,7.10939111328125,0.17114691332168877,0.6325684199750423,-0.7154290740132332
1684200993530416000,7.119416015625,0.3949930050432682,1.0864473292291164,-0.9226844617441297
1684200993540441300,7.12944140625,0.12933482044339178,1.4155682244360446,-1.529297187207639
1684200993550466300,7.13946630859375,-0.08188461208026855,1.4944038607418537,-2.155908890735358
1684200993560490200,7.149490234375,-0.4838941082894802,1.3261445586204528,-2.536078274525702
1684200993570515200,7.15951513671875,-0.7509060455858707,0.9739204357236623,-2.9412217944443224
1684200993580540200,7.1695400390625,-0.4871791578421369,0.6931938613295555,-2.8548855732500553
1684200993590564400,7.179564453125,-0.10338906280398369,0.7985422415077685,-2.3972984571278095
1684200993600589300,7.18958935546875,0.37669849280938505,1.2293781288266181,-1.7613982623815536
1684200993610614300,7.1996142578125,0.9351846815507858,1.5837924552440643,-1.2171300571501253
1684200993620639200,7.20963916015625,1.390335583502054,1.5542431201547384,-0.5944589079417288
1684200993630663200,7.2196630859375,1.9351123227775096,0.9049369158685207,-0.014217618183791636
1684200993640688000,7.229688232421875,2.3920634790837765,0.31036826394200323,0.5695771262720227
1684200993650713000,7.239713134765625,2.753628846299648,-0.15653262397050857,0.8840019721284508
1684200993660738300,7.24973828125,2.906722143471241,-0.34846272453665733,1.065509755140543
1684200993670762200,7.25976220703125,2.580616212171316,-0.3976093250215053,1.1994054537586867
1684200993680787200,7.269787109375,2.2590016009412706,-0.2938584431678056,1.3806653994895517
1684200993690812400,7.2798125,1.8967340768054126,-0.21478198384344577,0.8053931303158401
1684200993700837000,7.289837158203125,0.8763502152662723,-0.25839374655485153,0.08643193665370344
1684200993710861300,7.299861328125,-0.9486416906256228,-0.22980068927705286,-0.12205766904726624
1684200993720886300,7.30988623046875,-1.7831239181078968,-0.24882395417690276,-0.4321696201406419
1684200993730911200,7.3199111328125,-1.143986641136557,-0.3311620456457138,-0.7683584079071879
1684200993740936200,7.329936279296875,-0.5379262157935649,-0.5668184752136468,-0.7280028705127537
1684200993750960400,7.33996044921875,-0.40434900854006406,-0.7608984472900628,-0.5153334949091076
1684200993760985000,7.349985107421875,-0.9041830287612974,-1.0290630617529153,-0.010470248349010943
1684200993771010000,7.360010009765625,-1.7700339887797831,-1.346601655715704,0.62881009035483
1684200993781035300,7.37003515625,-1.8982032725751399,-1.558598392754793,1.191854161596298
1684200993791059200,7.38005908203125,-1.2173393159866333,-1.558833370554447,1.6383412070333956
1684200993801084200,7.390084228515625,-0.6540320637643336,-1.3709686197310684,2.106949191124737
1684200993811109400,7.400109375,-0.754116093673557,-0.962896937406063,2.5286434483498335
1684200993821134300,7.41013427734375,-1.3893115011513233,-0.532476060628891,2.6884587472528216
1684200993831158300,7.420158203125,-1.8645907797001302,-0.0560837062716484,2.284836591682583
1684200993841183200,7.430183349609375,-1.9581623589754102,0.2809510307997465,1.101238217256218
1684200993851208200,7.440208251953125,-1.8510593902148305,0.40946401346623895,0.02385433831810951
1684200993861232400,7.450232421875,-1.4201054294742643,0.9532102406501769,-0.7271689039066433
1684200993871257300,7.46025732421875,-1.25018827714324,1.3781933102875947,-1.2592917671836912
1684200993881282300,7.4702822265625,-1.6046049416482449,1.409347742486,-1.6778759295642376
1684200993891307300,7.480307373046875,-2.0925264057576656,1.3433575592279434,-1.906075028863549
1684200993901332200,7.490332275390625,-2.256081475710869,1.337466747623682,-2.298578116787225
1684200993911357200,7.500357177734375,-1.800555383771658,1.471687586542964,-2.9387358228474856
1684200993921382100,7.510382080078125,-0.9862604234673082,1.4854039772063492,-3.437558035677671
1684200993931407000,7.520406982421875,-0.4299687490954995,1.2199994751065968,-3.619674598237872
1684200993941431000,7.53043115234375,0.1381527715407312,0.8118477132827043,-3.237451058396697
1684200993951456000,7.5404560546875,0.9533198385044932,0.5902203935891389,-2.196001685540378
1684200993961481200,7.550481201171875,1.3125425881169737,0.11480886696279048,-1.2718258161947131
1684200993971506200,7.560506103515625,1.5185329243481158,-0.34455694926977154,0.38513328980803485
1684200993981530000,7.570530029296875,1.0752454056046903,-0.6621545799434184,2.2770907998614014
1684200993991555300,7.580555419921875,0.6302981369554996,-1.825154402977228,3.5625925285786386
1684200994001580300,7.590580322265625,-0.28489596903324127,-3.2009435747325417,3.56473538582623
1684200994011605000,7.60060498046875,-0.8067851691961287,-3.66676952688992,2.1765761234499514
1684200994021629200,7.610629150390625,-0.16119243247509002,-3.3754736276865005,0.9441805464982986
1684200994031654100,7.620654052734375,0.4637476845785975,-3.3541526072382926,1.410758632197231
1684200994041679000,7.63067919921875,0.6533690698109567,-3.439673420396447,2.6885020018726586
1684200994051704000,7.6407041015625,0.5276280360758304,-2.6505302908748387,4.053393347516655
1684200994061728300,7.650728271484375,-0.028794717329740524,-1.4264800790727137,4.618263903532922
1684200994071753000,7.6607529296875,-0.6351521528579295,0.18618717299997806,4.358353030413389
1684200994081778200,7.670778076171875,-0.5806653603889048,1.801329290753603,3.844780699957907
1684200994091803100,7.68080322265625,0.4842318158112466,3.040429772171378,2.5404355929523703
1684200994101827000,7.6908271484375,1.7029950271211562,4.3236201552063225,1.496649447711557
1684200994111852300,7.700852294921875,2.2825695235334336,5.319327475324273,0.8488632925994694
1684200994121877200,7.710877197265625,2.4637395990237594,5.073122179213166,0.41163960393965243
1684200994131901000,7.72090087890625,1.953558372311294,4.142691341125965,-0.20616057823151349
1684200994141926100,7.730926025390625,0.437496806512773,3.348074164107442,-1.21049134978801
1684200994151951000,7.740951171875,-1.0829064417518675,2.7254648280888794,-2.3259629673190414
1684200994161976000,7.75097607421875,-1.742227113443613,2.125795638152957,-3.169990218064189
1684200994172000300,7.761000244140625,-1.659673771788925,1.4737708225578068,-3.6659272308468815
1684200994182025200,7.771025146484375,-1.4859746167011558,0.8451602002978325,-3.5723896999716755
1684200994192050200,7.78105029296875,-1.2905075741805137,0.0030804303586483,-2.80580794634819
1684200994202075000,7.791074951171875,-1.2042718907512724,-0.5869768816232681,-1.1262139608196913
1684200994212099000,7.80109912109375,-0.7180819266095757,-0.8967647153288125,0.47854850947782396
1684200994222124000,7.8111240234375,-0.11416910775452851,-1.2076163788735865,1.5218321120239793
1684200994232149200,7.821149169921875,0.44291079438552255,-1.431263221696019,2.1416234680123627
1684200994242174200,7.83117431640625,0.7332089147232472,-1.791526274141669,2.2383311533562837
1684200994252198100,7.8411982421875,0.7582077469013631,-1.7295839049696922,2.36817976854071
1684200994262223000,7.85122314453125,0.5705636530913413,-1.4667852014541625,1.9791427492924034
1684200994272248000,7.861248046875,0.4149601266644895,-0.9267962809771298,1.3529429875664412
1684200994282273000,7.87127294921875,0.1528840383350849,-0.38656887556910513,0.6155037417970597
1684200994292297200,7.881297119140625,-0.1426199070174247,0.07756196310818195,-0.17435834964886307
1684200994302322200,7.891322265625,-0.27638306529708206,0.48185821854770183,-0.6450463548846542
1684200994312347100,7.90134716796875,-0.586807370275259,0.9015870209187269,-1.1286577007099985
1684200994322371000,7.91137109375,-0.49938401143141087,0.8964759615153074,-1.1404466304421423
1684200994332396000,7.92139599609375,-0.8052455385386943,1.3459808934688566,-1.4569306007854639
1684200994342421000,7.9314208984375,-0.804865599310398,1.6026730968028307,-1.392524471848458
1684200994352446000,7.941446044921875,-0.6313947000205516,1.5658055476546286,-0.7048962818220257
1684200994362470100,7.95147021484375,-0.3015408143639564,1.2892822701692581,0.2638207400396466
1684200994372495000,7.9614951171875,0.11993106881473213,0.8654922097086906,1.0994484112299978
1684200994382520300,7.971520263671875,0.5320283168613911,0.34240123254060745,1.5735465171702205
1684200994392544000,7.9815439453125,0.8858873474836348,-0.2651227625489235,1.9884306559890508
1684200994402569000,7.99156884765625,1.149376955872774,-0.6842904239058494,2.308907641491294
1684200994412594200,8.00159423828125,1.354104578691721,-0.6053758771449327,2.39169742225036
1684200994422619100,8.011619140625,1.252974108469486,-0.49529929940104483,2.0799337584272024
1684200994432643000,8.02164306640625,1.0094470916569231,-0.31772154931426044,1.699031530317664
1684200994442668300,8.031668212890626,0.9387631976246833,-0.12619126172065734,1.0222324850805102
1684200994452693200,8.041693359375,1.0773819792419672,0.06181026722490787,0.2955814675681293
1684200994462718000,8.051718017578125,1.3915876293897629,0.24015841716229913,-0.18099851831570266
1684200994472742100,8.0617421875,1.6235662472277879,0.342211847448349,-0.1304594405591488
1684200994482767000,8.07176708984375,1.7822534188836812,0.5812322004914283,-0.019789573097229004
1684200994492792000,8.0817919921875,1.5105752433419226,0.8507663497418164,-0.14447685999572277
1684200994502817300,8.0918173828125,1.1565397601742298,0.8005360456734896,-0.5486167558297514
1684200994512841200,8.10184130859375,1.0731986291427165,0.6036603053987026,-1.4772645098924635
1684200994522866000,8.111865966796875,1.15917588083148,0.42569560182094573,-2.2849825760245324
1684200994532891100,8.12189111328125,1.1518669460576028,0.26150048039853574,-3.058020081658661
1684200994542916000,8.131916015625,1.2949953871190547,-0.06992927627265452,-3.5843203762620686
1684200994552940000,8.14193994140625,1.4116092576771975,-0.3611719839841127,-3.8308445290639996
1684200994562965200,8.15196533203125,1.3270529056370257,-0.26127719303667546,-3.864769887280464
1684200994572990200,8.161990234375,1.199058978408575,-0.02581424021422863,-3.5748686573058364
1684200994583015200,8.17201513671875,1.1535381672054528,0.16815993340015412,-3.125813514946401
1684200994593039000,8.1820390625,1.0313817139588295,0.17268354830443858,-2.5834417909860607
1684200994603064000,8.19206396484375,0.6853460704386234,0.1507324132591486,-2.1288044645801185
1684200994613089000,8.202089111328124,0.3241565507978201,0.06555354540646076,-1.659530710056424
1684200994623113200,8.21211328125,0.06591185732483863,-0.32443945939242835,-1.2899150151148437
1684200994633138200,8.22213818359375,-0.20034429316818714,-0.7297241413474083,-1.020119292318821
1684200994643163100,8.2321630859375,-0.3210183989025652,-1.0668693530559539,-0.7667164859190583
1684200994653188400,8.242188232421874,-0.19961203337088226,-1.3085007653802632,-0.49350510946065185
1684200994663212000,8.2522119140625,-0.08232757007479667,-1.4313514845013617,-0.17750731519907711
1684200994673237000,8.262237060546875,0.10725107199437915,-1.5278326676130294,-0.12602262715548276
1684200994683262200,8.27226220703125,0.17821487894654273,-1.4749895506978035,-0.19150456863045692
1684200994693287200,8.282287109375,0.20286182894706725,-1.1983984686732292,-0.21563597032427786
1684200994703311000,8.29231103515625,-0.02097439896762371,-0.8498743693381547,-0.2567234752550721
1684200994713336300,8.30233642578125,-0.3710486503541469,-0.6299760653942823,-0.21150690769553182
1684200994723361000,8.312361083984374,-0.5493657475661486,-0.5579769971102476,-0.0624058950304985
1684200994733386000,8.322385986328126,-0.5733236193239688,-0.5611942055910826,0.00101911391466856
1684200994743410200,8.33241015625,-0.4823943712510168,-0.7778624415725469,0.008158756536245346
1684200994753435100,8.34243505859375,-0.32516894271075725,-1.1188906321942806,0.06698182464390992
1684200994763460000,8.352460205078126,-0.14510069098249076,-1.5084049135655164,0.18174597568213938
1684200994773485000,8.362485107421875,0.004909253221005201,-1.8528823678582906,0.4362792474165559
1684200994783509000,8.372509033203125,0.12516725243516266,-1.966066848489642,0.8227633673116564
1684200994793534000,8.382533935546874,0.5569662856977433,-1.9480214887112377,1.3733987694874406
1684200994803559200,8.39255908203125,1.197190261927247,-1.9800258157372475,1.904652302584052
1684200994813584100,8.402584228515625,1.6733049683868884,-1.9058903199464081,2.2760002281457186
1684200994823608000,8.412608154296874,2.118460619089752,-1.7190566657364368,2.388393266138434
1684200994833633300,8.42263330078125,2.293810025602579,-1.6325760676354168,2.3555410901114344
1684200994843658200,8.432658203125,2.120416283202171,-1.5507424185574055,2.443775546142459
1684200994853683200,8.44268310546875,1.795396393573284,-1.6318956841558216,2.6029958017617463
1684200994863707100,8.45270703125,1.3758406096816063,-1.9229677114754915,2.796690573912859
1684200994873732000,8.462732177734376,1.1158090327918528,-2.322558565703034,3.0453242662146685
1684200994883757000,8.472757080078125,0.8741817121207713,-2.6916689414709807,3.074738284486532
1684200994893782000,8.482781982421875,0.5867676227867603,-2.9800778870612383,2.865756803615391
1684200994903806200,8.49280615234375,0.8148270213544369,-3.34787191953361,2.7028783177495
1684200994913831200,8.5028310546875,1.2948387352526187,-3.1891625360459086,1.728981847423315
1684200994923856400,8.5128564453125,1.1727262672781944,-1.8798077841848133,-0.14638853883594274
1684200994933881300,8.52288134765625,0.21846617051521314,0.628551585549116,-1.4151255952350794
1684200994943905000,8.532905029296876,-0.6878852335274219,2.7663106332182883,-1.718984331152588
1684200994953930200,8.54293017578125,-2.106951236951351,2.773081150266528,-2.25363101381883
1684200994963955200,8.552955078125,-3.680335695427656,1.808630553677678,-3.0818282427474855
1684200994973979100,8.562979248046876,-5.122367563897371,2.506271457543969,-4.533033013232052
1684200994984004400,8.57300439453125,-6.032981356358528,4.039026968511939,-4.697821424372494
1684200994994029000,8.583029052734375,-4.989387664949894,4.744070257589221,-3.360365490403771
1684200995004054000,8.593053955078124,-1.257315937066078,5.103474062857032,-0.6299477160826326
1684200995014078200,8.603078125,2.2080349454224106,5.496539899230003,1.512836027880758
1684200995024103200,8.613103271484375,3.6919670965105293,6.062468732127547,1.9243848847970366
1684200995034128100,8.623128173828125,3.338204512000084,5.6675955540716645,1.5290646936260164
1684200995044153000,8.633153076171874,3.186060478377342,3.0480192043870686,0.5121196474291384
1684200995054177000,8.643177001953125,3.235802122145891,0.5422101036578416,-0.49830184221789237
1684200995064202000,8.653201904296875,2.0041127937674523,-1.0686299329876898,-1.5128431882739066
1684200995074227200,8.663227294921874,1.0142156212329865,-2.030650087559223,-2.0603905613064764
1684200995084252200,8.673252197265626,0.6903998466968536,-2.21547824716568,-1.6628177689030765
1684200995094276000,8.683276123046875,0.451713840174675,-1.6736118423789739,-0.9188833158954978
1684200995104301300,8.69330126953125,0.16859364864230156,-0.741746587574482,-0.7786889555245637
1684200995114326300,8.703326171875,-0.3547463348507881,-0.1289344229489565,-1.5114353673025964
1684200995124351200,8.713351318359376,-0.8474339904487133,0.022532734325528145,-2.1985506393708287
1684200995134375200,8.723375244140625,-0.9852046308040618,-0.11537819128334521,-2.191604327364266
1684200995144400100,8.733400146484374,-1.1205191101789473,-0.276895617929101,-1.3664461738705633
1684200995154425000,8.743425048828126,-1.1638707606494425,-0.6171358730435371,-0.5576005650132895
1684200995164450000,8.753449951171875,-1.1166729561448097,-0.7712637739598751,0.25468437064290045
1684200995174474200,8.76347412109375,-0.8100584917783736,-0.6796463974922895,0.5932796350292862
1684200995184499200,8.773499267578124,-0.401321002488397,-0.5714174934417009,0.5814516884610057
1684200995194524200,8.783524169921876,0.20253098955750465,-0.3625964638292789,0.598256692789495
1684200995204548000,8.793548095703125,0.7130559151411056,-0.03871463831961155,0.4040981025189161
1684200995214573000,8.803572998046874,0.7419371417105197,0.38170214631557464,-0.12071575291901826
1684200995224598300,8.813598388671876,0.18969952850248664,1.2567220628261566,-0.5246782463595271
1684200995234623200,8.823623291015625,-0.6650549044948071,2.0387977381795643,-0.7337202252462506
1684200995244647200,8.833647216796875,-0.9930711263954639,2.4196049814820286,-1.0309668495476245
1684200995254672100,8.843672119140624,-0.7569803970634937,2.50692203040719,-1.5097257869057357
1684200995264697000,8.853697021484376,-0.21833065276835112,2.126065102744102,-1.933943132867664
1684200995274722000,8.86372216796875,0.5348281767129898,1.249779696342349,-2.1605542323231695
1684200995284746200,8.873746337890625,1.4371709844350813,0.17548165459036827,-2.226260922464728
1684200995294771200,8.883771240234376,2.238884841716289,-0.6688666448026895,-2.1455438563264906
1684200995304796200,8.893796142578125,2.415366028738022,-1.291335695567727,-2.15043528162986
1684200995314821000,8.903821044921875,2.3527824390530583,-1.64859079836905,-2.021692874121666
1684200995324845000,8.913844970703124,2.2818226506888863,-1.6380816793143749,-1.6778721301719546
1684200995334870000,8.9238701171875,2.1775018599927423,-1.314652273747325,-1.5655468967184423
1684200995344895200,8.933895263671875,1.8277062794171273,-1.0872943014472722,-1.2222101368933915
1684200995354920200,8.943920166015625,0.9874970525901764,-0.6713076082140207,-0.4476357770808041
1684200995364944100,8.953944091796876,0.1826958968181163,-0.30974165647625923,0.29497371093332764
1684200995374969300,8.96396923828125,-0.4289384561996907,-0.10980126793384551,0.7455432033784687
1684200995384994300,8.973994384765625,-0.7660462585072964,0.15993746397793293,0.8081031199268996
1684200995395019000,8.98401904296875,-0.6896843919038772,0.1869219170153141,0.8948049595631659
1684200995405043200,8.994043212890626,-0.3631903380692005,0.04560556687712669,0.955895826472342
1684200995415068200,9.004068115234375,-0.07527480201907455,-0.04854921911358833,0.7843054802320897
1684200995425093000,9.014093017578125,0.17222579459957776,0.11464052465856074,0.5029806476838886
1684200995435118000,9.0241181640625,0.2170937679171562,0.1499824716746807,0.49891208307072515
1684200995445142300,9.034142333984375,0.5124444954693317,0.07021744556427001,0.3201955382123589
1684200995455167000,9.0441669921875,0.7332534845173359,0.01038636945784092,0.27698051973357796
1684200995465192200,9.054192138671874,0.6335001478672028,-0.07724982841908931,0.29576310774534936
1684200995475216100,9.064216064453126,0.43021877833381295,-0.16080489446222782,0.3540023846156895
1684200995485241000,9.074240966796875,0.2738755394555628,-0.22936638951301574,0.4239679012455046
1684200995495266300,9.084266357421875,0.20069091464877128,-0.3836842600435018,0.14577172211185097
1684200995505291300,9.094291259765624,0.26921675386428834,-0.3205640792638063,-0.2481605218321085
1684200995515315000,9.10431494140625,0.16145912058725953,-0.2676063960582018,-0.5024487327642738
1684200995525340200,9.114340087890625,-0.15870821444392202,-0.1951210055619478,-0.8126905938476323
1684200995535365000,9.124365234375,-0.27421675410866736,0.04381809893846512,-1.0487363149940967
1684200995545390000,9.13439013671875,-0.03595496434792876,0.2616413501739502,-1.0853089728489518
1684200995555414300,9.144414306640625,0.4431073398709297,0.34586861639022826,-1.018784682714194
1684200995565439200,9.154439208984375,0.8658359085798263,0.3191395994186401,-0.9086500911727547
1684200995575464200,9.164464111328124,1.1648422360301016,0.22960487444400787,-0.7271589670345187
1684200995585489200,9.1744892578125,1.2681927203893661,0.03354103507399559,-0.4169314267374575
1684200995595513000,9.18451318359375,0.9815080413084477,-0.12555471738278864,0.126174164455384
1684200995605538000,9.1945380859375,0.7467594473004341,-0.22128245177865027,0.7440431740790605
1684200995615563300,9.204563232421876,0.6927507937371731,-0.4593202235251665,1.167900454556942
1684200995625588200,9.214588134765625,0.5127357335008681,-0.6638420946389436,1.433263893993944
1684200995635612200,9.224612060546875,0.17471468880586324,-0.7008411612123251,1.562782546571642
1684200995645637400,9.234637451171874,-0.16843115155696867,-0.5566553931176662,1.5724994923353195
1684200995655662000,9.244662109375,-0.4082315490618348,-0.25004852753579615,1.379732502553612
1684200995665687000,9.25468701171875,-0.6006535247981548,0.0606195961356163,1.051792487694323
1684200995675711200,9.264711181640624,-0.8769945045191794,0.373359265384078,0.6365704952232539
1684200995685736200,9.274736083984376,-1.0847114453472197,0.6413958695530891,0.2648183727748692
1684200995695761200,9.28476123046875,-1.205493395370245,0.7065607079029083,0.023465777391940355
1684200995705785300,9.294785400390625,-1.2600785336472093,0.5715472573012114,-0.03504413311332464
1684200995715810000,9.30481005859375,-1.1670168766554445,0.34022096589207645,0.1298094522178173
1684200995725835000,9.3148349609375,-0.9852035348255187,-0.04006429936289787,0.39094387578293677
1684200995735860200,9.324860107421875,-0.7860393913526088,-0.4497194514870643,0.5857308270849287
1684200995745884200,9.33488427734375,-0.7322926766611635,-0.8053922535330057,0.6229546423248946
1684200995755909000,9.3449091796875,-0.7393044551193714,-0.9980687885522842,0.5763637176722288
1684200995765934300,9.354934326171875,-0.7885774584628641,-0.9884610022515058,0.49929728299602866
1684200995775959300,9.364959228515625,-0.9820797767817974,-0.7500836232870817,0.3655639353327453
1684200995785983000,9.37498291015625,-1.111025305646658,-0.42814591758251186,0.1885078710325062
1684200995796008200,9.38500830078125,-1.0900810095563531,-0.14604688579142092,0.03586553249880671
1684200995806033200,9.395033203125,-1.0954947051681578,0.04080079694390297,-0.13228884794339538
1684200995816058000,9.40505810546875,-1.2156148302815855,0.15085691642165183,-0.25733137802034617
1684200995826082300,9.415082275390626,-1.3005541902899742,0.18981003967225551,-0.3618975217796862
1684200995836107300,9.425107177734375,-1.3605154686473309,0.17250643817186354,-0.45388826160430906
1684200995846132200,9.43513232421875,-1.3492552389644086,0.08084113090932368,-0.5146490197762846
1684200995856157200,9.4451572265625,-1.3711293632507324,-0.13157704641222953,-0.379737568244338
1684200995866181000,9.45518115234375,-1.4051260331377387,-0.3691957159638405,-0.027793285202234983
1684200995876206000,9.4652060546875,-1.5018506696164606,-0.5044546657592058,0.2919287902794778
1684200995886231300,9.475231201171875,-1.4473298287473617,-0.29156185666322704,0.27608400928527116
1684200995896256300,9.48525634765625,-1.2937981401585041,0.2135293534338474,0.1867510904930532
1684200995906280000,9.495280029296875,-1.2138378837369381,0.31784371438920495,-0.0717848410114646
1684200995916305200,9.50530517578125,-1.169975361134857,-0.019046645775437354,-0.48018385559469456
1684200995926330000,9.515330078125,-0.9865630596756935,-0.17758476434946058,-0.5957889875017106
1684200995936355000,9.52535498046875,-1.0800636195413769,-0.18044599899947641,-0.3138658237341791
1684200995946379000,9.53537890625,-1.337650433627516,-0.1523445246309042,0.02355425939299166
1684200995956404000,9.545404052734375,-1.3808350569680332,0.1836404111266136,0.37115751755610105
1684200995966429000,9.555428955078124,-1.431313052187115,0.5416922172635793,0.7109639843631536
1684200995976453000,9.565453125,-1.7180384286046027,0.6279933671444654,0.8738309989869594
1684200995986478000,9.57547802734375,-2.0028340060032903,0.579617751032114,0.8697987477961927
1684200995996503000,9.5855029296875,-2.165955068453401,0.5287614240199328,0.8382746055025607
1684200996006528300,9.5955283203125,-2.1267707667954263,0.4974216983824968,0.8550775640044361
1684200996016552000,9.605552001953125,-1.8131237734436987,0.44218087267577644,0.9987019718892872
1684200996026577000,9.615576904296875,-1.4929821573756634,0.4068003472149372,1.2666013595446943
1684200996036602000,9.62560205078125,-1.5189629863284528,0.45297699197828767,1.4868793104559181
1684200996046627000,9.635626953125,-1.459794319653511,0.5963292318582535,1.667957908270508
1684200996056651000,9.645651123046875,-0.8804406263850629,0.8459048811852932,2.01753487765938
1684200996066676200,9.65567626953125,0.08953355593085288,1.261001347580552,2.551454707355797
1684200996076701000,9.665700927734376,1.086871399860084,1.7575725666135549,3.1177742931365966
1684200996086726000,9.675725830078125,1.8719430421590804,2.320296465989947,3.34283684797585
1684200996096750000,9.68575,1.933501234319061,2.849936426410079,3.1294802207604047
1684200996106775000,9.695775146484374,1.3217078913472593,3.1000211943030354,2.4608991149008275
1684200996116800000,9.705800048828126,0.5127287192381919,2.7396254553884267,1.5744522338382898
1684200996126825200,9.7158251953125,-0.10461889685988425,2.013792476260662,0.49411564257442947
1684200996136849000,9.725848876953124,-0.7405494867444038,1.218386194691062,-0.5273465887859463
1684200996146873900,9.735873779296876,-1.2264625336408614,0.24264205067157743,-1.501561039020121
1684200996156899000,9.745899169921875,-1.2299511064089834,-0.46151685678660864,-2.2444581118039784
1684200996166923000,9.755923095703125,-0.9040789107996969,-0.8466682667732238,-2.5575655914515254
1684200996176948000,9.765947998046874,-0.29613289090581235,-1.1653344034612179,-2.052753344426304
1684200996186973200,9.77597314453125,0.15376425523571668,-1.117422313207388,-1.212186755529046
1684200996196998100,9.785998046875,0.28650570578482,-0.9234154063671827,-0.1327406833641231
1684200996207021800,9.796021728515624,0.3738169094910845,-0.7828747167766094,0.9963559932850301
1684200996217047000,9.806047119140626,0.10502455505132674,-0.640260143521428,1.9755571458905934
1684200996227072000,9.816072021484375,-0.15344868648052215,-0.5502560474693775,2.5978493787840007
1684200996237097000,9.826096923828125,0.11200959163308143,-0.3772977738767862,2.8315350928008556
1684200996247121200,9.83612109375,0.23561553130196405,0.07973638453781605,2.6581214766561985
1684200996257146000,9.84614599609375,0.2602980823388323,0.4739198267638683,2.1750911455892026
1684200996267171000,9.856171142578125,0.876399972692132,0.6383908425182103,1.708236434905976
1684200996277196000,9.866196044921875,1.8573662352740763,0.5165794033169746,1.6322491737686096
1684200996287220000,9.876219970703126,2.759469973543286,0.42054537945091724,1.3839346304185687
1684200996297245000,9.886244873046875,3.6189895385831594,0.21377426810562608,1.240855800652504
1684200996307270100,9.896270263671875,3.7547389022439717,-0.22495032663643358,1.4350336801454424
1684200996317295000,9.906295166015624,2.9347914691358805,-0.3993967929601669,0.9177513892561197
1684200996327319000,9.916319091796876,2.03442317635715,-0.3389215737313032,0.5940536881417036
1684200996337344000,9.926343994140625,1.7525560536257923,-0.3297673764169216,0.36505087124407287
1684200996347369000,9.936368896484375,1.0987433317005633,-0.22917349728941916,-0.6181564482629299
1684200996357394000,9.946393798828124,0.5793184758245945,-0.1570101783543825,-1.2877245193332434
1684200996367418000,9.956418212890625,0.14097308965846894,0.07728139260113238,-1.6829954645350576
1684200996377443000,9.966443115234375,-0.19776888972222803,0.7969096718698739,-2.485133392447233
1684200996387468000,9.976468017578124,0.21485395310111344,1.5070745417445897,-3.080933339734375
1684200996397493200,9.9864931640625,1.1886861990846693,2.001540897452831,-3.3108003722459074
1684200996407517000,9.996516845703125,2.1698533910661935,2.389686228558421,-3.3525843350082636
1684200996417542000,10.0065419921875,2.715200623705983,2.690561857011914,-2.911430467292666
1684200996427567000,10.016567138671874,2.4296939754284916,2.795551925271749,-1.7148197588190435
1684200996437591000,10.026591064453125,1.3496956762082875,2.757247621318698,-0.9694421212658285
1684200996447616000,10.036615966796875,0.2950457532562315,2.469330843159556,-1.0317477707922458
1684200996457641200,10.04664111328125,0.3278051364332437,1.801812105834484,-1.7506763773590326
1684200996467666200,10.056666259765626,0.7299778238475322,1.0472095438182354,-2.6436454997971652
1684200996477689900,10.06668994140625,1.2554663636766374,0.5250637385457754,-3.177710875444114
1684200996487715000,10.076715087890625,1.6554573231376706,0.33888065719902516,-3.3858483067065475
1684200996497740000,10.086739990234374,1.7610127701953053,0.17220014870166778,-3.302643661536276
1684200996507765000,10.096764892578125,1.6874441145069896,-0.024488544568419455,-3.1344965876176953
1684200996517789200,10.1067890625,1.470474265230447,-0.13824761021733284,-2.998307955756783
1684200996527814100,10.116814208984374,1.2539299478895962,-0.373232424134016,-2.9418463560834525
1684200996537838800,10.1268388671875,1.121739591884613,-0.5835235262989997,-2.8594845914781093
1684200996547864000,10.136864013671875,1.0789939444832504,-0.7689467291891574,-2.6940800942659378
1684200996557888000,10.146887939453125,1.0396014069020747,-0.9743740247100591,-2.5167282618895173
1684200996567913000,10.156912841796874,0.9332325976349413,-0.9504904602974653,-2.4115689745426176
1684200996577938200,10.166938232421876,0.8931804271012544,-0.9207675222069025,-2.565214937160909
1684200996587963100,10.176963134765625,0.8006587952703237,-0.9837696295648812,-2.9181267500609156
1684200996597986800,10.18698681640625,0.5999509294867515,-1.019939844098687,-3.108748398377001
1684200996608012000,10.197011962890626,0.3249263661265373,-1.2479366988241671,-3.426247829373181
1684200996618037000,10.207037109375,0.11528057612776756,-1.1064216112434864,-3.670757427482307
1684200996628062000,10.21706201171875,0.04375745479241013,-0.7191635843664407,-3.561083877581358
1684200996638086100,10.227086181640624,-0.0514120611988008,-0.5432756870627403,-3.265432998038828
1684200996648111000,10.237111083984376,-0.20742460681796074,-0.36200726576447484,-2.835258497238159
1684200996658136000,10.247135986328125,-0.46232057438492774,-0.05456394935846329,-2.2477599298283457
1684200996668161300,10.257161376953125,-0.8847389081008732,0.25705109977424145,-1.7793620813563464
1684200996678185000,10.26718505859375,-1.3255216044165192,0.30578385876119135,-1.1542153358146547
1684200996688210000,10.2772099609375,-1.4202771327793597,0.5013631294846534,-0.3180035811260342
1684200996698235100,10.287235107421875,-1.4599574012607335,1.3376105400085447,0.6463830103158951
1684200996708259000,10.297259033203124,-1.62423377122581,1.3879291068822144,2.1723358555316925
1684200996718284000,10.307283935546875,-1.479389831483364,1.1507575965762138,3.921522286593914
1684200996728309200,10.317309326171875,-1.1711473275236786,0.7507359497159719,4.894150636680424
1684200996738334000,10.327333984375,-0.8973292173437774,-0.5412520722806453,5.658114609020948
1684200996748358000,10.33735791015625,-0.7439401520960033,-0.801342685881257,5.735356254133582
1684200996758383000,10.347383056640625,0.16531754958108066,-1.1409113253444432,5.259028781706094
1684200996768408000,10.357407958984375,1.1907980036068706,-1.6566209600895643,4.652055698497593
1684200996778433000,10.36743310546875,2.1329916871368884,-1.802899316549301,4.004994350528717
1684200996788457200,10.377457275390626,2.8801906948983667,-1.6569219888627529,3.0846734030455347
1684200996798482000,10.38748193359375,3.3344285005927086,-1.3797709348678588,1.8273375922352075
1684200996808507000,10.3975068359375,3.593216214901209,-0.9653618662148713,0.507313270060718
1684200996818532000,10.407531982421874,3.677110888162255,-0.8313578849166631,-0.2408481529921293
1684200996828556000,10.41755615234375,3.4210599053412674,-1.0994009188264608,-0.008444295479357242
1684200996838581000,10.4275810546875,2.3795640629947186,-1.2202017196804285,0.7542197001785039
1684200996848606200,10.437606201171874,0.8044131063025445,-1.4963397972404955,1.6674351995706558
1684200996858631200,10.447631103515626,-0.3869061446994543,-1.2765876237690448,2.042392255540192
1684200996868654800,10.45765478515625,-0.95859427177608,-1.555612654942274,2.1634920393407344
1684200996878680000,10.46768017578125,-0.902870046466589,-1.9401251825034618,1.5143655755355954
1684200996888705000,10.477705078125,-0.7796966712623834,-2.1250310835212467,0.5132900063827633
1684200996898730000,10.48772998046875,-0.7571312037110328,-2.306177339744568,0.14008067086338996
1684200996908754700,10.497754638671875,-0.2105413140663877,-2.583607795202732,-0.37643531182855366
1684200996918779600,10.507779541015625,0.8886024516612291,-2.1771809574753043,-1.6194751785218715
1684200996928804400,10.517804443359376,1.4469155488580465,-0.9885282222688198,-3.0219302388846874
1684200996938828500,10.52782861328125,1.1952806289136408,0.28877368724942204,-3.867212896518409
1684200996948853500,10.537853515625,0.43422377619147295,0.7107733571618795,-4.015397378860413
1684200996958878500,10.54787841796875,-0.4918272393763065,0.6029027650296688,-3.806702898237109
1684200996968903400,10.5579033203125,-1.4689409181833266,-0.07728373068869114,-3.382085739302635
1684200996978927600,10.567927734375,-2.3048855463683604,-0.8158551953583956,-3.5740421433538194
1684200996988952300,10.577952392578124,-3.4338509978532787,-0.7025935578376055,-3.3720901227280495
1684200996998977500,10.5879775390625,-4.730623331516981,0.839442991694808,-2.4233983824156224
1684200997009002500,10.59800244140625,-5.347112138828635,3.605892156600952,-0.30623394061625003
1684200997019026400,10.6080263671875,-4.174244417253137,5.0095519165784115,3.325456674107909
1684200997029051600,10.6180517578125,-1.7692314402252434,4.631451009625196,6.076379768580198
1684200997039076600,10.62807666015625,-0.05164365973128006,3.2932132776290177,6.066857906997203
1684200997049101600,10.6381015625,0.3650918608415872,1.514821210348606,4.982956755119562
1684200997059125500,10.64812548828125,0.17611878345012663,-0.4839449616938829,4.074874819223583
1684200997069150500,10.658150390625,-0.0779734665185213,-1.8219974002510309,3.830752174605429
1684200997079175400,10.668175537109375,-0.5587357065230608,-0.387357980120182,4.376213681274653
1684200997089200400,10.678200439453125,-0.25119245514022187,2.3027631473869086,5.13279484988749
1684200997099224600,10.688224609375,0.9576584522306919,2.8114748860687016,4.486503609508276
1684200997109249500,10.69824951171875,2.0018366655290127,2.3432196609377858,1.2851125832691788
1684200997119274500,10.7082744140625,2.678233705836534,2.1722072607159615,-1.5253206847921013
1684200997129299500,10.718299560546875,2.980906154578924,2.2315794871389865,-2.8786861355543136
1684200997139323400,10.728323486328126,3.3372681079328057,1.166141628190875,-2.6981831456705927
1684200997149348600,10.7383486328125,3.1957430834800005,0.29511808784008026,-2.481660163378715
1684200997159373600,10.74837353515625,1.540649479088187,0.7648112368196248,-4.133975827489793
1684200997169397500,10.7583974609375,-0.33936756393313405,0.1787690056979656,-4.519862566013634
1684200997179422500,10.76842236328125,-1.297693540161848,-0.7333487615853548,-4.344014416198432
1684200997189447400,10.778447509765625,-1.9651783752173184,-1.164470480108261,-4.621078084170818
1684200997199472400,10.788472412109375,-2.076988060364127,-0.4388666335612535,-5.573315680396557
1684200997209496600,10.79849658203125,-1.552329980009794,-0.10535422539710998,-6.104081429976224
1684200997219521500,10.808521484375,-0.9838245746225118,-0.430359501978755,-5.03031179601252
1684200997229546500,10.81854638671875,-0.534687891459465,-0.8967956949889659,-3.0996640514284373
1684200997239571500,10.828571533203124,-0.19375147077441215,-1.6794950551986694,-1.5757242996007204
1684200997249595400,10.838595458984376,0.5038812497854233,-3.413039680492878,-0.290752586106956
1684200997259620400,10.848620361328125,0.812133544486761,-3.7750527914762495,1.4980617987275122
1684200997269645600,10.8586455078125,0.8004349233865737,-0.952594739100337,3.1722438422098755
1684200997279670500,10.86867041015625,1.2905004137873648,1.3094722407609223,3.6188697115957735
1684200997289694500,10.878694580078125,2.448558688765764,0.8172334979742765,2.988673865970969
1684200997299719700,10.8887197265625,3.3939445194005966,1.2462860090076924,2.551035312899947
1684200997309744600,10.89874462890625,3.470470125198364,2.1374545117646453,1.750376371499151
1684200997319769300,10.908769287109376,2.469275313580036,2.5626328117132187,0.5086787131950259
1684200997329793500,10.91879345703125,0.7502572262883186,2.649894915580749,-0.8304130052819848
1684200997339818500,10.928818603515625,-0.7108943531930446,1.9557032753854988,-1.626940107575059
1684200997349843500,10.938843505859374,-1.4646072728931903,1.2009662733346222,-1.8419798655718564
1684200997359867600,10.94886767578125,-1.4345722001135348,1.2260416778802872,-2.084653480425477
1684200997369892600,10.958892578125,-1.0694938563406466,1.3084125025749205,-2.207089189004898
1684200997379917300,10.968917236328124,-0.6713315736114979,1.0362146870732307,-1.895152068310976
1684200997389942500,10.978942626953126,-0.4248900941243395,0.4340355601429939,-1.422249894157052
1684200997399966500,10.988966552734375,-0.49107083151843395,0.414551691994071,-1.2364125575080513
1684200997409991400,10.998991455078125,-0.624331337505579,0.6208236216455698,-0.9935248615123331
1684200997420016600,11.0090166015625,-0.7451122646152972,0.9320061245799064,-0.8713423970416188
1684200997430041600,11.01904150390625,-0.4555669719388708,1.010555345159769,-0.8803744292810559
1684200997440065300,11.029065185546875,0.020194098777510223,1.0684902322560548,-0.8762085417732596
1684200997450090500,11.039090576171875,0.3187667109856382,1.394571029114723,-0.8163333342641591
1684200997460115500,11.049115478515626,0.4509119126746431,1.8440163398355245,-0.6689400022998452
1684200997470140400,11.059140380859375,0.734040250980854,2.2989339444875716,0.2513306763008237
1684200997480164600,11.06916455078125,1.1318261016130446,2.437355157706141,1.1209715301215648
1684200997490189600,11.079189453125,1.747227113687992,2.6609061389386652,0.8781205128744244
1684200997500214500,11.089214599609376,1.9575462729036808,2.298671494159102,0.6254267315268516
1684200997510239500,11.099239501953125,2.1201766292274,1.7049919000267981,-0.18309592898637056
1684200997520263400,11.109263427734374,1.9112509701967237,1.534295726147294,-0.8357435526549816
1684200997530288400,11.119288330078126,1.0353566089391708,1.191546703082323,-1.1581187729939817
1684200997540313600,11.129313720703125,0.15613281099796295,0.5808475850880146,-1.0188479572087525
1684200997550338600,11.139338623046875,-0.22729836933361364,0.20524024851620196,-0.819649619205296
1684200997560362500,11.149362548828124,-0.4543430561671033,-0.11741700363457203,-0.06101034901887178
1684200997570387700,11.1593876953125,-0.28777181673049923,-0.2532669050604105,0.7411953834325075
1684200997580412400,11.169412353515625,0.1753904509092681,-0.07653262006044387,1.2168670222997664
1684200997590437400,11.179437255859375,0.39440968872997906,0.6657756930500268,1.6101888792604206
1684200997600461600,11.189461669921876,0.2564846980631351,0.8982926555484533,1.6975626268088817
1684200997610486500,11.199486572265625,0.08967504676077515,1.1020628315120935,1.0055918775334953
1684200997620511500,11.209511474609375,-0.2503109778642654,1.1864677923828362,-0.08960019142627716
1684200997630535700,11.21953564453125,-1.3365981480956077,1.100068442824483,-1.2445765747413038
1684200997640560400,11.229560302734376,0.3177624658465385,1.1014847393631935,-2.0131834044516084
1684200997650585300,11.23958544921875,1.475288825905323,1.298127839925885,-2.5127143500730393
1684200997660610600,11.249610595703125,0.6621744536876678,0.93651278834939,-1.6727812367737291
1684200997670634500,11.259634521484376,-0.12233224820494651,0.28912673847079273,-1.683111784391105
1684200997680659500,11.269659423828125,-0.3043599634379148,-0.5046358675450087,-1.9998145120516417
1684200997690684700,11.2796845703125,-0.36581484135389325,-1.2364736400455236,-1.2799173527136445
1684200997700709600,11.289709716796875,-0.011411620852351189,-2.1584844403117893,-0.12041209379732608
1684200997710733300,11.2997333984375,0.0739174691259861,-2.0602678117096422,1.9589102547332644
1684200997720758500,11.309758544921875,1.215765783059597,-1.069334866386652,2.1091081227242947
1684200997730783500,11.319783447265625,1.511240429252386,0.3024544220775366,-0.12316606868058443
1684200997740808400,11.329808349609374,1.2192430307161062,0.1262801090478897,-2.5177681263312697
1684200997750832600,11.33983251953125,1.2762708129048346,-1.0449579654991625,-4.344010616806149
1684200997760857600,11.349857666015625,0.7838145549099892,-0.9144353965759277,-3.6531858226954936
1684200997770882600,11.359882568359374,-0.3499930028438568,0.12737316498160361,-0.41042204484343525
1684200997780907500,11.369907470703126,-0.8455348788291216,1.890785689795017,2.129144948580861
1684200997790931500,11.379931396484375,-1.0294675509005784,2.8622014492213723,2.9954484746724366
1684200997800956400,11.389956298828125,-0.7598655971109867,1.029293363377452,3.107482616224885
1684200997810981600,11.399981689453124,-0.0066213909011334175,-0.7170119592905044,0.5999602818369865
1684200997821006600,11.410006591796876,0.7203858196377754,-0.7902145581454039,-1.1968740355849266
1684200997831030500,11.420030517578125,0.882194338184595,-1.2498702972352504,-1.4744845237851143
1684200997841055500,11.430055419921874,0.9224100287169218,-1.1827192535042763,-2.072110809716582
1684200997851080400,11.44008056640625,0.992746789811924,-1.6762556348860262,-2.1517367196172477
1684200997861105400,11.45010546875,1.0499895299255848,-2.2351281195312738,-2.4016981533914805
1684200997871129600,11.460129638671875,0.9549644639063626,-2.672924493512511,-3.1508611547023055
1684200997881154600,11.470154541015624,0.8394997633833438,-3.37987566203773,-2.770563029965758
1684200997891179500,11.480179443359376,0.6319944194793701,-3.2285920446366068,-1.6368302179485559
1684200997901203500,11.490203369140625,0.4876807872213423,-2.608741651937365,-0.41371524116992947
1684200997911227600,11.5002275390625,0.3501328497059643,-2.3410510847270487,0.22131518500447273
1684200997921252600,11.510252685546876,0.3650732292063534,-2.100640154108405,0.12045359485149383
1684200997931277800,11.52027783203125,-0.06827858645617961,-0.9127034582167863,0.07956804223358631
1684200997941301800,11.5303017578125,-0.16359174870178103,-0.5737199251651763,0.20179741458594797
1684200997951326700,11.54032666015625,-0.25540092141442,-0.29594401727020736,0.2614016961991787
1684200997961352000,11.55035205078125,-0.26453254157081246,-0.02883621838390827,0.054074704536795616
1684200997971377000,11.560376953125,-0.1564275561608374,0.17982523675262926,0.0771112967312336
1684200997981400800,11.57040087890625,0.03217807615771889,0.22903438107967375,0.11805062536299228
1684200997991425800,11.58042578125,0.19260580787062645,0.304314955252409,0.04944295308291912
1684200998001450800,11.59045068359375,0.11361235065460204,0.4877753336369991,0.011568272718787192
1684200998011475700,11.600475830078125,0.17081307825744152,0.5114671748697758,-0.13919336663484572
1684200998021500000,11.6105,0.16281448071897028,0.47972471365034575,0.00005552957952022552
1684200998031524900,11.62052490234375,0.08791106929555535,0.3725269062131643,0.17250176199674605
1684200998041549600,11.630549560546875,-0.026947774288803336,0.16390402952134608,0.21454232986867428
1684200998051574800,11.64057470703125,-0.07256269351616501,0.04594692766070366,0.13717033637464046
1684200998061598700,11.6505986328125,-0.1227250469148159,-0.0672854837656021,0.03445405826568603
1684200998071623700,11.660623779296875,-0.17182020947337148,-0.11613514713048934,-0.07106266421675682
1684200998081649000,11.67064892578125,-0.2041880360495299,-0.14946692336797712,-0.10691548336446284
1684200998091673900,11.680673828125,-0.12697444798760116,-0.15227321296036242,-0.09820493816435337
1684200998101697800,11.69069775390625,0.0010322656571865082,-0.23521219293177126,-0.2624666950821876
1684200998111722800,11.70072265625,-0.0025139555823057887,-0.15519874501824377,-0.18877835853695868
1684200998121747700,11.710747802734375,0.0018332067765295505,-0.09809504804909229,-0.1081593459457159
1684200998131772000,11.72077197265625,0.004838233811408281,-0.1656470737963915,-0.044971360626816746
1684200998141796900,11.730796875,-0.015568667466565966,-0.1574503233373165,-0.014047814574837683
1684200998151821800,11.74082177734375,-0.021045053051039576,-0.09194470872581005,-0.0889449423879385
1684200998161846800,11.7508466796875,0.029899317570775744,-0.04766308392882347,-0.06231529413759708
1684200998171870700,11.76087060546875,0.02803703083023429,0.01227203707396984,-0.05412906507253647
1684200998181895700,11.770895751953125,0.049012014319747686,0.04386719877719879,-0.060543023768067354
1684200998191920600,11.780920654296875,0.1286402623079717,0.10189444033205508,-0.039299744731187816
1684200998201945900,11.79094580078125,0.17544431825466453,0.11736615023016929,0.009297989699244499
1684200998211969800,11.8009697265625,0.15235219648070633,0.05754559551775455,0.06152794315218925
1684200998221994800,11.810994873046875,0.12757540955543517,-0.015317980641126631,0.118785953900218
1684200998232020000,11.82102001953125,0.08225742744803428,-0.08701777371764183,0.14622633401155471
1684200998242044700,11.831044677734376,0.047817251577228305,-0.11268588345944881,0.11979483868181705
1684200998252068900,11.84106884765625,0.09592530279457569,-0.041752983102202414,0.05003799636662006
1684200998262093800,11.85109375,0.09287826324887573,-0.010558218893408775,-0.054171735170483584
1684200998272118800,11.861118896484374,0.051319925935938954,0.0003898761004209518,-0.12179273450076579
1684200998282143700,11.871143798828125,0.010243015464395284,-0.004744564178586006,-0.12166472420692444
1684200998292168000,11.88116796875,0.019413214065507053,-0.04632686688899994,-0.09803133516311645
1684200998302192600,11.891192626953124,0.07410758487060666,-0.08073533244729042,-0.07698270191550255
1684200998312217600,11.901217529296876,0.07772036854028701,-0.1464315011948347,0.008648585879802703
1684200998322242800,11.911242919921875,0.14006729992516337,-0.18190847276747227,0.138409522780776
1684200998332266800,11.921266845703125,0.188614546277374,-0.12307634457051753,0.1476473067253828
1684200998342291700,11.931291748046876,0.21442951714396474,-0.01769698473215103,0.09557809679210186
1684200998352317000,11.94131689453125,0.26099413831159474,0.07309212421774863,0.05907119764983654
1684200998362340600,11.951340576171875,0.1657762531340122,0.07970482035577296,0.09073357937037944
1684200998372365800,11.96136572265625,-0.02953954434767365,0.12736556619703768,0.04325988053381443
1684200998382390800,11.971390869140626,-0.032222353690862654,0.22292671185433863,-0.12555530190467834
1684200998392415700,11.981415771484375,0.0692992347408086,0.15960720911026,-0.3287602452009916
1684200998402440000,11.99143994140625,0.07738492604084313,0.1230079555094242,-0.18944237540364264
1684200998412465000,12.00146484375,0.07619710449576378,0.1290560035020113,0.10436462983787059
1684200998422489900,12.01148974609375,0.08592340260967611,0.01650046842396259,0.12227262697219848
1684200998432514800,12.021514892578125,-0.061843584972620005,0.09128945968747139,0.2640180161774158
1684200998442538800,12.031538818359374,0.05174070863127708,0.020273557221889494,-0.15236907455027102
1684200998452563700,12.041563720703126,0.07968436208963393,-0.0234060100287199,-0.37227556180059906
1684200998462588700,12.051588623046875,0.031083705049753187,0.05572364078760147,-0.07820727527439594
1684200998472614000,12.06161376953125,0.04607793362922966,0.12944237247109414,0.08207096496522426
