time,seconds_elapsed,z,y,x
1684200878828399400,0.0303994140625,0.059850365328788756,-0.1686082616895437,0.13153612987995147
1684200878838423600,0.040423583984375,0.03095039752628654,-0.12297580680549144,0.1651718575000763
1684200878848448300,0.0504482421875,0.012102543992269784,-0.10495382790267467,0.1455032804340124
1684200878858473200,0.06047314453125,0.026303448503278194,-0.12849895414114,0.05316635752022266
1684200878868498400,0.07049853515625,0.03337327729165554,0.07746551699638367,-0.23463702339231968
1684200878878522400,0.0805224609375,0.021574721214640883,0.3210971632272005,-0.3223801887750625
1684200878888547300,0.09054736328125,0.028469741425383836,0.31869010208547116,-0.13587503586709498
1684200878898572500,0.100572509765625,0.08568447928726673,0.31554829692840575,-0.09482757068574428
1684200878908597500,0.110597412109375,0.00995499230325222,0.24178046540617942,0.02862052980661392
1684200878918621200,0.12062109375,-0.026143910560011863,0.4791033668816089,-0.0026151509344577786
1684200878928646400,0.130646484375,-0.041770537025202066,0.4963964469879865,-0.1862023705691099
1684200878938671400,0.14067138671875,-0.12606790933562442,0.1864461161971092,-0.2821925552934408
1684200878948696300,0.1506962890625,-0.12999297382486982,-0.1508674378156662,-0.3020020021349191
1684200878958720500,0.160720458984375,0.08109947131825611,-0.7009826155096293,-0.09458324053585529
1684200878968745500,0.170745361328125,0.29856207254780454,-1.2619827598333357,0.9766536600798368
1684200878978770400,0.1807705078125,-0.023438752387696875,-0.31237551211118697,0.5777502035945653
1684200878988795400,0.19079541015625,-0.34769115564227104,-0.8231786701142787,-0.4914017074406147
1684200878998819300,0.2008193359375,-0.13614683854579926,-0.9397235670894384,-0.30119477740526196
1684200879008844300,0.21084423828125,-0.02248889518380165,-0.39137072289288044,0.053797056639194485
1684200879018869500,0.220869384765625,-0.06683657095432281,0.2259171258419752,-0.020852233892679213
1684200879028894500,0.23089453125,-0.02702830131226219,0.8025240046203136,-0.08375906418263912
1684200879038918400,0.24091845703125,0.015595062283147125,0.5032628256261349,-0.9444581943958997
1684200879048943400,0.250943359375,0.10860182901620864,-0.22071780363321303,-0.3865910874009132
1684200879058968300,0.26096826171875,0.07941431297659873,-0.5426256987214089,0.027668928170204162
1684200879068993300,0.2709931640625,-0.0578419663821347,-0.4499667042464018,0.07162205166518688
1684200879079017500,0.281017578125,-0.1970820765018463,-0.24570143824219703,0.22148002017736435
1684200879089042400,0.29104248046875,-0.21720369456503538,-0.5361737461030482,0.5198924733877182
1684200879099067400,0.3010673828125,-0.1551718570113182,-1.958819361579418,0.5193862774312495
1684200879109092400,0.31109228515625,-0.18326748616099356,-3.7422009077101945,0.06325403629243373
1684200879119116300,0.3211162109375,-0.2015969601104036,-3.5164129612058397,-0.425419122967124
1684200879129141200,0.331141357421875,-0.19900285196397452,-2.811927890533209,-0.9585083470582961
1684200879139166500,0.34116650390625,-0.0352267962038517,-2.132253435990214,-1.3026035240352154
1684200879149191400,0.35119140625,0.05179097751379013,-1.6091116054177284,-1.5130875184237955
1684200879159215400,0.36121533203125,-0.09007949937582016,-2.173955565688014,-1.8448223955214023
1684200879169240600,0.371240478515625,0.10272504593729972,-2.2703116611152887,-1.8741057731509208
1684200879179265300,0.381265380859375,0.15976861021704972,-2.001833742919564,-1.988465727302432
1684200879189290200,0.391290283203125,-0.01205985562801361,-2.43058697874546,-1.8904770622372626
1684200879199315200,0.401315185546875,0.0681144088704139,-2.4582851330101487,-1.5509195286899804
1684200879209339400,0.41133935546875,-0.022580153663828966,-1.4620353765785694,-1.0561673417776822
1684200879219364400,0.4213642578125,-0.19664375814981758,-0.32773382476270196,-0.6476271651580929
1684200879229389300,0.431389404296875,-0.18537410305142402,-0.4187655102968216,-0.7256494392544031
1684200879239413200,0.441413330078125,-0.10320559599585831,-0.5271744470894336,-0.8576768597826361
1684200879249438200,0.451438232421875,0.0281633606236428,-0.8298714457511901,-0.8041945681810378
1684200879259463400,0.46146337890625,0.09539872163720428,-2.2634797692686317,-1.0431187673732638
1684200879269488400,0.47148828125,-0.04766900221295654,-3.7346360254138706,-1.29761521422863
1684200879279513300,0.481513427734375,-0.0806184280693531,-3.4918607037514446,-1.56682904548347
1684200879289537500,0.49153759765625,0.015298106896877288,-2.178611867061257,-1.6165081454098225
1684200879299562500,0.5015625,0.15378887822031975,-1.143440551561117,-1.5698007547706365
1684200879309587500,0.51158740234375,0.6578793868422508,0.8699380832016468,-1.0049047720521689
1684200879319612200,0.521612060546875,-0.1783935965143144,12.597856589543818,5.094410466435551
1684200879329636400,0.53163623046875,-0.4415864869792014,19.02683048337698,12.094695470726489
1684200879339661300,0.541661376953125,1.11134072827138,3.282740398931503,7.250148822909593
1684200879349686300,0.551686279296875,1.0860041155062614,5.366119037115573,3.9530823769837617
1684200879359711500,0.56171142578125,-0.37022104042358694,4.905657826861739,-3.222185976986587
1684200879369735400,0.5717353515625,-0.8438999711036682,2.7546260406434535,-7.328721424365043
1684200879379760400,0.581760498046875,-0.7120015837825834,1.4836650245845318,-5.664979234093427
1684200879389785300,0.591785400390625,-0.885010564649105,1.3368150057166814,-3.0556355246096847
1684200879399810300,0.601810302734375,-1.2215863059066234,0.9748141696929931,-1.9935338243469596
1684200879409834500,0.61183447265625,-1.386415779709816,0.2593687290668487,-1.2519456422045827
1684200879419859500,0.621859375,-1.4387655601501463,-0.5749433294802904,-0.41109687536507844
1684200879429884400,0.631884521484375,-1.4613080852173268,-1.4159528398394583,0.6813681067183613
1684200879439909400,0.641909423828125,-1.2257609612427651,-1.5832798295468091,1.508131649582088
1684200879449933300,0.651933349609375,-1.1328748069483787,-1.1681067907840013,0.9595233693197369
1684200879459958300,0.661958251953125,-1.1847487135052681,-0.5959300034075975,0.38054040905982256
1684200879469983200,0.671983154296875,-0.8290658284567296,-0.12846096021831035,-0.043669630378484724
1684200879480008400,0.682008544921875,-0.036580402769893404,0.506406968870759,-0.1854685033366084
1684200879490032400,0.692032470703125,0.6265257788099348,0.9550701893031597,-0.4991477915227413
1684200879500057300,0.702057373046875,1.0121709636628626,0.9542553657889365,-1.016422775888443
1684200879510082600,0.71208251953125,1.4955824030019342,0.8079039440929889,-1.2125249014422297
1684200879520107300,0.722107177734375,1.3868402887322009,0.8834335245907307,-1.3158663257122039
1684200879530131500,0.73213134765625,0.931144393184036,0.7172124502986669,-0.9083484778776765
1684200879540156400,0.742156494140625,0.7293313426375388,0.4097621196299791,-0.3962520651936531
1684200879550181400,0.752181396484375,0.8494039753474295,0.16035539712905883,-0.23117694606631992
1684200879560206300,0.762206298828125,0.9640192194342613,0.13289046709835528,-0.2697732187032699
1684200879570230500,0.77223046875,0.8618857096493243,0.1568272230029106,-0.14732991133928297
1684200879580255200,0.782255126953125,0.7502211320616304,0.11353110211193561,0.017761574400961398
1684200879590280200,0.7922802734375,0.641314036488533,-0.015407412490248679,0.21331541842222213
1684200879600305400,0.802305419921875,0.5526688076995313,-0.2859469393908977,0.40287703629136085
1684200879610329300,0.812329345703125,0.47907779404893513,-0.575166032320261,0.5549009506657719
1684200879620354300,0.822354248046875,0.3755973996996879,-0.7720587237298489,0.7007838780671358
1684200879630379500,0.832379638671875,0.3878336348079145,-0.8246814758926629,0.8934688886538147
1684200879640404500,0.842404541015625,0.5350139085434377,-0.7585340562462807,1.07686380058676
1684200879650428400,0.852428466796875,0.6879528919361532,-0.6547194615066051,1.2525392241835593
1684200879660453400,0.862453369140625,0.7748164980053901,-0.5805600003182888,1.327332307100296
1684200879670478300,0.872478271484375,0.7606490025736391,-0.5140747270196676,1.3450883285433053
1684200879680503300,0.88250341796875,0.6271430339254439,-0.4679641332298517,1.3519377560466528
1684200879690528500,0.892528564453125,0.39795506971925493,-0.48571255588829515,1.3225731298744678
1684200879700552400,0.902552490234375,0.08657733647376298,-0.6188140353888273,1.28130559220165
1684200879710577400,0.912577392578125,-0.21907281290516256,-0.7236275780379772,1.261243924164772
1684200879720602400,0.922602294921875,-0.42429158024191854,-0.6268138019710778,1.181647240358591
1684200879730627300,0.93262744140625,-0.5554197138428688,-0.4429974497556686,1.0002128148436547
1684200879740651300,0.9426513671875,-0.5496842389307915,-0.21059037737250327,0.7978720871612429
1684200879750676500,0.952676513671875,-0.4989022923290729,0.03208616009056568,0.5950199028253554
1684200879760701400,0.962701416015625,-0.3792683432973921,0.15994389371871948,0.4299558896139264
1684200879770726400,0.972726318359375,-0.1372049692966044,0.10650164186656474,0.3028282238259911
1684200879780750300,0.982750244140625,0.04154211683049798,-0.03217851454913616,0.15485767649561166
1684200879790775300,0.992775390625,-0.016545622739940882,-0.1077718079328537,-0.028312194509804246
1684200879800800300,1.00280029296875,-0.18763766406923532,-0.06621931583881378,-0.254191034168005
1684200879810825500,1.012825439453125,-0.3467734562754631,0.0853413649380207,-0.5043365923374891
1684200879820849400,1.022849365234375,-0.531655391895771,0.27842063553929325,-0.6613736586987972
1684200879830874400,1.032874267578125,-0.6962497417688369,0.37296120597720145,-0.6527835250079631
1684200879840899600,1.042899658203125,-0.8660054199278354,0.37514030358195305,-0.4547621218293905
1684200879850924500,1.052924560546875,-1.0630794592536985,0.30458032819032665,-0.09765577984899282
1684200879860948200,1.0629482421875,-1.222087971818447,0.13987375011444092,0.24306553678065537
1684200879870973400,1.072973388671875,-1.3578468339599667,-0.05864449667036533,0.47775984331816435
1684200879880998400,1.082998291015625,-1.353932729256153,-0.2291068617939949,0.5634995599240065
1684200879891023400,1.0930234375,-1.2168868960440158,-0.45486792029142376,0.4979387079939246
1684200879901047600,1.103047607421875,-1.1592144592761993,-0.562939003431797,0.3222515939593315
1684200879911072500,1.113072509765625,-1.099198235861212,-0.5139128144562244,0.14995295331925154
1684200879921097200,1.12309716796875,-1.073062946999073,-0.44558746624886986,0.08677958104759455
1684200879931122200,1.1331220703125,-1.081409773453325,-0.33606910690963265,0.19693536150753496
1684200879941146400,1.143146484375,-1.0776222177386283,-0.28064006515443324,0.3871721021592617
1684200879951171300,1.15317138671875,-1.041301050426811,-0.34705227321684357,0.5997098142072558
1684200879961196500,1.163196533203125,-1.0191805501639843,-0.44809681872129437,0.8716296895503998
1684200879971221500,1.173221435546875,-1.1383037731945513,-0.5687824687629938,1.1620952754095195
1684200879981245200,1.1832451171875,-1.3238544018566607,-0.6033569385379552,1.4303072361454368
1684200879991270400,1.1932705078125,-1.475383518451452,-0.6533464195877313,1.6830100775822996
1684200880001295400,1.20329541015625,-1.6725601413689553,-0.7311322545796632,1.856974897868931
1684200880011320300,1.2133203125,-1.7456662941120564,-0.8015361626267433,2.002319188348949
1684200880021344500,1.223344482421875,-1.841927696993202,-0.768384419131279,2.0091493266299367
1684200880031369500,1.233369384765625,-1.825195319509506,-0.541457823985815,1.8689663644358514
1684200880041394400,1.24339453125,-2.0422074004925785,-0.13782500089108943,1.6527946797996758
1684200880051419100,1.253419189453125,-2.07684280667454,0.23828970068097113,1.4176362628817558
1684200880061443300,1.263443359375,-2.1197325387217103,0.3219371211826801,1.148664715950191
1684200880071468300,1.27346826171875,-2.2237515699923036,0.15957564492821694,0.781584676966071
1684200880081493500,1.283493408203125,-2.3719597254708407,-0.01577156962752342,0.6037979603037238
1684200880091518500,1.2935185546875,-2.9305148147299884,0.05556055918037891,0.8316814177826046
1684200880101542400,1.30354248046875,-3.01482800566405,0.3491349247097969,1.2864327259570358
1684200880111567400,1.3135673828125,-1.8998174297735093,0.7788666501790285,1.9857140905067323
1684200880121592300,1.32359228515625,-0.5068830619499087,1.4584043265998363,3.0652751673534513
1684200880131617300,1.3336171875,0.7774525455974042,2.4638883598446846,4.130454667626321
1684200880141641500,1.343641357421875,1.5919724006988107,3.582443476474285,4.7235851034432645
1684200880151666400,1.35366650390625,1.5749568223595618,4.540158627328276,4.482945917026698
1684200880161691400,1.36369140625,1.1651366889320314,5.25336710268259,3.3167195331618187
1684200880171716400,1.37371630859375,0.2621754570506513,5.458758742368221,1.5508835805937646
1684200880181740300,1.383740234375,-1.228692923041433,4.981005621051788,-0.06652852791845798
1684200880191765200,1.39376513671875,-2.295535388090461,3.9657881292998787,-0.9299582521393894
1684200880201790200,1.403790283203125,-2.2665163604855536,2.6765239793092013,-1.3942372671157122
1684200880211815400,1.4138154296875,-1.7426760262548922,1.5444500404149293,-1.4491288409933447
1684200880221839400,1.42383935546875,-1.392180334585905,0.23114450510144233,-1.435336754745245
1684200880231864600,1.433864501953125,-0.9660896690327674,-1.019593222618103,-1.402389301650226
1684200880241889500,1.4438896484375,-0.7072410183172673,-1.9944863027662039,-1.14467535405308
1684200880251914200,1.453914306640625,-0.5101660291433334,-2.2731144435763357,-0.9681365916252136
1684200880261938400,1.4639384765625,0.4352805917680263,-2.1699714644879102,-0.17757921139150856
1684200880271963400,1.47396337890625,1.8692472272038458,-2.135548970404267,0.7703463668540119
1684200880281988400,1.48398828125,3.1231454647809267,-2.1977017674565316,1.6294722564011812
1684200880292013300,1.494013427734375,3.7697809885531663,-2.050918384084105,2.4576363137125967
1684200880302037500,1.50403759765625,4.068225005945563,-1.5398445924460886,2.99283098565042
1684200880312062200,1.514062255859375,4.321751438724994,-1.0558592987418174,2.858912344548106
1684200880322087200,1.524087158203125,4.286986414813995,-0.7333639591544866,1.9131275777235626
1684200880332112400,1.5341123046875,4.005357923144102,-0.02652268074452877,0.6146411336183547
1684200880342136300,1.54413623046875,4.016584835079312,0.8788350908845662,-0.8017989052161574
1684200880352161300,1.554161376953125,4.388279966643452,1.519632994544506,-2.7549071956723927
1684200880362186500,1.5641865234375,4.589325686079263,1.762387857940793,-4.356745302955806
1684200880372211500,1.57421142578125,4.576801135548949,1.5989795029819012,-5.34935904097259
1684200880382236400,1.584236328125,3.919585765573382,0.8949053511977195,-5.838669913613796
1684200880392260400,1.59426025390625,2.6289929973274466,-0.1113970126926899,-5.699937150228023
1684200880402285300,1.604285400390625,1.6444085442483425,-1.0151438419938086,-4.084592787900567
1684200880412310300,1.614310302734375,0.9705003981471061,-1.4048749809861183,-1.0375392136752606
1684200880422335500,1.62433544921875,-0.17172551692724228,-1.119615439337492,1.7227344774663447
1684200880432359400,1.634359375,-0.3408551721423864,-0.9822440274327993,2.7946622829556462
1684200880442384400,1.64438427734375,0.4181419715709984,-0.7963204738050699,2.2333529265522953
1684200880452409300,1.654409423828125,1.0214812283217907,-0.5687526581466198,0.8561997729673981
1684200880462434300,1.664434326171875,1.1469466599859297,0.15694178929328917,-0.9004936727240681
1684200880472458200,1.674458251953125,1.3566075014233587,0.8987263707906007,-1.685428536900878
1684200880482483500,1.6844833984375,1.5191121855407952,1.7080594709038734,-1.666175847159326
1684200880492508400,1.69450830078125,1.7036054141044616,2.3196838870495555,-1.5564754092514514
1684200880502533400,1.704533447265625,1.6074899955652653,2.5593203261643644,-1.759799302752316
1684200880512557300,1.714557373046875,0.9389386272568255,2.2265473381906746,-2.5320968036741016
1684200880522582300,1.724582275390625,0.08767404566928744,1.4871698178350925,-3.283692292828858
1684200880532607200,1.734607177734375,-0.5615678612090647,0.7237947512984275,-3.743020407399535
1684200880542632400,1.744632568359375,-1.2789368172436952,-0.01507189692556858,-3.855010125288367
1684200880552656400,1.754656494140625,-2.182090941348672,-0.34347383020818234,-3.511253971007466
1684200880562681300,1.764681396484375,-2.413452742462605,-0.4660381336033344,-2.8965681214645502
1684200880572706600,1.77470654296875,-2.5215882691413163,-0.4973129773110151,-2.5531045203894376
1684200880582731500,1.7847314453125,-2.3079513636797664,-0.3849783915072679,-2.427176878041029
1684200880592755200,1.794755126953125,-1.983800511970371,-0.3707803548067808,-2.445140697015822
1684200880602780400,1.804780517578125,-1.6391628986798226,-0.32394261578619477,-2.192769279490411
1684200880612805400,1.814805419921875,-1.2326331850998102,-0.35507951232790946,-1.5886907486796378
1684200880622830300,1.824830322265625,-0.9792571205765008,-0.441648373234272,-0.9761176535069942
1684200880632854500,1.8348544921875,-0.5816659157335757,-0.5372966126531362,-0.14874211622476577
1684200880642879500,1.84487939453125,0.6788767282940447,-0.6125836165666579,1.0512599882528186
1684200880652904200,1.854904296875,2.418667554501444,-0.46326223914921283,2.0844018437519667
1684200880662929400,1.864929443359375,3.374173943264782,-0.5915951890736818,2.3460683283671737
1684200880672953300,1.874953369140625,3.0551272828266023,-1.278978318297863,1.922107002992928
1684200880682978300,1.884978271484375,2.394135755313188,-2.1222961055994034,1.8653645405516028
1684200880693003500,1.89500341796875,2.220022904857993,-2.691324658077955,1.9078589896708726
1684200880703028500,1.905028564453125,1.883393241456151,-2.8381407746762037,1.9580816949546336
1684200880713052200,1.91505224609375,1.4680150355100632,-2.5356425134569407,2.2651377656087277
1684200880723077400,1.925077392578125,0.9224785639084875,-1.810464198845625,2.750303501269221
1684200880733102300,1.935102294921875,0.6664936320610344,-1.0153384877830742,3.283169730259478
1684200880743127300,1.945127197265625,0.9430990348719059,-0.10033201332092284,3.8377696521520615
1684200880753151500,1.9551513671875,1.4266577737271784,0.6279062733829021,3.9818592663958667
1684200880763176400,1.965176513671875,1.7024176656246184,1.1425836424708367,4.509989991296828
1684200880773201400,1.975201416015625,1.4160638989984988,1.3342518772304057,4.704890339845418
1684200880783226400,1.985226318359375,1.1879923716016112,0.979655764505267,4.389048905189335
1684200880793249800,1.995249755859375,0.6908265476763248,0.3473644079059362,3.4057387098297474
1684200880803274800,2.005274658203125,0.41354836017042396,-0.4712649283409118,2.493857966172695
1684200880813300000,2.015300048828125,0.43996326969154176,-1.2476245641350745,1.8524121199980377
1684200880823324700,2.02532470703125,0.786426271778345,-1.8323118735164403,1.195425882603228
1684200880833348900,2.035348876953125,1.1738456266969441,-2.0915134293228386,0.5287374586224556
1684200880843373800,2.045373779296875,1.4920043983846902,-2.1560504911631346,0.09210311415791511
1684200880853398800,2.055398681640625,1.744996578156948,-2.035271902140975,-0.23075667482763526
1684200880863423700,2.065423828125,1.7866320723593234,-1.650744761532545,-0.5330123594626784
1684200880873448000,2.075447998046875,1.638946771711111,-1.0123749618023634,-0.767696144606173
1684200880883472600,2.08547265625,1.211916121894121,-0.2814700862377882,-0.7709171524792909
1684200880893497600,2.09549755859375,0.6587713672459126,0.3770627960771322,-0.8664020180299877
1684200880903522800,2.105522705078125,0.3521977463465184,0.7529296603679656,-1.061956738834083
1684200880913546800,2.115546630859375,0.13841880206577478,0.9905150121718644,-1.2270967398911714
1684200880923571700,2.12557177734375,0.0235281751036644,0.9289484905749559,-1.4540104755550622
1684200880933597000,2.135596923828125,0.07214348172340541,0.7505038945257664,-1.6075319350108503
1684200880943622000,2.145621826171875,0.22840194666134192,0.5624339765191078,-1.4458835754618047
1684200880953645800,2.155645751953125,0.5619482388287782,0.18771160608828066,-0.9143155695885419
1684200880963670800,2.1656708984375,1.2206851192831993,-0.46383448607921596,-0.5781228362992406
1684200880973695700,2.17569580078125,1.8815069893181322,-0.9684598322302103,-0.8085019099861382
1684200880983720700,2.185720703125,1.8863982684910297,-1.1174486166924238,-1.1449734602168202
1684200880993745000,2.195744873046875,1.7487258278131483,-1.1758090357244013,-1.4572235923826693
1684200881003769900,2.205769775390625,1.4793781410455702,-1.2322586526989936,-1.535397842170298
1684200881013794800,2.215794921875,0.7396504920780659,-1.4194517878711224,-1.0236404521822928
1684200881023819800,2.22581982421875,-0.6558475887537002,-1.7563129219412803,-0.5818123384669422
1684200881033843700,2.23584375,-1.7944471300244331,-2.1608137600421906,-0.7015101465150714
1684200881043868700,2.24586865234375,-3.2491514330625533,-1.7121885335326195,-0.9590852701634168
1684200881053894000,2.255893798828125,-4.216618162602186,-0.5032330150097608,-0.17529606889039276
1684200881063918800,2.2659189453125,-3.2090064696788785,0.4934457804888487,1.4634788533851504
1684200881073942800,2.27594287109375,-1.74575762565732,0.34466976199448107,2.8263457074642178
1684200881083967700,2.2859677734375,-1.1452210052371024,-0.34909167008996006,3.4685520166173576
1684200881093992700,2.29599267578125,-0.8897837704002857,-0.8554623986035584,3.4520524249762294
1684200881104017700,2.306017578125,-0.39488896014690394,-1.1186311044752597,3.139656746859848
1684200881114041900,2.316041748046875,0.3261187907814979,-1.216480068808794,3.097380908927321
1684200881124066800,2.32606689453125,1.3831401190400123,-1.1650111628562212,3.483035007739067
1684200881134091800,2.336091796875,2.4680676913559436,-0.3987175785243511,3.726477268877625
1684200881144117000,2.346116943359375,3.421667223584652,2.297914538311958,3.7277766610383987
1684200881154140700,2.356140625,4.114533752655983,6.366393226757645,3.454680727653205
1684200881164165600,2.36616552734375,3.960560165518522,9.299601226094365,2.7536025428146123
1684200881174190800,2.37619091796875,2.084485722643137,10.548312416422366,1.282920626182854
1684200881184215800,2.3862158203125,-0.2738543322707526,9.795677355086802,0.2995864654257893
1684200881194239700,2.39623974609375,-1.6510311772584914,6.259440333992242,-0.7702142649069428
1684200881204265000,2.406264892578125,-2.1862778716444966,2.165631973978877,-1.732808712235093
1684200881214290000,2.4162900390625,-2.554509711012244,-1.1878460949987173,-2.4324518958345056
1684200881224314600,2.426314697265625,-2.6628081731677056,-3.899658245310187,-3.39287484434247
1684200881234338800,2.4363388671875,-2.3684020329892634,-5.926192714244127,-4.56596351519227
1684200881244363800,2.44636376953125,-2.3065210386157036,-6.895015534567833,-5.537390965056419
1684200881254388700,2.456388671875,-2.5061989768296478,-6.49378334287405,-5.963074876439571
1684200881264414000,2.4664140625,-2.808238388365507,-5.349048659849166,-5.15978047196865
1684200881274438000,2.47643798828125,-2.7670371939271687,-3.8630671750158068,-3.2226886658117175
1684200881284462600,2.486462646484375,-2.4987685345679522,-1.8260604119062422,-0.8323442656055092
1684200881294487800,2.49648779296875,-2.269758703407645,0.5213076008826494,1.0067588754862546
1684200881304512800,2.5065126953125,-2.107844386398792,2.4813667333900926,2.3531743609800935
1684200881314536700,2.51653662109375,-1.973931590515375,3.9445612168759103,2.9571579069837926
1684200881324562000,2.52656201171875,-1.3510434375554323,3.944259603580832,3.3198373729214072
1684200881334587000,2.5365869140625,-0.05781560809817165,2.911865351578593,3.759206110785901
1684200881344611800,2.54661181640625,2.1750141348302363,1.2550900777101517,3.7854996589496728
1684200881354635800,2.5566357421875,4.299588122233748,-0.33967268435955045,3.7204791975066063
1684200881364660700,2.56666064453125,5.215805726051331,-1.1308920356333254,3.118525111503899
1684200881374685700,2.576685791015625,4.872859719109535,-1.4094693230390547,2.014208071324229
1684200881384711000,2.5867109375,4.342951463142037,-1.457319453972578,1.2561550765931606
1684200881394734800,2.59673486328125,3.790611595135927,-1.3446698108702897,0.5005711023241282
1684200881404759800,2.606759765625,3.156367935425043,-1.163442890626192,-0.18221008606255054
1684200881414785000,2.616784912109375,2.387873041656613,-0.9507640165418386,-0.6743728410035371
1684200881424809700,2.626809814453125,1.4062474383831023,-0.7952472916156053,-1.2129115626722573
1684200881434833700,2.636833740234375,0.6234077929198741,-0.5002028535336256,-1.739129439689219
1684200881444859000,2.64685888671875,0.3179471747636795,-0.2724766324430704,-2.158494669444859
1684200881454883800,2.6568837890625,0.18795770807014778,0.0031722002953290937,-2.641310919369757
1684200881464908800,2.66690869140625,-0.3110357879400253,0.46022330984473225,-3.0201658595606684
1684200881474933000,2.67693310546875,-0.698166973567009,1.0148977582782506,-3.318490926748514
1684200881484957700,2.686957763671875,-1.136307046419382,1.6353765120089052,-3.4849826346755024
1684200881494982700,2.696982666015625,-1.431869370895624,2.055093039420247,-3.4490511973336337
1684200881505007600,2.707007568359375,-1.6114590453267097,2.368410216295719,-3.463420498947799
1684200881515031800,2.71703173828125,-1.5045850630164146,2.5371961726397276,-3.4558816278755664
1684200881525056800,2.727056884765625,-0.8775555724680423,2.3415870912998913,-3.3369477899372577
1684200881535082000,2.73708203125,-0.2856172325124964,1.967296098023653,-3.394986137408018
1684200881545107000,2.74710693359375,0.11622753812167792,1.6768886720925569,-3.666320029556751
1684200881555130600,2.757130615234375,0.6570587181091309,1.3665081331908702,-3.7963141906917093
1684200881565155800,2.76715576171875,1.3011515716612339,1.021194812595844,-3.9221851344168184
1684200881575180800,2.777180908203125,1.6934300570487975,0.7229688218683004,-4.195246873271465
1684200881585205800,2.787205810546875,1.5727099202156065,0.7620762588977813,-4.085105413597822
1684200881595230000,2.79722998046875,1.175341418212652,0.9380798915356398,-3.1930215495616197
1684200881605255000,2.8072548828125,0.9237876737456768,1.0569833343356847,-2.059898686136305
1684200881615279600,2.817279541015625,0.9084440472066402,1.0225181701540946,-1.216362579908967
1684200881625304600,2.8273046875,0.9388544561047106,0.873134248894453,-0.5869555465742945
1684200881635328800,2.837328857421875,0.8193594040870666,0.646451983898878,-0.194324302226305
1684200881645353700,2.847353759765625,0.6136498575586825,0.455833550453186,0.14664251359701155
1684200881655379000,2.85737890625,0.5304254847746342,0.2772124287933111,0.5359948824048042
1684200881665404000,2.86740380859375,0.4767219516377896,0.23748715212643146,0.7798723200902342
1684200881675427600,2.877427490234375,0.30127551449127493,0.2335895601660013,0.8702610315456986
1684200881685452800,2.887452880859375,0.10906944652795791,0.2136123555421829,0.9030471565991639
1684200881695477800,2.897477783203125,0.07405541629195213,0.22764555706977843,0.8762064959466457
1684200881705502700,2.907502685546875,-0.07864157503843307,0.24044658645391462,0.6535083321511745
1684200881715527700,2.917527587890625,-0.18876776407770812,0.09440028518438338,0.20121201591342686
1684200881725551900,2.9275517578125,-0.15684950789995492,-0.045754035437107085,-0.14795155036896465
1684200881735576800,2.937576904296875,-0.2213292865950614,-0.10991349613666533,-0.37486645507663485
1684200881745601800,2.947601806640625,-0.711681192721799,-0.19180852001309392,-0.5064642520159482
1684200881755625700,2.957625732421875,-1.1599568020761013,-0.40317689602077006,-0.9268123553290962
1684200881765650700,2.967650634765625,-0.6930746919292956,-0.45379006192684174,-1.0684896477341652
1684200881775675600,2.977675537109375,-0.05766184230856597,-0.43279637373685836,-0.9048606357619166
1684200881785700900,2.987700927734375,0.2047381442129612,-0.49538113246560095,-0.6348363649070262
1684200881795725000,2.99772509765625,0.03288520151376724,-0.40067397328913207,-0.32596564604640005
1684200881805750000,3.00775,-0.3154091807186603,-0.2520908470183611,-0.1974006409317255
1684200881815775000,3.01777490234375,-0.6385083314180374,-0.020016367590427398,-0.07819295448809861
1684200881825800000,3.027800048828125,-0.8444997636277228,0.18842998349070547,-0.07698387095928191
1684200881835825000,3.037824951171875,-0.8948435380078852,0.36127895148992534,-0.18833207607418298
1684200881845849000,3.04784912109375,-0.8138685515858233,0.47242286620438095,-0.45927200046926736
1684200881855874000,3.0578740234375,-0.5799240405023097,0.34441374140679837,-0.6580182107910514
1684200881865899000,3.06789892578125,-0.22790625383257865,0.009407879814505577,-0.541508092868328
1684200881875923000,3.0779228515625,0.09570135784558952,-0.2040396405547857,-0.031335341723263264
1684200881885948000,3.087947998046875,0.3197650378406048,-0.464295089328289,0.46672085517048834
1684200881895972900,3.097972900390625,0.3760028386954218,-0.7110673716723919,0.8033189543902873
1684200881905998000,3.107998046875,0.3345451122127473,-0.8983008388549089,0.9585375731527804
1684200881916022000,3.11802197265625,0.18171258486919104,-0.985707904151082,0.9905798941016196
1684200881926047000,3.128046875,-0.01719546495079994,-0.8653191912293433,0.8964385521143674
1684200881936072200,3.138072265625,-0.21248642025217412,-0.518947301492095,0.724666565696895
1684200881946097000,3.148096923828125,-0.4168855417691171,-0.18832301598489284,0.4492907046809792
1684200881956121000,3.15812109375,-0.6297896029114722,0.03748071261048317,0.03631955987662077
1684200881966146000,3.16814599609375,-0.8236801898956299,0.19044950661957263,-0.33734336462914943
1684200881976171000,3.1781708984375,-0.9913878494836389,0.3264554753899574,-0.6443140950873494
1684200881986196000,3.188196044921875,-1.0928162797391414,0.34589141274392604,-0.8972416851907968
1684200881996220200,3.19822021484375,-1.1639420723199845,0.1833236002624035,-0.9648232292935252
1684200882006244900,3.208244873046875,-1.1861446979083121,-0.05483692108094692,-0.8496648182407021
1684200882016269800,3.218269775390625,-1.1453063454329966,-0.3471487193286419,-0.6034989773571491
1684200882026295000,3.228294921875,-1.163392621743679,-0.4938046769291162,-0.12240998961627482
1684200882036319000,3.238319091796875,-1.1357856528937815,-0.549007508713007,0.43420740957856174
1684200882046344000,3.248343994140625,-1.225771628767252,-0.8519073364704847,0.9763634449616074
1684200882056369200,3.258369140625,-1.648948087374121,-1.2141367205530404,1.2031140990182756
1684200882066394000,3.26839404296875,-1.851065089303255,-1.2608739218086003,1.1545339002445338
1684200882076418000,3.27841796875,-1.6776634558573364,-0.9869196180284022,1.1602230517968535
1684200882086443000,3.288443115234375,-1.634793451423943,-0.4304354898244142,1.262403907854855
1684200882096468000,3.298468017578125,-2.0537233585022387,0.24171616799831389,1.431308229881525
1684200882106493000,3.308492919921875,-1.725161266221851,0.7837292877793312,1.9074319964304565
1684200882116517000,3.31851708984375,-1.0501755540169775,1.174584462365508,2.3343092092514035
1684200882126542000,3.3285419921875,-0.5062193373441696,1.2531763530433178,2.5045748827591536
1684200882136567000,3.338567138671875,0.10813859541863202,0.8273539099723101,2.304869472016394
1684200882146592000,3.348592041015625,0.7031716499865055,0.004137830457091331,2.1277438496112824
1684200882156616000,3.358615966796875,0.9935761533081531,-0.8507605045229196,2.35110135409832
1684200882166641000,3.368640869140625,0.8208638173006475,-1.340513860234618,2.9445640906095503
1684200882176666000,3.378666015625,0.5537827602908015,-1.3698597817063332,3.5399876057997344
1684200882186691000,3.388691162109375,0.44989831518530843,-0.9619880058676004,3.9888606695905326
1684200882196715000,3.398715087890625,0.2805076709464192,0.002571311792731285,3.964544266718626
1684200882206740000,3.408739990234375,0.27142376238927246,0.9883569573551416,3.7324651111155744
1684200882216765000,3.418764892578125,0.3503545296326279,1.6355547911852597,3.731199621224403
1684200882226790000,3.428789794921875,0.6526876634180545,2.479254855802655,3.1905934456318614
1684200882236814000,3.43881396484375,0.6477952152013778,3.60091553723216,2.296508178645372
1684200882246839000,3.448839111328125,0.018282529535144566,4.652880166622996,1.33848703058213
1684200882256864000,3.458864013671875,-0.9315057738423347,5.244107106906175,0.24099720607399938
1684200882266889200,3.46888916015625,-1.5211737942457197,4.824869887444376,-0.7321706577166914
1684200882276913000,3.478912841796875,-1.814370120242983,3.4547225209683177,-1.3125637770354748
1684200882286937900,3.488937744140625,-1.7652116831898688,1.821167379167676,-1.5327958429783581
1684200882296963000,3.498963134765625,-1.3537810458257793,0.3345230465114116,-1.432990483880043
1684200882306988000,3.508988037109375,-0.8284208085514605,-0.4736737430483102,-0.8386030337393283
1684200882317012000,3.519011962890625,0.2123100407719612,-0.9600988311201334,0.04074351379871368
1684200882327037200,3.529037109375,1.1933739185094834,-1.8150170398443937,0.5485875297352671
1684200882337062100,3.539062255859375,1.1678395912151782,-2.8374633138060568,0.5766799440145493
1684200882347086800,3.5490869140625,1.361801562935114,-3.4318338128119703,1.2505895514205096
1684200882357111000,3.559111083984375,2.1440286294579503,-3.303053703641891,2.267677513219416
1684200882367136000,3.569135986328125,1.935827777570486,-2.562310740152001,2.2160358810484406
1684200882377161000,3.579160888671875,0.6817080061972141,-1.704206887128949,1.21525666449368
1684200882387186200,3.589186279296875,0.018772505009174347,-0.6416051283895969,0.6119222300484776
1684200882397210000,3.599210205078125,0.09321780653470195,0.5778232688307762,-0.6199053377568722
1684200882407234800,3.60923486328125,0.9447978016138077,1.3727759614139794,-1.9753966946318744
1684200882417260000,3.619260009765625,2.2877046944648027,2.1589561494767664,-2.939609390811622
1684200882427285000,3.629284912109375,3.284800254070759,2.7153175280839204,-3.438339833705127
1684200882437309000,3.639308837890625,3.3004718704551457,2.7680747202813625,-3.3922532053127883
1684200882447334100,3.649334228515625,2.479088851585984,2.218752738791704,-3.5798268642351028
1684200882457359000,3.659359130859375,2.083519507959485,1.0849556293666363,-2.9492583859056234
1684200882467384000,3.669384033203125,1.9467051454156636,0.13985153828263283,-1.90452546133399
1684200882477408000,3.679407958984375,2.9650936684191227,-0.2919745291173458,-0.6230714005723595
1684200882487433000,3.689432861328125,3.6920173653930424,-0.49945875716805455,0.6627142596527934
1684200882497458000,3.6994580078125,3.703828799217939,-0.20101415525376795,2.18508749281615
1684200882507483000,3.70948291015625,3.3832641354322432,0.41873920681178567,3.099690354913473
1684200882517507000,3.719507080078125,2.5499019249558446,0.7638625577926635,3.0742654062777754
1684200882527532000,3.729531982421875,1.5270534999340772,1.057325864163041,2.3070482773602006
1684200882537557000,3.739556884765625,0.7699818443905562,1.0590782607883213,0.9448118301391601
1684200882547582000,3.74958203125,0.32616146087944503,0.3435831358015537,-0.41660920904576776
1684200882557606000,3.75960595703125,0.21206797564439475,-0.665995473280549,-1.632596233640611
1684200882567631000,3.769631103515625,0.23266711155883968,-1.5396838489264248,-2.787241777566075
1684200882577656000,3.779656005859375,0.04769523263275623,-2.1294605904012918,-3.4645950956851244
1684200882587681000,3.789680908203125,-0.23937815350480376,-2.3035417305439707,-3.8898531828716396
1684200882597705000,3.799705078125,-0.7421563374191522,-2.2413170372992752,-4.091699405035376
1684200882607730000,3.80972998046875,-1.2056956399440764,-1.9854379039138554,-4.082641653832793
1684200882617755000,3.8197548828125,-1.5364362453073261,-1.560778659403324,-3.888455006511509
1684200882627779800,3.82977978515625,-1.8547294570297002,-1.025279451560974,-3.4581755840316415
1684200882637804000,3.839803955078125,-1.783353342949599,-0.599778495529294,-2.8361732739955183
1684200882647829000,3.8498291015625,-1.5136967363633214,-0.22084873653650283,-2.353038751901686
1684200882657854200,3.859854248046875,-1.0114807894416153,0.00032440964877605437,-2.0216002274021507
1684200882667879200,3.869879150390625,-0.7327829443961381,0.07576689638495444,-1.7346213146150111
1684200882677902800,3.87990283203125,-1.0785358254522084,0.03204816616773605,-1.3503069399744272
1684200882687928000,3.889927978515625,-1.3075595390073955,0.1791220569193363,-0.7949442170158029
1684200882697953000,3.899953125,-1.218972908537835,0.5807318497538566,-0.08963789308816195
1684200882707978000,3.90997802734375,-0.9780195416055619,0.9881009367674588,0.5625029501020908
1684200882718002200,3.920002197265625,-0.9231558786481618,1.0124842673957348,0.5245587116330862
1684200882728027100,3.930027099609375,-0.5145400064438581,1.3283183955281972,1.4667501301407813
1684200882738051800,3.9400517578125,-0.3663374039232731,1.0886387017935515,1.9180255788981913
1684200882748076000,3.950075927734375,-0.0072870882682502264,0.22350246591567993,2.478967855554819
1684200882758101000,3.96010107421875,0.27648104577884075,-0.7184703414052724,2.565149178448319
1684200882768126000,3.9701259765625,0.5939701015114784,-1.3189531858116388,2.5481381301537156
1684200882778151000,3.98015087890625,1.030297425853461,-1.8207558757573366,2.4692928492367265
1684200882788175000,3.990175048828125,1.7928261046938596,-2.171907400986552,2.379126548360288
1684200882798199600,4.000199462890625,2.396700929626077,-2.299043250080943,2.1842004808485505
1684200882808224800,4.010224853515625,2.9857471648693084,-2.2224878336668015,1.986287506480515
1684200882818249700,4.020249755859375,3.510955864843726,-2.0675328342765567,1.6954241534754633
1684200882828273700,4.030273681640625,3.7418548707515,-1.948563925024867,1.4987977117866276
1684200882838299000,4.040298828125,3.4663007305592295,-1.7592016291201114,1.4363488543972371
1684200882848323800,4.05032373046875,2.9007325476676225,-1.4904226821511983,1.5247922770038247
1684200882858348800,4.060348876953125,2.261522789981961,-1.2759125009864567,1.6323089411318301
1684200882868372700,4.070372802734375,1.4530734869658946,-1.102265076085925,1.6875813310205936
1684200882878397700,4.080397705078125,0.765918905800581,-0.8464052319228649,1.6586565575703978
1684200882888422700,4.090422607421875,0.22801672846972942,-0.4365244543492794,1.6192188656732438
1684200882898448000,4.10044775390625,-0.1642477283924818,0.06765022542476654,1.48835844309777
1684200882908471800,4.110471923828125,-0.4128733835183084,0.5991875438988209,1.3631447942376136
1684200882918496800,4.120496826171875,-0.5796750341773033,1.0986474701106548,1.3279834644854067
1684200882928521700,4.130521728515625,-0.7595352691780776,1.4970482377707957,1.2524594369456172
1684200882938546700,4.140546630859375,-0.8728699719350784,1.673095125028491,1.0883251057997345
1684200882948570600,4.150570556640625,-0.9076952746659517,1.519330796727538,0.8992954028502106
1684200882958595800,4.160595947265625,-0.8778623733948916,1.0986445475012063,0.5715893428772687
1684200882968620800,4.170620849609375,-0.7382705089617521,0.4209469459891319,0.030486908200383186
1684200882978645800,4.180645751953125,-0.4605833753287792,-0.3185387109160423,-0.5862672720491886
1684200882988669700,4.190669677734375,-0.08917575546912848,-1.0191460633724927,-1.0888514677613974
1684200882998694700,4.200694580078125,0.3401380003163591,-1.659676256006956,-1.3043623504012822
1684200883008719600,4.2107197265625,0.9031494479298591,-2.2845284025162456,-1.317372930882871
1684200883018744800,4.220744873046875,1.9179671267092226,-2.923286909303069,-1.323850310203433
1684200883028768800,4.230768798828125,2.8678724805951115,-3.4283260969519613,-1.6650675936564803
1684200883038793700,4.240793701171875,3.067279785174131,-3.4704636954575774,-2.248184292720258
1684200883048819000,4.25081884765625,2.6803859154343606,-2.9293595072150227,-2.752491951224208
1684200883058844000,4.260843994140625,2.094392199629545,-2.258235438874364,-2.5960283008366822
1684200883068867600,4.27086767578125,0.9942074369490146,-2.2768261575758455,-1.7289754176825285
1684200883078892800,4.280892822265625,-0.9286135595321655,-3.1480700626790523,-2.0655603651598096
1684200883088917800,4.290917724609375,-3.0365397789955137,-3.7868320765972134,-2.5705112900033593
1684200883098942700,4.300942626953125,-4.874869889888167,-3.2713784624397753,-1.3966136408582328
1684200883108967000,4.310966796875,-4.133457648834586,-2.026355020713806,1.1675436039432883
1684200883118992000,4.320991943359375,-1.9062129760295152,-0.870913065713644,3.3790471022590993
1684200883129016600,4.3310166015625,-0.7614917370080947,-0.3435264371782541,4.925689976543188
1684200883139041500,4.34104150390625,-0.928950244140625,0.10452186622619629,5.36176142642796
1684200883149065700,4.351065673828125,-1.2874129691660403,2.597458625900745,4.687299445836246
1684200883159090700,4.361090576171875,-1.414765675881505,6.242142577710747,3.972352894642949
1684200883169116000,4.371115966796875,-2.000761729773879,9.07832578857839,2.42603706035614
1684200883179140900,4.381140869140625,-1.364800160229206,12.864058379501104,0.7649711035564541
1684200883189164500,4.39116455078125,-0.44595279242992397,15.33075945867896,0.4476265708610415
1684200883199189800,4.401189697265625,-0.1004845918004401,12.221632582378387,0.7209133506432175
1684200883209214700,4.411214599609375,1.1567477769017218,4.164590453723073,0.3881011997029185
1684200883219239700,4.42123974609375,2.1186457663983105,-0.5602180540353059,-0.316114698639512
1684200883229264000,4.431263916015625,2.182319489407539,-3.270323984950781,-1.0191039777964352
1684200883239288800,4.441288818359375,1.9488743061482905,-5.103856924694776,-1.8095123049482702
1684200883249313800,4.451313720703125,1.7039473594099281,-6.151151808708906,-2.8785706924811003
1684200883259338800,4.4613388671875,1.5209505068838596,-6.154515732184052,-3.7885073163330554
1684200883269362700,4.47136279296875,1.2243044788241386,-5.416101503902674,-4.318311235143244
1684200883279387600,4.4813876953125,0.6038584583193063,-4.0037434736847874,-4.4174283197164534
1684200883289412900,4.491412841796875,-0.17497834471073,-2.349695578953624,-3.945208867129683
1684200883299437800,4.501437744140625,-0.5597621269613504,-0.6943360171020031,-2.4713985893443224
1684200883309461800,4.511461669921875,-1.0706523787260054,1.231047523343563,-0.8776610786691308
1684200883319487000,4.521487060546875,-2.3726947617471215,2.598768539455533,0.2110577026233077
1684200883329511700,4.53151171875,-4.164551290756464,3.208766815704107,0.9082575847238302
1684200883339536600,4.54153662109375,-5.781026702940464,3.036518736207485,1.3522417074292898
1684200883349560800,4.551560791015625,-6.057877897205948,2.1221295168608427,2.0725950861021873
1684200883359585800,4.561585693359375,-4.905609311544895,0.735588064944744,2.3343241145595908
1684200883369610800,4.57161083984375,-2.7948300407379865,-0.24793898803591727,2.2628543308466673
1684200883379635700,4.5816357421875,-0.5062888954490423,-1.0260369919300079,1.9490408948868512
1684200883389659600,4.59165966796875,1.3930015878409145,-1.551317588096857,1.6779229835763572
1684200883399684600,4.6016845703125,2.8249738345891235,-1.86841895968616,1.2964479240149258
1684200883409709600,4.61170947265625,3.2690427129685875,-1.7955226503014563,0.9519909279882908
1684200883419734800,4.62173486328125,2.6408301501154896,-1.2756909671902656,0.6490031296864152
1684200883429758700,4.6317587890625,2.2723674246013164,-0.6957827087789773,0.18113135091513394
1684200883439784000,4.641783935546875,2.472082187694311,-0.16873685650527476,-0.27080080818533897
1684200883449809000,4.651808837890625,2.6188883674204346,0.007968202400207519,-0.5319008910894394
1684200883459833900,4.661833740234375,2.865643114107847,-0.02368131983876228,-0.8285404894083738
1684200883469857800,4.67185791015625,2.5235633686065673,-0.1691711562693119,-1.1690151378005742
1684200883479882800,4.6818828125,1.1253320634186268,-0.249897720888257,-1.6860788175031542
1684200883489907700,4.69190771484375,-0.19181206367705017,-0.18011691317558287,-2.210199722240865
1684200883499932700,4.7019326171875,-0.6869219414532184,0.036782793474197384,-2.16930949344784
1684200883509956900,4.711956787109375,-0.6231073486685752,0.3850806828379631,-1.9554016620904207
1684200883519981800,4.72198193359375,-0.5222527727782726,0.8156254782557487,-1.6873311556518076
1684200883530006500,4.732006591796875,-0.3317663682144135,1.183034895324707,-1.486109787388146
1684200883540031700,4.74203173828125,-0.04822546705193817,1.3242699969202278,-1.4844240262582897
1684200883550055700,4.7520556640625,0.3292726517025381,1.2812556155800818,-1.3561752474859357
1684200883560080600,4.76208056640625,0.9899941301029175,1.2133335874766111,-1.7026283857658504
1684200883570105900,4.77210595703125,1.4240508060991763,1.2428618797779083,-2.330674359880388
1684200883580130800,4.782130859375,1.0405459942758082,1.3777291999071837,-2.9178675146028397
1684200883590154800,4.79215478515625,0.9096516694307327,1.4618658652305603,-3.763358554290235
1684200883600179700,4.8021796875,0.938577319663763,1.5972884811550379,-3.9490129355877635
1684200883610204700,4.81220458984375,0.8422270694553852,1.354521927320957,-3.040828123839199
1684200883620229600,4.822229736328125,1.046787665144354,1.0463023658454418,-2.240897642843425
1684200883630253800,4.83225390625,1.3864194329716264,0.8859066367059946,-1.671453495301306
1684200883640278800,4.84227880859375,1.9643197125613687,0.4050087876230478,-1.1344672637715936
1684200883650303700,4.8523037109375,2.468071198487282,-0.22690496783554553,-0.6619350919738411
1684200883660329000,4.862328857421875,2.4435740322209893,-0.8457505674064159,-0.44567105287909503
1684200883670353700,4.872353759765625,1.8270318872869014,-1.0423065742075444,-0.6007008710712194
1684200883680377600,4.882377685546875,1.128255841910839,-0.6700672527641057,-0.8107131562948227
1684200883690402800,4.89240283203125,0.7184170768480748,-0.3380418682873249,-0.769919373613596
1684200883700427800,4.902427734375,0.5977705897729844,-0.23594576790332794,-0.5897299797236919
1684200883710452000,4.912451904296875,0.529881952482462,-0.15283026232123373,-0.25900164932012554
1684200883720477000,4.922476806640625,0.35366730744242664,-0.13359656954109667,0.09431845211982727
1684200883730501600,4.932501708984375,0.19007702004536986,-0.3204050893098116,0.5995619301691651
1684200883740526600,4.942526611328125,-0.04128945724368095,-0.5530518156677484,1.0984539933651685
1684200883750551800,4.9525517578125,-0.19897125124931334,-0.6911252383619546,1.5078510790750383
1684200883760575700,4.96257568359375,-0.4399951991997659,-0.733122551614046,1.6233748163089154
1684200883770600700,4.9726005859375,-0.7398631119154393,-0.6426701272726059,1.599035324822366
1684200883780626000,4.9826259765625,-0.8921605825342237,-0.42167642930746074,1.5191072171047328
1684200883790649600,4.992649658203125,-0.9936955419041216,-0.17812836970686913,1.395250243550539
1684200883800675000,5.002675048828125,-0.9856723944462835,0.028963059633970258,1.345210201357305
1684200883810700300,5.0127001953125,-0.82955945719257,0.20693010129928588,1.2650401015773416
1684200883820725200,5.022725341796875,-0.5893780975461006,0.3151443923026323,1.1074103300198912
1684200883830750200,5.032750244140625,-0.3801404499568045,0.3064735945910215,0.8697323314964771
1684200883840774400,5.0427744140625,-0.2256160970687866,0.15273732334077358,0.5464008333459496
1684200883850799400,5.05279931640625,-0.14934285859689114,-0.020894903990626334,0.26552023743391034
1684200883860824300,5.06282421875,-0.23412103669419884,-0.08223229300677776,0.10618921491652726
1684200883870849300,5.072849365234375,-0.5494527682624757,-0.11872983979880809,0.15957973658144473
1684200883880873200,5.082873291015625,-0.9419124554358422,-0.15265256766676902,0.40207653356343503
1684200883890898200,5.092898193359375,-1.395769445119053,-0.12291501652896404,0.6692042061939835
1684200883900923100,5.102923095703125,-1.9066614504493773,-0.010135609567165374,0.776636991430819
1684200883910948400,5.1129482421875,-2.3678527285434305,0.20672259602844714,0.747367642326653
1684200883920972300,5.12297216796875,-2.6336931378424167,0.37029052546322344,0.7217910102605819
1684200883930997200,5.132997314453125,-3.0679484782159325,0.4515308848232031,0.5619098065145314
1684200883941022200,5.143022216796875,-3.6529566901147366,0.46099078708589075,0.25968685510531064
1684200883951046100,5.153046142578125,-3.8666134693205354,0.46674131343662734,-0.18526187484860418
1684200883961071400,5.1630712890625,-3.545556638103723,0.45514907532036303,-0.5606846486337482
1684200883971096300,5.173096435546875,-2.945359040379524,0.38780923101902004,-0.6426711501859128
1684200883981121300,5.183121337890625,-2.180855846595764,0.31581776151955127,-0.6256751533299684
1684200883991145200,5.193145263671875,-1.4426444474101066,0.11869243039786814,-0.7042652904421091
1684200884001170200,5.203170166015625,-1.1345840220190584,-0.1704296318978071,-0.766571524490416
1684200884011195100,5.213195068359375,-1.1070704305410384,-0.33737317524552346,-0.682387951285392
1684200884021220000,5.22322021484375,-0.8394378771282732,-0.4350912066757679,-0.5263013175167143
1684200884031245300,5.233245361328125,-0.6906662425480783,-0.5251379728257656,-0.22554989996477962
1684200884041269200,5.243269287109375,-0.7172457680463791,-0.4306798199743032,-0.02294876778051257
1684200884051294200,5.253294189453125,-0.7801638503827154,-0.16882979548573493,0.12228387901857495
1684200884061319400,5.2633193359375,-1.2398036612510681,-0.09347907868623732,0.21470088143125174
1684200884071343000,5.273343017578125,-1.9700093025051055,-0.4504571181118488,0.17524302352890372
1684200884081368300,5.283368408203125,-2.4891519804388285,-0.8356272327989339,0.3069517334967852
1684200884091393300,5.293393310546875,-2.466164488083124,-1.0648135895699262,0.9550905014388262
1684200884101418200,5.303418212890625,-1.6634838315963745,-1.1205723016709088,2.015036338841915
1684200884111443200,5.313443115234375,0.06738821348771452,-0.5175964714050293,3.645180210894346
1684200884121467400,5.32346728515625,1.7605096429787574,0.6896715324223042,4.712044887775183
1684200884131492000,5.3334921875,3.6254268781542778,2.247595386916399,4.937830496191978
1684200884141517000,5.34351708984375,5.033514975968003,3.2879449818372724,4.937475106883049
1684200884151541200,5.353541259765625,4.690050498110056,3.0587896047264334,4.507674115569889
1684200884161566200,5.363566162109375,2.6562907540977,1.9591981317639349,3.23625161947906
1684200884171591200,5.373591064453125,0.027574235624074933,0.5614858820140362,2.0001117414325473
1684200884181616400,5.383616455078125,-2.767133640038967,-0.3019336130738258,0.558571163611114
1684200884191640000,5.39364013671875,-4.242659781831502,-0.630164865964651,-0.8219742627605795
1684200884201665300,5.403665283203125,-3.2895021481513975,-0.8833382475227117,-1.1705161900132894
1684200884211690200,5.413690185546875,-1.2287794322811065,-0.9583084405720234,-0.6896148337990046
1684200884221715200,5.423715087890625,0.5664030262805522,-0.8707108211398125,0.7268567692175507
1684200884231739400,5.433739501953125,0.9813152952153235,-0.5384042816340923,1.5167843271151185
1684200884241764400,5.443764404296875,0.6996586734294891,0.3281815685302019,1.7046479088947175
1684200884251789300,5.453789306640625,0.6620435938496142,1.2117699914216995,1.5097963679239153
1684200884261814300,5.463814208984375,0.9664882398962974,1.6198691462755201,1.1950795533835887
1684200884271838200,5.473838134765625,1.5435142208695412,1.327067518684268,0.9886769830897449
1684200884281863200,5.48386328125,1.4132874200224876,0.7538420990377664,0.48728433524966236
1684200884291888000,5.49388818359375,1.281528002780676,0.2084633022159338,-0.14123568611741066
1684200884301913300,5.503913330078125,1.6337608935058117,-0.17243512650132178,-0.549421350210905
1684200884311937300,5.513937255859375,1.6960814483404159,-0.1890951694011688,-1.0155831101939081
1684200884321962200,5.523962158203125,1.3639146095663308,-0.07459434547424316,-1.3084689089372754
1684200884331987200,5.5339873046875,1.247813949227333,0.08572247321009635,-1.427182966645062
1684200884342012200,5.54401220703125,1.147325868561864,0.20462299340069293,-1.3304103993713854
1684200884352036400,5.554036376953125,1.1587164466261863,0.39642391462922094,-1.2240513808459044
1684200884362061300,5.564061279296875,1.707728046992421,0.6692606125563383,-1.5769497497424483
1684200884372086300,5.574086181640625,2.765311100786924,0.6193249075204134,-1.6435203632369637
1684200884382111200,5.584111328125,3.3809961905002592,0.15956220092475412,-1.939212743833661
1684200884392135200,5.59413525390625,3.1250650346666573,-0.4311889385402202,-1.4138345325112343
1684200884402160000,5.60416015625,2.0444676005095244,-1.153901739820838,0.01601210038512945
1684200884412185000,5.61418505859375,1.1759265246242283,-1.2058745036423206,1.4159157226994632
1684200884422210300,5.624210205078125,0.9407522525500506,-0.9074497754722833,2.5090695638298985
1684200884432234200,5.634234130859375,0.8572912945311516,-0.7215630467236042,3.0118703249022363
1684200884442259200,5.64425927734375,1.187171556738019,-0.5308557659506797,2.976527501103282
1684200884452284400,5.654284423828125,1.6991145324259995,-0.33999417139887805,2.8831492524430153
1684200884462309400,5.664309326171875,2.0482956343650818,-0.24070260704159735,2.588094877488911
1684200884472333300,5.674333251953125,2.327617602658272,-0.4319008862018585,2.157729530291259
1684200884482358300,5.684358154296875,2.4839631796240806,-0.698284462466836,1.6676701773703098
1684200884492383200,5.69438330078125,2.574916539224982,-0.8863163865506648,1.1762091409578919
1684200884502408200,5.704408203125,2.52917185613811,-1.1772241632193325,1.0626073116973043
1684200884512432400,5.714432373046875,2.3353350451678034,-1.2938655063062905,0.863598358786106
1684200884522457300,5.724457275390625,2.2853917413473126,-1.2664718879461287,0.7314175012618302
1684200884532482000,5.73448193359375,2.2320926973581314,-1.218593115440011,0.7688257331579923
1684200884542507300,5.74450732421875,2.1341291667342186,-1.1026683961898087,0.8659750247895717
1684200884552531200,5.75453125,2.023055394646525,-0.8674193783789873,0.9726818338394164
1684200884562556200,5.76455615234375,1.8019792790949343,-0.7295476157367229,1.0529799439132213
1684200884572581400,5.774581298828125,1.6925725634366273,-0.9302595731735229,1.3428276901349425
1684200884582606300,5.7846064453125,1.6494219884961843,-0.7773971621483564,1.7923942891478537
1684200884592630300,5.79463037109375,1.348553958827257,-0.7588444373697042,1.8826783711850643
1684200884602655200,5.8046552734375,1.2682219464838504,-0.8895318414658308,1.988391200761497
1684200884612680200,5.81468017578125,1.3093898231744765,-0.9229384365051985,1.9839421123981476
1684200884622705200,5.824705078125,1.3738164103776216,-0.8636340146213769,1.90685653463006
1684200884632729300,5.834729248046875,1.4960925444811581,-0.8319190259307623,1.885854663133621
1684200884642754300,5.84475439453125,1.637147028812766,-0.7553916665673256,1.8935045933648942
1684200884652779300,5.854779296875,1.7559779908984898,-0.6567950987368821,2.0086036754459142
1684200884662804500,5.864804443359375,1.8598107058167457,-0.5424859979897737,1.9226377488687634
1684200884672828200,5.874828125,1.9700982959628104,-0.4414753547549248,1.5893699631154536
1684200884682853000,5.88485302734375,1.9724141716897488,-0.4081272119045257,1.1005068342417479
1684200884692878300,5.89487841796875,2.1177514479070902,-0.34311493376791474,0.4202721154674887
1684200884702903300,5.9049033203125,2.3633505948185918,-0.049534723019599915,-0.11790215680301189
1684200884712927200,5.91492724609375,2.7366192593097685,0.34894670866131783,-0.30471885987818237
1684200884722952400,5.924952392578125,3.2116175289601085,0.6910767230451107,-0.23088819225281476
1684200884732977200,5.93497705078125,3.7862206667006015,0.8743734353005885,-0.1753732257798314
1684200884743002000,5.945002197265625,4.346145290747285,0.7558563614696264,-0.17617372850775717
1684200884753026300,5.9550263671875,4.671736258262396,0.4896750297784805,-0.5494783410951495
1684200884763051300,5.96505126953125,4.547490285390615,0.07929682407677173,-1.3560548359766602
1684200884773076200,5.975076171875,3.9751229438781737,-0.19896072985529897,-2.055555396234989
1684200884783101400,5.985101318359375,3.104612029224634,-0.2683388019859791,-2.427595687974989
1684200884793125000,5.995125,2.1008986589141188,-0.3489373563110828,-2.7064289959684014
1684200884803150600,6.005150634765625,1.1062418707624078,-0.44628480086326594,-2.9699948844641444
1684200884813175600,6.015175537109375,0.3809668177783489,-0.42447044394016265,-3.190363728529215
1684200884823200800,6.02520068359375,-0.006986205625534057,-0.22924422443807124,-3.2588857683524486
1684200884833224400,6.035224365234375,-0.13748875467404723,-0.021249124255776405,-3.1706691402390597
1684200884843249700,6.045249755859375,-0.02705634922981262,0.09690671504735945,-2.886811574342847
1684200884853274600,6.055274658203125,0.23327508738934993,0.04514905528128147,-2.338144841891527
1684200884863299600,6.065299560546875,0.8332470596641302,-0.07964052294790744,-1.5752499600872396
1684200884873323800,6.07532373046875,1.747360530809313,-0.44746027438342567,-0.8273109476134181
1684200884883348700,6.0853486328125,2.7719728967636823,-0.857326438909769,-0.3149982618302107
1684200884893373700,6.095373779296875,3.5301866350144144,-1.11967506057024,-0.009182546626031398
1684200884903398400,6.1053984375,4.079471207103133,-1.1923638646841048,0.009590250644087792
1684200884913422600,6.115422607421875,4.009700336262584,-0.6598749445736408,-0.2307283255159855
1684200884923447600,6.125447509765625,3.5513586023807524,0.5286363363355397,-0.2723997678145766
1684200884933472500,6.135472412109375,2.3571441413938996,1.8805442817658184,0.6748271606422961
1684200884943497700,6.145497802734375,0.0037889074215665458,2.74747149271369,1.3037046171449125
1684200884953521700,6.155521728515625,-2.6164514956623313,2.7078368169397113,1.2596003947414458
1684200884963546600,6.165546630859375,-4.501335267937183,2.2167992666363716,2.0226883148998023
1684200884973571600,6.175571533203125,-4.985732065051794,1.650649484464526,5.365588291239738
1684200884983596500,6.185596435546875,-3.6011984458267685,0.11520225019454955,7.795013240468502
1684200884993620700,6.195620849609375,-1.6500702232718467,-1.4588415489733217,8.075594853433966
1684200885003645700,6.205645751953125,-0.11320676552839576,-2.533731711399555,7.191483867973089
1684200885013670700,6.215670654296875,1.182842587623,-3.171148155927658,5.660701702904701
1684200885023695600,6.225695556640625,2.063057150167227,-2.8838246674865484,4.319483493793011
1684200885033719600,6.235719482421875,2.847052979928255,-1.9530682507067918,3.432259344747662
1684200885043744500,6.24574462890625,3.7337890531957147,-0.9368424586951732,1.7702908861503004
1684200885053769500,6.25576953125,4.656666114902496,0.6748416275590657,0.5496468295298517
1684200885063794700,6.265794677734375,5.7037073164165015,2.0025842690259217,-0.033870997680723665
1684200885073818600,6.275818603515625,6.318246743226051,2.453596682932973,0.057244128353148696
1684200885083843600,6.285843505859375,5.999359072741866,2.0784861899673936,0.33017683400064707
1684200885093868800,6.295868896484375,5.290251602965593,1.2026765843838452,0.5340362956829369
1684200885103893500,6.3058935546875,4.876211367624998,0.5176420641124249,0.3334960415512323
1684200885113917700,6.315917724609375,4.5754234174549575,0.07625731025040149,-0.42329409363716836
1684200885123942700,6.325942626953125,3.781588915246725,-0.0914326675504446,-0.9765668585792183
1684200885133967600,6.335967529296875,2.475079615944624,0.10366145000457763,-0.9466574580058454
1684200885143992600,6.34599267578125,1.1950503272891044,0.40939328631758687,-1.153730182646215
1684200885154016800,6.356016845703125,0.22336919492483137,0.7893091337382793,-1.4659204013183713
1684200885164041500,6.36604150390625,-0.40018352289106696,0.9469254612922667,-1.5659595691725612
1684200885174066400,6.37606640625,-0.48096335206720975,1.1496434978544712,-1.7537933403357862
1684200885184091600,6.386091552734375,-0.20909403786752373,1.1420505585074423,-1.5820371360093355
1684200885194115600,6.396115478515625,0.13293664432764052,0.6340507674872875,-1.1548663470692933
1684200885204140500,6.406140625,0.5133552171060816,-0.15321896937787532,-0.8861969979546964
1684200885214165800,6.416165771484375,0.9348352105259895,-0.6159995624899863,-0.5740278220705688
1684200885224190700,6.426190673828125,1.2138824535310269,-1.1830436631530523,0.03614756431058049
1684200885234214700,6.436214599609375,1.3468904095292091,-1.7238824784576892,0.4215583558857441
1684200885244239600,6.446239501953125,1.5723650523006916,-2.0474533383220432,0.866197289238125
1684200885254264600,6.4562646484375,1.7491396693110466,-2.124585093319416,1.4863247453130781
1684200885264289500,6.46628955078125,1.6290496470749378,-1.928580290660262,1.963937873636931
1684200885274313700,6.476313720703125,1.0582488242268562,-1.6254028150051831,2.220864324118197
1684200885284338700,6.486338623046875,0.5056009131848812,-1.2215613175958395,2.4176792741164563
1684200885294363600,6.49636376953125,-0.015655834293365478,-0.9192167856335639,2.267625929162651
1684200885304388600,6.506388671875,-0.37197219493985173,-0.8205436454355716,1.9620723720259963
1684200885314412500,6.51641259765625,-0.4322843325614929,-0.8677572320312261,1.616242187950015
1684200885324437500,6.5264375,-0.09355039035677909,-1.0198299539834261,1.2787882025532424
1684200885334462700,6.536462646484375,0.6440893464207649,-1.1805465856403112,0.948526320617646
1684200885344487700,6.54648779296875,1.703117922848463,-1.1365338409125805,0.5873848779022693
1684200885354511600,6.55651171875,2.699572261941433,-0.6603232728630304,0.4434640443541109
1684200885364536600,6.56653662109375,3.168393888783455,0.5101292042642831,0.6936370750524103
1684200885374561500,6.5765615234375,2.4840508579075333,2.533039637482166,0.5752876128733158
1684200885384586500,6.58658642578125,1.1207745462447405,5.353147327339649,-0.18181962544023988
1684200885394610700,6.596610595703125,0.5630787772286683,7.672610849636793,-1.4902680761113762
1684200885404635600,6.6066357421875,0.7734194906890391,8.661948634722828,-2.9217341269031167
1684200885414660600,6.61666064453125,0.8635814076513052,7.719654924884438,-3.645983928492665
1684200885424685800,6.626685791015625,1.4081646701812742,5.2252510152667755,-3.2908903876394033
1684200885434709500,6.63670947265625,3.191880562832951,2.4113848501473663,-2.385001870134473
1684200885444734500,6.646734375,3.8495635503202674,0.35825580427646636,-2.0436954470932482
1684200885454759700,6.656759765625,3.38547070556581,-0.5488298140585423,-2.752437006166577
1684200885464784600,6.66678466796875,2.5708120265156027,-0.9944675491899251,-3.1392233238786456
1684200885474808600,6.67680859375,2.0153075569987298,-1.2607780602186918,-2.9717221466481685
1684200885484833800,6.686833740234375,1.43243635712862,-1.1952683539539575,-2.21257814181
1684200885494858800,6.696858642578125,0.6204436824172734,-0.9627379474520683,-1.216817630200088
1684200885504883500,6.706883544921875,0.19707805791385472,-0.8961118043780326,-0.8871548832014202
1684200885514907600,6.71690771484375,0.4586960272122174,-1.1664327200919389,-0.9742235103234648
1684200885524932600,6.7269326171875,1.4021902719467878,-1.5070698655694723,-1.2103206693962216
1684200885534957600,6.73695751953125,2.3318138853043315,-1.7870774780392646,-1.7128157255202532
1684200885544982800,6.746982666015625,2.8021704666286706,-2.198398517549038,-2.477738021498918
1684200885555006700,6.7570068359375,3.081732088896632,-2.672648599180579,-3.2806600855261085
1684200885565031400,6.767031494140625,3.0202105754852293,-3.036349224859476,-4.150174390357733
1684200885575056600,6.777056640625,2.212588955464959,-3.48619960924983,-4.69932978310883
1684200885585081600,6.78708154296875,0.508199770571664,-3.729877432709932,-4.759218726882338
1684200885595105500,6.79710546875,-1.4278513674259186,-3.67965648099184,-3.9011674808293577
1684200885605130800,6.807130859375,-2.169403309211135,-3.6345138554513454,-2.3192156850159167
1684200885615155700,6.81715576171875,-1.6730371112309395,-2.854303973969817,-1.3212696460604667
1684200885625180700,6.8271806640625,-0.14199322648644447,-0.5328454784631729,-0.03352934463620186
1684200885635204600,6.83720458984375,2.091913096164912,1.4622943197757006,2.466243106277287
1684200885645229600,6.8472294921875,2.9931828678280112,2.779767496162653,3.986750253307819
1684200885655254500,6.857254638671875,1.6736141804665325,3.4839731653720136,4.1164428011476994
1684200885665279700,6.86727978515625,-1.1889769987247885,3.8571331087917087,3.2174200777590274
1684200885675303700,6.8773037109375,-3.13520590493083,3.914371245795488,2.401003156864643
1684200885685328600,6.88732861328125,-2.573933957928419,3.1124165654957294,2.2150883710652587
1684200885695353600,6.897353515625,-1.017217141136527,1.9594582440048456,3.5176892647519704
1684200885705378600,6.907378662109375,0.177661848173663,0.9812567699611187,4.980494748920202
1684200885715402500,6.917402587890625,0.2653151433158666,0.4877841014653444,5.631610048454999
1684200885725427700,6.927427734375,-0.8334808684200048,0.3297930953800678,5.632869108605385
1684200885735452700,6.93745263671875,-1.801948299434781,0.445796140563488,4.769299975913762
1684200885745477600,6.9474775390625,-1.6036860732376574,0.47169455192983145,3.839309282809496
1684200885755501600,6.95750146484375,-1.0982925191931425,0.5151525853842497,3.0654870565384624
1684200885765526500,6.967526611328125,-1.0559744495540857,0.626201807552576,2.318314060001075
1684200885775551500,6.977551513671875,-1.2829600814104078,0.6765484314769507,1.6654419799268245
1684200885785576700,6.98757666015625,-2.0449526075474918,0.6480459750920534,1.2453908137336374
1684200885795600600,6.9976005859375,-3.102691290295124,0.6356038421481848,0.5807794882878661
1684200885805625000,7.007625,-3.024476416236162,0.6737772131979465,-0.4938239661514759
1684200885815650000,7.017650146484375,-0.9951023399621247,0.08200023781657219,-1.4891814499184488
1684200885825675000,7.027675048828125,1.6396949597299098,-0.5927484507620334,-2.7614985567614436
1684200885835699200,7.03769921875,3.103604898008704,-0.6719453215956688,-3.586787350897491
1684200885845724200,7.04772412109375,2.5460095936924216,-0.5138444253951311,-3.2501731773257254
1684200885855748900,7.057748779296875,1.6270624187804759,-0.005250760135054588,-2.429636253891885
1684200885865773800,7.06777392578125,1.3626426899343729,1.247325288927555,-2.2128347469195724
1684200885875798000,7.077798095703125,1.7897931667387486,2.497097386485338,-2.617438753134012
1684200885885823000,7.087822998046875,2.6265403434783217,3.025147447365522,-2.7956238214641806
1684200885895848000,7.097847900390625,3.4508623384088275,2.664004689475894,-2.3596248522937295
1684200885905873200,7.107873046875,3.6961511041969057,1.4310364272028206,-1.567296955256164
1684200885915896800,7.117896728515625,3.3942911408811804,-0.08471008129715919,-1.2108280343964695
1684200885925921800,7.127921875,2.9646424175202846,-1.2258207286059857,-1.6466598303064703
1684200885935947000,7.137947021484375,2.514947515952587,-1.9898668262720107,-2.2008576011389493
1684200885945972000,7.147971923828125,2.111241043099761,-2.4921219361603257,-2.5591715653434393
1684200885955996200,7.15799609375,1.6371353383749723,-2.692891176742315,-2.7277888871222733
1684200885966021000,7.168021240234375,1.1003542740285397,-2.683653977319598,-2.667698867818713
1684200885976046000,7.178046142578125,0.5090174436300993,-2.3828683652371168,-2.4142308872282503
1684200885986071000,7.188071044921875,-0.1722280596219003,-1.985817258620262,-2.23866038531065
1684200885996095000,7.198094970703125,-0.8658884424846619,-1.5889087753444908,-2.2903780053272844
1684200886006120000,7.208119873046875,-1.4964045330397784,-1.2356330975681542,-2.484719550949335
1684200886016145000,7.218144775390625,-1.9586960274606942,-0.9226806623518466,-2.752868091060221
1684200886026170000,7.228170166015625,-2.1705004567980763,-0.7549275561869144,-3.0667034465909
1684200886036194000,7.238194091796875,-2.2532921372532844,-0.7838157970190047,-3.004235592240095
1684200886046219000,7.248218994140625,-2.1695535313367844,-0.8086158917546272,-2.745627910673618
1684200886056244000,7.258243896484375,-2.1337913130819794,-0.8823983363240957,-2.3897163314357397
1684200886066269000,7.26826904296875,-2.3841315170407293,-0.9364069898873567,-1.7105036491855978
1684200886076292900,7.27829296875,-2.5063141276419163,-0.6916507235407829,-0.6751932174757123
1684200886086318000,7.288318115234375,-2.351321134328842,-0.2735346170634031,0.5779685225203633
1684200886096343000,7.298343017578125,-2.168586147609353,0.31534371426701546,1.9154519290179013
1684200886106368000,7.308367919921875,-2.153030266559124,1.0640712467700242,3.367495488414168
1684200886116392000,7.318391845703125,-2.170785118958354,1.7817928156346081,5.073731835544109
1684200886126417000,7.3284169921875,-1.5133289259642362,2.229946332979202,7.425193255126476
1684200886136441900,7.33844189453125,-0.5150169763058424,2.345522092661261,9.449941425165534
1684200886146467000,7.348467041015625,0.7157622514903546,2.3428496585816143,10.496716669219731
1684200886156491000,7.358490966796875,1.5510779341220855,1.8883377121210096,9.8239191147089
1684200886166516000,7.368515869140625,2.232107894927263,1.086703349816799,8.702114640894532
1684200886176541200,7.378541259765625,2.4184078806519507,-0.17671031960248945,6.872133840674161
1684200886186566100,7.388566162109375,2.0451918231308457,-1.740701511311531,4.903714291578531
1684200886196589800,7.39858984375,1.5811434020400046,-3.358448843127489,3.5588726312726733
1684200886206615000,7.408614990234375,1.0329659144103527,-4.668753443059325,2.5096426875427365
1684200886216640000,7.418639892578125,0.5778723686695099,-5.598107007303834,1.6905936645790933
1684200886226665000,7.4286650390625,0.7581786669373511,-5.927741697251796,0.8960168195709586
1684200886236689200,7.438689208984375,1.3722680118918418,-5.733083633026481,0.06596008038073778
1684200886246714000,7.448714111328125,2.1093010149478912,-5.401525866061449,-0.9019991088509559
1684200886256738800,7.45873876953125,3.1737282355487344,-4.987667417028546,-2.118947671954334
1684200886266764000,7.468763916015625,4.100045793098211,-4.255154521745443,-3.886487798091769
1684200886276788000,7.4787880859375,3.857696003371477,-2.487255791428685,-5.8238078600466245
1684200886286813000,7.48881298828125,2.5291163265585896,-0.3158452340483665,-6.907371742793917
1684200886296838100,7.498838134765625,1.0255844989221543,1.3026076156884432,-6.912649390935897
1684200886306863000,7.508863037109375,-0.3617957419056445,2.3960189387112854,-5.312728807711601
1684200886316886800,7.51888671875,-2.3909248304426667,3.171878808289766,-5.0081625080466265
1684200886326912000,7.528912109375,-5.275630372416972,4.276918609786033,-6.718632547223567
1684200886336937000,7.53893701171875,-8.949125992691517,7.082399808397889,-6.6132970265269275
1684200886346961000,7.5489609375,-10.665375784313678,10.716851120007037,-2.389033609868586
1684200886356986000,7.558986083984375,-8.884251077198982,12.850009980404376,2.267169563697278
1684200886367011000,7.569010986328125,-5.73435263004899,13.156430383503436,4.883586864829063
1684200886377036000,7.5790361328125,-3.260231630003452,11.26083290951252,6.472238450542092
1684200886387061000,7.58906103515625,0.6928092459261417,5.030327578103542,5.3432034409523
1684200886397085000,7.5990849609375,6.71267860725522,-1.3630319815129042,2.68078777423352
1684200886407110000,7.60910986328125,10.86871341407895,-5.18236815135181,1.4705369552031158
1684200886417135000,7.619135009765625,10.219679012471437,-7.138025249508023,-0.18067688514590263
1684200886427159000,7.629158935546875,6.7156690212428565,-8.462771631768346,-4.0583249586999415
1684200886437184000,7.63918408203125,2.3188147029995916,-8.80971109226048,-7.263861706441641
1684200886447209200,7.649209228515625,-1.164781372688338,-6.2979205790340895,-7.364325821709633
1684200886457234000,7.65923388671875,-3.05780819247365,-3.5551726077109573,-3.9248070073530075
1684200886467257900,7.6692578125,-3.933443026012182,-1.5272773718178272,-0.07742576950788498
1684200886477283000,7.679282958984375,-3.678054891014099,0.5151344652056694,3.2581016322374343
1684200886487308000,7.68930810546875,-2.101018339771032,2.1593600541025397,5.487824677854776
1684200886497333000,7.6993330078125,-0.6545663898367434,2.674388720846176,5.578888512092829
1684200886507357200,7.709357177734375,-0.6530640955150127,2.2338602915525434,3.8649744699418545
1684200886517382000,7.7193818359375,-0.6376128438830375,1.352948394393921,0.4855214172303676
1684200886527406800,7.72940673828125,0.22364633136577902,1.3350263687342405,-2.8286238815292712
1684200886537432000,7.73943212890625,1.4952280366063118,1.7063000600159168,-4.921788877451419
1684200886547456000,7.7494560546875,2.998192804944515,1.4243138409495353,-6.000588322275877
1684200886557481000,7.75948095703125,3.406699956077337,0.6966092227309942,-5.7875113887846465
1684200886567506200,7.769506103515625,3.272145355159044,0.1024386302113533,-4.6859956697613
1684200886577531100,7.77953125,2.9538334387362,0.10757248596847056,-2.9081805255860087
1684200886587554800,7.789554931640625,2.360135724425316,0.1564227338552475,-0.9654776015490293
1684200886597580000,7.799580078125,1.3624071276128291,0.2528694301754236,0.7426426596313714
1684200886607605000,7.80960498046875,0.6920341699004173,0.24319033220410347,2.103981427360326
1684200886617630000,7.8196298828125,0.4330431150395423,0.19755437018871305,3.1010002684682605
1684200886627654100,7.829654052734375,0.3098305038034916,0.023537527453899382,3.596135901740193
1684200886637679000,7.83967919921875,0.24337504112124442,0.04073766857981682,2.9570263895586133
1684200886647703800,7.849703857421875,0.05351414804458618,-0.13836042294204234,1.6046210160002112
1684200886657729000,7.85972900390625,0.028020737282559275,-0.07906418436467647,0.10872823187485336
1684200886667753000,7.8697529296875,0.2625542272351682,-0.20703297715187072,-1.2372586529433727
1684200886677778000,7.87977783203125,0.3693032679915428,-0.4521306042820215,-2.265461882996559
1684200886687803100,7.88980322265625,0.2442180678166449,-0.5301853193432092,-2.803644923095405
1684200886697828000,7.899828125,-0.1738752423070371,-0.4634972169488668,-2.2191379387170076
1684200886707851800,7.909851806640625,-0.45019773652330036,-0.4041770129740238,-1.1138166899308561
1684200886717877000,7.919876953125,-0.6632219899792223,-0.35337329293191433,0.17785569024533032
1684200886727902000,7.92990185546875,-0.7662193500518798,-0.34832711545825,1.062835275234282
1684200886737927000,7.939927001953125,-0.43653629091754553,-0.24764321995973584,1.4957427081301808
1684200886747951000,7.949951171875,0.05401902882680296,-0.2613561034917831,1.6879747142523527
1684200886757976000,7.95997607421875,0.4032662548046559,-0.25365210498571394,1.7599672066651284
1684200886768001000,7.9700009765625,0.473019663053751,-0.2892249381482601,1.3829077715888618
1684200886778026000,7.98002587890625,0.45076808375716204,-0.12969780853688717,0.8369640343606471
1684200886788050000,7.9900498046875,-0.035407997989654535,-0.015937573844194412,-0.07462561739534139
1684200886798075000,8.000074951171875,-0.613576207800582,0.06158814890682697,-0.870303117121756
1684200886808100000,8.01010009765625,-1.0853474051631986,0.15974164914488792,-1.2729700177937746
1684200886818125000,8.020125,-1.3663830455064774,0.3078302698969841,-1.4651336348548532
1684200886828149000,8.03014892578125,-1.3924445384800432,0.6251642811983823,-1.599337522639334
1684200886838174200,8.04017431640625,-1.1961246785223483,1.0234691872686148,-1.6455939546406269
1684200886848199200,8.05019921875,-0.8829987864352762,1.2985434349894522,-1.930767863832414
1684200886858224000,8.06022412109375,-0.36547698770165443,1.2313467985510826,-1.7655483677983284
1684200886868248300,8.070248291015625,0.03554609128609299,0.7586451154053211,-1.6503636532604693
1684200886878273000,8.08027294921875,0.36385450106635686,0.15234160202145575,-1.5379402201294898
1684200886888298000,8.090298095703124,0.3979319811046123,-0.39211189664900303,-1.3872072223484515
1684200886898323000,8.100322998046876,0.30381007447019215,-0.7617582789897919,-1.3075085394725203
1684200886908347100,8.11034716796875,0.07809197833165527,-0.8484171562671661,-1.220573475602269
1684200886918372000,8.1203720703125,-0.37864283181019126,-0.627365590634942,-1.0991045662283896
1684200886928397000,8.13039697265625,-0.645122854186967,-0.13786357933580876,-0.8992579934492707
1684200886938422300,8.14042236328125,-0.6110111065529287,0.4409861099332571,-0.6529021829515695
1684200886948446000,8.150446044921875,-0.416324400755018,0.8371750467628241,-0.3679334409430623
1684200886958471200,8.16047119140625,-0.05315305964723229,0.8477075466930866,-0.07448503988087177
1684200886968496000,8.17049609375,0.3529973722916096,0.4736147063374519,0.10966770468205213
1684200886978521000,8.18052099609375,0.5209093953453005,-0.03409983800053596,0.060679509629309174
1684200886988545300,8.190545166015625,0.5344317247413098,-0.5070686476498842,-0.07876315559148787
1684200886998570200,8.2005703125,0.4265057491600513,-0.848228940218687,-0.2608002231746912
1684200887008595200,8.21059521484375,0.1422560421410948,-0.9571785597592591,-0.522932863996923
1684200887018620000,8.220619873046875,-0.2299428011614829,-0.6957938146948814,-0.6695654407218098
1684200887028644000,8.23064404296875,-0.5714554873645306,-0.15711130064129827,-0.6468821920096874
1684200887038669000,8.2406689453125,-0.8055130303684621,0.4268845193445682,-0.41035862421840424
1684200887048694000,8.250694091796875,-0.9028688774228095,0.7089794594824314,-0.05176350498497486
1684200887058719200,8.26071923828125,-0.7815105888165533,0.46769583768248557,0.354811801302433
1684200887068743200,8.2707431640625,-0.4812450550854206,-0.2636918529629707,0.7977572286099195
1684200887078768000,8.28076806640625,-0.4008978451728821,-1.2027338675290344,1.140352522417903
1684200887088793000,8.29079296875,-0.8415139527499675,-1.8993138641655445,1.386870830000937
1684200887098818000,8.300818115234375,-1.3077848721958696,-1.6362556329309939,1.7553800250053404
1684200887108842200,8.31084228515625,-1.648946772199869,-0.2725409298509359,1.7662310893654822
1684200887118867200,8.3208671875,-1.2978501920282839,1.3109639406234026,0.9180988875195384
1684200887128892200,8.33089208984375,-0.6922339302562177,2.457279170837998,0.0739262369543314
1684200887138917000,8.340917236328124,-0.058442836618423456,2.6412323011755943,-0.726953215329349
1684200887148941000,8.350941162109375,0.11394801234975456,1.8304770593047142,-1.34004390463531
1684200887158966000,8.360966064453125,-0.12733210231885314,0.6975988182902336,-1.6023356815420091
1684200887168991000,8.370990966796874,-0.288507145267725,-0.1808569178879261,-1.706538252685964
1684200887179016200,8.38101611328125,-0.38380065296478566,-0.7121294479459523,-1.6791325054965913
1684200887189040000,8.3910400390625,-0.48541868750825523,-0.9560358194649219,-1.5194837953321634
1684200887199065000,8.401065185546875,-0.5819640949625522,-0.793108526021242,-1.1477357645370065
1684200887209090300,8.41109033203125,-0.783390265083313,-0.4151514114528894,-0.7107488072425127
1684200887219115000,8.421114990234376,-0.9885128785692154,-0.024084639942646025,-0.38946518153250215
1684200887229139200,8.43113916015625,-1.1021206991791725,0.3547463348507881,-0.22204583736658096
1684200887239164200,8.4411640625,-1.1964262918174267,0.5157037895262241,-0.17506576726585626
1684200887249189000,8.451189208984376,-1.2487842555642128,0.3879571150571108,-0.06234598153680563
1684200887259214000,8.461214111328125,-1.2626501377008854,0.09806231482326984,0.11830007007941604
1684200887269238300,8.47123828125,-1.2781027045071125,-0.21630290980041025,0.3445376600474119
1684200887279263000,8.481262939453124,-1.262597676861286,-0.5150748439729214,0.564302400739491
1684200887289288000,8.491287841796876,-1.1467162122309207,-0.6264531519651413,0.8789771297037601
1684200887299313200,8.501313232421875,-1.0022447590626775,-0.5130009603083133,1.1433967124193907
1684200887309337000,8.511337158203125,-0.7951428083278238,-0.30842706674635406,1.2875287045001982
1684200887319362000,8.521362060546876,-0.5668213978230953,-0.11937690553069114,1.206623568443954
1684200887329387300,8.53138720703125,-0.4483190831698477,-0.09565934533476829,1.083558475919813
1684200887339412200,8.541412109375,-0.36422362663969393,-0.2278951479166746,0.8670232186682522
1684200887349436200,8.551436279296874,-0.39502471535578365,-0.4121341094583273,0.6746930128686129
1684200887359461000,8.561461181640626,-0.38343116206526756,-0.538679006922245,0.6206280990734696
1684200887369486000,8.571486083984375,-0.3104186789549887,-0.5014186590641737,0.8065420080900192
1684200887379511000,8.581510986328125,-0.36323242364525793,-0.3361591232806444,1.1926225156202912
1684200887389535200,8.59153515625,-0.520763703264296,-0.1864858636856079,1.48680156904459
1684200887399560200,8.601560302734375,-0.8001227886974811,-0.18806816444098948,1.4096727366566657
1684200887409585200,8.611585205078125,-1.0781659692265093,-0.09946808996796608,1.3523377151496707
1684200887419610000,8.621610107421875,-1.1112309112213552,-0.011903203761577606,1.5262423296816645
1684200887429634000,8.631634033203126,-0.9239410376764834,0.025755203503370284,1.802561024505645
1684200887439659000,8.641658935546875,-0.8297241462349891,-0.0022568390160799027,1.9613256453119217
1684200887449684200,8.651684326171875,-0.7437821850553155,0.062435705646872515,1.9711152179203926
1684200887459709200,8.661709228515624,-0.6340601198375224,0.0759130268573761,1.8950914241649208
1684200887469733000,8.671733154296875,-0.5459963441982865,0.10242927786111831,1.8392079166404902
1684200887479758000,8.681758056640625,-0.39405426288843154,0.15099018741250037,1.8611248571552335
1684200887489783000,8.691782958984374,0.009800094002485275,0.354548766452074,1.8920633085153995
1684200887499808000,8.70180810546875,0.595831365338713,0.5537082337498664,2.0125313702836634
1684200887509832200,8.711832275390625,0.828652133089304,0.6325730961501598,2.088845671418309
1684200887519857200,8.721857177734375,0.5652256530642509,0.736983318695426,1.7073656434208153
1684200887529882000,8.731882080078124,0.2030911076582968,0.7931956197828054,0.8841431341648102
1684200887539907300,8.7419072265625,-0.2323136950112879,0.9145429486036301,0.20323928395733237
1684200887549931000,8.751930908203125,-0.6949766530930995,1.2825070769459008,-0.33113822637870904
1684200887559956000,8.7619560546875,-0.9138884302176534,1.8637234953463075,-0.7414744926348328
1684200887569981200,8.771981201171876,-1.074623912705481,2.2718442775100467,-0.8035403420560061
1684200887580006100,8.782006103515625,-1.1098517318226397,2.4108751470595595,-1.038262997905165
1684200887590030000,8.792030029296875,-1.0554689842499791,2.091310015705228,-1.0456208133220672
1684200887600055300,8.80205517578125,-0.9610499943651258,1.5829893221676348,-0.9467541963785886
1684200887610080300,8.812080322265626,-0.7558380951605737,1.220901976904273,-0.8072405117481947
1684200887620104200,8.822104248046875,-0.6684568949580192,0.9325725262910127,-0.3288865019291639
1684200887630129200,8.832129150390625,-0.7040308971643447,1.1265800176531076,0.272509073407948
1684200887640154000,8.842154052734376,-0.6530185758728534,1.2858534647643565,0.9882859379455446
1684200887650179000,8.852178955078125,-0.7263958737075329,1.3905197078973055,1.5462626427948474
1684200887660204300,8.862204345703125,-0.5852209778666496,1.443262871569395,2.034398918698728
1684200887670228200,8.872228271484374,-0.20705873264763502,1.2904220878541468,2.4439412580981847
1684200887680253000,8.8822529296875,0.2113058138991706,1.190841769683361,2.630379775510728
1684200887690278100,8.892278076171875,0.5227238974213599,0.9678215343266725,2.2039418308898804
1684200887700303000,8.90230322265625,0.6864221752375363,0.5394371318131685,1.4926614009886978
1684200887710327000,8.9123271484375,0.8082353680044412,-0.005184709161520004,0.7288713239103555
1684200887720352300,8.922352294921875,1.2840484611690044,-0.5299591093719005,-0.020592413912713527
1684200887730377200,8.932377197265625,1.9509166256308554,-1.0237065031558275,-0.427875283947587
1684200887740401200,8.942401123046874,2.078158857709169,-1.4802122537821532,-0.5418526685222983
1684200887750426000,8.952426025390626,1.6149229220449923,-1.8064684072077273,-0.4637120287433266
1684200887760451000,8.962451171875,1.0607774659216402,-2.0707336761444806,-0.8034186153724789
1684200887770476000,8.97247607421875,1.3549018665492534,-2.136991570428014,-1.107231758582592
1684200887780500200,8.982500244140626,2.3231349042862655,-2.036767109134793,-1.430110836790502
1684200887790525200,8.992525146484375,3.051847238242626,-1.3710861086308956,-1.8889751332417128
1684200887800550000,9.0025498046875,3.657401979085803,-0.45081309194266794,-1.8198779238790272
1684200887810574800,9.012574951171874,3.3888954193174836,0.3182990569412708,-1.4118091641634702
1684200887820598800,9.022598876953126,2.5564275273323056,1.0369137752532958,-0.5940419977039099
1684200887830623700,9.032623779296875,1.4131611632943153,1.4703046077519655,0.18409020072072743
1684200887840649000,9.04264892578125,0.5965297228664159,1.5244886178821324,0.0859820009291172
1684200887850674000,9.052673828125,0.5522504361569881,1.1298831508517264,-1.1277303567320107
1684200887860698000,9.062697998046875,1.1332114184916018,0.4445329887598753,-2.6704917134076354
1684200887870722800,9.072722900390625,2.007829768463969,0.15104104081690312,-3.02927241834104
1684200887880747800,9.082747802734374,2.4967139401257037,0.1923807669430971,-2.669265094222128
1684200887890772700,9.092772705078126,2.4449229626119133,0.10482640213072299,-2.132435222297907
1684200887900797000,9.102796875,2.2436814283430575,0.0012263269245624542,-1.4284148465275763
1684200887910822000,9.11282177734375,1.950666596392542,-0.22743162205815315,-0.6082435415357351
1684200887920846800,9.122846923828124,1.4756326709069312,-0.19605974771678447,-0.1326537357330322
1684200887930872000,9.1328720703125,1.0278362964369356,-0.25671499968767164,0.05467793112695217
1684200887940895700,9.142895751953125,0.7314309452652931,-0.39782209098935123,-0.19174334582239388
1684200887950920700,9.152920654296874,0.42326048362851143,-0.4058329634875059,-0.7119970537379383
1684200887960946000,9.16294580078125,0.11978614391870795,-0.5021878898710013,-1.3497741482719778
1684200887970971000,9.172970947265625,0.08339972935095429,-0.5869529162257909,-1.8349521588921547
1684200887980994800,9.182994873046875,0.03959682798162102,-0.7555465648680925,-2.2897671799525616
1684200887991020000,9.19302001953125,0.09791443078517913,-0.8927508035123348,-2.4057693483531475
1684200888001045000,9.203044921875,0.10515198082327842,-0.948105610987544,-2.40458013856858
1684200888011069700,9.213069580078125,0.05622640267796814,-0.8423404667019844,-2.390385608999431
1684200888021094000,9.223093994140624,0.023415362378954887,-0.5033277075558901,-2.1989318937733766
1684200888031118800,9.233118896484376,-0.05396240326873958,-0.10103402411043644,-1.8385256334647535
1684200888041143800,9.243143798828125,-0.030743294114246963,0.1953957308501005,-1.4138131974622605
1684200888051169000,9.2531689453125,-0.027020693394541738,0.3224474087923765,-0.9801000011414289
1684200888061193000,9.26319287109375,-0.16714403435587882,0.35511399911940095,-0.5043132114619017
1684200888071217700,9.2732177734375,-0.4075133908551186,0.4679501047044992,0.0823676098242402
1684200888081243000,9.283242919921875,-0.6855506531000137,0.5342506690859794,0.6795499513804912
1684200888091267800,9.293267822265625,-0.8045610634058713,0.5790946039408446,1.4040943520024418
1684200888101291800,9.303291748046876,-0.9908941476825625,0.44489071615636344,1.4893427779600024
1684200888111317000,9.31331689453125,-1.0959679487030953,0.023566169026494024,1.427958334931731
1684200888121342000,9.323342041015625,-0.9897221812937408,-0.33074528153836724,1.372338739040494
1684200888131367000,9.333366943359374,-0.8291770337462425,-0.4673620756834745,1.0806541327804327
1684200888141390800,9.343390869140626,-0.4667629407465458,-0.8390671441197395,0.5350245760679244
1684200888151415800,9.353415771484375,0.06990706444084643,-1.2065548871219158,0.10538578957915305
1684200888161440800,9.363440673828125,0.5107305311582983,-1.3562158717572688,-0.110206926125288
1684200888171466000,9.373466064453124,0.8372977963596582,-1.4234282902866602,-0.11947335164248943
1684200888181490000,9.383489990234375,1.0722476850934326,-1.4510837744534015,0.04596417105644941
1684200888191515000,9.393514892578125,1.2165058608371764,-1.3850024057805537,0.34875673904716964
1684200888201540000,9.4035400390625,1.2195459591854363,-1.3234931673288344,0.593172521393001
1684200888211564800,9.413564697265626,1.1395015316117554,-1.2539514290690421,0.7019140511408448
1684200888221588700,9.423588623046875,1.0791992577970027,-1.2434762122839689,0.6719456138566136
1684200888231614000,9.433614013671875,1.024865610063076,-1.2760089470982552,0.5981964870348573
1684200888241639000,9.443638916015624,0.8602245715040713,-1.4279676872819662,0.5876090420469642
1684200888251664000,9.453663818359376,0.7119616901636123,-1.688718226096034,0.7396762110412121
1684200888261688000,9.46368798828125,0.5495786231318488,-1.9517425550609826,0.8643561914160847
1684200888271712800,9.473712646484374,0.2520464233547449,-2.05628078790009,0.9091203390330076
1684200888281737700,9.48373779296875,-0.012373141094576566,-2.0339181494444607,0.9334063467666506
1684200888291763000,9.493762939453125,-0.17642215031087397,-1.9270272159993647,1.0006561746969818
1684200888301787000,9.503786865234375,-0.19483400531411169,-1.7873989650785922,1.1259613012328744
1684200888311811800,9.513811767578124,0.1621335127174854,-1.7036925078660248,1.0946160226374864
1684200888321837000,9.523837158203126,1.0697826101541519,-1.5209744722813368,0.326575594638288
1684200888331862000,9.533862060546875,1.7162603130161762,-0.9026356531888245,-1.2082163905933498
1684200888341885700,9.5438857421875,1.5975895099282265,0.05718143838047981,-2.5037813942939042
1684200888351911000,9.553910888671876,0.8409984775085002,0.7516390360355377,-2.578974874705076
1684200888361936000,9.563935791015625,-0.023826281267404555,1.189496784815192,-1.4949357756614685
1684200888371960800,9.5739609375,-1.8707120390594005,0.6799778214037417,-1.0116878563210367
1684200888381985000,9.583985107421874,-3.9309728365063665,0.22512977485656738,-2.2025191046103836
1684200888392010000,9.594010009765626,-5.376491962569951,1.5868383988112211,-1.6325637926757335
1684200888402034700,9.60403466796875,-5.607967307060957,3.95754286352396,2.895658605404198
1684200888412060000,9.614059814453125,-2.9313258388519285,4.890461426773667,7.278585812842845
1684200888422083800,9.624083740234376,-1.173862577831745,3.4925124456584453,8.403394729170202
1684200888432108800,9.63410888671875,-2.27167067450881,1.4196411729633807,7.105449260073899
1684200888442134000,9.644134033203125,-2.7659529058218,0.05852876133620739,5.137343599233031
1684200888452158000,9.654157958984374,-2.788148371016979,-0.2862608276456594,3.129635119061172
1684200888462182700,9.6641826171875,-2.024710176116228,0.5448877984344959,1.4443383918464183
1684200888472208000,9.674207763671875,1.1108733299553393,2.5397902807861565,0.5353156679689884
1684200888482232800,9.68423291015625,5.278839397591352,4.80632534597218,0.054955579024553294
1684200888492257800,9.6942578125,7.903943570786714,5.570788207745552,-0.7512649420261382
1684200888502282000,9.704281982421875,7.484626271826029,3.6748166397452353,-1.6077683741152287
1684200888512307000,9.714306884765625,4.7199967235624785,0.6633686319082975,-1.7509969876155256
1684200888522332000,9.724331787109374,1.6026806955873965,-1.259223816514015,-1.756070637618005
1684200888532355800,9.73435595703125,-1.0068693501234054,-2.510131640103459,-2.0139023663759232
1684200888542380800,9.744380859375,-2.1937106519937513,-3.2953812693178652,-2.332499529480934
1684200888552405800,9.75440576171875,-2.5033015018224716,-3.5688480818420647,-2.829733888597786
1684200888562431000,9.764430908203124,-2.536409990698099,-3.4907845989525317,-2.8135630905196067
1684200888572455000,9.774454833984375,-1.9582535443902014,-2.8051310699999332,-2.4274647550716995
1684200888582480000,9.78447998046875,-1.0493500629782677,-1.581708050185442,-1.9279922616392373
1684200888592505000,9.794505126953124,-0.40515199548602104,-0.3198164757668972,-1.3933052469626068
1684200888602529800,9.80452978515625,-0.25851998501671475,1.034279919618368,-1.3375848210453987
1684200888612553700,9.8145537109375,-0.7223848845005035,2.0351327859312294,-1.6381287333264947
1684200888622579000,9.824578857421875,-1.1234113244891166,2.48679927983284,-1.7955109598636627
1684200888632604000,9.83460400390625,-1.2876666516661643,2.5418746858447787,-1.9314178521737455
1684200888642628900,9.84462890625,-0.8982324497938156,2.167886474907398,-1.8769059252634643
1684200888652653000,9.854653076171875,0.2938484880293719,1.7932751636356115,-1.515974179776013
1684200888662677800,9.864677734375,2.087132437759638,1.1053811622798442,-1.0633896942466496
1684200888672702700,9.87470263671875,3.411537459236383,0.3797667943388223,-0.8480138361632823
1684200888682728000,9.88472802734375,3.5294928075313567,-0.014781389546394347,-0.5836711180761456
1684200888692752000,9.894751953125,2.9773394020080564,-0.37938276345729827,0.1192673076763749
1684200888702776800,9.90477685546875,2.554763978034258,-0.6443705014497041,0.780204620784521
1684200888712802000,9.914802001953126,1.9203133975744247,-0.7597042690694331,1.0925342479273676
1684200888722827000,9.924826904296875,1.1790461179494858,-0.6656634648472071,1.0922194828897713
1684200888732850700,9.9348505859375,0.36409400891065596,-0.44304011985361574,0.6573968640223146
1684200888742876000,9.9448759765625,-0.23188809001035987,-0.347993353459239,-0.09767799168080091
1684200888752900900,9.95490087890625,-0.31182847268767655,-0.24115619602799415,-1.3264990711465476
1684200888762925800,9.96492578125,-0.14721066887378692,-0.03405307624936103,-2.307398405972123
1684200888772950000,9.974949951171874,0.4524795638501644,0.18448679882287977,-2.844917429204285
1684200888782975000,9.98497509765625,0.977119524025917,0.48049452897906303,-3.162663820698857
1684200888793000000,9.995,0.8756674936991184,1.01387309140563,-3.1868636114537714
1684200888803024600,10.005024658203125,0.26342063480615613,1.4990660073339939,-3.0997277643144128
1684200888813048600,10.015048583984376,-0.0414484471976757,1.6622732867628336,-2.9382471625477073
1684200888823073500,10.025073486328125,0.2771392904918641,1.388373928040266,-2.8363191122069953
1684200888833098800,10.0350986328125,0.34849545776247975,0.9234089766263961,-2.384417640505731
1684200888843123700,10.045123779296874,0.16334215785488485,0.3216974672079086,-1.8892367067873477
1684200888853147600,10.055147705078125,-0.14565233351588247,-0.08880991783142089,-1.4142404829636215
1684200888863172600,10.065172607421875,-0.2508534872431308,-0.437569579488039,-0.9690855629131198
1684200888873197600,10.075197509765625,-0.11082184315323829,-0.6288233882278204,-0.647949528980255
1684200888883222500,10.085222412109376,-0.022092662407830355,-0.5900193180590868,-0.6256435891479254
1684200888893246700,10.095246826171875,0.08875847990512847,-0.48156420403718947,-0.35955139704495664
1684200888903271700,10.105271728515625,0.3778032391808927,-0.25530221028029915,0.1197904547676444
1684200888913296600,10.115296630859374,0.9091618400871753,-0.10026187069416045,0.4995893978103995
1684200888923321600,10.125321533203126,1.4480407534956932,0.024745149677991865,0.969034709508717
1684200888933345500,10.135345458984375,1.3024467260383068,0.07423369546830653,0.927948665882647
1684200888943370500,10.14537060546875,0.5586076962292194,0.14177987599670885,0.4812883097052574
1684200888953395700,10.155395751953124,-0.20125658570751548,0.3492389696061611,-0.14305179562866688
1684200888963420700,10.165420654296875,-0.5099649536132812,0.6494704549372196,-0.7034811543270945
1684200888973444600,10.175444580078125,-0.48558359574638305,0.9365139573931693,-0.8809835010901093
1684200888983469800,10.1854697265625,-0.3069955726385116,0.960108767992258,-0.7256839260458946
1684200888993494500,10.19549462890625,-0.059718336446955796,0.7297691495329142,-0.5230138202786445
1684200889003518500,10.2055185546875,0.07234042906761169,0.41357670948207376,-0.31933482972979543
1684200889013543700,10.215543701171875,0.0047262978695333,0.03393324926197529,-0.14026713334619997
1684200889023568600,10.225568603515624,-0.09930910001397132,-0.3608680326014757,0.024194822318851946
1684200889033593600,10.235593505859375,-0.07622501541599631,-0.6240770704835653,0.19300503632128238
1684200889043617800,10.24561767578125,0.046497474215552205,-0.7272334935754537,0.411026732738316
1684200889053642500,10.255642578125,0.2251217376805842,-0.6842851632088423,0.6634528030604123
1684200889063667500,10.26566748046875,0.30224224063158034,-0.5472323157340288,0.9295660379514098
1684200889073692700,10.275692626953125,0.2336333993077278,-0.3916238208711147,1.1057406432420014
1684200889083716600,10.285716552734375,0.028636677223816513,-0.231702723506093,1.1020482184648512
1684200889093741600,10.295741455078126,-0.2828852137327194,-0.024915245547890662,0.93351009940207
1684200889103766800,10.305766845703126,-0.5482359398186206,0.10719254674017428,0.6675801121234893
1684200889113791700,10.315791748046875,-0.849501882763952,0.10090893642604351,0.44926936963200564
1684200889123815400,10.3258154296875,-1.1506849697314203,-0.005949263793230056,0.4027010952025652
1684200889133840600,10.335840576171876,-1.5016041475094855,-0.15815408769249914,0.5227513699501752
1684200889143865600,10.345865478515625,-1.8012392743825911,-0.33842648369073863,0.7395826875388621
1684200889153890600,10.355890625,-1.8970130398772656,-0.3875876972228288,1.0084607109680772
1684200889163914800,10.365914794921874,-1.808513064777851,-0.32657179524600505,1.1796537284538149
1684200889173939700,10.375939697265625,-1.5365208548508584,-0.25073417171239853,1.3085317450404166
1684200889183964700,10.385964599609375,-1.2346142759144305,-0.17081424730122088,1.2762564921185373
1684200889193989600,10.39598974609375,-0.8975146569132805,-0.185872115701437,1.0467407572627068
1684200889204013600,10.406013671875,-0.6068960724495351,-0.2901215947270393,0.7358525610998272
1684200889214038500,10.41603857421875,-0.6006757366299629,-0.4371767807781696,0.2917287376627326
1684200889224063700,10.426063720703125,-0.6952689140379429,-0.5076631064116954,-0.15404519106894732
1684200889234088700,10.436088623046874,-0.7249450903773308,-0.4127420122236013,-0.49396235170885916
1684200889244112600,10.446112548828125,-0.7529705769002437,-0.2565805596530437,-0.7735103838428854
1684200889254137600,10.4561376953125,-0.6571580868303776,-0.06184650758206844,-0.8481661041155457
1684200889264162600,10.46616259765625,-0.6080887893654405,0.1919751087516546,-0.8110426805101335
1684200889274187500,10.4761875,-0.6133399878919125,0.3421475500404835,-0.7437899299703538
1684200889284211700,10.486211669921875,-0.659541620966047,0.3278402077466249,-0.656339317793399
1684200889294236700,10.496236572265625,-0.783007987767458,0.23515140265524387,-0.5593386408522725
1684200889304261600,10.50626171875,-0.9165690476037561,0.08705284503102302,-0.6135929397396743
1684200889314286600,10.51628662109375,-0.9985796606838703,0.002808043158054352,-0.6296501944407821
1684200889324310500,10.526310546875,-1.1659760623656212,0.07387655259370804,-0.5555458244405687
1684200889334335500,10.53633544921875,-1.6518306570731103,0.2555582308679819,-0.5171618793800473
1684200889344360700,10.546360595703124,-2.095145063823461,0.37198914607465267,-0.6024570670887828
1684200889354385700,10.5563857421875,-2.0415895608551797,0.07339899820983409,-0.736515116661787
1684200889364409600,10.56640966796875,-1.9228481767490504,-0.40239188312292096,-0.6571766454003751
1684200889374434800,10.576434814453124,-1.6779183074012398,-0.8358323999822139,-0.22625556401610372
1684200889384459800,10.586459716796876,-1.1389210283100604,-1.1199871952593325,0.32150998181179163
1684200889394484500,10.596484375,-0.5983867489099503,-1.277387249714136,0.7610235349744557
1684200889404508700,10.6065087890625,-0.4371043000638485,-0.8985282178699969,1.298560970646143
1684200889414533600,10.61653369140625,-0.4911201140202582,-0.07923018858134746,1.5167236829690633
1684200889424558600,10.62655859375,0.28581016126871106,0.8274988714009522,1.3163744213648139
1684200889434583600,10.63658349609375,1.6295555507704615,1.22911334041059,1.1989653087757528
1684200889444607700,10.646607666015624,2.4766896814897654,1.052827383700013,1.2237683261208236
1684200889454632400,10.656632568359376,2.9230060465350745,0.8446025664150715,1.3318880707085132
1684200889464657700,10.66665771484375,3.0562533642470835,0.9812158534288405,1.6201535161748528
1684200889474682600,10.6766826171875,2.5515456005096433,1.1958581365406513,1.6741968026600778
1684200889484706600,10.68670654296875,1.5404805522620677,1.6994722598224878,1.3652994880534708
1684200889494731800,10.696731689453125,0.24088877726346253,2.531620418334007,0.5505116296656429
1684200889504756700,10.7067568359375,-1.269435121665895,3.0761849761635065,-0.5878269225813448
1684200889514781700,10.71678173828125,-2.3461310183398423,3.112006231129169,-1.7987736149214206
1684200889524805600,10.7268056640625,-2.6702225410774347,2.7767273978143927,-2.6844524342209097
1684200889534830600,10.73683056640625,-2.978655160781741,2.2949352302402257,-2.8275919081330296
1684200889544855600,10.74685546875,-3.1108009469926357,1.8247499138295649,-2.077867327416688
1684200889554879700,10.756879638671874,-2.665686358952522,1.2772305978477,-0.9130629391789435
1684200889564904700,10.76690478515625,-1.793355389264971,0.6759212394893169,0.6157452954679727
1684200889574929700,10.7769296875,-1.0253417031422256,0.020761048477888105,2.204685050472617
1684200889584954600,10.78695458984375,-0.2829379668332636,-0.5371376226991414,3.3975375754565
1684200889594978600,10.796978515625,0.5083423208475113,-0.7951140206247568,4.171598871180415
1684200889605003500,10.80700341796875,1.375784349449724,-0.8965981265902518,4.406389623829722
1684200889615028700,10.81702880859375,2.156084977954626,-1.4279893145918845,4.5639667884171
1684200889625053700,10.8270537109375,2.0443596100904045,-1.6265730278283357,4.396428494046628
1684200889635077600,10.83707763671875,1.2724024470388888,-1.8495517621308564,3.8027553296551106
1684200889645102800,10.847102783203125,1.1184954953968524,-2.321007829129696,3.4161551821649074
1684200889655127600,10.85712744140625,0.9748795630794018,-2.5507494816958904,3.3119767225489016
1684200889665152500,10.867152587890626,1.081939350285381,-2.4919787282973527,3.29709771784693
1684200889675176700,10.8771767578125,1.889472853630781,-2.037709358420968,3.521467614246905
1684200889685201700,10.88720166015625,2.563734050953388,-1.23021399512887,3.181682993945479
1684200889695226600,10.8972265625,2.724635391527414,-0.48525896690189835,2.3482284290105104
1684200889705251600,10.90725146484375,2.451218263363838,0.24237433964610097,1.2135808402359485
1684200889715275500,10.917275634765625,1.917246995741129,0.8263532084971665,0.011578209590911865
1684200889725300500,10.927300537109375,1.532020182430744,1.1519663878440856,-1.0885457628130912
1684200889735325700,10.93732568359375,0.7027145538687706,1.4575906721293925,-2.07929575278461
1684200889745350700,10.9473505859375,-0.41063364176750183,1.4484323831617831,-2.8601690666109323
1684200889755374600,10.95737451171875,-1.1151520301878453,1.136170852819085,-3.6162305952638385
1684200889765399800,10.96739990234375,-1.2446949404239653,0.785728937163949,-4.144101207923889
1684200889775424800,10.9774248046875,-0.5871031383514403,0.4332727590769529,-4.16631128616631
1684200889785449700,10.98744970703125,0.22418869461417196,0.159441204893589,-3.5341327422916886
1684200889795473700,10.9974736328125,1.0962269649654626,0.05186287370622158,-2.7097297910794613
1684200889805499100,11.0074990234375,2.0531752231001854,0.03842588450610637,-1.640634578667581
1684200889815524000,11.017524169921876,2.757345236474275,-0.03788403271436691,-0.4363379918664694
1684200889825549000,11.027549072265625,2.9294781651586295,-0.2089718362599611,0.5259966354817152
1684200889835573200,11.0375732421875,2.6020740107417106,-0.3501724510639906,1.3884648211941122
1684200889845598200,11.04759814453125,2.10779236395061,-0.4380079709053039,1.9540064083397388
1684200889855623200,11.057623046875,1.6958546538472175,-0.2717459800809622,1.9639909189984202
1684200889865648400,11.0676484375,1.3359177646160125,0.14796177950203418,1.5221186738803982
1684200889875672000,11.077672119140624,1.1165443613290786,0.4193862725436687,0.9583505261480808
1684200889885697000,11.087697021484376,1.119053640736267,0.6472469336688518,0.35506606832444665
1684200889895722200,11.09772216796875,1.1918389640271663,0.7901514297813177,0.01075578729212284
1684200889905747200,11.107747314453125,1.1056500423491,0.5418325025171041,-0.39524581076055765
1684200889915771100,11.117771240234376,1.2681231622844933,0.4672831652283668,-1.1322288371950386
1684200889925796400,11.12779638671875,1.6856377957373856,0.5888263088822364,-1.4550415721684693
1684200889935821000,11.137821044921875,1.5426841997861862,0.4962234285086393,-1.8565972967281936
1684200889945846000,11.147845947265624,1.1537240451663733,0.19791209758520126,-2.2488100234031676
1684200889955870200,11.1578701171875,0.82428816572614,0.013367431095242499,-2.736222368946671
1684200889965895200,11.167895263671875,0.6293127061147242,-0.03660568334162235,-2.907690988503396
1684200889975920000,11.177920166015625,0.3213935158252716,-0.14992694209516047,-3.1216967272773384
1684200889985945300,11.1879453125,-0.2199445542383939,-0.41361236531734463,-3.24465324486047
1684200889995969000,11.197968994140625,-0.5491816962361336,-0.47543373845815656,-3.0770629280418156
1684200890005994000,11.207993896484375,-0.7788859394013882,-0.3492775480508804,-2.9560239345178005
1684200890016019200,11.218019287109374,-0.9190507083516567,-0.3046750207364559,-2.8150200113296506
1684200890026044200,11.228044189453126,-1.009201665528491,-0.3044207537144422,-2.6042618761748075
1684200890036068000,11.238068115234375,-1.0122042083453386,-0.22702070316970346,-2.345215510930121
1684200890046093300,11.24809326171875,-0.9901361689221113,-0.2507312491029501,-2.1458935465469957
1684200890056118300,11.2581181640625,-0.9507820636551827,-0.18558628449738024,-1.9119266775012016
1684200890066143200,11.268143310546876,-0.77510342518799,-0.11019698925316333,-1.761959111134708
1684200890076167200,11.278167236328125,-0.6283288827091456,-0.017137597283720968,-1.5618161857575177
1684200890086192000,11.288192138671874,-0.5470089553069323,0.10537702175080775,-1.2824614842385054
1684200890096217000,11.298217041015626,-0.38286300678849217,0.22363106073141098,-1.1155518431603908
1684200890106241300,11.3082412109375,-0.13903832220360635,0.26021511676311493,-1.027228539802134
1684200890116266200,11.318266357421875,0.134241297185421,0.1575380016207695,-0.5780775358527899
1684200890126291200,11.328291259765624,0.5326737751580775,-0.03865267899930477,-0.27732290343046184
1684200890136316200,11.338316162109376,1.0029063647765666,-0.3549900804787874,-0.12484919946193694
1684200890146340000,11.348340087890625,1.3970916336335242,-0.6645902826577424,0.044833413460850714
1684200890156365000,11.358364990234374,1.5111599113620817,-0.9546031563133001,0.27331600587666033
1684200890166390300,11.368390380859376,1.5672756202071905,-0.944013957759738,0.49893122616261243
1684200890176415200,11.378415283203125,1.6212357584536075,-0.8336667463809251,0.5844122918322682
1684200890186439200,11.388439208984375,1.7046873641222715,-0.7512807241171598,0.630392537240684
1684200890196464000,11.398464111328124,1.5694991414755581,-0.5594149209588766,0.8304761336460709
1684200890206489000,11.408489013671876,1.3327958332031964,-0.21643676531314848,1.3787927374854683
1684200890216514000,11.41851416015625,0.9961983185052871,0.10943652627468109,1.9391265268549323
1684200890226538200,11.428538330078124,0.6189314512234181,0.26471067461669445,2.529555887019634
1684200890236563200,11.438563232421876,0.3237339414715767,0.25360358966887,3.006096125414967
1684200890246588200,11.448588134765625,0.021627382983639833,0.1887175682604313,3.9813668067038055
1684200890256613400,11.45861328125,-0.3472164508026093,0.08389584230482577,3.8763457587838173
1684200890266637000,11.468636962890624,-0.3669552070280537,-0.25893676739037036,3.489261627168953
1684200890276662000,11.478662109375,-0.23258125990629194,-0.6421154159992933,2.9774446159482
1684200890286687200,11.488687255859375,0.02104684314932674,-1.1317355007201433,2.3400746409103275
1684200890296712200,11.498712158203125,0.37424306248128414,-1.734080631867051,1.7942860942438243
1684200890306736000,11.508736083984376,0.7283347328156232,-2.465112933203578,1.1924188097417354
1684200890316761300,11.51876123046875,1.0959107386231421,-3.1553853541284798,0.5323419128552079
1684200890326786300,11.528786376953125,1.4368535890489815,-3.7217490713119505,-0.33298107776641844
1684200890336811000,11.53881103515625,1.850595133703947,-4.024650652635097,-1.48363053779304
1684200890346835200,11.548835205078126,2.072211347481608,-3.7071255026757717,-2.9804432132422924
1684200890356860200,11.558860107421875,1.8353461266458033,-2.9212738159149882,-4.44777786527276
1684200890366885000,11.568885009765625,1.1271160242259501,-1.6156442220568656,-5.2345075039118525
1684200890376910300,11.578910400390624,-0.12343817275338806,-0.24318974768221377,-4.866367726741731
1684200890386934300,11.588934326171875,-1.2855565276443957,0.16249007107019423,-3.9757442906469103
1684200890396959000,11.598958984375,-3.368679729762673,-0.1281137542158365,-3.5416058546513316
1684200890406984200,11.608984130859374,-5.8672495268881315,0.023913375028967856,-3.555001635058224
1684200890417009200,11.619009033203126,-6.698359574523567,0.3247223679870367,-1.232783845616877
1684200890427033000,11.629033203125,-5.32649429821372,2.582946116423607,3.031298663471639
1684200890437058300,11.639058349609375,-4.132174038764834,5.165940748164058,6.617373482185601
1684200890447083300,11.649083251953124,-2.5394027427732944,5.541467420715093,7.307868605950475
1684200890457108200,11.659108154296876,-0.9097428548455238,4.376719877231121,6.205384334155917
1684200890467132200,11.669132080078125,0.012262136734463273,3.4900223824083803,5.1442000409990545
1684200890477157000,11.6791572265625,-0.1369599084943533,3.288572758346796,4.354560944654048
1684200890487182000,11.68918212890625,-1.0893448042362928,4.187283347046375,2.6166210070103406
1684200890497207000,11.69920703125,-0.7904828536927699,5.547506700879335,-0.5812897758975625
1684200890507231200,11.709231201171875,2.983291003888845,5.830778283581138,-3.2128894485920667
1684200890517256200,11.719256103515624,7.105352813962101,4.087210861444473,-5.126116687297821
1684200890527281400,11.729281494140626,8.25904821755588,0.4570329893708229,-4.745182602745294
1684200890537306000,11.73930615234375,6.374803327706456,-2.0717554204076527,-3.0515967706128952
1684200890547330000,11.749330078125,3.531580719721317,-2.7343121514111757,-2.181461995795369
1684200890557355300,11.759355224609376,-0.015933482190966606,-2.7341274424940347,-1.233401392993331
1684200890567380200,11.769380126953125,-1.6636626952946185,-2.725062677028775,-0.6533668778538704
1684200890577405200,11.7794052734375,-2.0446143155038357,-2.9030209508657454,-1.0150155394390226
1684200890587429400,11.789429443359374,-1.6255664811342954,-2.2890549400299784,-1.9863158557921647
1684200890597454000,11.7994541015625,-1.0388228237450121,-0.8917512710809707,-2.474771280647814
1684200890607479000,11.80947900390625,-1.083346440604329,0.01906301238834858,-2.361363512654602
1684200890617503200,11.819503173828124,-0.613611206048727,0.6067313834071159,-2.1992285386323926
1684200890627528200,11.829528076171876,-0.919542948848009,1.784832913982868,-1.8990213109597562
1684200890637553200,11.83955322265625,-2.132752033162117,2.3306150309085845,-2.302674884581566
1684200890647578000,11.849578125,-2.813096934312582,1.6659434997081755,-2.727522345140576
1684200890657602000,11.85960205078125,-2.197812826615572,0.5016092132002115,-1.7462974316224456
1684200890667627000,11.869626953125,-0.7047755780518055,-0.42138767549395556,-1.0462129339963198
1684200890677652200,11.87965234375,-0.46299394360184665,-0.8847370084047317,-0.35667817969620225
1684200890687677200,11.88967724609375,0.35734979534745215,-1.296809743064642,1.7267592029377816
1684200890697701000,11.899701171875,2.296193705868721,-1.503144216558337,2.986477232709527
1684200890707726300,11.909726318359375,3.1392578106701374,-1.509103417223692,3.3215380393594502
1684200890717751300,11.919751220703125,2.334119824159145,-1.123365731781721,2.37270674444586
1684200890727776000,11.92977587890625,1.078726964110136,-0.22615970242619512,1.2146581140786408
1684200890737800200,11.93980029296875,-0.2347148013362661,1.1764508407592773,-0.12926087842434644
1684200890747825200,11.9498251953125,-0.7324480133533477,1.5569950492113829,-1.53313749602288
1684200890757850000,11.95985009765625,-0.41084995139930397,1.0848340488135815,-2.3745655240550634
1684200890767875000,11.969875,0.7195265724599361,-0.4535147521167993,-2.091647284835577
1684200890777899300,11.979899169921875,-1.8665467360734938,0.6515712266087532,-2.5751632074624298
1684200890787924000,11.989924072265625,-2.5665140370607373,1.041040499794483,-2.3422625063434244
1684200890797949200,11.99994921875,-1.5980711559653282,0.826932469689846,-1.0451894361674785
1684200890807973600,12.0099736328125,-0.7509843715190887,-0.08166530677378177,0.4213789076656103
1684200890817997600,12.01999755859375,-0.3845628329763189,-0.4654156177908182,0.7046712408944964
1684200890828022800,12.030022705078125,-0.5767863269984722,-0.9787760590612887,0.8065887698411941
1684200890838047700,12.0400478515625,-0.6015771059164777,-1.147349833959341,0.6906535291969775
1684200890848072700,12.05007275390625,-0.21460838084220885,-0.397335768777132,0.3795145731434226
1684200890858096600,12.0600966796875,0.20471005062963812,0.4639250869721174,0.26062603565156456
1684200890868121600,12.07012158203125,0.39738253052830697,0.6181318983435631,0.15630699852108954
1684200890878146600,12.080146484375,0.34915472538881004,-0.0461672924131155,0.4232175212696194
1684200890888171800,12.090171875,0.21849420929960905,-0.8851128559798002,0.5629974556207656
1684200890898195700,12.10019580078125,0.24673596892170607,-1.4551380182802676,0.6209080850586295
1684200890908220700,12.110220703125,0.428253396544978,-1.8424556663900613,1.2618991732031106
1684200890918245600,12.12024560546875,0.7088765836298465,-2.319252509894967,2.4198928585126995
1684200890928270600,12.1302705078125,0.7477146291334181,-2.1229642141193152,3.031325843739509
1684200890938294500,12.14029443359375,0.5502958680231124,-0.5704425109297037,2.252313355349004
1684200890948319700,12.15031982421875,0.44083932187370956,1.4419009355664252,0.833316325508058
1684200890958344700,12.1603447265625,0.3218587952494621,2.052239403554797,-0.605136515431106
1684200890968369700,12.17036962890625,0.051945364357903596,2.3480671009689567,-1.5892288010790943
1684200890978393600,12.1803935546875,-0.031082609071210025,2.006665985381603,-1.9854674222692845
1684200890988418600,12.19041845703125,0.12027823828458785,1.6345330469220876,-1.8314497037291526
1684200890998443500,12.200443603515625,0.25962241156697274,0.8256950368493795,-0.971244786773622
1684200891008468700,12.21046875,0.22388481629677115,-0.1849994245201349,-0.6968275416567922
1684200891018492700,12.22049267578125,0.2071638369899243,-0.4456108471244573,-0.35155163046270604
1684200891028517600,12.230517578125,0.1730090539317578,-0.7039929032415151,-0.014037000919878482
1684200891038542800,12.24054296875,0.26012963043674825,-0.9395692533105611,0.19792641837149857
1684200891048567800,12.25056787109375,0.22019765221662818,-0.8408686405837535,0.18749007229208944
1684200891058591500,12.260591552734375,0.04033902465105056,-0.7415770762264728,0.2541866502538323
1684200891068616700,12.27061669921875,0.0013574059583246708,-0.39883389838039873,-0.16001140599697827
1684200891078641700,12.2806416015625,0.17655359467081724,-0.9584194997310638,-1.4342635725557804
1684200891088665600,12.29066552734375,0.3197369077246636,-2.0522885033935307,-2.0670780762463807
1684200891098690800,12.30069091796875,0.4394903184175491,0.3641489539682865,-0.8273176696151494
1684200891108715800,12.3107158203125,0.6508662932097912,1.9125386719197033,0.004261164575815201
1684200891118740500,12.320740478515624,0.5544877667549998,0.9206512023508548,-0.09856383460462093
1684200891128764700,12.3307646484375,0.24823007993698118,0.3807639886826277,0.14324994854927062
1684200891138789600,12.34078955078125,-0.11377017156481742,0.33311727136671543,-0.3501289041832089
1684200891148814600,12.350814697265625,-0.39827904097661376,0.8002034527182579,-0.23295330808907747
1684200891158839800,12.36083984375,-0.44517545138187703,1.5988146678090094,-0.251937994544208
1684200891168863700,12.37086376953125,-0.49126843644976614,2.635331552699208,-0.26908874357044693
1684200891178888400,12.380888427734375,-0.5328034659523516,2.4835160203784703,-0.40309652426093817
1684200891188913700,12.39091357421875,-0.07286532972455025,0.8402233284175396,-0.08738602250814437
1684200891198938600,12.400938720703126,0.21733575997948645,0.07884791126549244,0.14527648594081402
1684200891208963600,12.410963623046875,0.5133901788216084,-0.0798211402118206,-0.015770400583744047
1684200891218987800,12.42098779296875,0.9700830495178699,0.014130232161283493,-0.2335854685127735
1684200891229012700,12.4310126953125,1.5183667740009725,0.33815351196825505,-0.6647489803507923
1684200891239037700,12.44103759765625,1.6187268443726002,-0.24269816477298736,-0.1227986966729164
1684200891249062700,12.451062744140625,1.2456839514613152,0.3290700418025255,-0.4140513412564993
1684200891259086600,12.461086669921874,0.7005459776580333,1.328874860367179,-0.584224368044734
1684200891269111600,12.471111572265626,0.10448672184757887,2.2035750434041024,-0.5300424037411808
1684200891279136800,12.48113671875,-0.37676761252284047,2.6149820076316592,-0.088069328597188
1684200891289161700,12.49116162109375,-0.6475626485545187,2.56242472192049,0.08146130863428115
1684200891299185700,12.501185546875,-1.0025298596143721,1.7222896563082932,0.37021219953000545
1684200891309211000,12.5112109375,-0.912043459938094,0.8346148408859968,0.5033434896469116
1684200891319235600,12.521235595703125,-0.5977415098089724,0.7930442286133765,0.5033841139182448
1684200891329260500,12.531260498046874,0.11790266825966536,0.8337848198026419,0.7611541756168008
1684200891339284700,12.54128466796875,0.8561140674453228,0.9628665422677993,0.20573387725204229
1684200891349309700,12.551309814453125,1.0333095402162522,0.7566372827142477,-0.5370671878114343
1684200891359334700,12.561334716796875,0.816428611332178,0.8901385751873254,-0.6654150430440903
1684200891369359600,12.571359619140624,0.6241045430123806,0.5810381392240523,-0.2630988555058837
1684200891379383600,12.581383544921875,0.6338754109203815,0.6131552789747715,0.08852993184626103
1684200891389408500,12.591408447265625,1.015051487535238,0.6994646121621132,0.37370384103804827
1684200891399433700,12.601433837890625,0.8355272795557975,1.0992220551282166,0.4624243270203471
