time,seconds_elapsed,z,y,x
1684201040420521200,0.034521240234375,-0.12332301280796527,0.18153028710484503,-0.3268962048947811
1684201040430545400,0.04454541015625,-0.20744561307337134,0.3147480864614248,-0.3962620020657778
1684201040440570400,0.0545703125,-0.2954693489631638,0.38603696064949033,-0.38038112684488296
1684201040450595300,0.06459521484375,-0.4116793514281511,0.29067922860980033,-0.2842857281804085
1684201040460620300,0.074620361328125,-0.5392833660235629,0.19480127208828926,-0.2109802534729242
1684201040470644200,0.084644287109375,-0.5739081412136554,0.1778068826675415,-0.27719781574606894
1684201040480669200,0.094669189453125,-0.5468879958083853,0.1373386786788702,-0.19958324566781518
1684201040490694400,0.1046943359375,-0.4965338096320629,0.12050678634345531,-0.1426233410835266
1684201040500719400,0.11471923828125,-0.4855833765506744,-0.07125614096224307,0.0996194811373949
1684201040510743300,0.124743408203125,-0.48392037524189796,-0.551797431692481,-0.2047498346507549
1684201040520768500,0.1347685546875,-0.3044967415601015,-1.2259183437615633,-1.0864490827947855
1684201040530793500,0.14479345703125,-0.12416066920850426,-0.7990215494573116,-0.27080080818533897
1684201040540817200,0.154817138671875,-0.21603753686249255,-0.41029228098392484,-0.1435129833996296
1684201040550842400,0.16484228515625,-0.14697567280782387,-0.6063648881822824,0.04635609298348427
1684201040560867300,0.174867431640625,-0.12243978196633978,-0.7701689644604921,-0.4525707492649555
1684201040570892300,0.184892333984375,-0.034016826759045944,-1.0223556730687617,-0.8696861542671919
1684201040580916500,0.19491650390625,-0.0473725811162265,-1.1526876878559589,-0.9376251335054635
1684201040590941400,0.20494140625,0.013988779005623654,-0.9431704926729202,-0.8541887254059314
1684201040600966100,0.214966064453125,0.01369301435437519,0.11278291409313677,-0.750071932849288
1684201040610991400,0.224991455078125,0.07145196036186534,0.944759807690978,-0.5205839627832174
1684201040621015300,0.235015380859375,0.12816343857645987,1.3004027991205453,0.21313480115830896
1684201040631040300,0.245040283203125,0.15185410163230262,1.6026842027187347,0.8962988513827324
1684201040641065500,0.2550654296875,-0.000761047500371933,1.5289444282472133,1.4579419697850942
1684201040651090400,0.26509033203125,-0.21743282714579254,1.5158733497500418,1.955878047430515
1684201040661114000,0.275114013671875,-0.3273135535240173,0.2807943789333105,-0.11497019500434398
1684201040671139300,0.285139404296875,-0.06279752469658852,-0.5473468820244074,-0.6320090325266122
1684201040681164300,0.295164306640625,-0.035143812361825254,-1.2331319284021853,-0.988289152815938
1684201040691188200,0.305188232421875,-0.036399383647181094,-2.790828403881192,-1.7493956898987293
1684201040701213400,0.31521337890625,0.27966566716432567,-5.574354375794529,-3.1331063023030756
1684201040711238400,0.32523828125,0.2447522112259641,-6.967906583255529,-3.919865751558542
1684201040721263400,0.335263427734375,0.2832861957490444,-5.34622600364387,-2.982217821699381
1684201040731287300,0.345287353515625,0.30333526003267614,-4.429819014734029,-0.08279343402087688
1684201040741312300,0.355312255859375,0.35791568560190495,-2.176561364272237,1.198775485292077
1684201040751337200,0.365337158203125,0.3920423385441303,0.298249956125021,1.565083078598976
1684201040761362400,0.375362548828125,0.07060089192390441,2.000633134958148,1.8017010466754435
1684201040771386400,0.385386474609375,0.41625674234628673,1.9697569351792334,0.755944624274969
1684201040781411300,0.395411376953125,0.7140367428719997,1.6541992859005927,-1.0114122542500494
1684201040791436300,0.405436279296875,0.5260124175727368,0.2778875515758991,-2.397934416943788
1684201040801461200,0.415461181640625,0.20774141768217086,-1.5544184767216442,-3.5677836674809456
1684201040811485200,0.425485107421875,0.6809562379818409,-1.6703355971872806,-3.1150521746963262
1684201040821510400,0.435510498046875,0.5364940275659784,-0.7015320660859345,-1.948681413924694
1684201040831535400,0.445535400390625,-0.2453623424809426,-0.8138993851155042,-1.4171961178988217
1684201040841560300,0.455560302734375,-0.2281855822306126,-1.9011065928012132,-0.9325327788025141
1684201040851584300,0.465584228515625,0.15727620887942612,-2.2109745060056447,0.37933658622801303
1684201040861609200,0.475609130859375,-0.07517192616648971,-2.7195933057069777,0.3013590280562639
1684201040871634200,0.48563427734375,0.07962145292125641,-2.003260560852289,0.6796311999231577
1684201040881659400,0.495659423828125,-0.2394013882499188,-0.6920657340824604,0.23625176511257887
1684201040891683300,0.505683349609375,0.0947885538496077,0.4905161567777395,-0.08141805401444435
1684201040901708300,0.515708251953125,0.2509891693867743,0.3750666538238525,-0.14322832123935222
1684201040911733500,0.5257333984375,0.6789901255406439,0.4172638735622167,0.31756343614310023
1684201040921757200,0.535757080078125,1.1791887412905693,0.5747212111622094,0.9337322177201509
1684201040931782100,0.5457822265625,1.0893290221452712,0.49893444103300566,0.978225439441204
1684201040941807400,0.555807373046875,0.3567570170860737,0.17095979325175284,0.6213651811763644
1684201040951831600,0.56583154296875,-0.3543475447915494,0.44337037472128865,1.1251327414542436
1684201040961855700,0.575855712890625,-0.8738625631690025,9.097143301773071,6.663084263002872
1684201040971880700,0.585880615234375,-0.5612509042143822,20.023699833011626,10.198618688786029
1684201040981905700,0.59590576171875,-0.7052467026948929,9.210600754126906,1.6214327423304318
1684201040991930600,0.6059306640625,-1.1562019065219908,0.14437690675258635,0.36522666620239613
1684201041001954600,0.61595458984375,-1.0910359721936285,-0.6982026294022798,0.2005034292526543
1684201041011979500,0.6259794921875,-1.0952853002011775,-0.25115502747297286,-1.1523780373848973
1684201041022004500,0.63600439453125,-1.4670423910856245,-0.1446270821213722,-1.2711767046362161
1684201041032029700,0.64602978515625,-1.284489190673828,-0.1383539932012558,-1.4773254462994634
1684201041042053600,0.6560537109375,-1.0252480335094034,0.0367646732956171,-1.2287966756768525
1684201041052078800,0.666078857421875,-0.847154588985443,0.023481997874379157,-0.7572415322177112
1684201041062103600,0.676103515625,-0.7065772206462919,-0.06003741233348846,-0.09375073523446917
1684201041072127500,0.68612744140625,-0.4771662613391876,-0.1007435167312622,0.3140850925080478
1684201041082152700,0.696152587890625,-0.18767156633883714,-0.3034633068591356,0.48570378805994985
1684201041092177700,0.706177734375,0.1874466715417802,-0.6881868468225002,0.6092743458881974
1684201041102202600,0.71620263671875,0.5565630386590957,-0.9556132101386785,0.7949163060955703
1684201041112226600,0.7262265625,0.5270717173673212,-0.704086426743865,1.1636017344497143
1684201041122251500,0.73625146484375,-0.004119710278511047,-0.09575228431522846,0.8973191343411803
1684201041132276500,0.7462763671875,-0.8483142804145812,-0.30766601924598214,1.0165529781393705
1684201041142301400,0.756301513671875,-1.7879810027502476,0.0420107572555542,1.3981573631688953
1684201041152325600,0.76632568359375,-1.8100047646403312,0.2078133138746023,1.0912231653288007
1684201041162350600,0.7763505859375,-1.053909333717823,0.12144085232317448,0.4116122775413096
1684201041172375600,0.78637548828125,-0.06808861684203148,0.061845923060178755,-0.30232685017511246
1684201041182400800,0.79640087890625,0.6209095463633537,0.07892039197981357,-0.6819310012981296
1684201041192424400,0.806424560546875,0.8686743468761443,0.021550153028964996,-0.7697280888251959
1684201041202449700,0.81644970703125,0.6739689363777637,-0.0806879861742258,-0.6885822758808732
1684201041212474600,0.826474609375,0.2152304582633078,-0.20555881294608114,-0.5172618326231837
1684201041222499600,0.83649951171875,-0.35820436635017394,-0.38476796362698074,-0.3192746239751577
1684201041232523800,0.846523681640625,-0.7232523149847984,-0.5448071344137192,-0.06159808577895164
1684201041242548700,0.856548828125,-0.7971266756214201,-0.5188783279091119,0.18224121185317635
1684201041252573400,0.866573486328125,-0.4251275926746428,-0.4309913701415062,0.3757414843454957
1684201041262597600,0.87659765625,-0.11498027800694108,-0.3910188407152891,0.5150504401840269
1684201041272622600,0.88662255859375,-0.07909998633041977,-0.38832302576005456,0.8510084879346191
1684201041282647600,0.8966474609375,-0.06329919060841202,-0.36428222495913504,1.1714603389956055
1684201041292672500,0.906672607421875,-0.17884952358826994,-0.3878980783462524,1.1406856998950243
1684201041302696700,0.91669677734375,-0.6768997291326523,-0.18755612326562404,0.91658979813084
1684201041312721400,0.926721435546875,-1.113633588448912,-0.05523790309727192,0.46741322134882207
1684201041322746600,0.93674658203125,-1.3149449730835854,0.1438210264354944,0.09310162367597222
1684201041332771600,0.946771484375,-1.2237759249053894,0.2738344767928123,-0.0010506780967116354
1684201041342795500,0.95679541015625,-1.0458604672968388,0.30678982093334195,0.1767301933467388
1684201041352820700,0.96682080078125,-0.7663806780934334,0.2872171054571867,0.6881003375828266
1684201041362845700,0.976845703125,-0.5618063461400569,0.10354863727986811,1.3502910117529332
1684201041372870700,0.98687060546875,-0.5422343613162637,-0.15696750825643538,2.036210205904394
1684201041382894600,0.99689453125,-0.642880555152893,-0.3381231168299913,2.494734749007225
1684201041392919600,1.00691943359375,-0.7650114355668425,-0.4223205724298954,2.541788761126995
1684201041402944500,1.016944580078125,-0.922336671219766,-0.3011135288625955,2.1067766110368074
1684201041412969500,1.026969482421875,-0.7319274966105819,-0.006928337958455085,1.742319321771711
1684201041422993700,1.03699365234375,-0.15135726715922354,0.20233400568068027,1.435459504342079
1684201041433018600,1.0470185546875,0.4852814709946513,0.5170487743943929,1.3407849322609602
1684201041443043600,1.057043701171875,1.0327484722673892,0.8889671933203935,1.420362472975254
1684201041453068500,1.067068603515625,1.4493772627964614,1.254164195036888,1.6654713521517812
1684201041463092500,1.077092529296875,1.6798234103702008,1.577574895903468,1.900256113451719
1684201041473117700,1.08711767578125,1.7467045511186121,1.7586574392408132,1.8875402781330048
1684201041483142700,1.097142578125,1.076069435338676,1.4469991354882716,1.3142036531969905
1684201041493166600,1.10716650390625,0.08290040152668952,0.8141641735315323,0.22869535838365554
1684201041503191800,1.11719189453125,-0.3390532372869551,0.4027817592233419,-0.7204511399589478
1684201041513216500,1.127216552734375,-0.3416976143158972,0.0790542474925518,-1.0423865075759589
1684201041523241500,1.137241455078125,-0.471508966229856,-0.36249358797669406,-0.7494212138555943
1684201041533265700,1.147265625,-0.6212428699709475,-0.7860188600212336,-0.28647987722381946
1684201041543290600,1.15729052734375,-0.7475251709759235,-1.0451982039958239,0.04492518339753151
1684201041553315600,1.167315673828125,-0.8754675141476094,-1.1746019980221987,0.15494199377819895
1684201041563340500,1.177340576171875,-1.0008699635781346,-1.1297428655982016,0.1109596441887319
1684201041573364500,1.187364501953125,-0.9958649948976933,-0.845263660672307,-0.0030913901440799236
1684201041583389400,1.197389404296875,-0.8469291096664965,-0.3468289858549833,-0.10041998386532068
1684201041593414700,1.20741455078125,-0.651882046123594,0.2374281154155731,-0.021739099729806182
1684201041603439600,1.217439697265625,-0.6901999402105807,0.7813035219371318,0.10140461098849773
1684201041613463600,1.227463623046875,-1.017256596364081,1.153334753587842,0.21909955478161572
1684201041623488800,1.23748876953125,-1.5419184761106968,1.3309423142910002,0.28748905426636334
1684201041633513700,1.247513671875,-2.09298832418099,1.4759949283480642,0.32129400097355243
1684201041643538700,1.25753857421875,-2.4873838017225265,1.4615344413191078,0.2812972138889134
1684201041653562600,1.267562744140625,-2.7171967659592626,1.2721312288820743,0.4454626708254218
1684201041663587600,1.277587646484375,-2.8256711692035195,1.0304764356821774,0.6663182754941285
1684201041673612500,1.287612548828125,-2.9831881280362604,0.9016600861549376,1.1305708408549426
1684201041683636700,1.29763671875,-2.9318355419397353,0.8231400916695595,1.6018877916440366
1684201041693661700,1.30766162109375,-2.8533272378921506,0.6142424896895885,2.059283915238827
1684201041703686700,1.317686767578125,-2.5189970836043356,0.44517888544797896,2.2499007412493226
1684201041713711600,1.327711669921875,-1.6546739176750183,0.4113602024763822,2.114993089109659
1684201041723735600,1.337735595703125,-0.9789315418839454,0.406834249484539,1.7854004847377538
1684201041733760500,1.347760498046875,-0.3684790921270847,0.6356400825053453,1.3568836880162358
1684201041743785700,1.35778564453125,0.16798983753025531,1.0448352159023284,0.8949053511977195
1684201041753810700,1.367810791015625,1.165697391554713,1.504843421691656,1.209680033405125
1684201041763834600,1.377834716796875,1.7240706945061683,2.1562106501609084,1.2703621733829378
1684201041773859600,1.387859619140625,1.6972165898501872,2.71019010206759,0.9358528631359339
1684201041783884500,1.397884521484375,1.8872563466250896,2.9957687926679846,0.7511667423486709
1684201041793909500,1.407909423828125,2.291057512024045,3.0461709461718796,-0.15153466955274342
1684201041803933700,1.41793359375,3.1089690553903577,2.88383986505568,-1.1713482569232583
1684201041813958700,1.427958740234375,4.6031063741505145,2.7870108914196488,-1.9766703678295015
1684201041823983600,1.437983642578125,5.733961584904789,2.292863100141287,-2.5056346209451554
1684201041834007600,1.448007568359375,5.77553161265552,1.586618618580699,-2.3917454991757867
1684201041844032500,1.458032470703125,5.185514632683992,1.3125094164997337,-1.3449392754614353
1684201041854057500,1.468057373046875,3.5629151846617457,1.1328507684856652,0.35695611985474823
1684201041864082700,1.478082763671875,1.8597465545393526,0.6874819134235381,2.335191252782941
1684201041874106600,1.488106689453125,0.727346890822053,-0.07724573676586151,2.9258111670836806
1684201041884131600,1.498131591796875,1.2670575788795948,-0.9251900148242711,1.3803864364176988
1684201041894156800,1.50815673828125,2.530926590850949,-1.696799241220951,-0.4951654438883066
1684201041904181800,1.518181640625,3.294428498637676,-2.4386808533519506,-1.186971942512691
1684201041914205400,1.528205322265625,3.3924431749269366,-2.4403303741246463,-1.5004913639619946
1684201041924230700,1.538230712890625,2.8653099366307258,-2.004062524884939,-2.0742071974739433
1684201041934255600,1.548255615234375,2.3245333729073403,-1.624891942873597,-2.954042697572708
1684201041944280600,1.558280517578125,2.030512140393257,-1.357733875104785,-3.3918706357359882
1684201041954305300,1.56830517578125,1.8212785844571888,-1.1564607766538857,-3.676714874581992
1684201041964330200,1.578330322265625,1.6631437859870493,-0.5021761994332075,-3.870096343000233
1684201041974355200,1.588355224609375,1.7101843541033566,0.04825520460307598,-3.6233737450167536
1684201041984379400,1.59837939453125,1.7631027282118796,0.5439806204617024,-3.520950604635477
1684201041994404000,1.608404052734375,1.8522599981762469,0.6649743135392665,-3.355473918969929
1684201042004429000,1.618428955078125,1.8808219296634197,0.3772258776843548,-3.2685271646618843
1684201042014454000,1.6284541015625,1.7685529564417897,-0.2508604284405708,-3.2923665976718066
1684201042024478200,1.638478271484375,1.4582155260294676,-1.0016635981738566,-3.6516488223865626
1684201042034503200,1.648503173828125,1.0240025634929537,-1.6532348247826099,-4.086565257017314
1684201042044528000,1.658528076171875,0.5326042170532047,-2.18561969999671,-4.569773136608302
1684201042054553300,1.66855322265625,-0.098140348495543,-2.3884523028492928,-4.948944595402478
1684201042064577000,1.678576904296875,-0.6617990445040166,-2.4849913536280392,-5.087861483183503
1684201042074602200,1.688602294921875,-1.2178589559465647,-2.4741940652817487,-5.046238848462701
1684201042084627200,1.698627197265625,-1.8829319075547157,-2.3337708645910022,-4.815362931169569
1684201042094652200,1.708652099609375,-2.615833071503043,-1.9870628747671841,-4.197557780562341
1684201042104676400,1.71867626953125,-3.1344717454373834,-1.2800444862246512,-3.205262314714491
1684201042114701300,1.728701416015625,-3.6570319767296313,-0.279801276242733,-1.7149185430184006
1684201042124726300,1.738726318359375,-3.6576866412460802,0.6985194402664899,0.1452446294978261
1684201042134751000,1.7487509765625,-3.1052211010336874,1.153558625471592,1.9208900284186003
1684201042144775200,1.758775146484375,-2.079582753032446,1.5617770227909087,3.245466314809024
1684201042154800000,1.768800048828125,-0.7878184567891061,1.8473925382703542,4.360525113755465
1684201042164825000,1.7788251953125,0.36651962862238285,1.5695897423684597,5.26918192692995
1684201042174849300,1.788849365234375,1.443438228136301,0.6715747347176074,5.955470246654748
1684201042184874200,1.798874267578125,2.6473358787477017,-0.32712007677853105,6.350907488334179
1684201042194899200,1.808899169921875,4.147871374112367,-0.8105231866806745,6.368788012939691
1684201042204924200,1.818924072265625,5.894958787068724,-0.42640287330746646,5.713980288627743
1684201042214948000,1.828947998046875,6.832701993995904,0.19600304909348487,4.109181577973067
1684201042224973300,1.838973388671875,5.917074757286906,-0.02868599625825882,2.1092121676206586
1684201042234998300,1.848998291015625,4.262741615873575,-0.631522710314393,0.7562503292232752
1684201042245023200,1.859023193359375,2.1784452783226964,-1.1181535500913857,0.5759066215544939
1684201042255047200,1.869047119140625,-0.3686269761651754,-1.809117460411787,1.4785983888447283
1684201042265072000,1.879072021484375,-1.5388047280043362,-2.4652169780999422,1.9699176786988972
1684201042275097000,1.88909716796875,-1.2091519909430295,-2.5426386559545993,0.8000742733806371
1684201042285122000,1.8991220703125,-0.490244281033799,-1.9201181672632692,-0.575443972478807
1684201042295146200,1.909146240234375,-0.29046120194494723,-0.8059037101864814,-1.3899711341038345
1684201042305171200,1.919171142578125,-0.9176730633229017,0.5125491248875856,-1.9055422371610997
1684201042315196200,1.929196044921875,-2.2807985683381555,1.3979086491048336,-1.412419112755358
1684201042325221400,1.939221435546875,-3.96405209928751,1.8006506608396768,-1.248561844985187
1684201042335245000,1.9492451171875,-5.575187904009223,2.235202353811264,-2.111968772852421
1684201042345270300,1.959270263671875,-5.9599319022387265,2.899597406157851,-1.801219108377397
1684201042355295200,1.969295166015625,-5.334187775325775,3.114531950214505,-0.37754794924557206
1684201042365319200,1.979319091796875,-3.324945217454433,2.468538815999031,0.9703069214016199
1684201042375344400,1.989344482421875,-1.2280267142176626,1.478764977583289,1.9487579862922428
1684201042385369300,1.999369384765625,-0.8335714693129063,0.7349924371391534,2.06257579639107
1684201042395394000,2.00939404296875,-0.28437691359519957,-0.06911912893354892,1.5710948862344025
1684201042405418200,2.019418212890625,0.586611591974832,-0.7910264590501784,1.0542366659760474
1684201042415443200,2.029443115234375,0.8795031994044781,-1.303559217324853,0.671506637917459
1684201042425468200,2.03946826171875,0.9363929613620042,-1.4794967989891767,0.22755320261120796
1684201042435493000,2.0494931640625,1.4449509707868098,-1.5516180323481559,-0.0494853309199214
1684201042445517300,2.059517333984375,2.02483701736629,-1.7876199143528937,-0.03848082956373691
1684201042455542000,2.0695419921875,2.0966127982884646,-2.09880241728723,0.22053163341134785
1684201042465567200,2.079567138671875,1.7566045983642338,-2.080893835631013,0.8173068554714321
1684201042475592200,2.08959228515625,1.2718822225570678,-1.7739087843865156,1.6098665154382585
1684201042485616000,2.0996162109375,0.6754501148462295,-1.2189677939713,2.466583590278029
1684201042495641300,2.109641357421875,-0.01496551394164562,-0.2049684458374977,2.9965470835641024
1684201042505666300,2.119666259765625,-0.9556436052769421,1.3484101664423942,3.0653333272814747
1684201042515691300,2.129691162109375,-1.8734727359443901,3.31053558382988,2.8956676654934883
1684201042525715200,2.139715087890625,-2.3104057710945605,5.041694775292277,2.5285402802363035
1684201042535740200,2.149740234375,-2.0205986491441728,5.739781084838509,1.9124305353701114
1684201042545765000,2.15976513671875,-1.227849019563198,4.9745618517398835,1.2990759344309568
1684201042555789300,2.169789306640625,0.2509574590742588,2.742582551628351,0.6030287294968962
1684201042565814300,2.179814208984375,2.0449948392540214,-0.0652425797611475,-0.22652882799953222
1684201042575839200,2.189839111328125,2.7971196129798885,-2.18776431080997,-1.484885798551142
1684201042585864200,2.1998642578125,2.3303870673716065,-3.5737644954562184,-3.1642452446714042
1684201042595888000,2.20988818359375,1.2549182282745837,-4.164048601931333,-4.554762614481151
1684201042605913000,2.2199130859375,0.584481557676196,-3.8240468317478893,-5.32080690022707
1684201042615938300,2.229938232421875,1.0207593437880278,-2.8207559246331453,-5.28695606855154
1684201042625963300,2.23996337890625,1.5825386557906864,-1.5159411542892456,-4.287603962190449
1684201042635987200,2.2499873046875,1.72106449842751,-0.16991349906921385,-2.7966388437256215
1684201042646012400,2.260012451171875,1.4740332728862762,0.9005588469147682,-1.1905085922062397
1684201042656037000,2.270037109375,0.7384598209887743,1.8734370801091194,-0.10896832424104214
1684201042666062000,2.28006201171875,-0.17358546558022497,2.568855631750822,0.7555708225265145
1684201042676086300,2.290086181640625,-0.9592185411542653,3.148329590398073,1.2792626881971954
1684201042686111200,2.300111328125,-1.4687398426532745,3.1823458417683836,1.4036337487533688
1684201042696136200,2.31013623046875,-1.35809744772017,2.4639766226500273,1.1336658842608331
1684201042706160400,2.320160400390625,-0.8531739954054355,1.3008710011541842,0.4105936020180583
1684201042716185000,2.33018505859375,-0.31347382874190804,0.29985797584354873,-0.1151546116605401
1684201042726210000,2.3402099609375,0.11553192054033279,-0.5534884535193443,-0.6461848573952913
1684201042736235300,2.3502353515625,0.425626043716073,-1.1481558896452189,-0.8397393442928791
1684201042746259200,2.36025927734375,0.19205577277243135,-1.2816969296067953,-0.9942539064392447
1684201042756284200,2.3702841796875,-0.433177482008934,-1.1024240660399198,-1.255697395953536
1684201042766309400,2.380309326171875,-0.9897019422233104,-0.6419137559473514,-1.6403981395632028
1684201042776334300,2.390334228515625,-1.1102426308363675,-0.38000644831359387,-2.235062360818684
1684201042786358000,2.40035791015625,-1.0442682296693324,-0.2838835771203041,-2.149547685140371
1684201042796383200,2.41038330078125,-1.118345273271203,-0.2468868486344814,-1.2991867013290523
1684201042806408200,2.420408203125,-0.9270353504300117,-0.4025479504674673,-0.4431918032839894
1684201042816433200,2.43043310546875,-0.1133048921406269,-0.5704021789193153,0.15976941393464802
1684201042826457300,2.440457275390625,1.0207727877914905,-0.5800929673284292,0.5908718432351946
1684201042836482300,2.450482421875,1.7003133868217468,-0.3327782486706972,0.6449705131694674
1684201042846507000,2.460507080078125,1.7595242852032185,0.29494039318561555,0.5269751251250505
1684201042856532200,2.4705322265625,0.9753379013061523,0.9692810854852199,0.0821150963678956
1684201042866556200,2.48055615234375,0.06199789875149726,1.525026962542534,0.031955519448220726
1684201042876581000,2.4905810546875,0.053392567491531366,1.4707874228328466,-0.4404048029139638
1684201042886606300,2.5006064453125,0.10484454057561234,0.9625532385349274,-1.1988368600904942
1684201042896630300,2.51063037109375,0.17414426850676534,0.4673591530740261,-1.65674984716624
1684201042906655000,2.520655029296875,0.24349662167429922,0.12313128962814807,-1.815018208888173
1684201042916680200,2.53068017578125,0.48354222611188885,-0.289719443666935,-1.5699199972361326
1684201042926705200,2.540705078125,0.4449146450212225,-0.5598305160224437,-1.4857304326817393
1684201042936729000,2.55072900390625,0.1422317114174366,-0.7301566875457763,-1.182148760139942
1684201042946754600,2.560754638671875,-0.12090601479411124,-0.9132856420189142,-0.7745756749868392
1684201042956779500,2.570779541015625,-0.46536589689757674,-0.7242869187295436,-0.24279724123328922
1684201042966804500,2.580804443359375,-1.1069546952068805,-0.15569325053691863,0.15272884777337312
1684201042976828700,2.59082861328125,-1.888103903365135,0.5099012407273054,0.47733460364341734
1684201042986853600,2.600853515625,-2.3583891730189324,1.0496575214922428,0.5642486247256397
1684201042996878300,2.61087841796875,-2.09563255507946,1.4374211598038673,0.521103018221259
1684201043006903300,2.6209033203125,-1.3916063340902327,1.4461550858795642,0.50863370500952
1684201043016927500,2.630927490234375,-0.7959691761493682,0.9426648812383412,0.3981687124699354
1684201043026952400,2.640952392578125,-0.239893592213653,0.18709259740710257,0.20190847374498844
1684201043036977400,2.650977294921875,0.33917463517691937,-0.49057870061993597,0.06464958230406045
1684201043047002600,2.661002685546875,0.6870388458311557,-1.0303145231187343,0.22200667439997196
1684201043057026300,2.6710263671875,0.5599567727506161,-1.2663304336488246,0.5397673866808415
1684201043067051500,2.681051513671875,0.13977792505715042,-1.2585615532130001,0.936454920682311
1684201043077076500,2.691076416015625,-0.4204489333391189,-1.0376046801269054,1.4513576229587197
1684201043087100400,2.701100341796875,-0.8698936595380306,-0.5698217486828565,1.7540806328445673
1684201043097125600,2.711125732421875,-0.8889970039367675,-0.21245967837572097,1.7297244824841618
1684201043107150600,2.721150634765625,-0.6710697078049183,-0.011433832684159278,1.491372822482884
1684201043117175600,2.731175537109375,-0.5215723892986774,0.05269932453036308,1.0769242986023426
1684201043127199500,2.741199462890625,-0.4451192642152309,-0.13606442095935345,0.5673790317058562
1684201043137224400,2.751224365234375,-0.5018892357179895,-0.3983703725218773,0.14192512968629598
1684201043147249400,2.76124951171875,-0.40917701321840283,-0.5148024567723274,-0.26790099509060383
1684201043157274400,2.7712744140625,-0.086814396632649,-0.4610054001331329,-0.5553802586153149
1684201043167298600,2.781298583984375,-0.022703999239206313,-0.4052496106415987,-0.588109100523591
1684201043177323500,2.791323486328125,-0.19338899413757024,-0.21918694080412388,-0.3596583645507693
1684201043187348500,2.801348388671875,-0.6155740305542946,0.02163315513730049,-0.3695166184812784
1684201043197373400,2.81137353515625,-1.157525191015005,0.20432138010561465,-0.6525254585936665
1684201043207397400,2.8213974609375,-1.5244669905722141,0.2378250057786703,-0.9745096337884664
1684201043217422600,2.831422607421875,-1.280576401144266,0.14024609055817128,-1.0652297691553831
1684201043227447600,2.841447509765625,-0.6953459978621452,-0.04927344173491001,-1.1433993427678941
1684201043237472500,2.851472412109375,-0.3452442739468068,-0.3053460518658161,-1.1192232251495122
1684201043247496400,2.861496337890625,-0.2602128517407924,-0.4642874905437231,-0.9571551788836717
1684201043257521400,2.871521484375,-0.4532312590003013,-0.5419143355816602,-0.7830959583118557
1684201043267546400,2.88154638671875,-0.5443161360263824,-0.5030751940995455,-0.6623188305944204
1684201043277570600,2.891570556640625,-0.2772375632345676,-0.3315057445168495,-0.6506500201106071
1684201043287595500,2.901595458984375,0.13815518269352614,-0.1540612654209137,-0.6002750468745828
1684201043297620500,2.911620361328125,0.2588367410819977,0.03329787396788597,-0.49871962923854585
1684201043307645400,2.9216455078125,0.26848843958973884,0.3279372383803129,-0.33337563004195686
1684201043317669400,2.93166943359375,0.25787702920436856,0.47218087414205073,-0.41758536060154433
1684201043327694300,2.9416943359375,-0.09184365950413048,0.5662368759334087,-0.4707739299535751
1684201043337719600,2.951719482421875,-0.5881891800224781,0.6545914512127637,-0.5224594012662768
1684201043347744500,2.96174462890625,-0.839184121562913,0.7676262942403554,-0.7114324055925011
1684201043357768400,2.9717685546875,-0.565666528699547,0.7649456768542527,-0.9742200031921266
1684201043367793700,2.981793701171875,-0.22096783287152647,0.6801093388289213,-0.8330264026507734
1684201043377818600,2.991818603515625,0.05079392930045724,0.5693254895985126,-0.3482148872554302
1684201043387843300,3.00184326171875,0.6506897675991058,0.5140186129182577,0.2025441413000226
1684201043397867500,3.011867431640625,0.7629964424826204,0.31776188132464883,0.49390959860831496
1684201043407892500,3.021892578125,0.47159109155535694,0.1986035869807005,0.625302812886238
1684201043417917400,3.03191748046875,0.41427872027158735,0.015849311038851736,0.6311655674397945
1684201043427942400,3.0419423828125,0.32056466378569604,-0.26739947530925273,0.926781083407998
1684201043437966600,3.051966552734375,0.3924982656180858,-0.240330266597867,1.3407716343879699
1684201043447991300,3.0619912109375,0.59930094114542,0.032797523230314256,1.7451541068062186
1684201043458016500,3.0720166015625,0.801036980932951,0.05054419232308864,1.771091681139171
1684201043468040400,3.08204052734375,0.7585330333329737,-0.3060088996887207,1.5255781666845083
1684201043478065400,3.0920654296875,0.5295849422972649,-0.7520125455230474,1.1264821102365852
1684201043488090600,3.102090576171875,0.3749463884450495,-1.2216232769161461,0.6074348555013537
1684201043498115600,3.112115478515625,0.13061010107621548,-1.4004407979309559,0.21603666007965802
1684201043508139300,3.12213916015625,-0.11263020774945616,-1.353501936623454,-0.013193828094005584
1684201043518164500,3.13216455078125,-0.12198051215782761,-0.9703454998463392,-0.20211977840811013
1684201043528189400,3.142189453125,-0.008865005109459161,-0.5080097278922796,-0.39383185230940576
1684201043538214400,3.15221435546875,0.2036613087616861,-0.16577508409023284,-0.3217217248663306
1684201043548238600,3.162238525390625,0.4179866348788142,-0.004691957208514213,0.03603752806484699
1684201043558263600,3.172263671875,0.3893604059837758,0.07956453510224819,0.466275741751492
1684201043568288500,3.18228857421875,0.09772621473670005,0.05379121142029762,0.7263327453434467
1684201043578313500,3.1923134765625,-0.12899345965981482,-0.04770224689543247,0.6173518538817763
1684201043588337400,3.20233740234375,-0.11647066269516944,-0.1626484765022993,0.17627894244790077
1684201043598362400,3.2123623046875,0.06599953560829162,-0.2064157220363617,-0.3423471642658114
1684201043608387600,3.2223876953125,0.17905542142391204,-0.05356441692709923,-0.6181757374852895
1684201043618412500,3.23241259765625,0.06904723274111747,0.12331599854528903,-0.7892401601552963
1684201043628436500,3.2424365234375,0.025094693768024444,0.3254068431198597,-0.6853259044334292
1684201043638461700,3.252461669921875,0.02752513578534126,0.5851344686269759,-0.268228911870718
1684201043648486400,3.262486328125,-0.018992431370168924,0.6772159554749727,0.26942922757118937
1684201043658511400,3.272511474609375,-0.06192191090583801,0.5797200423628092,0.7682637153610586
1684201043668535600,3.28253564453125,-0.22330840464830398,0.30844460240304467,1.0104831567063928
1684201043678560500,3.292560546875,-0.44283378362655634,-0.004202127864956855,0.9863497091859579
1684201043688585500,3.30258544921875,-0.805828014601767,-0.07740531124174595,0.8537555946856736
1684201043698609700,3.312609619140625,-0.9892974530756473,0.1638420702010393,0.6848398744821548
1684201043708634400,3.32263427734375,-0.6963013258256018,0.6089455523252487,0.5521273942992091
1684201043718659300,3.332659423828125,-0.11035101077109574,0.9156436033219099,0.5078393397614359
1684201043728684500,3.3426845703125,0.4836158758699894,1.0265484485834837,0.6062032678797841
1684201043738708500,3.35270849609375,0.8681143749058247,0.9470248300135136,0.9628910921871662
1684201043748733400,3.3627333984375,0.6678944387696683,0.7941612499445676,1.6362700998477637
1684201043758758700,3.372758544921875,0.09211158972531557,0.6774404118806123,2.5114088204324245
1684201043768783600,3.38278369140625,-0.577053161241114,0.7337497436016798,3.2933421647056935
1684201043778807300,3.392807373046875,-1.2042097853004932,1.0784078151583671,3.8087890568614005
1684201043788832500,3.40283251953125,-1.792962444424629,1.5614683952331543,4.093823557582497
1684201043798857500,3.412857421875,-2.122781551028788,1.9796891311287879,4.2501638738512995
1684201043808882400,3.42288232421875,-1.9163680209495126,2.1091589761286973,4.029261361300945
1684201043818906600,3.43290673828125,-1.3139549391329288,1.9344348619073628,3.5593645064428445
1684201043828931600,3.442931640625,-0.7936473090730607,1.7510995712071655,3.1454338689565655
1684201043838956500,3.45295654296875,-1.0723265955485404,1.613856754118204,2.3958210780516267
1684201043848981500,3.4629814453125,-1.2802948077239096,1.5385101289719343,1.3156129354730248
1684201043859005400,3.47300537109375,-0.9140545805647968,1.2814683815479277,0.3231280845329165
1684201043869030400,3.483030517578125,-0.9207540782034397,1.0939958449125289,-0.11062485927641391
1684201043879055600,3.4930556640625,-1.33829092348814,0.9038339230626821,-0.6973027579531074
1684201043889080600,3.50308056640625,-1.5049194095373153,0.6869950066894293,-1.396622700947523
1684201043899104500,3.5131044921875,-1.0862824940562248,0.5648258400917053,-1.8684736124828456
1684201043909129500,3.52312939453125,-0.006651859104633331,0.5785924996376037,-2.2622788690462707
1684201043919154400,3.533154541015625,1.029013377392292,0.7226672085732221,-2.7306197266340253
1684201043929178400,3.543178466796875,0.9931903688609599,0.748468004783988,-3.5032506972938773
1684201043939203600,3.55320361328125,1.4536334589362143,0.6942384019464254,-3.523352697341144
1684201043949228500,3.563228515625,2.0336691431194542,0.7320061148047446,-3.0299753059133887
1684201043959253500,3.57325341796875,2.3488076902031896,0.468237689474225,-2.038978939965367
1684201043969277400,3.58327734375,2.2277841865092514,0.2562719320952892,-1.0279802349522709
1684201043979302400,3.593302490234375,2.5340888542741538,0.15646423490941525,0.19384119488447904
1684201043989327400,3.603327392578125,2.715782222986221,-0.09944587813615799,1.2828288562461734
1684201043999352600,3.6133525390625,2.8981121360361572,-0.7281067692786455,1.9330925073876977
1684201044009376500,3.62337646484375,3.5559476837366817,-1.1682330475121736,2.4257062209665774
1684201044019401500,3.6334013671875,3.779507432797551,-1.433305541178584,2.7122607708618043
1684201044029426400,3.643426513671875,3.659087740215659,-1.6365794580578803,2.8429785700961947
1684201044039451400,3.653451416015625,3.3568682959377765,-1.4301450313210486,2.982179827776551
1684201044049475300,3.663475341796875,2.890996751073003,-1.2059236034810543,2.710626155397296
1684201044059500500,3.67350048828125,2.181938381135464,-1.082370873570442,1.9613070867419242
1684201044069525500,3.683525390625,1.5841823313444852,-0.8778963487297295,0.9992828405171632
1684201044079550500,3.693550537109375,1.296978231499344,-0.7103793894082308,-0.24354601377397775
1684201044089574400,3.703574462890625,1.0301951345227658,-0.4785691138744354,-1.303060912413895
1684201044099599400,3.713599365234375,0.8282615263365208,0.017153379374742508,-2.218346788339317
1684201044109624300,3.723624267578125,0.6692670422971249,0.42998482344746586,-3.008986001637578
1684201044119648500,3.7336484375,0.4868436057448387,0.4168494475424289,-3.8200855269014835
1684201044129673500,3.743673583984375,0.3828711900949478,0.24249358211159705,-4.221597704580426
1684201044139698400,3.753698486328125,0.4908652624763548,-0.07029284888803959,-4.268729458111524
1684201044149723600,3.7637236328125,0.33419089194759727,-0.7420902864456176,-3.891944894453883
1684201044159747300,3.773747314453125,0.1763217586763203,-1.1535738230407238,-3.0705545690611005
1684201044169772300,3.783772216796875,0.024767069248855113,-1.140923015782237,-2.504157826390862
1684201044179797500,3.793797607421875,-0.2503594931811094,-0.879501445838809,-2.0589076292723414
1684201044189822500,3.803822509765625,-0.41823476442098617,-0.6695113724470139,-1.8444065081968903
1684201044199846400,3.813846435546875,-0.603746083986014,-0.4434071996003389,-1.8292098158478736
1684201044209871600,3.82387158203125,-0.9650257661283016,-0.044184594163298604,-1.7601614140629767
1684201044219896600,3.833896484375,-1.2224160347290336,0.49374739378392696,-1.4460899116888641
1684201044229921300,3.84392138671875,-1.1286788896284996,0.9614952539145946,-1.0614145947813987
1684201044239945500,3.853945556640625,-0.835140326064825,1.337860130855441,-0.22866145611405372
1684201044249970400,3.863970458984375,-0.4287719405263662,1.7390157501816748,0.9950880191758275
1684201044259995400,3.873995361328125,0.10594123150482773,1.308517716515064,1.7935343990936874
1684201044270020600,3.8840205078125,0.9174491914391517,0.3009229747265577,1.7832842232361434
1684201044280044500,3.89404443359375,1.614730468212813,-0.6140192023277282,1.335830963115394
1684201044290069200,3.9040693359375,1.9769808950833976,-1.4290297635555267,0.8592068458288907
1684201044300094500,3.914094482421875,1.9472190862871706,-2.0921067190408706,0.6180772455468774
1684201044310118400,3.924118408203125,1.8234828165031969,-2.5735294687807557,0.5824918451637029
1684201044320143400,3.934143310546875,1.8564492665596306,-2.9003590381801128,0.36166181332767006
1684201044330168600,3.94416845703125,1.8326010657213627,-3.0655273885488508,0.1112836154460907
1684201044340193500,3.954193603515625,1.8781494955837725,-2.823471613332629,-0.19638503414839506
1684201044350217200,3.96421728515625,2.0360574995607137,-2.518215577837825,-0.40945115398466586
1684201044360242400,3.974242431640625,2.28426376023069,-2.1813626270741224,-0.24031565355062484
1684201044370267400,3.984267333984375,2.248942125350237,-1.614129141318798,0.20386983694583177
1684201044380292400,3.994292236328125,1.83319347865656,-0.7858890961617231,0.6342153103992343
1684201044390316500,4.004316650390625,1.1413158875573426,0.1774140839576721,1.2558549246028066
1684201044400341500,4.014341552734375,0.3246697610169649,0.7025409508675337,1.7629928380966184
1684201044410366500,4.024366455078125,-0.107732060444355,0.7310071668952703,1.7280869444102047
1684201044420391400,4.034391357421875,-0.3332813028220087,0.451538483607769,1.0395759801998734
1684201044430415400,4.044415283203125,-0.6553126781594008,-0.08229892850220202,-0.15770663618594408
1684201044440440300,4.0544404296875,-0.9330021498799324,-0.5635837310761213,-1.3262065179407596
1684201044450465500,4.064465576171875,-1.0486100582659243,-0.7119383092880248,-2.3137971670985222
1684201044460490500,4.074490478515625,-1.2395552394479512,-0.6091419516801834,-3.0790023716717956
1684201044470514400,4.084514404296875,-1.5526269171297549,-0.3408639399707317,-3.306714856497943
1684201044480539400,4.094539306640625,-1.4532278007447719,-0.03525602229833603,-3.7714439533293245
1684201044490564400,4.104564453125,-1.2037421677887439,0.11169570337831973,-3.9165447904422876
1684201044500589300,4.11458935546875,-0.7975941470026969,0.3113935153365135,-3.5713232397839425
1684201044510613500,4.124613525390625,-0.30268998439908024,0.527136453166604,-2.8715856558993456
1684201044520638500,4.134638427734375,-0.089468089479208,0.7579945425420999,-1.9985218418925998
1684201044530663400,4.144663330078125,-0.21812143046446145,1.2376748325288296,-1.020605906791985
1684201044540687400,4.154687255859375,-0.5369552518695593,1.8726912301778793,-0.24158435831218955
1684201044550712300,4.16471240234375,-1.1737772376358508,1.9750345833212135,0.8702575244143604
1684201044560737300,4.1747373046875,-1.9447627791762352,2.0007401024639604,1.7798633088767528
1684201044570762500,4.184762451171875,-2.875390016618371,1.8102333126991985,1.911562228102982
1684201044580786400,4.194786376953125,-3.8376200145483015,1.6997966694712638,1.7840961241409181
1684201044590811400,4.204811279296875,-4.261792936846613,1.7557050191760062,2.065691590324044
1684201044600836600,4.214836669921875,-3.4548049385547634,1.515190628182888,2.360615032374859
1684201044610861600,4.224861572265625,-1.9173013562768697,0.8737918360203504,2.5633532349422574
1684201044620885200,4.23488525390625,-0.6908183643698692,0.056201195171475406,2.564702311463654
1684201044630910500,4.244910400390625,0.032472529059648515,-0.771193046811223,2.022140033367276
1684201044640935400,4.254935302734375,0.2859661555480212,-1.3479238442301749,1.2815028683394194
1684201044650960400,4.26496044921875,0.36255554729700085,-1.5435259113073347,0.5036678992956877
1684201044660984600,4.274984619140625,0.3131284493703395,-1.4712164618998764,-0.18440701158493755
1684201044671009500,4.285009521484375,0.20989764586798845,-1.1774129637897013,-0.7279258597537874
1684201044681034200,4.2950341796875,0.15014555328190327,-0.666200640463829,-0.9564531680941581
1684201044691059500,4.3050595703125,-0.03291084741167724,-0.18382628908753393,-0.7397220960095524
1684201044701083400,4.31508349609375,-0.34638182660937306,0.32640579102933404,-0.036143618787825106
1684201044711108400,4.3251083984375,-0.5790952615279704,0.5986731646358966,1.0394707662597298
1684201044721133600,4.335133544921875,-0.582195565630868,0.654051937508583,2.1265306744292376
1684201044731158500,4.345158447265625,-0.29680724650342016,0.5187012177765369,2.8867577983289956
1684201044741182200,4.35518212890625,0.11306293661091477,0.0686409900277853,2.9421006231054663
1684201044751207400,4.36520751953125,0.5421394130418077,-0.4928250182420015,2.390872223472595
1684201044761232400,4.375232421875,0.7673737807840109,-1.0020710099309682,1.5508745205044745
1684201044771257300,4.38525732421875,0.8782347869038581,-1.3632792342722415,0.7519377267211675
1684201044781281500,4.395281494140625,0.7235790627211331,-1.385119310158491,0.08232581650912761
1684201044791306500,4.405306396484375,0.6286112067818641,-0.9054431118249893,-0.2922708817154169
1684201044801331500,4.41533154296875,0.5954641759941354,-0.16953122175335883,-0.45363224101662636
1684201044811356700,4.425356689453125,0.5151415160009637,0.6211544610351324,-0.6283472951486706
1684201044821380400,4.43538037109375,0.28426881357822564,1.4051935454159974,-0.856302648819983
1684201044831405300,4.4454052734375,-0.010503858357667923,1.8495909250974654,-1.0177934797197579
1684201044841430500,4.455430419921875,-0.5655424273958429,1.860350804042816,-1.012190837407112
1684201044851455500,4.46545556640625,-0.9191607445973903,1.8324182565003633,-0.7259823244705795
1684201044861479400,4.4754794921875,-0.022694646888971326,1.3288321902692317,-0.3191571350753307
1684201044871504600,4.485504638671875,1.0534931541323662,0.584713028344512,0.08875760312229394
1684201044881529300,4.495529296875,1.8172165957152842,-0.2720154446721077,0.18168781575411558
1684201044891554300,4.50555419921875,2.534630706065893,-0.7652671638935804,0.05929886892586946
1684201044901578500,4.51557861328125,2.8011598282814023,-0.7701958524674176,-0.21867665319442747
1684201044911603500,4.525603515625,2.410859949490428,-0.8173334512174129,-0.08566840493530034
1684201044921628400,4.53562841796875,1.4591677121877669,-0.3479214572668075,-0.15876228271871803
1684201044931652600,4.545652587890625,0.6862351282328367,0.14265490526556968,-0.16044687480479478
1684201044941677300,4.55567724609375,0.26912323036193847,0.5813292311251164,0.04767565114945173
1684201044951702300,4.565702392578125,0.23624624868724495,1.0616349595338106,0.22183044105023145
1684201044961727500,4.5757275390625,0.4364928901672363,1.1180904217272996,0.3988376977726817
1684201044971751400,4.58575146484375,0.6474228747576475,1.0845488021314142,0.6072483930185437
1684201044981776400,4.5957763671875,0.9029676616221666,0.9789204359680413,0.0185872115701437
1684201044991801600,4.605801513671875,0.9650351915437727,0.3481049971401691,-0.6180000886574387
1684201045001826600,4.61582666015625,0.8254933767974376,-0.3238496768057346,-1.2941218191549182
1684201045011850200,4.625850341796875,0.6111672834953293,-0.6236977157771587,-1.8413301694914697
1684201045021875500,4.63587548828125,0.05896364562213421,-0.8894874178022145,-2.3011633109748364
1684201045031900400,4.645900390625,-0.9549901098042726,-0.6450947240710259,-3.008996523031592
1684201045041925400,4.65592529296875,-2.640950561624765,-0.18851240107715128,-3.620070027296245
1684201045051949600,4.665949462890625,-3.6427614593148228,0.34110184037983415,-3.9498403263226147
1684201045061974500,4.675974609375,-3.2059938438594338,0.7745645690709352,-3.711353934025764
1684201045071999500,4.68599951171875,-2.2591367716282607,0.9217465963721275,-2.8390847775280474
1684201045082024400,4.6960244140625,-1.6400743144363163,0.6232955647170544,-1.5753084122762082
1684201045092048400,4.70604833984375,-0.7823930707395076,-0.032305355799198146,-0.2598538822352886
1684201045102073300,4.7160732421875,0.3138414930105209,-0.5832008702158927,0.6788067317977547
1684201045112098600,4.7260986328125,0.8585439980059861,-0.7999743201375007,1.1739832816019653
1684201045122123500,4.73612353515625,0.8817898490369319,-0.7385206112653017,1.6038345417976378
1684201045132147500,4.7461474609375,0.8546984284937381,-0.4309381786495447,2.0524702897012235
1684201045142172400,4.75617236328125,1.0070096353769302,-0.11830781499445438,2.545229549230635
1684201045152197400,4.766197265625,1.1811498122304678,0.08385726386010646,2.6772151764437555
1684201045162222300,4.776222412109375,1.184189326056838,0.07181377484500408,2.3322040536656976
1684201045172246500,4.78624658203125,0.8887000668168067,0.1406669463187456,1.8819833746582268
1684201045182271500,4.796271484375,0.8002244955062866,0.17396189767718315,1.4328294480994344
1684201045192296400,4.80629638671875,0.6785702926933765,0.12417407667934893,0.8933604598432778
1684201045202321400,4.8163212890625,0.5192576826155185,0.11424304977357387,0.10980594410896301
1684201045212345300,4.826345458984375,0.1324456459403038,0.07854103727340697,-0.9250044291242957
1684201045222370300,4.836370361328125,-0.23781273081898688,-0.004894786304235458,-1.7939929565161465
1684201045232395500,4.8463955078125,-0.3561316517293453,-0.059169981849193566,-2.442943186971545
1684201045242419500,4.85641943359375,-0.5233937595069408,-0.02651917361319065,-2.789858389805257
1684201045252444400,4.8664443359375,-0.5232242481589316,0.07901742261350155,-2.5618515982076526
1684201045262469600,4.8764697265625,-0.5178840561747551,0.058847325766086575,-2.161330769653618
1684201045272494600,4.88649462890625,-0.42855274481773376,0.138183897331357,-1.6910750183552503
1684201045282518300,4.896518310546875,-0.352277314388752,0.03891045315265655,-1.3927517047330735
1684201045292543500,4.90654345703125,-0.057822074371576306,-0.12441489969789982,-1.1433040656998752
1684201045302568400,4.916568359375,0.17382864495264366,-0.2273416056871414,-0.7537795551955699
1684201045312593400,4.926593505859375,0.14191490055322648,-0.19757482845485208,-0.42364831390231844
1684201045322617600,4.93661767578125,-0.22399229525923728,0.03185235133469105,-0.14997925680428742
1684201045332642600,4.946642578125,-0.6824538561284542,0.4643091178536415,0.12717325849533082
1684201045342667300,4.956667236328125,-0.9943816244721412,0.9323831411987542,0.3210919025301933
1684201045352692500,4.9666923828125,-1.1181693321824073,1.3023854973703621,0.32690994115918875
1684201045362716400,4.97671630859375,-0.8551485103487968,1.370924780589342,0.15147329475432633
1684201045372741400,4.986741455078125,-0.4188017506539821,1.0295961457163094,-0.05946311957687139
1684201045382766600,4.9967666015625,-0.09650571476472541,0.4365443280935287,-0.2296449141934514
1684201045392791600,5.00679150390625,-0.09305120866298675,-0.12252572495043278,-0.17612082927674055
1684201045402815200,5.016815185546875,-0.06880056450366974,-0.5807710127204656,-0.028922143101692197
1684201045412840400,5.02684033203125,-0.09729834471344947,-0.9103706313550471,0.025915947023034094
1684201045422865400,5.036865478515625,-0.21292731415377927,-1.10796299546659,0.0363157604843378
1684201045432890400,5.046890380859375,-0.18772972626686096,-1.115881513506174,-0.017191957819461822
1684201045442914600,5.05691455078125,-0.03628123716022819,-0.9148772951245308,-0.11020634160339832
1684201045452939500,5.066939453125,0.08445990592837334,-0.5013923555791377,-0.18524755406230686
1684201045462964500,5.076964599609375,0.06800090202596039,-0.13079612516760825,-0.24530133300870655
1684201045472989400,5.086989501953125,0.032343897711299356,0.16883447166085241,-0.3292144187092781
1684201045483013400,5.097013427734375,-0.07469137610793113,0.42370179765522475,-0.5084980959311127
1684201045493038300,5.107038330078125,-0.30363574081659317,0.6380769542634487,-0.7515089799150824
1684201045503063600,5.1170634765625,-0.5513350748777389,0.907295461693406,-1.1002248024299741
1684201045513088500,5.127088623046875,-0.6268728386819362,1.1098095001161097,-1.4079986659646033
1684201045523112400,5.137112548828125,-0.4221649800093844,1.103994091835618,-1.6739523263797162
1684201045533137400,5.147137451171875,-0.01216861323211342,0.9710252988040446,-1.8447411469787358
1684201045543162400,5.157162353515625,0.23318094283249227,0.7558189520686864,-1.8058081897333262
1684201045553186300,5.167186279296875,0.27977672632336614,0.4784960486382246,-1.4892834489881992
1684201045563211500,5.17721142578125,0.1494903042435646,0.2069330239087343,-1.1422276686400175
1684201045573236500,5.187236572265625,-0.013256992990709841,0.09681026893556118,-0.7595309583291411
1684201045583261400,5.197261474609375,0.05282090508341789,0.055278819629549975,-0.41078444841504097
1684201045593285400,5.207285400390625,0.09557992342300713,-0.05902735850811004,-0.16775515199154614
1684201045603310300,5.217310302734375,0.18172317932844162,-0.2712164032489061,0.06615180356055497
1684201045613335300,5.227335205078125,0.4942261172115803,-0.596619154715538,0.27259236777722834
1684201045623360500,5.237360595703125,1.0916986738860606,-0.8629711667984723,0.5315189060345292
1684201045633384400,5.247384521484375,1.24457452891469,-0.8703267902582883,0.8123208837524056
1684201045643409400,5.257409423828125,0.7356149529516697,-0.5072878433585166,0.9155176388546824
1684201045653434600,5.2674345703125,-0.599191051030159,0.021730185770988463,0.7531324894636869
1684201045663459600,5.27745947265625,-1.2548983545303345,0.17995441609025,0.45265842754840846
1684201045673483300,5.287483154296875,-0.6829506266694515,-0.04053659304976463,0.34923867734521624
1684201045683508500,5.297508544921875,0.5477929452914744,-0.24816285991966722,0.3165405228361487
1684201045693533400,5.307533447265625,1.277393094933033,-0.36102234638035297,0.48636342101246116
1684201045703558400,5.317558349609375,1.147174477392435,-0.3284668152123689,0.8301771506994963
1684201045713582600,5.32758251953125,0.7614308736663311,-0.23077158013582227,1.1123866571277379
1684201045723607600,5.337607666015625,0.17384024405889212,-0.16545184348523617,1.32904028006196
1684201045733632300,5.34763232421875,-0.3772551768440753,-0.17935060497820376,1.3792442806452512
1684201045743657500,5.357657470703125,-0.5732536228276789,-0.09072188893258572,1.1759431834980845
1684201045753681400,5.367681396484375,-0.6977974826674908,-0.06243862825632095,0.7470788885131477
1684201045763706400,5.377706298828125,-0.6375205624897032,-0.04175707475543022,0.21588366147503255
1684201045773731600,5.387731689453125,-0.3236895178079605,-0.11002806242704391,0.08349982872456312
1684201045783756500,5.397756591796875,0.011774608945846556,-0.24390637151896952,0.36469592032656073
1684201045793780200,5.4077802734375,0.25933964910283686,-0.5080529825121164,0.8250506014660001
1684201045803805400,5.417805419921875,0.39071196672320363,-0.7253472414374351,1.3694281122907996
1684201045813830400,5.427830322265625,0.43658049538545307,-0.7992021667212247,1.8393916026443242
1684201045823855400,5.43785546875,0.30297859208211303,-0.7580763756066561,2.158714449675381
1684201045833879600,5.447879638671875,-0.03504698265753686,-0.6274526843965054,2.266195165707171
1684201045843904500,5.457904541015625,-0.35668694752454755,-0.5720873555272817,2.104323518796265
1684201045853929500,5.467929443359375,-0.3388637791294604,-0.7628104183912277,1.667760047610849
1684201045863954400,5.477954345703125,-0.1571452759761363,-0.9108896867930889,1.2165895205326378
1684201045873978400,5.487978271484375,-0.2227624612033367,-0.9559422959625721,0.7409225578404962
1684201045884003300,5.49800341796875,-0.4346443396911025,-0.8097539558738469,0.4670204226389527
1684201045894028500,5.508028564453125,-0.496206331243366,-0.5469786332339048,0.47642128819078206
1684201045904052500,5.518052490234375,-0.4040717990338802,-0.12972411202192305,1.0005547601491211
1684201045914077400,5.528077392578125,-0.23029694836139677,0.03464811953306198,1.7467923755325376
1684201045924102700,5.5381025390625,0.003528027995675802,-0.06767828247547149,2.449220952066779
1684201045934127400,5.54812744140625,0.21368001395091413,-0.453671988505125,2.757618500457704
1684201045944151300,5.5581513671875,0.24932065165266393,-0.8497674018323421,2.6760221672669053
1684201045954175500,5.568175537109375,0.08124474327415228,-1.0353823279023169,2.369398935072124
1684201045964200400,5.578200439453125,-0.13417612299472093,-1.051231054419279,1.9357344001986085
1684201045974225400,5.588225341796875,-0.48010874453186986,-0.8253998532950878,1.6075924330264328
1684201045984249600,5.59824951171875,-0.7161690787255763,-0.5295429297864437,1.2289530352823435
1684201045994274600,5.608274658203125,-0.75890815025568,-0.24363573788404463,0.9195227828428149
1684201046004299500,5.618299560546875,-0.6538824261605739,0.03158171769976616,0.704607674138993
1684201046014324700,5.62832470703125,-0.2855564787685871,0.34453123030662536,0.748771956166625
1684201046024348400,5.638348388671875,0.23203765454888342,0.7387818925499916,1.1929041090406476
1684201046034373600,5.64837353515625,0.41492885474339125,1.0893792910277842,1.7465714262582361
1684201046044398600,5.658398681640625,0.08904854889288544,1.2497978165209294,2.0515406076356766
1684201046054423600,5.668423583984375,-0.5135679465413093,1.0855208620339631,2.0162391387604175
1684201046064447700,5.67844775390625,-1.1870891391515732,0.7696446483254432,1.7941368950314818
1684201046074472700,5.68847265625,-1.6761223638951777,0.45501405076384543,1.5369814580999315
1684201046084497400,5.698497314453125,-1.8550573738098144,0.16359247935414314,1.2719104257382452
1684201046094522400,5.7085224609375,-1.8584582682944832,-0.0398059406876564,1.0109342614747583
1684201046104546600,5.718546630859375,-2.0222109066464005,-0.055143795073032374,0.8868119149826467
1684201046114571500,5.728571533203125,-2.273057014300674,0.09241875597834587,0.9157118462525308
1684201046124596500,5.738596435546875,-2.418622838576883,0.34014906969964503,1.0999885094560682
1684201046134621700,5.74862158203125,-2.4213537248454986,0.5630944862544536,1.362618870667368
1684201046144645400,5.758645263671875,-2.2614827502325174,0.6812661076486111,1.5464539275832474
1684201046154670600,5.768670654296875,-2.125718042872101,0.6550614068120718,1.6351907801784573
1684201046164695600,5.778695556640625,-1.9687714312732219,0.5142337169736624,1.69478673235476
1684201046174719500,5.788719482421875,-1.6879823130369185,0.3706751408666372,1.6702337442480026
1684201046184744700,5.79874462890625,-1.3177613456785677,0.22797581193745134,1.6902417824015021
1684201046194769700,5.808769775390625,-0.8225228365540505,0.10309037211835384,1.6825002283640205
1684201046204794600,5.818794677734375,-0.6509224073112011,-0.09532792142331599,1.4929980855971574
1684201046214818600,5.828818603515625,-0.11001871007680893,-0.21644611766338348,1.771941429836303
1684201046224843500,5.838843505859375,0.8558020058214664,-0.2644517314195633,2.363469252762198
1684201046234868500,5.848868408203125,1.7418980276197193,-0.27315701592266556,2.793955595991015
1684201046244893400,5.8588935546875,2.5922131264626977,-0.269373990252614,3.259166631120443
1684201046254917600,5.868917724609375,3.066092036694288,-0.46326574628055095,3.5163752595439552
1684201046264942600,5.878942626953125,3.1547219217836857,-0.6365519366532564,3.132097709782421
1684201046274967600,5.888967529296875,3.462088665822148,-0.49354573373198507,2.4143767254397273
1684201046284992500,5.898992431640625,3.853100492274761,-0.2714928821027279,1.8680355133265256
1684201046295016400,5.909016357421875,4.050614530453085,0.0361287134796381,1.4155036347672343
1684201046305041700,5.919041748046875,4.176087999293208,0.6031237143039703,0.5675429900959134
1684201046315066600,5.929066650390625,3.4446371802836655,1.3895230980753899,-0.36568653879910706
1684201046325091600,5.939091552734375,1.8822848418228326,2.4487895749121904,-1.5049009970977902
1684201046335115800,5.94911572265625,0.356572381234169,3.9342853220552203,-2.5145845278590917
1684201046345140500,5.959140380859375,-0.5681248816370964,5.081289119055867,-3.3355066512182354
1684201046355165400,5.96916552734375,-0.3864807588942349,5.0299178282588715,-4.166700285483897
1684201046365190400,5.9791904296875,1.0604149162195622,3.492674358221888,-4.794017653062939
1684201046375214600,5.989214599609375,2.733375162822008,1.6373586257368324,-5.3883881520688535
1684201046385239600,5.999239501953125,3.8913849224835633,0.09825111539363861,-4.415340115265548
1684201046395264500,6.009264404296875,3.5825171262323856,-0.8932406328558922,-2.9486569128811357
1684201046405289700,6.019289794921875,2.6283763267338274,-1.477817467600107,-1.438611538632214
1684201046415313400,6.0293134765625,1.77966340239048,-1.358481478601694,0.13567922103404997
1684201046425338600,6.039338623046875,0.7525678413182496,-1.1654688434958458,1.1716156756877898
1684201046435363600,6.049363525390625,0.497478250875324,-1.072124789366126,1.9139982230782508
1684201046445388500,6.059388427734375,0.8181266474217176,-0.8828577705293893,2.254650566124916
1684201046455412700,6.069412841796875,1.2801882786095142,-0.5968231528550386,1.9635969512447713
1684201046465437700,6.079437744140625,1.9419917070277035,-0.4716933828860521,1.5085656570851802
1684201046475462700,6.089462646484375,2.5545430287599564,-0.6722662241131067,0.9872019421011209
1684201046485487400,6.0994873046875,2.869807248049974,-1.0499503669589758,0.3602390870481729
1684201046495511600,6.109511474609375,2.8212749800711867,-1.6533341935038566,-0.37653117341846226
1684201046505536500,6.11953662109375,2.6368524786561727,-1.998047794640064,-1.1004752700597047
1684201046515561500,6.1295615234375,2.269385340050608,-2.0117641853034494,-1.951152480213344
1684201046525586700,6.139586669921875,1.7364228110790252,-1.7969383623182773,-2.644862182110548
1684201046535610600,6.149610595703125,1.190329582377523,-1.3931705146670341,-3.091856884808838
1684201046545635600,6.159635498046875,0.6578273643940686,-0.922739699062705,-3.248614257445931
1684201046555660500,6.16966064453125,0.00605433160290122,-0.39970951217114925,-3.052859922416508
1684201046565685500,6.179685546875,-0.611029957383871,-0.13914075966477393,-2.6193179910093543
1684201046575709700,6.189709716796875,-1.061238653692603,0.06904314108788967,-1.8783114081472156
1684201046585734700,6.199734619140625,-1.3465363353945314,0.1619862132012844,-1.1529121442615986
1684201046595759600,6.209759521484375,-1.5786324421323834,0.1904986064583063,-0.3496665473684668
1684201046605783600,6.219783447265625,-1.7799891272135078,0.3461065167993307,0.6803945855110883
1684201046615808500,6.22980859375,-1.9595482603758572,0.7315501877307892,1.9028890923038124
1684201046625833500,6.23983349609375,-2.1840448518954214,1.1178490141868591,3.116092915920913
1684201046635858400,6.2498583984375,-1.9743265811823307,1.124305642980337,3.964259020036459
1684201046645882600,6.259882568359375,-0.9939682213656603,0.27991175087988374,3.6717873550519347
1684201046655907600,6.269907470703125,0.4004705596715212,-1.0646411556124686,2.5855709119692443
1684201046665932500,6.2799326171875,1.42001102918908,-2.173539970624447,1.6364333275854586
1684201046675957800,6.289957763671875,2.354040184029192,-2.9804578262895345,0.614247165864706
1684201046685981400,6.2999814453125,3.160724377068877,-3.494074288147688,-0.22178514060378074
1684201046696006700,6.310006591796875,3.77337287556529,-3.729523212444782,-0.834060421873629
1684201046706031600,6.320031494140625,4.290227004170418,-3.7142572542518377,-1.2499506689950823
1684201046716056600,6.330056640625,5.241775449088215,-3.1848253836244345,-1.4166338078409433
1684201046726080800,6.340080810546875,6.245509423795342,-1.9089590598672628,-1.212399521496892
1684201046736105700,6.350105712890625,6.3775301223218435,0.12007014849185943,-0.8384659633561968
1684201046746130400,6.36013037109375,5.042202724814414,2.4920085389137268,-0.5558274178609252
1684201046756155400,6.3701552734375,2.8074206422418353,4.687648697665334,-0.2957733368784189
1684201046766179600,6.3801796875,-0.059134837470576164,5.798433180293441,-0.4007832788825035
1684201046776204500,6.39020458984375,-3.1590579051613807,5.625838479316235,-0.6801312583997845
1684201046786229500,6.4002294921875,-5.173354823812842,5.370069236046075,0.2040963391780853
1684201046796254700,6.410254638671875,-5.505640905052423,5.335144637659192,2.0208312888562676
1684201046806278400,6.4202783203125,-4.632309672281146,4.502975436359644,2.683443549439311
1684201046816303600,6.4303037109375,-3.7580087176948784,2.863821159377694,1.1199831036061048
1684201046826328600,6.44032861328125,-3.4855373459488153,1.5620336279004812,-1.613963137102127
1684201046836353500,6.450353515625,-3.009778613319993,0.2223006889104843,-4.413213040108978
1684201046846377700,6.460377685546875,-1.26059028256163,-1.2192530406534672,-6.8331386318475005
1684201046856402700,6.470402587890625,1.204651245457679,-1.9904858349531889,-7.8378201165378085
1684201046866427600,6.480427734375,2.5212334643542764,-2.5436861191809177,-7.193749474817514
1684201046876452400,6.490452392578125,2.78105987406075,-2.760990314978361,-5.0257612931013105
1684201046886476500,6.5004765625,2.4383276560001073,-2.4083517660617826,-1.9040730413913727
1684201046896501500,6.51050146484375,2.571052265012264,-1.6608967377126216,1.9881731740966437
1684201046906526500,6.5205263671875,3.1585072855412957,-0.8041723563492298,5.590743200537562
1684201046916551700,6.5305517578125,3.3116543587267397,0.003834463596343994,7.613582322084904
1684201046926575600,6.54057568359375,3.1036265253186226,-0.13872984077632428,8.414418812009691
1684201046936600300,6.550600341796875,2.3629583806306123,-0.5604132843464613,8.652128082454205
1684201046946625500,6.56062548828125,1.4704842021025717,-0.9070359339743852,8.990937427982688
1684201046956651300,6.5706513671875,1.2992220649033783,-1.429879658383131,8.166139632233977
1684201046966675200,6.58067529296875,1.291294779035449,-1.797192629340291,6.489351497906446
1684201046976700400,6.590700439453125,1.5354232688724994,-1.7533190008223056,5.127326647609472
1684201046986725400,6.600725341796875,2.199710769191384,-1.3480080153822898,4.305596130476892
1684201046996750300,6.610750244140625,3.0312422571092843,-0.8385287994593381,3.542321601705253
1684201047006774500,6.6207744140625,3.632996436625719,-0.4305845429062843,2.689399827495217
1684201047016799200,6.63079931640625,3.8696851318508383,-0.0013186813831329346,1.8873238589033483
1684201047026824200,6.64082421875,3.83148721088171,0.22622283079028127,0.798504978237301
1684201047036849200,6.65084912109375,3.7017490703344342,0.3708797235280275,-0.4326816613160073
1684201047046873300,6.660873291015625,3.8051848948895928,0.5896539918780327,-1.3119611349672078
1684201047056898300,6.670898193359375,3.8152199666917324,0.9427648344814776,-1.576829045972228
1684201047066923300,6.68092333984375,3.6463819878995416,1.0580150154709815,-1.811726473866403
1684201047076947200,6.690947265625,3.2729993416398764,1.0883505325019358,-2.0180098016947507
1684201047086972200,6.70097216796875,3.1689877630233765,1.1190279948383568,-2.1338529801413415
1684201047096997400,6.710997314453125,3.1067513793408867,1.1026029297381639,-2.129391616818309
1684201047107022300,6.721022216796875,2.804952206301689,1.0322148037821053,-1.954753719575703
1684201047117046300,6.73104638671875,2.2811516195595263,0.8966805441766976,-1.7935646481014786
1684201047127071500,6.741071533203125,1.7548446029543876,0.7656698994755744,-1.4257988188102841
1684201047137096400,6.751096435546875,1.2700123370319605,0.5132996509939431,-0.9137957834981382
1684201047147121400,6.761121337890625,1.1108452729046343,0.317709274354577,-0.13683540533185004
1684201047157145300,6.771145263671875,1.1883107899010181,0.06102174719572067,0.9115843910589814
1684201047167170300,6.78117041015625,1.2786989168345928,-0.202433374401927,1.6300358816333114
1684201047177195300,6.7911953125,1.4141010744929312,-0.34908056417405603,1.9813206778533756
1684201047187220200,6.80122021484375,1.700477052950859,-0.5729255599170923,2.072566152268648
1684201047197244400,6.811244384765625,2.0470400813460348,-0.7705904047429561,1.8755042417719958
1684201047207269400,6.821269287109375,2.5510171927213667,-0.8886234944492578,1.7923698853589594
1684201047217294300,6.83129443359375,2.7155484142303465,-1.104393320286274,1.5431015484154222
1684201047227319300,6.8413193359375,2.0015596021533013,-1.1471680476516484,0.6372647610977291
1684201047237343200,6.85134326171875,0.5956476793348788,-0.842094967508316,-0.13986936620026827
1684201047247368400,6.861368408203125,-0.25118777896510436,-0.6796387987077236,-0.48116862884834405
1684201047257393400,6.871393310546875,-0.2800140422105789,-0.7619453259944915,-0.8331053131058812
1684201047267418400,6.88141845703125,0.1299438922524452,-1.096972230374813,-0.89882106333673
1684201047277442300,6.8914423828125,0.9259504778027534,-1.7341636339753865,-0.7608454019285738
1684201047287467300,6.90146728515625,1.7333131546258926,-2.4717250448197126,-0.2956429884970188
1684201047297492200,6.9114921875,2.289774486476183,-2.6263059502005577,0.09437281265556811
1684201047307517200,6.92151708984375,2.727375630146265,-2.3356179537624118,0.016708996608108283
1684201047317541400,6.931541259765625,2.975502834230661,-2.037722217902541,-0.2730066476665437
1684201047327566300,6.94156640625,3.160991503572464,-1.7998159635812043,-0.7485890008151531
1684201047337591300,6.95159130859375,3.1996634717941284,-1.6560568964660167,-1.2679184334926306
1684201047347616300,6.9616162109375,3.2040099765658376,-1.7891385022222994,-1.5173429839111863
1684201047357640200,6.97164013671875,3.212549841374159,-1.8749907392919063,-1.707399837951362
1684201047367665400,6.98166552734375,3.085902652579546,-1.4468208563119171,-1.8962891095168888
1684201047377690400,6.9916904296875,2.917680759859085,-0.23273966533839702,-2.0715012995161115
1684201047387715300,7.00171533203125,2.5886381905853746,2.0275643965035677,-2.2218626875057814
1684201047397739500,7.011739501953125,2.2900281689763067,4.754519755411148,-2.387627250202
1684201047407764200,7.02176416015625,1.9629061925016342,7.246500821796059,-3.1519623939424752
1684201047417789200,7.0317890625,1.4518541743040083,8.325135431447624,-5.149634341007471
1684201047427814100,7.041814208984375,1.3057400684952736,7.1465475786596535,-7.547197586551309
1684201047437838300,7.05183837890625,2.222368591201305,4.091918016222119,-8.78251796490848
1684201047447863300,7.06186328125,3.569524373668432,0.7421136673212051,-8.359730944010614
1684201047457888300,7.07188818359375,4.32509841106534,-1.3824737640857696,-7.685805846774578
1684201047467913500,7.08191357421875,4.180300648552179,-2.409524316972494,-6.576883650887012
1684201047477937200,7.091937255859375,2.7661855455338955,-1.8560417086720467,-4.11821214890778
1684201047487962400,7.10196240234375,0.13986666278652846,0.2852554499953985,-0.8711902752198278
1684201047497987300,7.1119873046875,-2.4230979381643234,3.7488814083874225,2.463636723171174
1684201047508012300,7.12201220703125,-3.0386136626601217,6.7853826089382165,5.666960178777575
1684201047518036500,7.132036376953125,-2.153638169324398,6.519969923532009,7.484051686808466
1684201047528061400,7.1420615234375,-1.564692471846193,2.982612373974919,8.174384898009896
1684201047538086400,7.15208642578125,-1.2389806544303894,-0.8145756769418716,7.637007036814093
1684201047548110300,7.1621103515625,-0.62052010865435,-3.812894738614559,6.435487805771827
1684201047558135300,7.17213525390625,-0.04493789674863219,-5.756107365739346,4.9907051772892475
1684201047568160300,7.18216015625,0.15379720765724778,-6.378615579470992,3.8009786753714083
1684201047578185200,7.192185302734375,-0.4150165330268442,-5.667985430172085,3.2337042730838057
1684201047588209400,7.20220947265625,-1.926483464511484,-4.014283572399616,3.216060479843616
1684201047598234400,7.212234375,-3.435818790794909,-1.8777672182679175,3.4452696329683064
1684201047608259300,7.22225927734375,-4.164636630952358,-0.034878421157598496,3.831695885196328
1684201047618284300,7.2322841796875,-4.183369388473034,1.2712357413470745,4.1895393092796205
1684201047628308200,7.24230810546875,-3.9688825881838796,2.6228385663509366,4.690420500466227
1684201047638333400,7.25233349609375,-3.6860581647276875,3.645708034160733,4.887995913442969
1684201047648358400,7.2623583984375,-3.5813667871534824,3.5139351729154584,4.612693117663264
1684201047658383400,7.27238330078125,-3.542247075164318,2.55116098510623,4.078592670702934
1684201047668407300,7.2824072265625,-3.5870939326286315,1.4399439562797545,3.40438232678473
1684201047678432300,7.292432373046875,-3.6662685916304585,0.5957137303084135,2.4746874017566443
1684201047688457200,7.302457275390625,-3.5673487831950186,0.3091775928527117,1.1476271895959973
1684201047698482200,7.312482177734375,-3.392724037694931,0.9110966075420379,-0.2385465980514884
1684201047708506400,7.32250634765625,-2.5434032105863094,1.95215756560266,-1.3188111469924448
1684201047718531300,7.33253125,-1.3348235396385193,3.6952918570190665,-1.8419874643564222
1684201047728556300,7.342556396484375,-0.41732524836063384,5.34033285395205,-2.2046464720278975
1684201047738581500,7.35258154296875,-0.02365673338677734,5.891226030281186,-2.119860695146024
1684201047748605200,7.362605224609375,0.396112364462018,4.7778801727324725,-1.1874077035814523
1684201047758630400,7.37263037109375,0.3138409815538674,3.39539238012135,-0.24341391182690858
1684201047768655400,7.3826552734375,0.47673437272794544,2.5284675072610376,-0.23308628681898116
1684201047778680300,7.392680419921875,1.2647535397209226,1.784327302548289,-0.4653191716790199
1684201047788704500,7.40270458984375,3.0926907052844763,0.9310919323444365,-0.13161182546466588
1684201047798729500,7.4127294921875,4.562030267396569,0.4521563232451677,0.4764581130698323
1684201047808754200,7.422754150390625,5.134610959398747,-0.10154022006690501,1.2354668010905385
1684201047818779100,7.432779052734375,5.178261300554872,-0.6548690991103648,1.8791805921971796
1684201047828803300,7.44280322265625,4.743256018596887,-0.9606605566561222,2.635841255787015
1684201047838828300,7.452828369140625,4.401458597168326,-1.0610065985023975,2.8106320055037735
1684201047848853200,7.462853271484375,3.6540292877823113,-1.26143389377892,2.5606933680832387
1684201047858878500,7.47287841796875,2.922738627770543,-1.2593068186223506,1.9848425683692097
1684201047868902100,7.482902099609375,2.582859899444878,-1.275595105600357,0.9719853760078548
1684201047878927000,7.492927001953125,2.632537538066506,-1.5740344468176364,0.10681026942431926
1684201047888952300,7.502952392578125,2.5845079589128495,-1.8155922093838452,-0.6506734009861945
1684201047898977300,7.512977294921875,2.6114193467140194,-2.525978613054752,-1.508403452260792
1684201047909001500,7.52300146484375,2.9574656577587124,-3.1699159837841986,-2.5633009202331305
1684201047919026400,7.5330263671875,2.7129092978984115,-3.341439256137609,-3.2737910765394567
1684201047929051400,7.543051513671875,2.3003036254055798,-3.21280878457129,-3.8549718391045924
1684201047939076400,7.553076416015625,1.9248527945697307,-2.846293685993552,-4.249524114643037
1684201047949100300,7.563100341796875,1.5621014324396847,-2.1138211227208377,-4.478739989769458
1684201047959125500,7.57312548828125,1.1987382220216094,-1.24114280090034,-4.472249166445434
1684201047969150500,7.583150390625,1.0056025450579822,-0.4024386448740959,-4.286510906256735
1684201047979175700,7.59317578125,0.7098248242653906,0.2627677238553762,-3.8399180623576044
1684201047989199600,7.60319970703125,0.28742870238125323,0.8793775271981954,-3.162309308172762
1684201047999224600,7.613224609375,0.056095396709442136,1.4750263755768536,-2.3685247825860976
1684201048009249500,7.62324951171875,-0.21839652107879517,1.8415818061649798,-1.509658713018894
1684201048019274500,7.6332744140625,-0.6073100600779057,1.8659692284464835,-0.69493865917027
1684201048029298400,7.64329833984375,-0.9671867435544729,1.7175141124695539,0.22546061424612998
1684201048039323600,7.65332373046875,-1.514540493711084,1.4519137955367565,1.7105857745110988
1684201048049348600,7.6633486328125,-2.1808885798215867,1.0051613771617411,3.108593500076234
1684201048059373600,7.67337353515625,-2.9521371562123297,0.5544014767110348,4.0291628693625325
1684201048069397500,7.6833974609375,-3.581740296640992,0.2573608963757753,4.309626993428171
1684201048079422500,7.69342236328125,-3.7443116162538526,0.11752981635928153,3.679088325715065
1684201048089447400,7.703447509765625,-3.4228123019665477,-0.0061608607172966,2.5547043568015098
1684201048099472600,7.71347265625,-2.212822179698944,-0.43694238750040526,1.3241311729714274
1684201048109496600,7.72349658203125,-0.9706979665458202,-1.1350462327033282,0.40809418641775846
1684201048119521500,7.733521484375,0.30030031278356906,-1.903009211552143,-0.24537410598397252
1684201048129546800,7.743546630859375,1.2635020783551036,-2.9155513466149565,-0.5998267185851931
1684201048139571700,7.75357177734375,1.978517749261856,-3.746093823495507,-0.6854463159427047
1684201048149595400,7.763595458984375,2.901326421907544,-4.08029713653326,-0.7651888379603624
1684201048159620600,7.77362060546875,4.078365876209736,-3.938372883629799,-0.9455150099724531
1684201048169645600,7.7836455078125,4.752701307812333,-3.4503538043648003,-1.2695564099580048
1684201048179670500,7.79367041015625,4.710451481103897,-3.0144214706897734,-1.6934806181922555
1684201048189694700,7.80369482421875,3.9771541574448346,-2.610252641022205,-1.6504714975491166
1684201048199719700,7.8137197265625,2.435224575418234,-1.982216019257903,-0.8934308947309851
1684201048209744400,7.823744384765625,0.5071213276851922,-1.2670283527851105,-0.3127402537703514
1684201048219769600,7.83376953125,-0.7779594722062348,-0.7492004107117652,-0.41235798134207724
1684201048229793500,7.84379345703125,-0.64876084536314,-0.7836164750546216,-0.9896309228137135
1684201048239818500,7.853818603515625,0.3026976197162643,-1.176572421312332,-1.531158597165346
1684201048249843700,7.86384375,1.325894383251667,-1.5865928996175527,-2.085156753772497
1684201048259868700,7.87386865234375,1.5868974355220793,-1.9119465512454508,-2.814616691225767
1684201048269892400,7.883892333984375,0.778231932472065,-1.426667710599303,-3.4689021452292796
1684201048279917600,7.89391748046875,-0.385675726121664,0.5155331091344356,-3.9917902933016416
1684201048289942500,7.903942626953125,-1.3431295956909657,3.641590077447891,-4.060846586132049
1684201048299966500,7.913966552734375,-2.192922716486454,6.223910755449533,-2.542972710214555
1684201048309991700,7.92399169921875,-2.8811738607168196,7.1596969830900425,-0.7786988923966884
1684201048320016600,7.9340166015625,-4.56609327905178,8.093826091173291,0.15816928526163102
1684201048330041600,7.94404150390625,-8.13724437713921,9.661621935862302,2.5383842133805152
1684201048340065500,7.9540654296875,-6.671109748548269,9.158079708772897,6.657319708126783
1684201048350090500,7.964090576171875,0.14261165064573286,5.601760269114375,8.415057694435118
1684201048360115500,7.974115478515625,4.671626368147135,0.6097253045260906,7.456786078742146
1684201048370140700,7.984140625,5.410881138905882,-3.2899142360836264,5.237292750716209
1684201048380164600,7.99416455078125,2.760486457109451,-4.927932202512025,2.6626927300944923
1684201048390189600,8.004189453125,0.2373813536643982,-6.1355959276586765,-0.24203064077496528
1684201048400214800,8.01421484375,-0.2345417280579917,-6.6509051649093625,-2.2262863491669296
1684201048410239500,8.024239501953126,0.5430629210948944,-6.234822610086202,-2.4594439476564527
1684201048420263400,8.034263427734375,1.1962602876007555,-4.8955982051402325,-1.0444450475409626
1684201048430288600,8.04428857421875,1.1758727486103773,-3.0911645186305043,0.29746552774906154
1684201048440313600,8.054313720703124,0.4470236365318298,-0.8966764525234698,1.119480999302864
1684201048450338600,8.064338623046876,-0.7021048975378275,1.4348381575733422,1.6639967495545744
1684201048460362800,8.07436279296875,-1.7563140909850596,3.5091719040364024,1.3818988868072628
1684201048470387500,8.084387451171875,-2.360496374431252,4.579249113222956,0.1279009882479906
1684201048480412400,8.094412353515626,-2.3716367771267888,4.189741261592507,-1.419763922560215
1684201048490437600,8.104437744140625,-2.1911597984671594,2.7078596132934094,-2.6297297871693965
1684201048500461600,8.114461669921875,-1.6991805833995342,1.2167904499322175,-3.412406643286347
1684201048510486500,8.124486572265624,-0.8163625603586435,0.0947872386753559,-3.749228906650841
1684201048520511700,8.13451171875,0.13458033814774825,-0.58331777459383,-3.689097970815003
1684201048530536700,8.14453662109375,1.010866895326972,-0.8357792084902524,-3.108304454001784
1684201048540560400,8.154560302734374,1.7094763519644736,-0.8071545870304108,-2.3596888574406503
1684201048550585600,8.164585693359374,2.00077809638679,-0.761144531005621,-1.3116387711450457
1684201048560610600,8.174610595703125,2.058079361754656,-0.3262999925673008,-0.42025721015930173
1684201048570635500,8.184635498046875,1.9270108493864535,0.1244809506714344,0.1890963384449482
1684201048580659700,8.19465966796875,1.3852958357691765,0.6443290003955364,0.4739014143243432
1684201048590684700,8.2046845703125,0.44083822589516636,1.091149807831645,0.43991263548284765
1684201048600709600,8.214709716796875,-0.5010784673243761,1.319204530224204,0.30464433333724733
1684201048610734300,8.224734375,-0.939731750395894,1.3086357899367809,-0.06995704106241464
1684201048620758500,8.234758544921876,-1.0233481912374496,1.162933772060275,-0.6423667604118585
1684201048630783500,8.244783447265625,-1.1071417422115801,0.7436825240731239,-1.2368974184155463
1684201048640808700,8.25480859375,-0.9796645323336124,0.5433201107263564,-1.9134531564161181
1684201048650833700,8.264833740234375,-0.6518856993854045,0.3856038299292326,-2.5442434608027336
1684201048660857600,8.274857666015626,-0.27192893543243407,0.40191432873904703,-2.9256416557356713
1684201048670882600,8.284882568359375,-0.2050128695011139,0.45583062784373757,-3.2044594738990066
1684201048680907500,8.294907470703125,-0.2782219163631089,0.5687275237053633,-3.3952655388712882
1684201048690932500,8.304932373046874,-0.3048971390545368,0.7647428477585315,-3.3618680039212108
1684201048700956700,8.314956787109375,0.1814624825656414,0.8238561309844254,-2.9966680795952674
1684201048710981600,8.324981689453125,0.6403250254511833,0.9223550836592912,-2.4285855757951733
1684201048721006600,8.335006591796875,0.9399684817612171,0.8023977478921412,-1.5989418013200163
1684201048731031600,8.345031494140626,0.8974936141252517,0.6714087305009365,-0.8127601519525051
1684201048741055500,8.355055419921875,0.6766016229689121,0.37879590348005293,-0.23675942237377165
1684201048751080400,8.36508056640625,0.6345896966695785,0.14118366366922855,0.3027247634515166
1684201048761105700,8.375105712890624,0.780370625001192,-0.042084991535544396,0.7938447313413024
1684201048771130600,8.385130615234376,1.0697872863292694,-0.11556757637560366,1.3489876740694045
1684201048781155600,8.395155517578125,1.2275111659109592,-0.08430793023705482,1.7758108186155557
1684201048791179800,8.4051796875,1.04292967454195,-0.15977145976126192,1.7052789002746342
1684201048801204700,8.415204833984374,0.7582850499212741,-0.2833680288136005,1.3857678371950983
1684201048811229400,8.4252294921875,0.6289630889594554,-0.3457967201977968,1.2051552494570612
1684201048821254400,8.43525439453125,0.6498726790625602,-0.48524610742032526,1.087287287184596
1684201048831278600,8.445278564453124,0.9661655838131904,-0.594653407600522,0.9782000127390027
1684201048841303600,8.455303466796876,1.1531096395950764,-0.602715718024969,0.629003128708899
1684201048851328500,8.46532861328125,0.9309200829088687,-0.6450321802288294,0.1153172548763454
1684201048861353700,8.475353759765625,0.5053624282538891,-0.6211410170316696,-0.21014482556208966
1684201048871377400,8.48537744140625,0.1862461366456002,-0.6017495033413172,-0.2273908516563475
1684201048881402400,8.49540234375,0.06138992292098701,-0.4944418057888746,-0.11996113515943288
1684201048891427600,8.505427490234375,0.05236950805410742,-0.4825029461920261,0.3455973982334137
1684201048901452500,8.51545263671875,-0.015632599548250435,-0.37456571856439114,1.0797717969879508
1684201048911476700,8.525476806640626,-0.26704123645611105,-0.21196984903216362,1.7397240445815025
1684201048921501700,8.535501708984375,-0.45998131778240203,0.01813128449618816,2.105077552033961
1684201048931526700,8.545526611328125,-0.4304021720767021,0.20840017385184764,2.24246386924684
1684201048941551400,8.55555126953125,-0.15003617462329566,0.23823943179845808,2.033678057078272
1684201048951575600,8.565575439453125,0.17730075977630913,0.15276011969447134,1.7057301511734724
1684201048961599700,8.575599853515625,0.35257425150871274,-0.0035708442240953444,1.2715899616122246
1684201048971625000,8.585625,0.345679304363206,-0.09812544318735598,0.8270685171596706
1684201048981650000,8.59564990234375,0.10414777221679687,-0.10556056162416934,0.40242023243457076
1684201048991673900,8.605673828125,-0.05371756166219711,-0.11181436132192611,-0.09186170661747455
1684201049001699000,8.615698974609375,-0.12144501704163849,-0.07892039197981357,-0.5472410835623741
1684201049011724000,8.62572412109375,-0.07497326178923248,0.05350187308490276,-0.6958607424512505
1684201049021749000,8.6357490234375,0.14208558094501494,0.1263414838463068,-0.5469090751290321
1684201049031773000,8.64577294921875,0.4804031974337995,0.07004442708492278,-0.2374173017606139
1684201049041798000,8.6557978515625,0.8178104210793972,-0.1433376268327236,0.14854104069471358
1684201049051822800,8.66582275390625,0.9642097735702991,-0.45030689598619933,0.5283541583932936
1684201049061847800,8.675847900390625,0.8455645433150232,-1.038873677149415,0.8748181103281676
1684201049071872000,8.6858720703125,0.4090963491976261,-1.3781594080179929,0.9894896146468818
1684201049081897000,8.69589697265625,-0.018930325919389722,-1.3756775280743836,0.821774794665724
1684201049091922000,8.705921875,-0.35569099528975784,-1.1210358275294303,0.45698944249004125
1684201049101947000,8.71594677734375,-0.6237503227472305,-0.6267997734457254,0.007268383567780256
1684201049111970800,8.725970703125,-0.6774269678771495,0.06438216353952884,-0.33916780357733367
1684201049121996000,8.73599609375,-0.6810149093665182,0.7182745265722275,-0.6105101712934673
1684201049132021000,8.74602099609375,-0.6822108411528169,1.115924768126011,-0.9336883785784243
1684201049142046000,8.7560458984375,-0.6984909448243677,1.2056769352436065,-1.1415865942575036
1684201049152070100,8.766070068359374,-0.4512884543694555,1.0339765527576208,-1.2300839390084146
1684201049162094800,8.7760947265625,-0.139130384401232,0.6127057816416025,-1.0001081854254006
1684201049172119800,8.786119873046875,0.07550605349168181,0.1755406913012266,-0.5384354074247181
1684201049182144800,8.796144775390625,-0.04396905171647668,-0.13507657896578312,-0.08117299321219325
1684201049192169000,8.8061689453125,-0.4526550665475428,-0.1780681639522314,0.2992329758130014
1684201049202194000,8.81619384765625,-0.8020775760270654,-0.04557400269508362,0.5091869549781084
1684201049212219000,8.826218994140625,-0.4957286307290196,-0.23329496113359927,0.6582523118078708
1684201049222244000,8.836244140625,0.4681948732458055,-0.5829138699680566,0.9267639861427247
1684201049232267800,8.846267822265625,1.504277458371967,-0.5427934565037489,1.0355359110288322
1684201049242293000,8.85629296875,2.0114882909715175,-0.32090719361305237,0.8727616161897778
1684201049252318000,8.86631787109375,1.5824153216719627,-0.06075520521402358,0.6799994487136602
1684201049262343000,8.876343017578124,0.9950782284341751,-0.08085749752223491,0.47341319241598245
1684201049272367000,8.8863671875,0.9283912950836122,-0.76114628457129,0.2051155992232263
1684201049282392000,8.89639208984375,1.057342815297842,-1.5640391225039958,-0.2256558445572853
1684201049292417000,8.9064169921875,1.237795244038105,-1.8662246645122766,-0.5534954677820205
1684201049302441700,8.916441650390626,1.3704418193779886,-1.3663356992334126,-0.46557679970189925
1684201049312466000,8.9264658203125,0.9571030103050172,-0.31650983543694017,-0.24245178879648446
1684201049322491000,8.936490966796875,0.035326018794626,0.6566863776654005,-0.2675358150400221
1684201049332515800,8.946515869140624,-0.8164730349957943,1.2835966257482767,-0.5300825896210968
1684201049342541000,8.956541015625,-1.1254781938910483,1.3467951324611902,-0.8672232712849974
1684201049352565000,8.96656494140625,-1.1052793093405664,0.7894149322003126,-1.089020832978934
1684201049362590000,8.97658984375,-1.0182862316727637,0.12170154908597469,-0.7992600343883037
1684201049372615000,8.986614990234376,-0.9805962602257728,-0.2123848595738411,-0.029772914712131022
1684201049382639900,8.996639892578125,-1.2427673333622515,-0.021233342164754865,0.7555128087289631
1684201049392664000,9.0066640625,-1.6956958100236952,0.27433015135526656,1.5011732087463139
1684201049402689000,9.01668896484375,-2.03696906144768,0.4671282669275999,2.116307532709092
1684201049412714000,9.0267138671875,-2.246267353183031,0.6830290256679058,2.6570342659413813
1684201049422739000,9.036739013671875,-2.4235024273119867,0.8741606693327426,3.1594945430129764
1684201049432763000,9.046762939453124,-2.8430291312396525,1.1737439198881388,3.4911715524435043
1684201049442787800,9.056787841796876,-3.4252444975495338,1.3750000672042368,3.569537233150005
1684201049452812800,9.066812744140625,-3.899042743760347,1.3743436491221188,3.4940298644840717
1684201049462838000,9.076838134765625,-4.425439776736497,1.326364338850975,3.440443820247054
1684201049472863000,9.086863037109374,-4.683053771090507,1.2546984480440615,3.4582986258894204
1684201049482887000,9.096886962890625,-4.277367522597313,1.0648387240111827,3.5896447861552234
1684201049492912000,9.106912109375,-3.673694357717037,0.532114241579175,4.376715785577893
1684201049502936800,9.116936767578125,-2.8642507829666135,-0.10949439394176005,4.894519762253761
1684201049512961800,9.1269619140625,-1.9608979214191435,-0.4783855740010738,4.823393969672918
1684201049522986000,9.136986083984375,-0.40071430529952046,-0.7644973485648632,4.709993215942383
1684201049533011000,9.147010986328125,1.462256325852871,-0.8505220195919275,4.271482263951003
1684201049543036000,9.157035888671874,2.2076140896618366,-1.0139987636119128,3.6052035898149013
1684201049553060000,9.16706005859375,1.6513327905535697,-1.1181845297515391,2.7654025784626604
1684201049563084800,9.177084716796875,1.0636381160497665,-0.8908972846001386,2.0449688280299303
1684201049573109800,9.18710986328125,1.3936299488723278,-0.4115875814914703,1.653281002011895
1684201049583135000,9.197135009765624,2.160855845618248,0.5767325509846211,1.3112065172076224
1684201049593160000,9.207159912109375,2.7041841396510597,1.8535358633309602,0.6521200926631688
1684201049603183900,9.217183837890625,2.5148089842647314,2.9006501300811767,-0.38405572370439767
1684201049613209000,9.227208984375,1.4806979914724825,3.5757261509180065,-1.5888748730748892
1684201049623234000,9.237234130859376,0.07642623707652091,3.7868133718967436,-3.0827304522842165
1684201049633258800,9.2472587890625,-0.8436907122671604,3.547560379141569,-4.6360587956815955
1684201049643283000,9.257282958984375,-0.8013508691877126,3.151477825295925,-6.047545303761959
1684201049653308000,9.267307861328124,-0.09383202030975371,2.718635858851671,-6.813254950726032
1684201049663332900,9.277332763671875,0.7478940042883158,2.2320319070816037,-6.1869713101089
1684201049673358000,9.287358154296875,1.1698867330033331,1.6750351531803607,-4.146611437179148
1684201049683382000,9.297382080078124,0.2936205427587032,1.1791057391822337,-2.118458719393611
1684201049693406700,9.30740673828125,-0.7777595657199621,0.8411550563097,-1.0549041899740694
1684201049703432000,9.317431884765625,-0.6457306108217686,0.25284955643117424,-0.7894456195995211
1684201049713457000,9.327456787109375,0.7225580491103232,-0.2461953592389822,-1.0384294405132533
1684201049723480800,9.337480712890626,1.5963152522087096,-0.5066144741415978,-1.6059493419945239
1684201049733506000,9.347506103515625,2.067479204393178,-0.4459849411338567,-1.8471107987195252
1684201049743531000,9.357531005859375,2.3871622630387543,-0.2057218945533037,-1.782184445300698
1684201049753556000,9.367555908203125,2.455337973642349,0.044533553731441494,-1.3368430627673864
1684201049763580000,9.377579833984376,2.1749299636781214,0.22706863396465776,-0.8432415071949362
1684201049773604900,9.38760498046875,1.763506632837653,0.296910816475749,-0.60034548176229
1684201049783629800,9.3976298828125,1.3875339700847864,0.11759119115769863,-0.6101221948891877
1684201049793655000,9.407655029296874,1.1701456031352282,-0.24685879158377647,-0.7836509618461132
1684201049803679000,9.417678955078125,1.1752193262029438,-0.7489484817773103,-1.014546752883494
1684201049813704000,9.427703857421875,1.19034024990201,-1.0677835452914237,-1.1063237038269638
1684201049823729200,9.437729248046875,1.327277946564555,-1.1066326236456632,-1.3801947132378816
1684201049833753900,9.44775390625,1.4615116449654102,-1.154162436583638,-1.7374048078536986
1684201049843777800,9.45777783203125,1.560419909093529,-1.096084341624379,-2.02872554923743
1684201049853803000,9.467802978515625,1.67505502692461,-0.9725719437241553,-2.248391505730152
1684201049863828000,9.477827880859374,1.6742483867168425,-0.6723778677940369,-2.487567341595888
1684201049873853000,9.48785302734375,1.606336441615969,-0.3985170875161886,-2.754593599678576
1684201049883877000,9.497877197265625,1.460495745921135,-0.11725976724624633,-2.9356287967428565
1684201049893901800,9.50790185546875,1.1237416524220258,0.19729367342591284,-3.133777041171491
1684201049903926800,9.5179267578125,0.6844741099096834,0.5420148733466863,-3.2066356488943097
1684201049913952000,9.527951904296875,0.17851590771973133,0.8831295732080936,-3.1474802800923585
1684201049923976000,9.537975830078125,-0.24207637961283324,1.1368822159588337,-3.0170819220706817
1684201049934001000,9.5480009765625,-0.5733538683317602,1.153148291105032,-2.845894457542896
1684201049944026000,9.558026123046876,-0.8595005680784582,0.9652683427125215,-2.6624691504716873
1684201049954051000,9.568051025390625,-1.0930991883337497,0.5546762019991874,-2.4630621381536124
1684201049964075000,9.578074951171875,-1.1437655457317828,0.28171266282200813,-2.111281667371094
1684201049974100000,9.588099853515626,-1.0838986676596105,0.135552379783988,-1.575807301709056
1684201049984125000,9.598125,-0.9158709823369979,0.005675123026967048,-0.888511266246438
1684201049994150000,9.60814990234375,-0.5246154102563858,-0.3111328185737133,-0.1433496095314622
1684201050004174000,9.618174072265624,-0.19648630256578326,-0.8289888176977634,0.3602779577538371
1684201050014199000,9.628198974609376,0.23931392916217445,-1.444448866483569,0.7395125449120998
1684201050024224000,9.63822412109375,0.9837119080282747,-2.1003303575068712,1.3302876497745513
1684201050034249000,9.6482490234375,1.7572189308702946,-2.762697118896246,1.677153460508585
1684201050044274200,9.658274169921874,2.541751351726055,-3.4988919175624846,1.7752341877713798
1684201050054297900,9.6682978515625,3.226917389422655,-4.023140832594037,1.6964695708751678
1684201050064323000,9.678322998046875,3.6677310653984545,-4.283681528049708,1.1165046138405799
1684201050074348000,9.68834814453125,3.925792803519964,-4.104238568612933,0.3460302366927266
1684201050084373000,9.698373046875,4.18136272482574,-3.374830653607845,-0.1915086602836847
1684201050094397200,9.708397216796875,3.7517449811249968,-2.124215675485134,-0.25856939538270235
1684201050104422100,9.718422119140625,2.7311083869338035,-0.6215156955629587,0.3604278876185417
1684201050114446800,9.72844677734375,1.3865338531315325,0.7265659695774316,1.6681541614949702
1684201050124471800,9.738471923828126,-0.0883124166380614,1.6159703852713108,3.2568069162517785
1684201050134496000,9.74849609375,-0.9010768063742667,1.997249922260642,4.751584286481142
1684201050144521000,9.75852099609375,-0.7441431273221969,1.834649376553297,5.116155849775672
1684201050154546000,9.7685458984375,-0.2751238955488428,1.0310065970361233,3.9495173779785633
1684201050164571100,9.778571044921875,0.2131166444471106,-0.11643149972856044,2.448357613235712
1684201050174594800,9.7885947265625,0.6070972941100597,-1.2963812885195016,1.051828143529594
1684201050184619800,9.798619873046874,1.0694260518014431,-1.991516931566596,-0.48687166279554367
1684201050194645000,9.80864501953125,1.1851871049225329,-1.96644386510849,-2.2603289040222765
1684201050204670000,9.818669921875,0.7342436645984649,-1.1516074914038181,-3.986733594433963
1684201050214694100,9.828694091796875,0.028901091180508955,0.031962241449952127,-4.620302423623204
1684201050224719000,9.838718994140624,-0.7118518000483512,0.9942460153937339,-4.013326125544309
1684201050234744000,9.848744140625,-1.5968097577273845,0.9698545014590024,-2.4867741453915833
1684201050244769000,9.85876904296875,-2.597391990405321,-0.3997252942621708,-1.5401391914784908
1684201050254793000,9.86879296875,-3.285688727343082,-1.7380191403597591,-1.3074527176320552
1684201050264818000,9.87881787109375,-3.551054650998115,-2.2442782251924274,-0.18162293382436037
1684201050274843000,9.8888427734375,-3.231124777984619,-1.6113158374637364,2.1644316582784056
1684201050284868000,9.8988681640625,-2.5559412051200865,0.0836117646664381,5.117813553854822
1684201050294892000,9.90889208984375,-1.6213959174513817,1.5686235276848077,7.447706700229644
1684201050304917000,9.9189169921875,-0.7566331910610199,1.2114824066519736,8.226209193271398
1684201050314942000,9.92894189453125,-0.3644353696942329,-0.02869768669605255,7.541457581594586
1684201050324967000,9.938966796875,-0.09174889389276504,-0.4777893616735935,6.407869146484137
1684201050334991000,9.9489912109375,0.40728082420825956,-0.26604046191573144,5.267784919613599
1684201050345016000,9.95901611328125,1.6049954022705555,-0.212636788508296,3.9848496803835034
1684201050355041000,9.969041015625,4.11936891772747,0.2534019296169281,2.8588068383470175
1684201050365066000,9.97906591796875,6.014384207916259,1.3505635450839995,1.7820400683939457
1684201050375090000,9.98908984375,4.85145920368433,3.013963790050149,0.6188233877390623
1684201050385115000,9.999114990234375,1.9676877276897429,4.861629884564876,-0.3063344783812761
1684201050395139800,10.009139892578125,-1.0622305873394011,6.83565850571394,-1.5188073573753236
1684201050405165000,10.0191650390625,-3.4648166294813154,8.72906752974987,-2.2266662883952257
1684201050415189000,10.02918896484375,-3.387868998879194,8.767354882568121,-1.4180994964793323
1684201050425214000,10.0392138671875,-2.9325697014331817,5.238655271241068,-0.6412927014395594
1684201050435239200,10.0492392578125,-3.2307004150927066,0.2410498130440712,-1.7768869234144686
1684201050445264000,10.059263916015626,-3.872645735222101,-3.222522953855991,-4.370324330975115
1684201050455288800,10.069288818359375,-3.4708348668575284,-4.987132579499483,-6.84563395628333
1684201050465313000,10.07931298828125,-1.8591513651251792,-5.225855995422601,-7.530604763668775
1684201050475338000,10.089337890625,0.07211012744307517,-4.904959323203563,-7.281075291571021
1684201050485363000,10.099363037109375,1.9328163207948206,-4.050435666754842,-6.579191927829385
1684201050495388000,10.109387939453125,2.8110908551871776,-2.0230045412421225,-5.633403361612558
1684201050505411800,10.119411865234374,2.686509366750717,0.5717360578715801,-3.7932828601717947
1684201050515436800,10.129436767578126,1.4959189414799212,3.1535698291391134,-0.654865007457137
1684201050525462000,10.1394619140625,0.11134206763505936,4.402294463470578,2.628619487839937
1684201050535487000,10.149487060546875,-0.2427110425208695,3.3821482831448315,4.550143722508848
1684201050545511000,10.159510986328126,0.42424832562208176,1.2383417720049619,5.674239814391732
1684201050555536100,10.1695361328125,1.472269185823202,-0.4725000230938196,5.9734799505978815
1684201050565561000,10.17956103515625,2.006196029782295,-1.0811766953498125,5.2133367055892945
1684201050575586000,10.1895859375,2.0366414369285106,-1.2322276730388402,3.274210470995307
1684201050585610000,10.19960986328125,1.9269956518173217,-1.2495470566302538,1.0862255031719803
1684201050595635000,10.209635009765625,2.1788146961569783,-0.8199129463165998,-0.6539627979204058
1684201050605660000,10.219659912109375,2.34108615604043,-0.2888356465697288,-2.2140616583660244
1684201050615684900,10.229684814453124,2.1335025592684747,0.04304477647840976,-3.7140237377569076
1684201050625709000,10.239708984375,1.3313514796137809,0.3780184893667698,-4.730019520404935
1684201050635734000,10.249734130859375,0.167768267201446,0.3482464514374733,-5.173944606399536
1684201050645759000,10.259759033203125,-0.40729602177739144,0.4012316071718931,-4.659398754736781
1684201050655784000,10.269783935546876,-0.5303449303517118,0.5072328983008861,-3.47668885358274
1684201050665808000,10.279807861328125,-0.4857108023226261,0.5700105492532253,-2.3198140893004835
1684201050675833000,10.2898330078125,-0.29064890653677283,0.6210737970143556,-1.3783052462294696
1684201050685858000,10.299858154296874,0.11950195668246597,0.5744026467323303,-0.6669537969186902
1684201050695883000,10.309883056640626,0.32389523298051204,0.22498364438414573,-0.29249095420688387
1684201050705907000,10.319906982421875,0.308134184747003,-0.25859189947545524,0.05342997689247131
1684201050715932000,10.329931884765625,0.3995452615201473,-0.6264905613660812,0.26882556258961554
1684201050725956900,10.339956787109376,0.4088309762597084,-0.744525404638052,0.5458990213036536
1684201050735981800,10.34998193359375,0.10944354053735732,-0.3462982399791479,0.7034573350600898
1684201050746007000,10.360007080078125,0.10014613536000251,0.15453355910778044,0.5551270145066082
1684201050756031000,10.370031005859374,0.012312296019122003,0.6723357822179794,0.16409472978785633
1684201050766056000,10.380055908203126,-0.005854717377573251,1.0181529606819153,-0.24125761057585476
1684201050776081200,10.3900810546875,0.04769808217696845,0.9783996269643306,-0.5600767458684742
1684201050786105900,10.40010595703125,-0.018915201415494083,0.7425286778628826,-0.630565847980976
1684201050796130000,10.410130126953124,0.1184767418205738,0.519816485542059,-0.6273096226640045
1684201050806155000,10.420155029296875,0.3028278584998101,0.2734779184401035,-0.5321661178968846
1684201050816180000,10.430179931640625,0.4156370760779828,0.026225159102678298,-0.3490140748091042
1684201050826205000,10.440204833984374,0.5606675513684749,-0.38789106408357615,-0.27521526362672444
1684201050836229000,10.45022900390625,0.5107856223464012,-0.6517150189936161,-0.34958851369619365
1684201050846253800,10.46025390625,0.33044301065616305,-0.7451140181809663,-0.4937172909066081
1684201050856278800,10.47027880859375,0.18877127120904624,-0.5989660101026296,-0.5753185925334692
1684201050866304000,10.480303955078124,-0.043079263269901275,-0.3806880008369684,-0.7159205107919872
1684201050876328000,10.490327880859375,-0.38855975712537766,-0.20364041210412978,-0.8099136764802038
1684201050886353000,10.500352783203125,-0.6800678377747535,0.11090601430535316,-0.745497902932018
1684201050896378000,10.510378173828125,-0.7731904311735183,0.4135860618323087,-0.5453656450793147
1684201050906403000,10.520403076171876,-0.6777672326821833,0.524473371437192,-0.27167773715034127
1684201050916427000,10.530427001953125,-0.37570151766128834,0.5213286436706781,-0.0458446363300085
1684201050926452000,10.540451904296875,0.021125790137052534,0.5232400302499532,0.09289207257851957
1684201050936477000,10.550476806640624,0.5151285469215363,0.39759997267127034,0.07568798592984675
1684201050946502000,10.560501953125,0.91535879503116,0.1500046835064888,0.17028350142538545
1684201050956526800,10.57052685546875,1.0959164377115667,-0.17885142328441142,0.3262349645070731
1684201050966551800,10.5805517578125,1.064048304285854,-0.6269727919250726,0.3431139108546078
1684201050976576800,10.59057666015625,0.8771521792989224,-1.2054290979623794,0.23127836061418056
1684201050986601500,10.6006015625,0.5899298131447285,-1.6538883202552794,0.10599150038734077
1684201050996625700,10.610625732421875,0.18527466126494108,-1.677064028659463,0.00419189873188734
1684201051006650600,10.620650634765624,-0.2062543939948082,-1.278047759449482,0.1431571556992829
1684201051016675600,10.630675537109376,-0.6141338416833431,-0.7060714630812406,0.37022944292575116
1684201051026700800,10.64070068359375,-1.0427028800487517,0.016249708533287048,0.6896059198401868
1684201051036725800,10.650725830078125,-1.409959152382612,0.7542869201958179,0.9406601172871887
1684201051046749700,10.660749755859374,-1.6441139452159403,1.2854168269127606,1.0854871058948337
1684201051056774700,10.670774658203126,-1.8484487693250178,1.6250515173494815,0.9765615978822112
1684201051066799600,10.680799560546875,-1.9436545256733893,1.479035611218214,0.7589578346163034
1684201051076824600,10.690824462890625,-1.903764413833618,0.9126280548930168,0.6829327256865799
1684201051086848800,10.700848876953126,-1.5969957818187772,0.3181991036981344,0.4225143414363265
1684201051096873700,10.710873779296875,-1.2843909909963607,-0.33482232171893117,0.39517829848229885
1684201051106898700,10.720898681640625,-0.8999042554635553,-0.8887912522315978,0.40348318549096585
1684201051116923600,10.730923583984374,-0.46849787478037175,-1.2582862434029578,0.43995808205977077
1684201051126947600,10.740947509765626,-0.12288067586794495,-1.346892163094878,0.47762496489211914
1684201051136972500,10.75097265625,0.09930910001397132,-1.2252063960999249,0.4110109506472945
1684201051146997800,10.760997802734375,0.28279044812135395,-0.9185299724131822,0.2587919520922005
1684201051157022700,10.771022705078124,0.13709142591953277,-0.5162473948836326,0.13899112206101416
1684201051167047000,10.781046875,-0.1762941400170326,-0.13259586806595325,-0.0184913499802351
1684201051177071600,10.791071533203125,-0.3803788618225604,0.12344108622968196,-0.21524156417921184
1684201051187096600,10.8010966796875,-0.5193244642414152,0.1554419061243534,-0.3746275317542255
1684201051197121500,10.81112158203125,-0.5490658147715032,-0.00899812996983528,-0.3129239397741854
1684201051207145700,10.821145751953125,-0.6857460295416414,0.013685411003232001,-0.07358648360595106
1684201051217170700,10.831170654296875,-0.7056723807610571,0.5220914447367191,-0.019792641837149856
1684201051227195600,10.841195556640624,-0.5698563816048204,0.9398609297335148,-0.2562139182977378
1684201051237220900,10.851220947265626,-0.3358908277332783,0.9610697219789027,-0.6914730288863181
1684201051247245800,10.861245849609375,-0.07983516873717307,0.7666156558930873,-0.8913225242748856
1684201051257269500,10.87126953125,0.028715222352743146,0.4756313068568706,-1.0516296983480453
1684201051267294700,10.881294677734376,-0.033696371766179796,0.3460240992128849,-1.0373520205400883
1684201051277319700,10.891319580078125,-0.12689634125009178,0.3532727551668882,-0.8885477988645434
1684201051287344600,10.9013447265625,-0.10933394268304109,0.2835305258989334,-0.5785097897902131
1684201051297368800,10.911368896484374,-0.1908781072951853,0.09939444020986557,0.1133345566265285
1684201051307393800,10.921393798828126,-0.43228097156062717,-0.09277765241861342,0.8943525396205484
1684201051317418500,10.93141845703125,-0.6766882783390581,-0.33753333424329757,1.3641142237916588
1684201051327443700,10.941443603515625,-0.9443675935029983,-0.5846937391221523,1.4298628533788025
1684201051337467600,10.951467529296876,-1.2967360933065413,-0.7555570862621068,1.3194807168170808
1684201051347492600,10.96149267578125,-1.6424445506989955,-0.7782149082720279,1.2625399553246794
1684201051357517800,10.971517822265625,-2.0329602641977367,-0.6648106474101543,1.3823406392253934
1684201051367542800,10.981542724609374,-2.404884382212162,-0.5670423470973969,1.7167196010909973
1684201051377566500,10.99156640625,-2.6059216260805727,-0.5097568638205527,2.173354677185416
1684201051387591700,11.001591796875,-2.5716052227199078,-0.4539975671976805,2.7101886407628655
1684201051397616600,11.01161669921875,-2.341244123081118,-0.5337836360961199,3.1416613646805285
1684201051407641600,11.0216416015625,-2.049307003364712,-0.7067956857025622,3.429716674527526
1684201051417665800,11.031665771484375,-1.8453240614332258,-0.9524801728099584,3.517468023216724
1684201051427690800,11.041690673828125,-1.928783412016928,-1.2494973722696303,3.524294654366374
1684201051437715700,11.0517158203125,-1.8651172877922653,-1.2818845611333847,3.486552660471201
1684201051447740700,11.06174072265625,-1.4402281800486147,-0.9291454744517803,3.6181408127993344
1684201051457764600,11.0717646484375,-0.5815842287994921,-0.3600830197036266,4.086280594857037
1684201051467789600,11.08178955078125,0.6372878497123717,0.601503419625759,4.9037990472525355
1684201051477814800,11.091814697265624,1.7315851617895066,1.8027888419121503,5.8162920775890345
1684201051487839700,11.10183984375,2.273672077459097,3.0804467252612113,6.145060506096482
1684201051497864700,11.11186474609375,1.8772060772538184,4.076854302603006,5.5409138784855605
1684201051507889000,11.121888916015624,0.645093408896774,4.378106363153457,4.188036211240291
1684201051517913600,11.13191357421875,-0.520985529321432,3.869754689955711,2.328980853835493
1684201051527938600,11.1419384765625,-0.7379248373292386,3.139315678337216,0.6642309478260576
1684201051537963500,11.151963623046875,-0.8585248549140989,2.2239310182124377,-0.7076278987430036
1684201051547987700,11.16198779296875,-1.6317606595993042,1.4249135604083538,-2.2245057493604716
1684201051558012700,11.1720126953125,-2.124345293214172,0.9548737899482249,-3.338023017953336
1684201051568037600,11.18203759765625,-2.013570357942581,0.4166641541033983,-3.985765918445587
1684201051578062800,11.192062744140625,-1.8408361023642121,-0.01497428176999092,-3.9532434127643703
1684201051588086500,11.20208642578125,-1.4876596471786498,-0.4745055176973343,-3.310138108944893
1684201051598111700,11.21211181640625,-1.001066216802597,-0.7693892122596502,-2.0175030212163922
1684201051608136700,11.22213671875,0.03187749034252483,-0.7564175024837255,-0.2547588971838355
1684201051618161700,11.23216162109375,1.0178688830435276,-0.4451292010873556,1.2885226839736104
1684201051628185900,11.242185791015626,1.217151099938154,0.17576514770686624,1.6569070835545658
1684201051638210800,11.2522109375,2.0701649363458157,0.7625707644164562,1.5838868555292487
1684201051648235800,11.26223583984375,3.013038491898775,1.0693249295145273,1.132437219248712
1684201051658260500,11.272260498046874,3.7268642223685977,1.2349287486910818,0.29107933384329077
1684201051668284700,11.28228466796875,4.0988901933223,1.3654700223147869,-0.6149979842320085
1684201051678309600,11.2923095703125,4.212762656217813,1.548479149800539,-1.3683239504411815
1684201051688334600,11.30233447265625,4.189932400250434,1.6120003125965594,-1.7282850973308086
1684201051698359800,11.31235986328125,3.712794195961952,1.6548703170299528,-2.051029443243146
1684201051708384800,11.322384765625,3.17453779836595,1.6335691703259945,-1.5552584346771239
1684201051718408700,11.33240869140625,2.1416507944107055,1.3270920686036347,-0.9602762335136532
1684201051728433700,11.34243359375,0.8670493760228156,0.6793126354932785,-0.9956634809762239
1684201051738458600,11.352458740234376,0.3167093035317957,0.33695816470384593,-1.0995949800938367
1684201051748483600,11.362483642578125,0.68074588316679,-0.1006044005215168,-1.483311973363161
1684201051758507800,11.3725078125,1.3823987991534172,-0.6332429582357406,-2.1406024544015527
1684201051768532700,11.38253271484375,2.325054474171996,-1.040800261297822,-2.486115973743796
1684201051778557700,11.3925576171875,2.4296741016842422,-1.3381167359650135,-1.9929262138426302
1684201051788583000,11.4025830078125,1.722603544563055,-1.4644833542525768,-1.090138877223432
1684201051798606600,11.412606689453124,1.1428596829332411,-1.1989742227345703,-0.4311860159307718
1684201051808631600,11.422631591796875,0.9526305410660802,-0.7003858186602592,-0.5662964971661567
1684201051818656800,11.43265673828125,1.1932571602620183,0.012398293802142142,-1.0680781443238259
1684201051828681700,11.442681640625,1.7556851454317568,0.883496068432927,-1.5641604107961058
1684201051838705700,11.45270556640625,2.248973835662752,1.3601181398928164,-1.9245099724814294
1684201051848731000,11.46273095703125,2.4467246052064002,1.4847288544237613,-2.216528048479557
1684201051858755600,11.472755615234375,2.3866472992539403,1.2044558690160512,-2.60504045933187
1684201051868780500,11.482780517578124,2.273472170972824,0.6116466279774904,-3.1065880054727195
1684201051878805800,11.4928056640625,2.07907071185708,0.18667875590920446,-3.4731676937192675
1684201051888829700,11.50282958984375,1.818018121356517,0.04323240800499916,-3.727671447098255
1684201051898854700,11.512854736328125,1.5308542073912919,-0.06110474930405616,-3.863954479244351
1684201051908880000,11.5228798828125,1.350833009675145,-0.02844400419592857,-3.7887826261430977
1684201051918904800,11.53290478515625,1.2174268481396138,0.024842764833569526,-3.442152377730608
1684201051928928500,11.542928466796875,0.9607375674150883,0.008275660914182663,-3.1150086278155444
1684201051938953700,11.55295361328125,0.537194321322441,-0.01939794343113899,-3.0440950166806577
1684201051948978700,11.562978759765626,-0.01361526837646961,-0.12504852142632006,-3.2651115109995006
1684201051959002600,11.573002685546875,-0.7085160066891462,-0.07079670675694942,-3.5304254122063514
1684201051969026800,11.58302685546875,-1.326045189899206,0.08511807757616043,-3.8108714160934087
1684201051979051500,11.593051513671876,-1.8999241050183773,0.10621756422817706,-4.0031753184080126
1684201051989076700,11.60307666015625,-2.282722814399004,0.11411679304540157,-3.9221760743275285
1684201051999101700,11.613101806640625,-2.464956281337142,0.14406652562916278,-3.450106551605463
1684201052009125600,11.623125732421874,-2.4058844991654156,0.15930033511817454,-2.7712916365012523
1684201052019150800,11.63315087890625,-2.430469051454216,0.2314765135347843,-1.8090467332631348
1684201052029175800,11.64317578125,-2.4260341377466914,0.5141559755623341,-0.474981610776484
1684201052039200800,11.65320068359375,-1.6715853049874305,0.576607463300228,0.7850655048191547
1684201052049225700,11.663225830078124,-1.0912297412000596,0.21230010389983653,1.6411366829708218
1684201052059249700,11.673249755859375,-0.3885737856507301,-0.31445816360414025,2.53583014498353
1684201052069274600,11.683274658203125,0.27976196714565155,-1.235704409238696,3.581508825972676
1684201052079299600,11.693299560546874,0.971088500233367,-2.391182020074129,4.665274076510966
1684201052089324800,11.70332470703125,2.1704449272185564,-3.249261907699704,5.71409894657135
1684201052099348700,11.7133486328125,3.3808944836914536,-3.247642782065272,6.537583906155824
1684201052109373700,11.723373779296875,4.327350573906302,-2.868943909218907,6.382702556523681
1684201052119398700,11.733398681640624,5.127354120138287,-2.229738243186474,5.206483770954609
1684201052129423600,11.743423583984375,5.8317515125274655,-1.0728946046948433,2.670898832903802
1684201052139447800,11.75344775390625,5.499646633073687,-0.1788350566715002,1.1595964443311095
1684201052149472800,11.76347265625,3.2353999710857866,-0.21370354095697403,2.019473152245581
1684201052159497700,11.773497802734376,0.5160918755283579,-0.9537906708866357,3.6575048549383875
1684201052169522700,11.783522705078125,-1.4836480734497308,-1.7510621618062256,4.667295060944557
1684201052179546600,11.793546630859375,-1.5893267084956169,-2.4777818606406448,3.965668594573438
1684201052189571600,11.803571533203124,-0.892532192325592,-3.152002141430974,2.6031115370959044
1684201052199596500,11.813596435546875,-0.19063070840537547,-3.4207945324033497,1.266911448407173
1684201052209621800,11.823621826171875,0.6565139437079429,-3.4380981339037415,-0.062078855033218854
1684201052219646700,11.833646728515625,1.2347381945550442,-2.4615257223665714,-1.6735288402706383
1684201052229670700,11.843670654296876,1.179569849562645,-0.487184382006526,-2.991658434739709
1684201052239696000,11.85369580078125,0.47933366850614545,1.4485773445904253,-3.405282490494847
1684201052249720600,11.863720458984375,-0.6371826357722282,2.3685271206736562,-3.2863255639418956
1684201052259745500,11.87374560546875,-2.1532079612135884,1.9209516954779624,-3.499201129642129
1684201052269769700,11.883769775390626,-3.577280979144573,1.1906325108468532,-4.636665821664035
1684201052279794700,11.893794677734375,-5.061880069708824,1.8743559485197065,-4.683874732084572
1684201052289819600,11.903819580078125,-6.600494828099012,3.8174288749128578,-3.1873633776694534
1684201052299844900,11.913844970703124,-5.5423325131118295,4.434790957927704,-0.11371990268230438
1684201052309868500,11.92386865234375,-2.214181777614355,4.357860862982273,3.3681068983107805
1684201052319893500,11.9338935546875,-0.11801031161891296,4.288903062090277,5.14105706679821
1684201052329918700,11.943918701171874,0.2070318263744004,3.3371617249488827,5.457744596889615
1684201052339943700,11.953943603515626,0.015217424609791487,3.2563124107331034,5.140062210541963
1684201052349967600,11.963967529296875,-0.8511971423745155,3.7456004870206114,3.8883240736082194
1684201052359992800,11.973992919921875,-1.233742753776908,3.785741943272948,1.5651108433887362
1684201052370017800,11.984017822265624,-0.32349487201869487,3.1367303380191323,-0.7093348487913608
1684201052380042800,11.994042724609375,2.1904490198493,1.9510341145306824,-2.453360828350484
1684201052390066700,12.004066650390625,4.326448656630515,0.004151858982443809,-3.26147520032376
1684201052400091600,12.014091552734374,4.093026269724965,-1.8903730173408984,-3.3690476862922307
1684201052410116600,12.02411669921875,3.1274072138786315,-3.1751170595586298,-2.911790825037658
1684201052420141800,12.034141845703125,3.1458465414106844,-3.9478625965088603,-1.9031705395936964
1684201052430166800,12.044166748046875,2.7360429207265375,-3.9711902806043624,-0.8855959633216262
1684201052440190700,12.054190673828124,1.5974720210283995,-3.378098130971193,-0.19214929627478122
1684201052450215700,12.064215576171875,0.916294176185131,-2.1635627664893864,-0.28690906242132186
1684201052460240600,12.07424072265625,0.7479992182284593,-1.2641431527376175,-0.7691063036650418
1684201052470265600,12.084265625,0.6541454610109328,-0.1877881784558296,-0.9737927176907658
1684201052480289800,12.094289794921876,0.1774468354498036,0.6487643524944782,-1.1715025707021356
1684201052490314800,12.104314697265625,-0.5983019932359457,1.2864093450814484,-1.2351149189129471
1684201052500339700,12.114339599609375,-1.5675240420103072,1.4298130228877066,-1.6281392542317508
1684201052510364700,12.12436474609375,-2.4511668254375456,1.3132839080035685,-2.5219980189859865
1684201052520388600,12.134388671875,-2.56259306422472,0.7050362748146056,-3.201357708491385
1684201052530413600,12.14441357421875,-1.7571961345165967,0.16795651978254317,-3.2926141426920887
1684201052540438500,12.1544384765625,-0.7128104159474372,-0.4096966531783342,-2.6317300210759043
1684201052550463700,12.164463623046874,0.24174422504901885,-0.5079284793496132,-1.4710802682995796
1684201052560488700,12.17448876953125,0.9866139130800962,-0.5697264716148376,-0.4624608596384525
1684201052570513000,12.184512939453125,1.7785095561802386,-1.0558160441219806,0.775702633190155
1684201052580537900,12.194537841796874,2.481716277480125,-2.198765012773871,2.3598317730426785
1684201052590562600,12.2045625,2.57838918377161,-1.6317472155958412,3.4031811343014238
1684201052600587500,12.21458740234375,2.75627322332859,0.5120896906822919,2.7505802723839876
1684201052610611700,12.22461181640625,1.9809072747468948,3.182766697528958,0.08819178593307733
1684201052620636700,12.23463671875,0.535599709074758,3.168432467228174,-1.6268538905963301
1684201052630661600,12.24466162109375,-0.40236148798465726,2.102954860791564,-2.4365865114212033
1684201052640686800,12.254686767578125,-0.8398211773574352,1.186677051219344,-2.709786781963706
1684201052650710500,12.26471044921875,-0.8847089513540267,1.1233084486365317,-2.208980117318034
1684201052660735500,12.274735595703126,-1.0514262847304343,1.1088427009105681,-1.6754995558217167
1684201052670760700,12.2847607421875,-1.238572658151388,0.5948948151409625,-1.4058891264647244
1684201052680785700,12.29478564453125,-1.0743430499374866,-0.7574328170061111,-1.297078038612008
1684201052690809600,12.3048095703125,-0.751229870712757,-1.5748860952109098,-0.9891989611372352
1684201052700834800,12.314834716796875,-0.45170565686821934,-0.37998014482855796,-0.5221379142269492
1684201052710859800,12.32485986328125,-0.0618611206293106,1.2060282328993082,-0.6162383396819233
1684201052720884700,12.334884765625,0.367036419038102,1.232114275792241,-0.745409201735258
1684201052730909700,12.34490966796875,0.7329694068789482,0.8559300161153077,-0.8806474010035396
1684201052740933600,12.35493359375,0.9268167392432689,1.0344248810470105,-0.9261261266306042
1684201052750958600,12.36495849609375,0.8288695752322673,1.0774357552558183,-0.9237298791438341
1684201052760983800,12.37498388671875,0.49899230870008465,1.2260375862270594,-0.9237216958373784
1684201052771008800,12.3850087890625,0.13623809702582657,1.1679308496952057,-0.8075266352131962
1684201052781032700,12.39503271484375,0.1525437735300511,1.0708692363470793,-0.5702668621018528
1684201052791057700,12.4050576171875,0.2575835261505097,1.1844406704694033,-0.48800388169586656
1684201052801082600,12.41508251953125,0.3172924371819943,1.2886135771274565,-0.46608840248584743
1684201052811107600,12.425107666015625,0.29861572069749237,1.5260557210683823,-0.42715719880610703
1684201052821131800,12.4351318359375,0.3714075467944145,1.7752800727397202,-0.23316753536164758
1684201052831156700,12.44515673828125,0.43483745111040767,1.942638626629114,-0.19327566995620726
1684201052841181700,12.455181640625,0.4855119187496602,1.9956495013266802,-0.15127163470238447
1684201052851206700,12.46520654296875,0.4632229300521314,1.9204250412553547,0.2758674439251423
1684201052861231900,12.47523193359375,0.5107294351797551,1.6342501383274792,1.30154115550071
1684201052871255600,12.485255615234376,0.3626793928723782,1.2730518508583306,1.9664964720785616
1684201052881280800,12.49528076171875,-0.05302446483150124,1.118908752372861,1.7076766090661286
1684201052891305700,12.5053056640625,-0.05040690274424851,1.2611568304032086,1.2197747264400123
1684201052901330700,12.51533056640625,0.1669790530525148,1.315935299295187,0.6302391002446412
1684201052911355000,12.52535498046875,0.3255377760231495,1.1717553764194248,0.4086830922216177
1684201052921379800,12.5353798828125,0.3917675401907414,1.0744102699548006,0.3963318524315953
1684201052931404500,12.545404541015625,0.8851390863995998,0.7248042206019163,-0.007249532736837864
1684201052941429500,12.555429443359374,0.623351605753228,0.6403776324212551,-0.3970154507815838
1684201052951454700,12.565454833984376,0.0986298125129193,0.0064484454870223995,-0.315853709615767
1684201052961479000,12.57547900390625,0.07955339265372603,-0.5063052620619535,-0.2304144372612238
1684201052971503900,12.58550390625,0.1925157549669966,-0.26798575076460834,0.3815761818483472
1684201052981529000,12.595529052734374,0.25162388709373773,-0.31923370744287966,0.8762912516206502
