time,seconds_elapsed,z,y,x
1684214694798935600,0.036935546875,0.16870468953503295,0.04717208554148674,-0.07573942385613917
1684214694808959500,0.04695947265625,0.2030079594194889,0.11715338426232337,-0.1414075355529785
1684214694818983700,0.056983642578125,0.27332360466122624,0.21483575985729694,-0.15578092882037162
1684214694829007600,0.067007568359375,0.29050737917423247,0.10602584104835987,-0.14605857622921467
1684214694839030500,0.077030517578125,0.2901262709021568,-0.0021305822879076003,-0.1133440551072359
1684214694849054500,0.087054443359375,0.2674211026191711,-0.022948329389095305,-0.09731938750147819
1684214694859078100,0.097078125,0.21114214777005835,-0.1597510014951229,-0.06821487357020378
1684214694869102000,0.10710205078125,0.13896305587715468,-0.19231296240389345,0.08886369384527205
1684214694879125000,0.117125,0.0823474346858915,0.05521919839680194,-0.2149544178009033
1684214694889149200,0.127149169921875,0.10818914742893539,0.07735854949057101,-0.47638066391944883
1684214694899173000,0.137173095703125,0.07989829710125923,0.4781307224571705,-0.1902162823855877
1684214694909197000,0.147197021484375,0.10218843657625838,0.5656967777073383,-0.3184644766360521
1684214694919220200,0.15722021484375,0.10875143922050483,0.44669513522982596,-0.547961214530468
1684214694929244200,0.167244140625,0.13418633386148138,0.46724224869608877,-0.6317477512419224
1684214694939268000,0.17726806640625,0.14609773006266913,0.28755729719698425,-0.5576502493739128
1684214694949292300,0.187292236328125,0.01633036342090927,0.33560791913866994,-0.7308259651094675
1684214694959316000,0.19731591796875,-0.12352116572856903,-0.3394511505633592,-1.1094506036758423
1684214694969339100,0.207339111328125,-0.1031120176945813,-0.5701379750251769,-0.39293490346968174
1684214694979363300,0.21736328125,-0.12094810037016868,-0.2294716034531593,-0.015296937853097915
1684214694989387000,0.227386962890625,-0.009464578437805175,0.015050269615650176,0.08805880720317363
1684214694999411200,0.2374111328125,0.06664366046441718,0.35926585810184475,-0.1309247199833393
1684214695009434000,0.24743408203125,0.145891987490654,0.36598084557056426,-0.15978081211149692
1684214695019458000,0.2574580078125,0.21762802092432976,0.32505554546415805,-0.3326215968042612
1684214695029482200,0.267482177734375,0.3124398095190525,0.01280453651547432,-0.779331929603219
1684214695039506200,0.277506103515625,0.3381540964901447,-0.7214905660092831,-1.1316665271371602
1684214695049530000,0.287530029296875,0.29750174983991307,-1.555696241572499,-1.441677648204565
1684214695059553000,0.297552978515625,0.2781295253719203,-2.297360996082425,-1.425868084654212
1684214695069577200,0.3075771484375,0.21441545208599416,-2.7356910385489464,-1.2261907309621571
1684214695079601200,0.31760107421875,0.22288519253386183,-2.6636931393086907,-0.8694295491576194
1684214695089625000,0.327625,0.2760147251750342,-2.1227543707609176,-0.4939502228796482
1684214695099648000,0.33764794921875,0.32627544264793396,-1.5653788466751575,-0.4235965837150812
1684214695109672200,0.347672119140625,0.08918282453073188,-0.8912906678318977,-0.5676771378695964
1684214695119696100,0.357696044921875,-0.04464813828812912,-0.2322521740823984,-0.6169780521333217
1684214695129720300,0.36772021484375,0.014437690675258635,0.38768823498785493,-0.4364011202305555
1684214695139744000,0.377743896484375,-0.026488230485655365,-0.4199877455681562,-1.2131745975226162
1684214695149767200,0.38776708984375,0.01359481011033058,-1.3609610204577445,-2.024870919635892
1684214695159791000,0.397791015625,0.27801614639163014,-1.4788672689139841,-2.2139555676430462
1684214695169815000,0.40781494140625,0.19842991091422735,-1.7947341302722692,-3.486136480885744
1684214695179839200,0.417839111328125,0.19806991849541664,-1.8575252252280712,-3.8705782812982794
1684214695189862000,0.42786181640625,0.15945757150650022,-1.5413684410125017,-3.276003784152865
1684214695199886000,0.437885986328125,0.004663352168537676,-1.4706553208857773,-2.615725519475341
1684214695209910300,0.44791015625,0.20286175588183103,-1.848980099722743,-1.8843845905810594
1684214695219934000,0.457933837890625,0.2793395039498806,-1.8568916034996508,-1.266342708608508
1684214695229958100,0.467958251953125,-0.4305798667311668,-1.213865502396226,-1.5713140819430351
1684214695239981000,0.47798095703125,-0.14515198277831076,-0.4702595506906509,-1.3516150999635457
1684214695250005000,0.4880048828125,0.11067560308296233,-0.0803653300911188,-1.1098770123943686
1684214695260029200,0.498029296875,0.16360526577048004,0.39519408057332034,-1.3566934261411427
1684214695270053000,0.50805322265625,-0.04878770404458046,1.5247306099444626,-1.6295441525936125
1684214695280076000,0.518075927734375,-0.3858592659950256,3.938978448307514,-1.07745095282495
1684214695290100200,0.528100341796875,-0.9976982016742229,12.277941914099454,4.312254711583257
1684214695300124200,0.538124267578125,0.2245534362733364,15.356314755696058,12.746430363464354
1684214695310148000,0.548148193359375,0.715663978747651,6.33169483834207,9.421367657110094
1684214695320172000,0.558172119140625,0.4270853756789118,2.2770985447764396,2.676243116541207
1684214695330195200,0.5681953125,0.1529061771016568,1.6738310380876062,-1.9018103571563958
1684214695340219100,0.57821923828125,-0.0671639762777835,0.9979308413863182,-3.940051045975089
1684214695350243000,0.5882431640625,-0.1157061811286956,1.3597259257048369,-3.5815149634525176
1684214695360267300,0.598267333984375,-0.20978030309863388,1.3604606697201729,-2.6779496281981467
1684214695370290000,0.6082900390625,-0.311702142894268,0.5283966823607683,-1.6418907162085175
1684214695380314000,0.618314208984375,-0.2432756723999977,-0.7843085489720105,-0.612456775316596
1684214695390338300,0.62833837890625,0.038283918752148746,-1.677846703469753,1.1207657784163951
1684214695400362000,0.638362060546875,0.09456621633581816,-1.5527917523026467,2.1021125647485257
1684214695410385200,0.64838525390625,-0.12552497983165084,-1.347156951510906,1.7247414333745836
1684214695420409000,0.6584091796875,-0.28846973586678504,-1.1812930200934408,1.4580723181664943
1684214695430433000,0.66843310546875,-0.36644385997243223,-1.0004723425626754,0.8976575725153088
1684214695440457200,0.678457275390625,-0.26123693409152327,-0.5987357084780931,0.07045066979825496
1684214695450481200,0.688481201171875,-0.2861246340453625,-0.028759646016359327,-0.40578415590971706
1684214695460504000,0.698504150390625,-0.1406406428337097,0.306623816716671,-0.5553530783474445
1684214695470528000,0.708528076171875,0.15440722931437192,0.6493535505592822,-0.6921765009805559
1684214695480552200,0.71855224609375,0.12296586993336676,0.6973626714468002,-0.5405480156645178
1684214695490576100,0.728576171875,0.16829795363135636,0.558526447686553,-0.17424071461856364
1684214695500599000,0.73859912109375,0.26300679330825805,0.3351619289368391,-0.12373480847924948
1684214695510623200,0.748623291015625,-0.11057641702480614,0.2655821967542171,-0.1264630643993616
1684214695520647200,0.758647216796875,-0.33485154781341553,0.19738544336259364,-0.12895108182281256
1684214695530671000,0.768671142578125,-0.5089982274729759,0.16983809574544428,-0.16041472610086202
1684214695540695300,0.7786953125,-0.6039490592122078,0.13391571849286554,-0.15653437753617763
1684214695550718000,0.788718017578125,-0.574490251950547,0.0916939488351345,-0.11332125875353813
1684214695560742100,0.7987421875,-0.4174515781540423,0.10176643003821373,-0.098076927870512
1684214695570766300,0.808766357421875,-0.1931517513155937,0.051659460088610644,-0.0782116591885686
1684214695580790000,0.8187900390625,0.07711122366599737,-0.07816168256700039,-0.07780570873618126
1684214695590813200,0.828813232421875,0.3038555941123515,-0.2632633984178305,-0.1459872645586729
1684214695600837000,0.838837158203125,0.4431014215867966,-0.42161446998715396,-0.23757336910516022
1684214695610861000,0.848861083984375,0.45796581324152646,-0.44773675323724743,-0.2911886394366622
1684214695620885200,0.85888525390625,0.4039782755315304,-0.3255839532524347,-0.2946899255558848
1684214695630909200,0.8689091796875,0.3078162413716316,-0.15169278272390366,-0.2306596441939473
1684214695640932000,0.87893212890625,0.20446466103382407,-0.022822657182812688,-0.08011924637556075
1684214695650956000,0.8889560546875,0.06793196497559548,0.02240998472869396,0.07519961789101362
1684214695660980000,0.89897998046875,-0.008451090546324848,-0.041993806120753284,0.15147797092944382
1684214695671004200,0.909004150390625,-0.04680741694755852,-0.10021043276786804,0.13486498204171657
1684214695681027000,0.919027099609375,-0.1848210722785443,-0.05320902761816978,0.13033961357176302
1684214695691051000,0.929051025390625,-0.35435119805335996,0.09612404023706912,0.13949731801748275
1684214695701075200,0.9390751953125,-0.4711223049998283,0.23767010747790335,0.11098317119479179
1684214695711099100,0.94909912109375,-0.5424118367750197,0.2803372828155756,0.06236760884672403
1684214695721123300,0.959123291015625,-0.573837998586893,0.21939210798740386,0.06491320167630911
1684214695731146000,0.96914599609375,-0.5729940220434219,0.09078092564344406,0.06397767439186573
1684214695741170200,0.979170166015625,-0.540693269354105,-0.08701192849874496,0.09179477886110543
1684214695751194000,0.989194091796875,-0.414885453993082,-0.27614275373518465,0.1836842502683401
1684214695761218000,0.999218017578125,-0.269606191573292,-0.44860769085288044,0.3188666276961565
1684214695771241200,1.0092412109375,-0.16331899617500603,-0.6187941616445779,0.4249450757145881
1684214695781265000,1.019264892578125,-0.214131557110697,-0.735358932363987,0.472805143520236
1684214695791289000,1.0292890625,-0.3555729949332773,-0.709097532904148,0.4989049226775765
1684214695801313300,1.039313232421875,-0.476862456087023,-0.5189408717513084,0.4917793085813522
1684214695811336000,1.0493359375,-0.46553084166832265,-0.2578232531905174,0.44217999589294193
1684214695821360000,1.059360107421875,-0.43521410240307445,-0.06594517507255077,0.3438140219479799
1684214695831384000,1.069384033203125,-0.3455259404323995,0.022544424763321875,0.25205314535647627
1684214695841408000,1.079407958984375,-0.28967158593721687,0.018050620475411415,0.14255612106621265
1684214695851433000,1.089432861328125,-0.308226721868664,-0.03575871112346649,0.002493570381402969
1684214695861456100,1.0994560546875,-0.3608173253275454,-0.09698211837112904,-0.13522855465710162
1684214695871480000,1.10947998046875,-0.3266215526718646,-0.18848668211400507,-0.25239421387910843
1684214695881504000,1.11950390625,-0.24770174521394073,-0.24382570749819277,-0.2543199212446809
1684214695891528200,1.129528076171875,-0.2461387336809188,-0.2808119145900011,-0.20344021335691212
1684214695901551000,1.139551025390625,-0.3317641762573272,-0.20900866113901137,-0.09336129752546549
1684214695911575000,1.149574951171875,-0.4140098402023315,-0.13591478335559368,-0.03292144187092781
1684214695921599200,1.15959912109375,-0.435783353658393,-0.1137099658101797,-0.0023790040910243986
1684214695931623000,1.169622802734375,-0.4790612813055515,-0.05950082123875618,0.029146599507331845
1684214695941647000,1.179647216796875,-0.3756442345160991,0.05375146393179893,0.04568506185412407
1684214695951670300,1.189670166015625,-0.10623086210116743,0.1709305671572685,0.08861965595632791
1684214695961694000,1.19969384765625,-0.1391851833283901,0.2967185087740421,0.15987579691857098
1684214695971718100,1.20971826171875,-0.2705681684732437,0.30226269889771934,0.1008785412877798
1684214695981742000,1.2197421875,-0.3076480451978743,0.22008651999235151,0.049124096392095085
1684214695991765000,1.229764892578125,-0.3143137866973877,0.08578034087717533,0.1609600850239396
1684214696001789200,1.2397890625,-0.42396775511503215,-0.020679215413331984,0.38624008200615645
1684214696011813000,1.249813232421875,-0.5265208054862917,-0.13374679166674613,0.622869155998528
1684214696021837000,1.259837158203125,-0.582022620216757,-0.26346798107922076,0.777709296837449
1684214696031860200,1.269860107421875,-0.6203985281012951,-0.37282384333312507,0.8580076991721988
1684214696041884000,1.2798837890625,-0.7531739905178546,-0.49589434268474575,0.9435331885054707
1684214696051908000,1.289908203125,-0.8043335382603108,-0.5809183122366667,1.0370184046715498
1684214696061932000,1.29993212890625,-0.7831156859256326,-0.5179302334040403,1.1052437996357678
1684214696071956200,1.309956298828125,-0.7492882351256906,-0.3917851489126682,1.114259173001349
1684214696081979100,1.319979248046875,-0.6723102093853056,-0.34970424903035163,1.0779615326955914
1684214696092003000,1.330003173828125,-0.6282908887863159,-0.3900128785431385,0.9444202004730701
1684214696102027000,1.340027099609375,-0.48267961793318387,-0.5221972431987524,0.8574676009461283
1684214696112051000,1.350051025390625,-0.20786197532191872,-0.6384013639122247,0.9919491366282105
1684214696122074000,1.36007421875,0.07659472551122308,-0.6170388424098491,1.2776043995961546
1684214696132098000,1.37009814453125,0.5016263104654848,-0.4211626345664263,1.5322399626612662
1684214696142122000,1.3801220703125,0.7948632607340812,-0.29340076252818104,1.7539929545611141
1684214696152146200,1.390146240234375,0.7841103960514069,-0.119587917932868,1.8661574444949627
1684214696162170000,1.400170166015625,0.5289582617662847,0.06176935069262981,1.6158926438599823
1684214696172193000,1.410193115234375,0.1964751966498792,0.23584055396318435,1.1018345757141708
1684214696182217200,1.42021728515625,-0.01115618478655815,0.5650421131908894,0.5277011013120413
1684214696192241000,1.430240966796875,0.028005758909136057,1.1070809519350528,-0.051259354855120176
1684214696202265000,1.44026513671875,0.33203064517378805,1.593731665456295,-0.34984687237143514
1684214696212288300,1.450288330078125,0.5682816796340048,1.9410493116110563,-0.5703843510016798
1684214696222312000,1.46031201171875,0.8012310422003269,2.1752824303776026,-0.6967839947760105
1684214696232336100,1.470336181640625,0.8485093645952642,2.2620278168946504,-0.9440972521290183
1684214696242360000,1.480360107421875,0.6331856750905513,2.065675223711133,-1.1835209252759813
1684214696252383000,1.490383056640625,0.294738148611784,1.6636176871091126,-1.271445584705472
1684214696262407200,1.5004072265625,0.2529378192365169,1.0028998619705438,-0.8349702301949262
1684214696272431000,1.51043115234375,0.19934169199690221,0.48855742392539975,-0.11178075131326913
1684214696282455000,1.520455078125,0.30307686482481655,0.08739946651160717,0.6748924809634685
1684214696292479000,1.53047900390625,0.26694873586706813,-0.4197708879470825,1.258901452691853
1684214696302502100,1.540502197265625,0.593001987131685,-0.6262742882668971,1.8811673821002244
1684214696312526000,1.550526123046875,0.7420565303064882,-0.7992723093479871,1.7836223691493271
1684214696322550000,1.560550048828125,0.4789597206272185,-0.5556622904270887,1.0528186158716677
1684214696332574200,1.57057421875,0.5430149172347039,-0.2619207516372204,0.22273235832601784
1684214696342597000,1.58059716796875,0.29105208051018416,0.05388531944453716,-0.6283090089648962
1684214696352621000,1.59062109375,-0.24341829574108123,0.3336749052494764,-1.697914508986473
1684214696362645200,1.600645263671875,-0.25266528590545057,0.475867453700304,-2.163690776783228
1684214696372669000,1.6106689453125,-0.12630465896725654,0.48792497124075884,-2.3115935195744037
1684214696382692000,1.620692138671875,-0.21011574559807777,0.4111526972055435,-2.4739383369550105
1684214696392716300,1.63071630859375,-0.2576619251489639,0.5040776491403579,-2.670004222151637
1684214696402740000,1.640739990234375,-0.341889191365242,0.850060247299075,-2.9674945920810103
1684214696412764200,1.65076416015625,-0.9740390936672687,1.050226261290908,-3.238724147072434
1684214696422788000,1.6607880859375,-1.1970435469329357,1.1567781720399857,-3.2645261123269793
1684214696432811000,1.67081103515625,-1.3452934957265854,1.4038929842114447,-3.2143703347995873
1684214696442835200,1.680835205078125,-1.0853431673794984,1.7175953610122203,-2.8556553885787723
1684214696452859100,1.690859130859375,-0.5530903575798496,1.8707453568071126,-2.2113331101849676
1684214696462883000,1.700883056640625,0.5078577522009611,1.5922750369071959,-1.5333450012937186
1684214696472906200,1.71090625,1.4823112718880176,1.2993904072076081,-0.6151631116658449
1684214696482930000,1.720929931640625,1.8613585197806357,1.103570897987485,-0.03938946884125471
1684214696492954000,1.7309541015625,1.2825462399125098,0.7724082678198814,0.22180998278409242
1684214696502978000,1.74097802734375,0.868672154919058,0.5868880342960358,0.11661094794869423
1684214696513002200,1.751002197265625,1.1022045050051064,0.6529588815748691,-0.22448270912468432
1684214696523025200,1.761025146484375,1.8189368436366318,0.6649164458721876,-0.21165800660401582
1684214696533049000,1.771049072265625,2.281338666564226,0.6867471694082021,0.0530099979147315
1684214696543073300,1.7810732421875,2.423465894693881,0.5476093323528767,0.1667509433850646
1684214696553097000,1.791096923828125,2.5631927836835384,0.3059516165435314,0.425405971224606
1684214696563120000,1.8011201171875,2.385178395745158,0.09251520209014415,0.5975804009631276
1684214696573144000,1.81114404296875,1.871050477233529,-0.12350129198431968,0.5928609712257981
1684214696583168000,1.82116796875,1.232906887474656,-0.35248715774714945,0.24471213494390248
1684214696593192200,1.831192138671875,0.7292759591884911,-0.4216571400851011,-0.41213352493643757
1684214696603215000,1.841215087890625,0.4019172513484955,-0.3243085264891386,-1.0623349244967102
1684214696613239000,1.851239013671875,0.26621947174444793,-0.2406353870242834,-1.6281100281372665
1684214696623263200,1.86126318359375,0.35054245342016216,-0.2192863095253706,-2.052927678079903
1684214696633287000,1.871286865234375,0.5361240617424249,-0.17829203583598136,-2.3521216370567677
1684214696643311000,1.88131103515625,0.5963420913398265,-0.12981938908994198,-2.454847852037847
1684214696653334000,1.891333984375,0.7551109499298035,-0.19523615637421607,-2.375090424712002
1684214696663358000,1.90135791015625,0.7958703919500112,-0.320154329419136,-2.06092481431365
1684214696673382100,1.911382080078125,0.6045762511998415,-0.4268552932500839,-1.6280889853492377
1684214696683406000,1.921406005859375,0.5458535747267306,-0.3818476922661066,-1.1957862403482198
1684214696693429000,1.931428955078125,0.4592060956262052,-0.19570260484218596,-0.7844716305792331
1684214696703453200,1.941453125,0.13372750244438647,-0.0653904637992382,-0.33520810616612434
1684214696713477000,1.95147705078125,-0.316979717971012,0.07130991697609425,0.2226119468167424
1684214696723501000,1.9615009765625,-0.6499906063538045,0.1836193683385849,0.8696537133023142
1684214696733524000,1.97152392578125,-0.9096556880187243,0.13489245457053184,1.7676830417394638
1684214696743548200,1.981548095703125,-1.3254267657399177,0.0550514406144619,2.5869258337095378
1684214696753572000,1.991572021484375,-1.8923327731065451,0.012685878571867941,3.137264591026306
1684214696763596000,2.001595947265625,-2.5075813710987567,-0.015061960053443908,3.538181140899658
1684214696773620200,2.0116201171875,-2.747618207708001,-0.04857844520807266,3.5608757877886292
1684214696783643000,2.021642822265625,-2.351033549559116,-0.2896598224341869,3.175225196108222
1684214696793667000,2.0316669921875,-1.8107389241337775,-0.5092793094366789,2.249819784967601
1684214696803691300,2.041691162109375,-1.3816289838247,-0.8290899399846792,0.9188713331967592
1684214696813715000,2.05171484375,-1.063745083555579,-1.0400257697939872,-0.44704351027607914
1684214696823738000,2.061738037109375,-0.7962088301241398,-1.2137129421830177,-1.6449001271575687
1684214696833762000,2.071761962890625,-0.6878028159409761,-1.3053870172739028,-2.661801626473665
1684214696843786000,2.081785888671875,-0.5664506648145615,-1.262629241043329,-3.1055428803339598
1684214696853809400,2.091809326171875,-0.17668284707367418,-0.9477133967995643,-3.143590579177439
1684214696863832300,2.101832275390625,0.19076354100480675,-0.4555477192491293,-2.76974791419059
1684214696873856300,2.111856201171875,0.6745569653987884,0.09123919080495833,-1.8620456252619624
1684214696883880400,2.12188037109375,1.3954128867663442,0.383406027624011,-1.1753761972650885
1684214696893904100,2.131904052734375,1.9849504126578568,-0.182947752687335,-0.10993366214185953
1684214696903928300,2.14192822265625,2.6215149165317415,-0.7158288869857787,1.2922101403146982
1684214696913951500,2.151951416015625,3.5828643322348595,-1.2066688688904046,3.432968954321742
1684214696923975200,2.16197509765625,3.932047480000555,-1.6208528966158628,5.1597167590826745
1684214696933999400,2.171999267578125,4.6887645499527455,-1.9220067574888466,6.545459754097461
1684214696944023300,2.182023193359375,5.822693176802993,-2.380554827597737,7.24629390104711
1684214696954046200,2.192046142578125,6.341839215737581,-2.9878274782747027,7.5254171318978065
1684214696964070400,2.2020703125,5.482472210910916,-2.697528188893199,5.870429910489916
1684214696974094300,2.21209423828125,3.4443647930830714,-1.8451427135169505,3.5667671839147803
1684214696984118300,2.2221181640625,0.7810650370061397,-0.7446212662279605,1.3445833016306161
1684214696994141400,2.232141357421875,-1.490067731233686,0.8250321890264749,-0.9281628931552172
1684214697004165400,2.242165283203125,-2.8320816207677124,2.352013792768121,-2.484904552127421
1684214697014189300,2.252189208984375,-3.1981314399212595,3.01881064555943,-3.361908628192544
1684214697024213200,2.262213134765625,-2.5862550948411225,2.533584411883354,-3.8213977785438296
1684214697034237400,2.272237548828125,-2.0743715942554175,1.7292945666342974,-3.863718332400918
1684214697044260400,2.28226025390625,-1.7759462815634905,1.4263000463306903,-3.546493626692891
1684214697054284300,2.2922841796875,-1.6693296350151299,1.361105397364497,-3.1794793464213607
1684214697064308500,2.30230859375,-1.4341472526997328,1.1783084513247013,-2.964630142560601
1684214697074332200,2.312332275390625,-1.6595879932016133,1.0047615641891956,-2.790817297965288
1684214697084355300,2.322355224609375,-1.9046090479642153,1.112086212876439,-3.2509155201256275
1684214697094379500,2.332379638671875,-1.372725546400994,1.0461199950158595,-4.098701977273822
1684214697104403200,2.3424033203125,-0.04682721762657165,0.47836160860359667,-4.296914226849377
1684214697114427400,2.352427490234375,1.1145273224182426,-0.06793430306315422,-3.7426740781798955
1684214697124450300,2.3624501953125,1.6552539095200598,-0.43249417591989037,-2.8640082063823935
1684214697134474200,2.37247412109375,1.6736331774279474,-0.6352759253680705,-1.8942410909458993
1684214697144498400,2.38249853515625,1.4919864243365824,-0.6297106924563646,-1.0061468810677527
1684214697154522400,2.3925224609375,1.2380251072712243,-0.5064911400228739,-0.07578998499959706
1684214697164546300,2.40254638671875,1.1636620863348246,-0.4547925169676542,1.027021619053185
1684214697174569500,2.412569580078125,1.0708207210302352,-0.5369944148361683,1.7042980725437402
1684214697184593200,2.42259326171875,0.8485894440941512,-0.49831777043938635,2.142270972135663
1684214697194617300,2.432617431640625,0.6813140384435653,-0.3799859900474548,2.199147874611616
1684214697204641300,2.442641357421875,0.4295645522087812,-0.08448270228207111,1.817407149851322
1684214697214664200,2.452664306640625,0.30424203614667056,0.2615127553582191,1.4442743866994976
1684214697224688400,2.4626884765625,0.34407881036400795,0.4840706339001655,1.0607979241877794
1684214697234712300,2.47271240234375,0.30122356510832904,0.5856599538058043,0.7932347827494144
1684214697244736300,2.482736328125,0.12446239210143685,0.6104226391404867,0.6674576547876
1684214697254759400,2.492759521484375,-0.04075447358414531,0.6702958008229732,0.5154919003412127
1684214697264783400,2.502783447265625,-0.2763578577905893,0.7263269001245498,0.32362025196403266
1684214697274807300,2.512807373046875,-0.4797716215319931,0.5917015720576048,0.12078589554578065
1684214697284831200,2.522831298828125,-0.43683425095081324,0.3404430842101574,-0.20727058530002831
1684214697294855400,2.53285546875,-0.3920826705545187,0.14022913942337034,-0.5362070638507604
1684214697304878300,2.54287841796875,-0.5482125589430332,-0.027737901753187178,-0.8141700187504292
1684214697314902300,2.55290234375,-0.6631783700332046,-0.24081541976630685,-1.1244108569204807
1684214697324926500,2.562926513671875,-0.6151558051422238,-0.49301148072481155,-1.3947703510791063
1684214697334950100,2.5729501953125,-0.418988505397737,-0.6557926436960697,-1.5014754065632818
1684214697344973300,2.582973388671875,-0.21973215359672904,-0.6746873137801885,-1.3882026631265878
1684214697354997500,2.59299755859375,-0.14540098910331725,-0.627843145018816,-1.1153472604990005
1684214697365021200,2.603021240234375,-0.07909092624112964,-0.7284428693652153,-0.9599982933551072
1684214697375045400,2.61304541015625,0.09064137104228139,-0.7762760491639376,-0.6267307998627424
1684214697385068500,2.623068603515625,0.3695259708315134,-0.7693050411075353,-0.12799451175034046
1684214697395092200,2.63309228515625,0.6090852530568838,-0.6039502282559871,0.3925479499787092
1684214697405116400,2.643116455078125,0.7798504005193709,-0.446872245362401,1.0035562800526618
1684214697415140400,2.653140380859375,1.0682887183345853,-0.30120997497439383,1.5965332788735627
1684214697425164300,2.663164306640625,1.3137497719496487,-0.3299187675863504,1.9150322423011064
1684214697435187500,2.6731875,1.3924778562277556,-0.5190899248331785,1.8158447228401897
1684214697445211400,2.68321142578125,1.2829885768525302,-0.6420616399854421,1.259434828916192
1684214697455235300,2.6932353515625,1.0936034845940767,-0.8104407690942287,0.5237374583780765
1684214697465259300,2.70325927734375,0.7933085786379873,-0.9219646230369806,-0.013283844465017318
1684214697475282200,2.7132822265625,0.5194746863670647,-0.9082488168954849,-0.3354015829116106
1684214697485306400,2.723306396484375,0.347612829709053,-0.749995360481739,-0.42245618150830266
1684214697495330300,2.733330322265625,0.26148060665428635,-0.4830009588420391,-0.4586304876953363
1684214697505354500,2.7433544921875,0.21207740105986594,-0.21127485250532627,-0.5599713857978582
1684214697515377400,2.75337744140625,0.12861688143238426,-0.06258417420685292,-0.7745990558624267
1684214697525401300,2.7634013671875,0.09965104531943797,-0.07778408142626285,-1.0442939486324787
1684214697535425500,2.773425537109375,0.10288739689216017,-0.17741759108901023,-1.1879366958916187
1684214697545449200,2.78344921875,0.20272198208495973,-0.34307927793264387,-1.1945377015918492
1684214697555473400,2.793473388671875,0.40532252974733707,-0.5625748462945223,-1.1192439756765962
1684214697565496300,2.803496337890625,0.5653566590327769,-0.8285147704452276,-0.9331906581893563
1684214697575520300,2.813520263671875,0.6667910806376487,-1.0657365496337414,-0.6627171822622419
1684214697585544400,2.82354443359375,0.6988433384586126,-1.2474626515716314,-0.40968817761093373
1684214697595568400,2.833568359375,0.6308709684073924,-1.3692068707555531,-0.2029620744511485
1684214697605591300,2.84359130859375,0.5502361737251281,-1.5180430950045585,0.039516310091316696
1684214697615615500,2.853615478515625,0.4986649764418602,-1.5935533862799405,0.12841829012036324
1684214697625639200,2.86363916015625,0.42054830206036564,-1.5632938570946453,0.030138240893185137
1684214697635663400,2.873663330078125,0.25719785130117084,-1.488067643457651,-0.16348872671872378
1684214697645686300,2.883686279296875,-0.0005674976896494627,-1.2885206381469965,-0.4241071635857224
1684214697655710200,2.893710205078125,-0.1602524847438559,-0.9261737651646137,-0.6617082974806427
1684214697665734400,2.903734375,-0.2356850346079096,-0.3887976575344801,-0.8064259804949164
1684214697675758300,2.91375830078125,-0.45486499768197536,0.42727731805443764,-0.8908309413656592
1684214697685782300,2.9237822265625,-0.7470973009526729,1.538937414473295,-0.6616419542461633
1684214697695805200,2.93380517578125,-1.087266828918457,2.672393163114786,-0.11345891365855931
1684214697705829400,2.943829345703125,-1.6650094337284564,3.5988083358198404,0.4660629757836461
1684214697715853300,2.953853271484375,-2.5719769786417483,4.605027113080024,1.0855430738657712
1684214697725877200,2.963877197265625,-3.4701258418053387,5.117908246400952,1.4238883090138434
1684214697735900400,2.973900390625,-4.0014626692712305,5.603565272709727,1.2875471169397235
1684214697745924400,2.98392431640625,-4.036679528602957,5.872626543751359,1.0189508330613375
1684214697755948300,2.9939482421875,-3.2008430369675156,5.188303386619687,1.546585883399844
1684214697765972500,3.003972412109375,-1.6049112311184406,2.9774066220253705,2.608585000070929
1684214697775995100,3.0139951171875,0.41105040587484837,0.27601941961646076,2.8542005135953423
1684214697786019300,3.024019287109375,2.1903519892156122,-2.0202531967073676,2.5272148768514393
1684214697796043500,3.03404345703125,3.2296167115092276,-3.8818940405607223,1.6939871064096688
1684214697806067200,3.044067138671875,3.5014825185775753,-4.886101477998495,0.20160013844817876
1684214697816091400,3.05409130859375,2.733841026768088,-4.364064393797516,-1.475352246530354
1684214697826114300,3.0641142578125,0.7414215934038162,-2.8923861596047877,-2.328696337805688
1684214697836138200,3.07413818359375,-0.46902737854719156,-1.6445248641043901,-2.226960595166683
1684214697846162400,3.084162353515625,-1.019826446852088,-0.37031682894825935,-1.7719149802207945
1684214697856187100,3.094187255859375,-1.7184820807188748,1.0350678551256656,-1.186934825372696
1684214697866210300,3.104210205078125,-1.9052415006488561,2.262726320552826,-0.4862549922019243
1684214697876234200,3.114234130859375,-1.9676415504604576,3.056673635485768,0.01414952138364315
1684214697886258200,3.124258056640625,-2.0620406666010616,3.07472367143929,-0.04553191711902618
1684214697896282000,3.1342822265625,-1.7696195627599953,2.4210212780207394,-0.7902735948562621
1684214697906305000,3.144304931640625,-1.3319780870795248,1.6467466318070887,-1.5854355462759733
1684214697916329200,3.1543291015625,-0.7635919241577387,0.7169915010243654,-2.3327909136429428
1684214697926353200,3.164353271484375,0.06607435441017151,-0.05687339534461498,-2.6457556238189337
1684214697936377300,3.17437744140625,1.1289163516461849,-0.42453941752314567,-2.381344516670704
1684214697946401000,3.184401123046875,1.941482442331314,-0.6392156029045581,-1.880724314507842
1684214697956424200,3.194424072265625,2.476581837201118,-0.44134851350486276,-1.4529510296300052
1684214697966448000,3.2044482421875,2.5447739144176245,-0.040164252606034276,-0.8895373944237828
1684214697976472000,3.21447216796875,2.0464087977051735,0.3220703921735287,-0.21631723058670757
1684214697986496300,3.224496337890625,1.162208380395174,0.49838206784725186,0.2648319629088044
1684214697996519200,3.234519287109375,0.4181716360569,0.4849480012565851,0.2802864294111729
1684214698006543000,3.244543212890625,-0.12500468228459358,0.5792407344132662,-0.020346330197155475
1684214698016567300,3.2545673828125,-0.33658407069444657,0.5237351202905178,-0.3538566925346851
1684214698026591200,3.26459130859375,-0.39157355198860166,0.4399228646159172,-0.7920897043675184
1684214698036614100,3.2746142578125,-0.22529811716079712,0.41652269980609413,-1.032148168286681
1684214698046638300,3.284638427734375,-0.01987253867294639,0.3251192583501339,-1.2883996421158312
1684214698056662000,3.294662109375,0.17537647718284277,0.1723556315243244,-1.5127297910273074
1684214698066686200,3.304686279296875,0.45453006663918494,0.036625557085871695,-1.6423375831931828
1684214698076710100,3.314710205078125,0.6945861924707889,0.06236731658577919,-1.6924229258328676
1684214698086733000,3.324733154296875,0.866136279765889,-0.04743219778239727,-1.4061656053185463
1684214698096757200,3.33475732421875,0.9408733216464519,-0.10038812742233276,-1.1248790589541195
1684214698106781200,3.34478125,0.9451017529964446,0.08922200576364994,-1.2539204494088887
1684214698116805000,3.35480517578125,0.845606775021553,0.2644908943861723,-1.0772171440690754
1684214698126828300,3.364828369140625,0.6504897880475968,0.14664835881590843,-0.610076894442737
1684214698136852200,3.374852294921875,0.8220411905169487,0.12455810756087303,0.020967676965892315
1684214698146876200,3.384876220703125,0.8506126204848289,0.3183446496486664,0.39384821892231703
1684214698156900000,3.394900146484375,0.6259679987967014,0.48877077441513533,0.31623043397367
1684214698166923300,3.40492333984375,0.38637945394422857,0.5888116958349943,0.17326836245507002
1684214698176947200,3.414947265625,0.4699462469577789,0.5241787724047899,-0.03780395321547985
1684214698186971100,3.42497119140625,0.6410321508072316,0.3740782273083925,-0.1891895696863532
1684214698196995300,3.434995361328125,0.7974211285233497,0.1640425612092018,-0.2356242808640003
1684214698207019000,3.44501904296875,1.0101379965305328,0.021334464451670646,-0.20484481945782898
1684214698217042200,3.455042236328125,1.1129202525477855,0.00158814597427845,-0.25855273650884625
1684214698227066400,3.46506640625,1.1659878989338874,-0.19290683664381503,-0.1553986515045166
1684214698237090000,3.475090087890625,0.8355366319060326,-0.08845745113193988,-0.041992052555084224
1684214698247114200,3.4851142578125,0.642194326454401,0.1102507652670145,-0.01980798553675413
1684214698257137400,3.495137451171875,0.5559995230248198,0.29760873561203477,-0.06236702432483434
1684214698267161000,3.5051611328125,0.3473427805960178,0.49227030696868895,-0.1620031643360853
1684214698277185300,3.515185302734375,0.1283493896026164,0.5482563980847597,-0.33079028972387314
1684214698287209200,3.525209228515625,-0.037815059131383895,0.4985580089360475,-0.5343275337144732
1684214698297232100,3.535232177734375,-0.1069745931405574,0.3891811038941145,-0.7728849454209208
1684214698307256300,3.54525634765625,-0.02031922299452126,0.13813070583939552,-1.0083385458931327
1684214698317280300,3.5552802734375,-0.05426343204192817,0.13414075942039488,-0.9593164485707879
1684214698327304200,3.56530419921875,-0.06614683512449264,0.042458501023054124,-0.6736316672474145
1684214698337328000,3.575328125,0.11911277470178902,0.045938744354248044,-0.23868629878312347
1684214698347351000,3.58535107421875,0.3446901471953839,0.05802431894540786,0.27354221584796906
1684214698357375200,3.595375244140625,0.5332405421953648,-0.05033376444280147,0.6697364133745431
1684214698367399200,3.605399169921875,0.6891091492991894,-0.16579904948771,0.9321203986093402
1684214698377423400,3.61542333984375,0.7049906090419739,-0.20903204201459882,0.9289145883053541
1684214698387446300,3.6254462890625,0.5546972447872162,-0.18540216010212898,0.7990460993766784
1684214698397470200,3.63547021484375,0.3284064633272588,-0.09697861123979092,0.2654144389718771
1684214698407494100,3.645494140625,0.1398163939040154,-0.3319365371495485,-0.1470107623875141
1684214698417518000,3.65551806640625,0.1428103150229901,-0.4904805009424686,-0.1940522072866559
1684214698427541200,3.665541259765625,-0.05191723424196243,-0.5179495226263999,-0.3726099083214998
1684214698437565200,3.675565185546875,-0.15916881769299507,-0.45268706912100315,-0.43730332976728675
1684214698447589000,3.685589111328125,-0.16587701009474692,-0.3881079217046499,-0.3784811384424567
1684214698457613300,3.69561328125,-0.03862878666706383,0.004678513205051422,-0.10295300947427749
1684214698467637200,3.70563720703125,-0.19856215899176893,0.305010536301136,-0.032707214598357674
1684214698477660200,3.71566015625,-0.4982148945868015,0.4588093513935804,0.026933599632978436
1684214698487684400,3.725684326171875,-0.5369161619681865,0.2697328866928816,0.10420768571048974
1684214698497708000,3.7357080078125,-0.683674410899356,-0.03879471781849861,0.08230155885070561
1684214698507732200,3.745732177734375,-0.8432675184190273,-0.3155377755343914,0.28322014477550983
1684214698517755400,3.75575537109375,-0.9194635269362479,-0.6047533613324165,0.3409969187006354
1684214698527779000,3.765779052734375,-0.890292304444313,-0.8303045764714478,0.4548039151445031
1684214698537803300,3.77580322265625,-0.7891209176898002,-0.8669418239951133,0.785823921971023
1684214698547827200,3.7858271484375,-0.6514438739020377,-0.6796551653206347,1.164793428452313
1684214698557850000,3.79585009765625,-0.4416602098025381,-0.3784738319188356,1.3324302147611975
1684214698567874300,3.805874267578125,-0.2088122617840767,-0.07887246118485927,1.2493085716992616
1684214698577898200,3.815898193359375,0.008422960430383682,0.08516425480544566,1.063525595586002
1684214698587922200,3.825922119140625,0.12043605919480323,0.07045534597337245,0.756985365499556
1684214698597946000,3.835946044921875,0.050489685656875366,-0.08674714008271693,0.39232232452929017
1684214698607969300,3.84596923828125,-0.138135382014513,-0.20260931549072264,0.05969985094219446
1684214698617993200,3.8559931640625,-0.3833047592066228,-0.1631716235935688,-0.2032835614904761
1684214698628017200,3.86601708984375,-0.6074727763589471,-0.03294131561517715,-0.4953454766303301
1684214698638041300,3.876041259765625,-0.8808826710641383,0.16440204217135906,-0.7479653159588575
1684214698648064300,3.886064208984375,-1.2553773702189326,0.34807226391434665,-0.9649535776749253
1684214698658088200,3.896088134765625,-1.58448555207476,0.4342278678447008,-1.1225567534863947
1684214698668112400,3.9061123046875,-1.77473938999176,0.4147030831634998,-1.1927417580857873
1684214698678136000,3.916135986328125,-1.935567226938158,0.2908452328264713,-1.1596183639019726
1684214698688159200,3.9261591796875,-2.0506734694123265,0.09381517877280711,-1.0420920546740293
1684214698698183400,3.936183349609375,-1.9844903939306735,-0.14003858528733254,-0.8714698228135704
1684214698708207000,3.94620703125,-1.7183377038121221,-0.35510756937861443,-0.578728108716011
1684214698718231300,3.956231201171875,-1.3624388379253447,-0.4579775767445564,-0.22109072859883308
1684214698728254000,3.96625390625,-1.1432290277022867,-0.4773392798185348,0.1820727234184742
1684214698738278100,3.976278076171875,-0.9702560679972171,-0.4087345301479101,0.5390604074552655
1684214698748302300,3.98630224609375,-0.6451777261793613,-0.38487726922035215,0.7671005168005823
1684214698758326300,3.996326171875,-0.5249452267326414,-0.41811201482415195,0.9806360077142715
1684214698768350200,4.00635009765625,-0.6693056938070804,-0.35351591627299783,1.154716855596006
1684214698778373000,4.016373046875,-0.6851448487780988,-0.20380232466757298,1.170882392977178
1684214698788397000,4.02639697265625,-0.5923391393087803,0.02381342178583145,1.0266624303519725
1684214698798421200,4.036421142578125,-0.6408697998523711,0.27067922763228414,0.7901736416131258
1684214698808445200,4.046445068359375,-0.4606755836568773,0.43854397747814655,0.49658349399268625
1684214698818468000,4.056468017578125,-0.28772052493467926,0.5138683907926083,0.3614651217117905
1684214698828492300,4.0664921875,-0.5566856421254575,0.6405377914190292,0.489248913320899
1684214698838516200,4.07651611328125,-0.9266789382077752,0.8422440205901861,0.7150605329617857
1684214698848540200,4.0865400390625,-1.1734789853416383,0.9532260227411985,0.8353083761081099
1684214698858562600,4.0965625,-1.044262530580908,0.8967483487159014,0.8511778531521558
1684214698868586500,4.10658642578125,-0.5346728400208056,0.5987140811681747,0.8245219014167785
1684214698878610700,4.116610595703125,0.0336754751086235,0.12028583706915377,0.6858388223916292
1684214698888634400,4.12663427734375,0.2123531492613256,-0.3366343395769596,0.5809554293766618
1684214698898658600,4.136658447265625,-0.23005042625442146,-0.3809264857679605,0.38055122271478176
1684214698908681700,4.146681640625,-1.0117325722455979,-0.3427501921087503,0.2751338689535856
1684214698918705400,4.156705322265625,-1.5048460520401596,-0.1603267555564642,0.20431728845238684
1684214698928729600,4.1667294921875,-1.5717831607595085,0.23492168555259704,0.04703121576607227
1684214698938753500,4.17675341796875,-1.161066078492254,0.42123745336830615,0.2696960618138313
1684214698948776400,4.1867763671875,-0.6701764122270047,0.5486737467139959,0.5385644406318664
1684214698958800600,4.196800537109375,-0.17950550327897072,0.7806342443734406,0.7624094363749027
1684214698968824600,4.206824462890625,0.4141643001116812,0.763249978852272,0.8661401522234081
1684214698978848500,4.2168486328125,0.9082137455821037,0.8336579785525798,0.9677043376877903
1684214698988871700,4.22687158203125,1.206630874967575,0.9486001165062189,0.9431512034505605
1684214698998895600,4.2368955078125,1.396854171615839,0.9234481395930051,0.7346949154973029
1684214699008919600,4.24691943359375,1.3407412392497062,0.957781201827526,0.42114363760501144
1684214699018943500,4.256943603515625,0.9243477187812328,0.8472603874474763,0.21215981864631175
1684214699028967700,4.2669677734375,0.2514963151913136,0.7567144396036863,-0.07707797898352145
1684214699038990600,4.276990478515625,-0.3114122200369835,0.8315057689547538,-0.27066432232409715
1684214699049014500,4.2870146484375,-0.6451543453037738,0.8226829955518246,-0.4296080990895629
1684214699059038700,4.297038818359375,-0.5491349710175767,0.7867875063061713,-0.6419260309070348
1684214699069062400,4.3070625,-0.6467723018944264,0.6665507690757513,-0.9546902500748634
1684214699079085600,4.31708544921875,-0.638958413273096,0.43084348610341544,-1.1900702007889747
1684214699089109800,4.32710986328125,-0.6051145958602429,0.12909107481539248,-1.2784294522434472
1684214699099133400,4.337133544921875,-0.07188391747176646,-0.12722411189973354,-0.8990981267124414
1684214699109157600,4.34715771484375,0.6799824975788593,-0.09778875857889652,-0.40433103449195623
1684214699119180500,4.3571806640625,1.3334294549316168,0.016408698487281798,0.06960954279899596
1684214699129204500,4.36720458984375,1.3108078732788562,0.11720832931995391,0.19259616325944662
1684214699139228700,4.377228759765625,1.547871247035265,-0.13662497745156288,0.1760287670791149
1684214699149252600,4.387252685546875,1.9134452653706073,-0.3718436001241207,-0.03931201969087124
1684214699159276500,4.397276611328125,1.8423340858370065,-0.3817266962349415,-0.6234928408548236
1684214699169299700,4.4072998046875,1.7235586533308027,-0.2250152085661888,-0.8868541466891765
1684214699179323600,4.41732373046875,1.5546610533058642,0.2611182030826807,-1.3155834171175955
1684214699189347600,4.42734765625,1.8856155936807393,1.0861936467289923,-1.456899474994838
1684214699199371500,4.43737158203125,2.039417915904522,1.6348697315305472,-1.6053732956722377
1684214699209394400,4.44739453125,1.5313737012207507,1.9283382985979318,-1.4682850846230984
1684214699219418600,4.457418701171875,0.84689915291965,1.8813181887477635,-1.2757728002548216
1684214699229442600,4.467442626953125,0.888347015595436,1.6400012492001055,-0.890279152701795
1684214699239466800,4.477466796875,0.6965777316141873,1.3718261133432388,-0.6911980113372206
1684214699249489700,4.48748974609375,-0.023760741750523447,0.8822405154138803,-0.9278802768215536
1684214699259513600,4.497513671875,-0.1708306139141321,0.4956278007030487,-1.2764447081670165
1684214699269537500,4.50753759765625,0.04750694351904094,0.28477438848018644,-1.7002946821212768
1684214699279561500,4.5175615234375,0.4156892446566373,0.21435469834208487,-1.8461054210692642
1684214699289585700,4.527585693359375,0.6546054797381162,0.3062000383466482,-1.778324555002153
1684214699299608600,4.537608642578125,0.8030810539811849,0.3984779245495796,-1.7553905463993549
1684214699309632500,4.547632568359375,0.8288339924622327,0.2651461434245109,-1.532165728381276
1684214699319656700,4.55765673828125,0.995893271144107,0.128441086474061,-1.3442980549484491
1684214699329680400,4.567680419921875,1.2160277219314128,-0.039625323423743246,-1.2489561049997806
1684214699339703600,4.57770361328125,1.311328682282567,-0.18907938731014728,-1.1823957206383346
1684214699349727700,4.587727783203125,1.2914087608039377,-0.2931201920211315,-1.0640022731870413
1684214699359751400,4.59775146484375,1.210582827463746,-0.3532224862843752,-1.0022828991159796
1684214699369775600,4.607775634765625,1.111589953792095,-0.3788958567231893,-0.9035396162912249
1684214699379798500,4.617798583984375,0.8910282175034284,-0.3414350178569555,-0.8478376028135418
1684214699389822500,4.627822509765625,0.7220032647717743,-0.25443711788356305,-0.7604542106539011
1684214699399846700,4.6378466796875,0.626388270035386,-0.09715396780669688,-0.7446636440649628
1684214699409870600,4.64787060546875,0.44111821188032624,-0.03196984023451805,-0.7254065704092383
1684214699419894500,4.65789453125,0.23908059533033518,0.023550386935472487,-0.700520550955832
1684214699429917700,4.667917724609375,0.10616210771389305,0.060603229522705075,-0.607177081348002
1684214699439941600,4.677941650390625,-0.25296876236405225,0.22669337091147898,-0.4187655102968216
1684214699449965600,4.687965576171875,-0.6661293287932872,0.361835416328907,-0.3402870168656111
1684214699459989500,4.697989501953125,-1.1339221240442245,0.4961193836122751,-0.2183271091043949
1684214699470012700,4.7080126953125,-1.5214865134567022,0.577161590051651,-0.20324527530670164
1684214699480036600,4.71803662109375,-1.8202526024103163,0.6513824260383844,-0.1694122715488076
1684214699490060500,4.728060546875,-2.1452491111636163,0.6725298434853554,0.005865092641115188
1684214699500084700,4.738084716796875,-2.0756576885432003,0.44098318732380865,0.31844255706518887
1684214699510107400,4.748107421875,-1.4875965188145637,0.13380758194327352,0.742009330163896
1684214699520131600,4.758131591796875,-0.9718085581362247,0.05316986465156078,1.8361805316433308
1684214699530155800,4.76815576171875,-0.4226326340537518,-0.2765986808091402,2.776143168185651
1684214699540179500,4.778179443359375,0.12486673511862754,-0.7691811224669217,3.378609587624669
1684214699550203600,4.78820361328125,0.3653589873451739,-1.1666945858985185,3.436527231325209
1684214699560226600,4.7982265625,0.6546775220610201,-1.5793290460944174,2.9994264383926987
1684214699570250500,4.80825048828125,1.3087732987113296,-2.074028041514754,2.2244345838204027
1684214699580274700,4.818274658203125,1.6746353402078151,-2.330636073696613,1.5459972698569298
1684214699590298600,4.828298583984375,1.876686437293887,-2.409130349218845,1.0432347949683665
1684214699600321500,4.838321533203125,1.9766437720835208,-2.301083815997839,0.7753156796991825
1684214699610345700,4.848345703125,2.0576270879425107,-2.164856313431263,0.8454679510727524
1684214699620369700,4.85836962890625,2.3468594787448644,-1.8676310241788625,0.8840656850144266
1684214699630393600,4.8683935546875,2.558729959055781,-1.4822493125677108,0.9120885411888361
1684214699640416500,4.87841650390625,2.749143809840083,-1.3106512214124202,0.944371685156226
1684214699650440400,4.8884404296875,2.431588118612021,-1.1044003345489501,1.2469886043190956
1684214699660464600,4.898464599609375,1.9198161155767737,-0.7234124739825725,1.8446601906970141
1684214699670488600,4.908488525390625,1.5697734283722937,-0.16972411397695542,2.5950691004157065
1684214699680512800,4.9185126953125,1.557382587224245,0.27783319104015824,2.9168884404376145
1684214699690535400,4.928535400390625,1.5933413509644567,0.4050193090170622,2.6063947965502736
1684214699700559600,4.9385595703125,1.3255549221642315,0.3115986825197935,1.7672466961488127
1684214699710583600,4.94858349609375,0.8655266965001821,0.1837713440299034,0.7121879001349211
1684214699720607500,4.958607421875,0.49701370210349555,-0.09570727612972259,-0.42395548015534873
1684214699730630700,4.968630615234375,0.2475672321140766,-0.3257768454760313,-1.4444728318810462
1684214699740654600,4.978654541015625,-0.014677344650030136,-0.5049386498838663,-2.176551719661057
1684214699750678500,4.988678466796875,-0.3678898940622806,-0.5582271724790334,-2.708999430978298
1684214699760702700,4.99870263671875,-0.6499917023323476,-0.5116162279516459,-2.782824253384769
1684214699770725400,5.008725341796875,-0.723084411071986,-0.3398310897916555,-2.5180831836298108
1684214699780749600,5.01874951171875,-0.505227257566899,-0.10938333478271961,-2.3903543370783327
1684214699790773500,5.0287734375,-0.34643501810133454,0.08929740908741951,-2.302170442190766
1684214699800797400,5.03879736328125,-0.19162373803071678,0.21974515920877455,-2.2841674602493645
1684214699810821600,5.048821533203125,-0.07179448562264441,0.38523558113873,-2.2620561662063
1684214699820844500,5.058844482421875,-0.07061718547157943,0.41930268591344355,-2.3119737510636447
1684214699830868500,5.068868408203125,-0.014930004236847162,0.30957039156258104,-2.4578756754264233
1684214699840892700,5.078892578125,-0.09801102302744984,0.14651742591261863,-2.5040453059270975
1684214699850916600,5.08891650390625,-0.31929727419838305,-0.03107493722140789,-2.310305817851424
1684214699860940300,5.098940185546875,-0.5271552309323102,-0.11299568006098269,-1.8316908190086483
1684214699870964200,5.108964111328125,-0.7401368142902851,-0.07490706468522548,-1.1186620841354131
1684214699880988200,5.11898828125,-0.8606693195968866,0.04404430890977382,-0.2991583031415939
1684214699891012000,5.12901220703125,-0.7723994269262999,0.1877805796712637,0.45331163076013326
1684214699901035000,5.139034912109375,-0.43797458009235557,0.25808862612843514,1.0621487542748451
1684214699911059200,5.14905908203125,0.016505217664316296,0.0801911425679922,1.3063608307421206
1684214699921083100,5.159083251953125,0.4066753691283986,-0.24584815323650835,1.1589578541666268
1684214699931107300,5.169107421875,0.7408938432026654,-0.6424369030386209,0.7155813419654965
1684214699941131000,5.179131103515625,0.9379302539318799,-1.1155717169046402,0.14698738151192664
1684214699951154200,5.189154296875,0.889900674778223,-1.5773668061107395,-0.3750058635473251
1684214699961178400,5.199178466796875,0.7142056696981192,-1.9102274723678827,-0.8054156344085931
1684214699971202000,5.2092021484375,0.4879021748870611,-2.14248198453784,-1.054649630691111
1684214699981226200,5.219226318359375,0.2362175705820322,-2.2760563422471285,-1.1086071385890244
1684214699991249200,5.229249267578125,0.04746666630757972,-2.2995587983876464,-0.9654816932022571
1684214700001273000,5.239273193359375,-0.07319792267978191,-2.1395225502103568,-0.6911728768959641
1684214700011297300,5.24929736328125,-0.06844985136985779,-1.8713351393938062,-0.378724884070456
1684214700021321200,5.2593212890625,0.009009820407629012,-1.6225217066109179,-0.09235591987520456
1684214700031344000,5.26934423828125,0.14843816484212874,-1.4387784196317195,0.12047463763952254
1684214700041368300,5.279368408203125,0.3489876251935959,-1.3702064031869172,0.3395382443249225
1684214700051392000,5.28939208984375,0.6372972020626068,-1.32094640545547,0.6006836276754737
1684214700061416200,5.299416259765625,0.8422609717249869,-1.019270566534996,0.8307078965753316
1684214700071440100,5.309440185546875,0.7157704347968101,-0.3190653651386499,0.9441656411901116
1684214700081463000,5.319463134765625,0.5548924750983715,0.7521651057362556,1.3094386307522654
1684214700091487200,5.3294873046875,0.18473931227922438,2.455987377461791,1.9025073995098472
1684214700101511200,5.33951123046875,-0.46277299432754515,4.201705255630612,2.506375502440333
1684214700111535000,5.34953515625,-1.0372878692626952,5.643056156098842,2.8041902820184825
1684214700121558300,5.359558349609375,-1.5998481025099753,6.792253079229593,2.680091608662903
1684214700131582200,5.369582275390625,-2.476923197984695,7.480939692267775,2.2379224264249205
1684214700141606100,5.379606201171875,-3.285547273045778,7.5039178322732445,2.1633362642571328
1684214700151630000,5.389630126953125,-3.2230572068631647,6.248768717852235,3.0255680108651517
1684214700161653200,5.3996533203125,-1.9512708458960055,3.4831402216792107,3.6038840316489336
1684214700171677200,5.40967724609375,0.4154968638896942,0.706453155875206,3.0349159771859644
1684214700181701000,5.419701171875,2.21236274549365,-1.5083751029491423,1.8607094082221387
1684214700191725300,5.429725341796875,2.5817156978458167,-3.3712826057374476,0.2276169154971838
1684214700201749000,5.4397490234375,1.856162120181322,-4.6352182532042265,-1.6748101122528314
1684214700211772200,5.449772216796875,0.38815819058716294,-4.596199078980088,-3.721118372192979
1684214700221796400,5.45979638671875,-0.7280342885643243,-3.6975405127286907,-4.482733151058852
1684214700231820000,5.469820068359375,-0.7760702974587679,-2.821314143037796,-4.204924217677116
1684214700241844200,5.47984423828125,-0.29443244366347787,-1.8870213688254356,-3.635076165509224
1684214700251867400,5.489867431640625,0.28751813423037526,-0.8815963722914457,-2.809205479831993
1684214700261891000,5.49989111328125,0.6021756197988987,0.34949499019384384,-1.966328129774332
1684214700271915300,5.509915283203125,0.3418599652707577,1.629106930220127,-1.287270053564012
1684214700281939200,5.519939208984375,-0.29001579626500607,2.3998557403951883,-0.578750320547819
1684214700291962000,5.529962158203125,-0.9747498722851275,2.7419471763342615,-0.05252367570251226
1684214700301986300,5.539986328125,-1.205051496821642,2.52217746720612,0.20702333254069089
1684214700312010200,5.55001025390625,-0.9702145669430494,1.8159435070395469,0.12460633061677216
1684214700322034200,5.5600341796875,-0.24453590159416197,0.8598492353856563,0.0906003083795309
1684214700332058000,5.57005810546875,0.5422358226209879,0.3460924882739782,-0.06467150187492371
1684214700342081000,5.5800810546875,1.1068354527413844,0.07329086166024208,-0.15128507870584726
1684214700352105200,5.590105224609375,1.6557704807400702,-0.06975099709630012,-0.04382569772303104
1684214700362129200,5.600129150390625,1.813615940874815,0.2384785012513399,-0.020837620845437048
1684214700372153300,5.6101533203125,1.5502876605272293,0.6739344495862722,-0.15447510691881178
1684214700382176300,5.62017626953125,0.8911866229355335,1.1477578302383422,-0.28951281517893074
1684214700392200200,5.6302001953125,0.09863222366571425,1.2696668845951555,-0.6666179890930652
1684214700402224400,5.640224365234375,-0.3244891437530517,1.1224719978123903,-1.025257239729166
1684214700412248000,5.650248046875,-0.3643710722863674,0.7169114215254784,-1.2513079288229345
1684214700422271200,5.660271240234375,-0.16882164871189742,0.30399755986630916,-1.2403294386908412
1684214700432295200,5.670295166015625,0.10184473770512267,-0.06595277385711669,-1.110857255603373
1684214700442319000,5.680319091796875,0.4024783923625946,-0.3357090414255857,-1.0251102324739099
1684214700452343300,5.69034326171875,0.6109201038012281,-0.5115910935103893,-1.0214522944882511
1684214700462367200,5.7003671875,0.7197872692227363,-0.6401560986250638,-1.1223726290911435
1684214700472390100,5.71039013671875,0.6691945615828037,-0.7214245150357484,-1.2820675164848565
1684214700482414300,5.720414306640625,0.6149591135263442,-0.819910608229041,-1.4763976639300584
1684214700492438000,5.73043798828125,0.7999802384216338,-0.7089063942462206,-1.5000681701138614
1684214700502462200,5.740462158203125,0.9988765978038311,-0.8870376865625381,-1.3284522510409353
1684214700512485400,5.7504853515625,0.941093101876974,-0.8097790903151035,-1.2302742008835077
1684214700522509000,5.760509033203125,0.8621604349374771,-0.4644686923295259,-1.2712190824732184
1684214700532533200,5.770533203125,0.823480283409357,-0.08265840946435928,-1.3170105273112653
1684214700542557200,5.78055712890625,0.642545039588213,0.47361003016233444,-1.2547504704922436
1684214700552581000,5.7905810546875,0.6599322277188301,1.0678449200898408,-1.0942173787087202
1684214700562604300,5.800604248046875,0.6739829649031162,1.4690075536787508,-0.9873507029220461
1684214700572628200,5.810628173828125,0.4166296673119068,1.6715654312431811,-1.0491782135426997
1684214700582652200,5.820652099609375,0.20598091081567108,1.6132891833633183,-1.2054323128327726
1684214700592676000,5.830676025390625,0.14709734469242394,1.4107716378092765,-1.2334955010175703
1684214700602699300,5.84069921875,0.22364048614688217,1.050826565271616,-1.2875602686822414
1684214700612723200,5.85072314453125,0.3724386068752035,0.7508955241918563,-1.4006141086712478
1684214700622747100,5.8607470703125,0.4927238959550857,0.4417740454405546,-1.5210431536033748
1684214700632771300,5.870771240234375,0.6565336713217198,0.14966390724480153,-1.6184396979942917
1684214700642794200,5.880794189453125,0.8186882998924702,-0.22474282136559484,-1.67285430200994
1684214700652818200,5.890818115234375,0.8984627514183521,-0.6864549084633589,-1.6521540438085793
1684214700662842400,5.90084228515625,0.9885784911513328,-1.0513181481808422,-1.460860779841244
1684214700672866000,5.910865966796875,1.015682844241336,-1.1283207238405941,-1.199597907590866
1684214700682889200,5.92088916015625,0.7298036363244056,-0.7997825969576835,-0.7625596585005522
1684214700692913400,5.930913330078125,0.08652326819896697,-0.28438685046732426,-0.28619828380346296
1684214700702937000,5.94093701171875,-0.4900818570137024,0.23563480225801467,0.13108867837339638
1684214700712961300,5.950961181640625,-0.7651439028400927,0.559268790486455,0.4249138037934899
1684214700722985200,5.960985107421875,-0.7476596840757876,0.5504243897736072,0.6306038419038057
1684214700733008100,5.971008056640625,-0.7252035951830447,0.2839437828749418,0.7421785492509603
1684214700743032300,5.9810322265625,-0.8454256463009864,-0.029974867025017737,0.7105985851168632
1684214700753056300,5.99105615234375,-0.9936381126284599,-0.23442893359959124,0.6167103411078453
1684214700763080200,6.001080078125,-0.8894319612879306,-0.22388941940665244,0.566223431929946
1684214700773103400,6.011103271484375,-0.5583798057574778,-0.0834504366248846,0.569930762015283
1684214700783127000,6.021126953125,-0.22634667636565864,0.07591828755438328,0.5934849483430386
1684214700793151200,6.031151123046875,-0.08027231804542242,0.2048942115575075,0.5988324468508363
1684214700803175200,6.041175048828125,-0.15578326690793037,0.2566302440136671,0.5956055937588215
1684214700813199400,6.051199462890625,-0.466760602658987,0.18667057260274886,0.42381724072843785
1684214700823222300,6.06122216796875,-0.8799462669968604,-0.004883095866441726,0.04429682236611843
1684214700833246200,6.07124609375,-0.9704116238851099,-0.1322328799724579,-0.3488894255161285
1684214700843270400,6.0812705078125,-0.7047546083290129,-0.14955869330465793,-0.5184893285915255
1684214700853294000,6.091294189453125,-0.37828393536992366,-0.05403203443884849,-0.3406371454775333
1684214700863317200,6.101317138671875,-0.1967255181491375,0.13178455168306827,0.014385960488021373
1684214700873341400,6.111341552734375,-0.25671492662243545,0.37013036646544933,0.3207353441774845
1684214700883365400,6.121365478515625,-0.35244792171530426,0.5182271705240011,0.5147381593644619
1684214700893389300,6.131389404296875,-0.4463455911397934,0.5487012192428111,0.6229971662923693
1684214700903413200,6.141413330078125,-0.4754967937570065,0.41640930255949493,0.6575178600534797
1684214700913436400,6.1514365234375,-0.4700174855630845,0.12806523889899252,0.6467661644145846
1684214700923460400,6.16146044921875,-0.5075145647864788,-0.15872808818817138,0.5707707199707627
1684214700933484300,6.171484375,-0.5763363182086497,-0.35895313889086244,0.48498950231075283
1684214700943508500,6.181508544921875,-0.7293922059793024,-0.47181320987343783,0.42159693433046336
1684214700953531400,6.191531494140625,-0.9569699585098773,-0.45603111885190006,0.38525048644691706
1684214700963555300,6.201555419921875,-1.124900686264038,-0.34575171201229093,0.34155542936623096
1684214700973579500,6.21157958984375,-1.2217043793283402,-0.22814999946057796,0.3548123858243227
1684214700983603200,6.221603271484375,-1.2978162897586822,-0.1393856743365526,0.39895167954117056
1684214700993626400,6.23162646484375,-1.2830090351186691,-0.1665834778636694,0.3620817923054099
1684214701003650300,6.241650390625,-1.2143196759045123,-0.2592050629377365,0.5985600596502423
1684214701013674200,6.25167431640625,-1.4392483752310274,-0.17981939153373241,0.6892834098875522
1684214701023698400,6.261698486328125,-1.51660400211215,-0.22491116366982458,0.687894585877657
1684214701033721000,6.27172119140625,-1.5862952318452297,-0.3368599650263786,0.7056839250683784
1684214701043745300,6.281745361328125,-1.5164964500844478,-0.5553203451216221,0.6160699973776936
1684214701053769500,6.29176953125,-1.4191760396696627,-0.9259732741564511,0.5195432215586304
1684214701063793400,6.30179345703125,-1.3139642914831637,-1.2953612978219986,0.4043734123289585
1684214701073817300,6.3118173828125,-1.0355272893309593,-1.5139911892652511,0.44332507427483797
1684214701083840300,6.32184033203125,-0.6589221738934516,-1.4554700267136096,0.5583280025050044
1684214701093864200,6.3318642578125,-0.5632021844126284,-1.0804793607354164,0.6681760321900249
1684214701103888400,6.341888427734375,-0.911308058335632,-0.42564182580709453,0.6991933940052986
1684214701113912300,6.351912353515625,-1.3703415738739073,0.1374643508851528,0.643671413269639
1684214701123935200,6.361935302734375,-1.607385220016539,0.4296668435394764,0.49328152983784673
1684214701133959200,6.371959228515625,-1.6096176552437245,0.5322784922301769,0.33890754520595073
1684214701143983400,6.3819833984375,-1.4385492870509624,0.4975345111072063,0.25463848567456004
1684214701154007300,6.39200732421875,-0.8948246871769427,0.24764263543784618,0.2378878418818116
1684214701164030200,6.4020302734375,0.014387275662273168,-0.05427694911062717,0.4830129415407777
1684214701174054400,6.412054443359375,1.058130604674667,-0.030240239962935445,0.9836191151782869
1684214701184078300,6.422078369140625,2.2510278455831108,0.1229383974045515,1.4603572142332792
1684214701194102300,6.432102294921875,3.3035049545407293,0.5859726730167866,1.8212345991849899
1684214701204126500,6.44212646484375,3.058015113222599,1.484522518196702,2.1504589547663926
1684214701214149000,6.452149169921875,2.2206955434225497,1.8142267662495373,1.8914806863218545
1684214701224173300,6.46217333984375,1.644327003444731,1.5377712933033705,0.9368640860050916
1684214701234197500,6.472197509765625,0.8565516551449894,1.259186991634965,-0.2747375631123781
1684214701244221200,6.48222119140625,-0.012874386881291866,1.2722913878798483,-1.2707576024413108
1684214701254244400,6.492244384765625,-0.724288087773323,1.3642635691344738,-1.8910396645560859
1684214701264268300,6.502268310546875,-1.0651038046881556,1.4099492155104876,-1.9515546312734484
1684214701274292200,6.512292236328125,-1.1724141325891018,1.0199620559304952,-1.33168874874413
1684214701284316400,6.52231640625,-1.2388438763082026,0.5914367836415767,-0.4020335712045431
1684214701294340400,6.53234033203125,-1.2502078586265444,0.03752572079598904,0.8679594766050577
1684214701304363300,6.54236328125,-1.1750365900471806,-0.42108781576454635,2.3917332242161033
1684214701314387200,6.55238720703125,-0.2635238029196858,-1.242707565999031,4.364761728411913
1684214701324411400,6.562411376953125,0.78209028840065,-2.180294121059775,5.803969771632552
1684214701334435300,6.572435302734375,1.435128518822044,-2.744251361623406,5.983351940792799
1684214701344458200,6.582458251953125,1.810027268733084,-3.037318946674466,5.088621946161985
1684214701354482400,6.592482421875,2.0475740420922635,-2.7175428029179574,3.4209330640912055
1684214701364506400,6.60250634765625,2.2475825274348256,-1.533475057414174,0.9376137353286147
1684214701374530300,6.6125302734375,1.9061714749753473,0.2173854443401098,-1.352692666067183
1684214701384553200,6.62255322265625,0.9258702521733939,1.5698749890506267,-3.2246357082262636
1684214701394577200,6.6325771484375,-0.2082312470257282,2.485525022113323,-4.417347655695677
1684214701404601300,6.642601318359375,-1.6010146620713173,3.1168010641902684,-4.600964393685758
1684214701414625300,6.652625244140625,-2.4421534978985786,2.642718740341067,-3.930445890022814
1684214701424649200,6.662649169921875,-2.3776762034215033,1.852674278065562,-2.5622151708230376
1684214701434672400,6.67267236328125,-1.6087750669397414,1.0601613798499108,-1.2545239682599902
1684214701444696300,6.6826962890625,-0.551316370177269,0.1657294913828373,-0.14614742355644703
1684214701454720300,6.69272021484375,0.44405886844210324,-0.39723406196832656,0.38655923095792527
1684214701464744400,6.702744384765625,1.1943874064009636,-0.6774024179577827,0.8747066127777099
1684214701474767000,6.71276708984375,1.8330641531884668,-1.0970803669244051,1.1899267006650567
1684214701484791300,6.722791259765625,1.944731214994192,-1.4720634341180323,1.438631996898353
1684214701494815200,6.732815185546875,1.674769780242443,-1.6027975999653339,1.9582269486442208
1684214701504839400,6.74283935546875,1.2630606181979178,-1.5102952573567627,2.3194614764705297
1684214701514862300,6.7528623046875,0.9884943199992179,-1.1471230394661427,2.416325813680887
1684214701524886300,6.76288623046875,1.034737015736103,-0.7409598211109638,2.4391075543314216
1684214701534910200,6.77291015625,1.127079856934026,-0.309980725929141,2.0028154474332927
1684214701544934400,6.782934326171875,1.066544358885288,-0.09620411973595619,1.3677961271747945
1684214701554958300,6.792958251953125,0.9456430202662944,-0.07441255916655064,0.8090294409915805
1684214701564981200,6.802981201171875,0.8777484646916389,-0.10600830539166926,0.25585487572699783
1684214701575005200,6.813005126953125,0.8826724770903587,-0.06603636048734188,-0.12857786459624768
1684214701585029400,6.823029296875,0.9285527692556381,0.006945873615145683,-0.26274755785018206
1684214701595053300,6.83305322265625,1.163909339094162,0.019154782325029374,-0.09657441435307264
1684214701605076200,6.843076171875,1.5549492225974797,-0.0152671272367239,0.17017828748524189
1684214701615100400,6.853100341796875,1.7097569224715232,-0.09172434397339821,0.29910101999640465
1684214701625124000,6.8631240234375,1.7093045025289058,-0.16298633015453814,0.410258378714323
1684214701635148300,6.873148193359375,1.657179178494215,-0.2857517090797424,0.4270499390393495
1684214701645172500,6.88317236328125,1.7496897044092417,-0.4065910883784294,0.6235773042678833
1684214701655195100,6.893195068359375,1.7949971651226282,-0.37856267924606796,0.8292644197687506
1684214701665219300,6.90321923828125,1.708598984608054,-0.34589784248471256,0.9528484216004609
1684214701675243300,6.9132431640625,1.703582033228874,-0.20800679062008856,0.9921750543385743
1684214701685267200,6.92326708984375,1.698429472771287,-0.039082887110114095,0.9243982799246907
1684214701695290400,6.933290283203125,1.7834242162287235,0.1544528950870037,0.7302016957312822
1684214701705314300,6.943314208984375,1.9296534728497265,0.3234077782571316,0.4518357129886746
1684214701715338200,6.953338134765625,1.9663217000335453,0.47525487475991246,0.1805970979079604
1684214701725362200,6.963362060546875,1.9678490557312964,0.5424579409390687,-0.06563596299290657
1684214701735386400,6.973386474609375,2.0185446392238138,0.5523708476662635,-0.1977212511882186
1684214701745409300,6.9834091796875,1.9320996969580648,0.47305181175768374,-0.36553251728117464
1684214701755433200,6.99343310546875,1.7327146042108534,0.37899464092254637,-0.48419630610644815
1684214701765457400,7.00345751953125,1.4340724338978528,0.2647457459300756,-0.543460688240826
1684214701775481300,7.0134814453125,1.144887754694745,0.1527396614283323,-0.7150640400931239
1684214701785504300,7.023504150390625,0.9900596696197986,0.08125321884155273,-0.7251341832086443
1684214701795528400,7.033528564453125,0.7105998272258788,0.009970774394273758,-0.6917828254878521
1684214701805552000,7.04355224609375,0.4689256717383861,-0.18785773656070232,-0.6260001475006342
1684214701815576300,7.053576416015625,0.5646295138020068,-0.3049152592331171,-0.6706500210881233
1684214701825599200,7.06359912109375,1.0025924765218048,-0.544941574448347,-0.6489280186235904
1684214701835623200,7.073623046875,1.088099261154607,-0.9236614900827407,-0.7036027348801493
1684214701845647400,7.0836474609375,1.1556517252933234,-1.325258423435688,-0.6847548265472054
1684214701855671300,7.09367138671875,1.33030869256258,-1.5866121888399123,-0.5069754164084792
1684214701865694500,7.103694580078125,1.4894038604974746,-1.6078022763848303,-0.0907879399061203
1684214701875717400,7.11371728515625,1.6868448334395885,-1.4217974742144346,0.41100189055800435
1684214701885741600,7.123741455078125,1.8786537918440998,-1.070657054901123,0.8868877566978335
1684214701895765500,7.133765625,2.095306391865015,-0.5981126081436872,1.2419985409468413
1684214701905789400,7.14378955078125,2.2783611120581626,-0.10037059176564216,1.513771409034729
1684214701915812600,7.1538125,2.3854624733835457,0.39021044694185253,1.7077192791640758
1684214701925836300,7.163836181640625,2.4265561157941815,0.7000830363214016,1.7092019189372658
1684214701935860500,7.173860595703125,2.4128910169266162,0.6627490387052297,1.5154428493782877
1684214701945884400,7.183884521484375,2.174355524791032,0.36763621156215665,1.3411489432677626
1684214701955907300,7.1939072265625,1.8696382723480462,0.003455108889937401,1.3328329503431915
1684214701965931500,7.203931640625,1.747272121873498,-0.4247825786292553,1.3266133451759814
1684214701975955500,7.21395556640625,1.7757400914669035,-0.9389613505452871,1.363194186337292
1684214701985979400,7.2239794921875,1.6874129887163638,-1.2743331228405237,1.356303257779777
1684214701996003300,7.23400341796875,1.8577654637247323,-1.5815373697936534,0.9648089085072279
1684214702006026500,7.244026611328125,2.04614006376639,-1.7927841652482748,0.3530439148470759
1684214702016050400,7.254050537109375,1.9418892695665357,-1.74995390830338,-0.41811435291171073
1684214702026074400,7.264074462890625,1.8050562023222445,-1.1999813539505004,-1.0199155864402651
1684214702036098600,7.2740986328125,1.6167197423338888,-0.3394359529942274,-1.4716075070440768
1684214702046121500,7.28412158203125,1.3975474145770073,0.20178923127949236,-2.0673247444838285
1684214702056145400,7.2941455078125,1.2356196535646915,0.7000134782165288,-2.6880656562820073
1684214702066169600,7.304169677734375,0.9059820410072803,1.136687570169568,-3.274383489474654
1684214702076193300,7.314193359375,0.4256557812672108,1.4192998121798037,-3.7853289785578843
1684214702086217500,7.324217529296875,0.17526070531606674,1.4483610714912414,-3.9688472246095534
1684214702096240600,7.33424072265625,0.08866678303368389,1.2894552886486053,-3.6781934227019546
1684214702106264300,7.344264404296875,0.17400047612190245,0.8822229797571897,-2.772284446930885
1684214702116288500,7.35428857421875,0.3244435510456562,0.28323008164763447,-1.7380322921022773
1684214702126312400,7.3643125,0.17681962519586086,-0.3327092750877142,-0.7289476040169596
1684214702136335400,7.37433544921875,0.0844523071438074,-0.6003495734155178,0.25617782407104966
1684214702146359600,7.384359619140625,0.3847393220543861,-0.3300222279608249,1.2392638552859425
1684214702156383500,7.394383544921875,0.8932214166987686,0.31323300572335716,2.4829542948424814
1684214702166407400,7.404407470703125,1.4602689514279366,0.7782149082720279,3.631269174441695
1684214702176431400,7.414431396484375,1.5837112067013979,0.8969277969360351,4.532847719793021
1684214702186454500,7.42445458984375,1.3565040410488842,0.6945633961170912,4.788441314235329
1684214702196478500,7.434478515625,1.0960597917050123,0.25552958929538727,4.324013830699026
1684214702206502400,7.44450244140625,0.9893962372750044,-0.14898410828709602,3.5893349895536897
1684214702216526600,7.454526611328125,1.0568313586443663,-0.4266097940564155,2.7110759449914097
1684214702226549500,7.464549560546875,1.0970143159508705,-0.5034352595835924,1.9678700985193252
1684214702236573400,7.474573486328125,1.0557283658385277,-0.6009393560022115,1.2661910251781343
1684214702246597600,7.48459765625,0.9434486520271748,-0.6592477525860071,0.6426277494356036
1684214702256621300,7.494621337890625,0.739023957677558,-0.7341150697827339,0.2872822796478867
1684214702266644500,7.50464453125,0.7475854497957974,-0.5260504114955663,-0.0006035188511013984
1684214702276668700,7.514668701171875,0.690320936241746,-0.6505886453121901,0.23992840779870747
1684214702286692400,7.5246923828125,0.7982271842092276,-1.0405442407101393,0.8629448633134364
1684214702296716500,7.534716552734375,0.9402701681215315,-1.1208441043496131,1.2180761058285832
1684214702306740500,7.544740478515625,0.9079179775059223,-1.022754316997528,1.730643643155694
1684214702316763400,7.554763427734375,0.9936982453178613,-0.9792752407550811,2.1642621469303966
1684214702326787600,7.56478759765625,1.1460066026568412,-0.9452531441658735,2.5090979131415483
1684214702336811500,7.5748115234375,1.1495395260233432,-0.9896060806334018,2.6203657464966175
1684214702346835500,7.58483544921875,1.0581202294111252,-0.9845622412472963,2.5976909733518956
1684214702356858400,7.5948583984375,1.1537398272573947,-0.9888146379947662,2.4677391900539396
1684214702366882300,7.60488232421875,1.2896376594781875,-0.7781038491129875,2.0875337120369077
1684214702376906500,7.614906494140625,1.2457500024348496,-0.4412672649621963,1.8666835141956806
1684214702386930400,7.624930419921875,1.1010317348986864,-0.40571781267523765,1.491445303197205
1684214702396954600,7.63495458984375,1.1562667153865098,-0.24453531707227227,1.0979966049864887
1684214702406977500,7.6449775390625,1.142179737845063,-0.006004793372750282,0.7594134694293141
1684214702417001500,7.65500146484375,0.9489204345017671,0.2518237205147743,0.6527256573408842
1684214702427025400,7.665025390625,0.7879260818820446,0.6217582721471786,0.6873062645956873
1684214702437049300,7.67504931640625,0.8275316046267748,1.0059662638038396,0.687569883967936
1684214702447072500,7.685072509765625,1.0333985336739568,1.2315730085223913,0.5386635170921683
1684214702457096400,7.695096435546875,1.212180837244913,1.2802192582696676,0.3270420431062579
1684214702467120400,7.705120361328125,1.1824836911827326,1.1954290974736212,0.06522066019028425
1684214702477144600,7.71514453125,1.1479173316489903,0.9528677108228206,-0.05048398656845093
1684214702487167200,7.725167236328125,1.2021515375964342,0.778861974003911,-0.16808745268583297
1684214702497191400,7.73519140625,1.5196037684500217,0.6363607979953289,-0.31442893750965595
1684214702507215600,7.745215576171875,1.7466987058997154,0.511388264414668,-0.29672669208049773
1684214702517239300,7.7552392578125,1.774295737877488,0.5280068062603473,-0.07892273006737231
1684214702527263500,7.765263427734375,1.8612176500052213,0.6745598880082369,-0.0713622316852212
1684214702537286400,7.775286376953125,2.093757993379235,0.8826338986456393,0.09065613021999597
1684214702547310300,7.785310302734375,2.3111364234566687,1.046904423391819,0.44544250482022757
1684214702557334500,7.79533447265625,2.349043837046623,1.1803332351505755,0.6613476474747061
1684214702567358500,7.8053583984375,2.3046651816159485,1.0413608177900313,0.9368673008754849
1684214702577381400,7.81538134765625,2.29826525144577,0.9037626113921403,0.988613562464714
1684214702587405600,7.825405517578125,2.2564865493804214,0.6592115122288466,1.2391682859569788
1684214702597429500,7.835429443359375,2.2217244480788705,0.28541911612451076,1.469794320142269
1684214702607453400,7.845453369140625,2.2862369599998,0.011883914539217949,1.528788360902667
1684214702617477400,7.855477294921875,2.4086598090976477,-0.0064174658268690106,1.4616113059476017
1684214702627500500,7.86550048828125,2.2894588446557522,0.26024025120437144,1.2890472923696041
1684214702637524500,7.8755244140625,1.9919874716877937,0.4677689029186964,0.7805939123630523
1684214702647548400,7.88554833984375,1.4504326170682906,1.0662474217653275,0.19967063169032334
1684214702657572600,7.895572509765625,0.8222639664221555,1.5392232456773518,-0.25132278525531293
1684214702667595300,7.90559521484375,0.42944246019907295,1.598174031817913,-0.43772740039825436
1684214702677619500,7.915619384765625,-0.039320714453980325,1.3375205236375332,-0.7479723302215338
1684214702687643600,7.9256435546875,-0.524558675100468,0.8243664185941219,-1.1643787101715803
1684214702697667300,7.935667236328125,-0.643546325585246,0.3763409115433693,-1.5511360940501093
1684214702707690500,7.9456904296875,-0.7420639098953455,-0.095807229372859,-2.145935047601163
1684214702717714400,7.95571435546875,-0.6016331834852695,-0.2765530881017446,-2.3229969571202993
1684214702727738400,7.96573828125,-0.36737025410234925,-0.3367915759652853,-2.357793252952397
1684214702737762600,7.975762451171875,-0.07058459837622941,-0.17514146285057067,-2.1608792264938352
1684214702747786500,7.985786376953125,0.31678112665899094,0.06831658037900924,-1.7338184737995266
1684214702757809400,7.995809326171875,0.5468803604912013,0.4451771318823099,-1.2965154362931848
1684214702767833300,8.005833251953124,0.7171803015947341,0.7125789452791214,-0.7084905069217086
1684214702777857500,8.015857421875,0.8915238920658827,0.9942238035619259,-0.3631155192673206
1684214702787881500,8.025881591796875,1.049099960674718,1.0803332302629947,-0.10324088650494813
1684214702797904400,8.035904296875,1.138162903419137,0.8556079445540905,-0.21372925992012023
1684214702807928300,8.04592822265625,1.153273378789425,0.5059019419580698,-0.5674520969420671
1684214702817952500,8.055952392578124,1.1270030653707683,0.1613420700788498,-0.9624272740676999
1684214702827976400,8.0659765625,1.1163858097665011,-0.02587736857831478,-1.269041446173191
1684214702838000600,8.076000732421875,1.080531967705488,0.061003042495250695,-1.3550135102301835
1684214702848023300,8.086023193359376,1.1210860964119433,0.22534487891197202,-1.3175585165828465
1684214702858048300,8.09604833984375,1.0986148099500685,0.2743196299612522,-1.0471750570267437
1684214702868072200,8.106072265625,1.190943038100749,0.21347090124487875,-0.6583510960072279
1684214702878096400,8.116096435546876,1.2920990811556576,0.13343114984631538,-0.41795185582637784
1684214702888119300,8.126119384765625,1.2957348073095083,-0.12662263887524605,-0.2662251708328724
1684214702898143200,8.136143310546874,1.4812981493227182,-0.5194038130879401,-0.1322007312685251
1684214702908167200,8.146167236328125,1.3713567422658204,-0.7429863585025072,-0.24010990184545516
1684214702918191000,8.156191162109375,1.097015558059886,-0.6447235526710748,-0.19374796364307403
1684214702928215300,8.16621533203125,0.9282681801605969,-0.35589024418890475,-0.15944880367815495
1684214702938238200,8.17623828125,0.5292086563307792,-0.08544365626871585,-0.10602116487324237
1684214702948262100,8.18626220703125,0.15429273608922958,0.10196458295881748,-0.11141571739315986
1684214702958286300,8.196286376953125,-0.23443119862191378,0.20229718080163,-0.5207587348282336
1684214702968310000,8.20631005859375,-0.7204564006559551,-0.05718377646803856,-1.0154887099087238
1684214702978333200,8.216333251953126,-1.3032640337705612,-0.39878830567300316,-1.3976824391335247
1684214702988357400,8.226357421875,-1.4178143959276377,-0.6684118867725134,-1.5994658251941203
1684214702998381000,8.236381103515624,-1.625321274201572,-0.48218613532781596,-1.659568119457364
1684214703008405200,8.2464052734375,-1.4961521657139063,0.05578209297657013,-1.5978502066910265
1684214703018428400,8.256428466796875,-1.1771679029874502,0.6643126347601414,-1.656289536178112
1684214703028452000,8.2664521484375,-0.8908668894618749,1.1960405073702334,-1.7926690144360065
1684214703038476300,8.276476318359375,-0.8240769341282546,1.3050655302345753,-1.8264380130469797
1684214703048500200,8.286500244140624,-0.8418746027559042,1.1696639570981264,-2.0414882924377915
1684214703058524200,8.296524169921875,-0.5937428686268628,0.9185925162553786,-2.238575629636645
1684214703068547300,8.30654736328125,-0.1079980179041624,0.6531301464885473,-2.1884528775960206
1684214703078571300,8.3165712890625,0.2937783636689186,0.5602133778601884,-2.0469085639208555
1684214703088595200,8.32659521484375,0.4656891740351915,0.5840735613971948,-1.920739514032006
1684214703098619100,8.336619140625,0.5454710051499306,0.5903355444014072,-1.8138474115431307
1684214703108642300,8.346642333984375,0.6134644910544157,0.5893067858755588,-1.5697838036358356
1684214703118666200,8.356666259765625,0.7308376555472612,0.5321680175930261,-1.1319441750347614
1684214703128690200,8.366690185546876,0.8564262751996516,0.3833312088221311,-0.453925671005249
1684214703138714400,8.37671435546875,1.0742372514754532,-0.0041273090630769725,0.2540197692543268
1684214703148738000,8.386738037109374,1.2686392951130867,-0.3073953856110573,0.8818740201890468
1684214703158761200,8.39676123046875,1.4319523730039596,-0.6474474246770143,1.3495850554406643
1684214703168785400,8.406785400390625,1.4661125628896057,-0.9209364490330219,1.5796949567973613
1684214703178809000,8.41680908203125,1.3621290413238107,-1.0962976921141148,1.5416554412603378
1684214703188833300,8.426833251953125,1.2582827362716198,-1.1290776796877384,1.3282418231606483
1684214703198856200,8.436856201171874,0.9031798430681228,-1.1139841554522514,1.027647934257984
1684214703208880000,8.446880126953126,0.34443595323860643,-1.1343465600013731,0.6424702207863331
1684214703218904300,8.456904296875,-0.24146876910850404,-1.1019856746226548,0.32597558291852474
1684214703228928300,8.46692822265625,-0.7291149234078824,-1.1124831032395361,0.13516250368356703
1684214703238952200,8.4769521484375,-1.0632822883494197,-1.1138006155788898,0.0787578948944807
1684214703248975400,8.486975341796875,-1.158232462501526,-0.9764432321995496,0.262693489575386
1684214703258999000,8.4969990234375,-0.9033908554702996,-0.8580623519688844,0.4667237777799368
1684214703269023200,8.507023193359375,-0.6520696776501834,-0.7931827603012322,0.8390110300183296
1684214703279047200,8.517047119140624,-0.3640279579371214,-0.8519079209923743,1.134402674102783
1684214703289070000,8.527070068359375,-0.07864931995347142,-1.0967413442283869,1.033591937354207
1684214703299094300,8.53709423828125,0.31772023414000866,-1.235204643023014,0.9789432323217392
1684214703309118200,8.5471181640625,0.6822812760405242,-1.4513655140042303,0.9456991343677044
1684214703319142400,8.557142333984375,0.9163656339861452,-1.6460831994622944,0.941570656260848
1684214703329166000,8.567166015625,1.0618183532766998,-1.7979466625779865,1.004326095381379
1684214703339189200,8.577189208984375,1.2104974872678518,-1.84079796231091,1.1216805551737545
1684214703349213200,8.587213134765625,1.519931100708246,-1.9263830728769302,1.1897212412208318
1684214703359237000,8.597237060546876,1.6846769878812133,-2.0509604696601627,1.0922054543644188
1684214703369261300,8.60726123046875,1.5433207441240548,-1.973929836949706,0.9184288501262664
1684214703379284200,8.6172841796875,0.9247587107349187,-1.5785270820617674,0.6382312680423259
1684214703389308200,8.62730810546875,-0.04318659610189497,-1.0421855781763791,0.21708324652314184
1684214703399332400,8.637332275390625,-0.8028620044030249,-0.6868465381294488,-0.2833767966419458
1684214703409356000,8.64735595703125,-1.1988503040939569,-0.4964326873451471,-0.6495359213888645
1684214703419379200,8.657379150390625,-1.2155081550367175,-0.4676262795776128,-0.8973153349488973
1684214703429403400,8.6674033203125,-1.0437941824167967,-0.5152846873313188,-1.0467705678790806
1684214703439427000,8.677427001953125,-0.6984281817864626,-0.5494850630968808,-1.2723527626782656
1684214703449451300,8.687451171875,-0.5068149651497602,-0.418906380072236,-1.4148691362559795
1684214703459475200,8.69747509765625,-0.544988336199522,-0.334874928689003,-1.5918632412359117
1684214703469498000,8.707498046875,-0.4515688056807965,-0.4252823448449373,-1.7906041908606887
1684214703479522300,8.717522216796874,-0.2805418654769659,-0.7082710189521312,-2.0341618950724603
1684214703489546200,8.727546142578126,-0.16992102478854357,-1.0647416933774947,-2.108839242655039
1684214703499570200,8.737570068359375,0.04539404301829636,-1.41104519405365,-2.029161602567136
1684214703509594000,8.747593994140624,0.40538646182902155,-1.7525000856548547,-1.9169591187104582
1684214703519617300,8.7576171875,0.6308809052795171,-1.980257870927453,-1.586405560351908
1684214703529641200,8.76764111328125,0.6938783364623785,-2.019216254875064,-1.1635869752719998
1684214703539665200,8.7776650390625,0.6166378603935241,-1.9816040248394011,-0.6803071994885802
1684214703549689300,8.787689453125,0.5947282264024019,-1.8648112905830143,-0.03323708369135856
1684214703559712300,8.797712158203124,0.7420633984386921,-1.55280402726233,0.8050543998807668
1684214703569736200,8.807736083984375,0.6955816332489252,-0.9472948791265488,1.8063208154305814
1684214703579760400,8.817760498046875,0.3457055347830057,-0.07512626039385795,2.7150769973263142
1684214703589784000,8.8277841796875,-0.2897346412360668,1.1918483163774012,3.5623917453095313
1684214703599807200,8.83780712890625,-0.9425567446887493,2.541056355199218,4.3769180301517245
1684214703609831400,8.84783154296875,-1.5573685586988926,4.065716237995028,5.099913740026951
1684214703619855000,8.857855224609375,-2.261116547268629,5.93187543605566,5.609997936105728
1684214703629879300,8.86787939453125,-2.980636105465889,7.895442284423113,5.890713404583931
1684214703639903200,8.8779033203125,-2.9674545523315667,8.739903981062769,5.788603860196471
1684214703649926100,8.887926025390625,-2.0664672508716584,7.519651407977938,4.99137036319971
1684214703659950300,8.897950439453124,-0.6705225953161716,4.416456844335794,4.090675322684645
1684214703669974300,8.907974365234375,1.5233622442007064,0.6365951912730932,2.623658650562167
1684214703679998200,8.917998291015625,3.4472464859992265,-2.5990432647436856,0.9658271456390619
1684214703690021400,8.928021484375,3.884892637854814,-4.950026545420289,-0.4842372226387262
1684214703700045000,8.938045166015625,3.0399568939626214,-6.24534575766623,-1.8887527226626872
1684214703710069200,8.9480693359375,1.4217571422040463,-6.096131347754597,-3.272047740003466
1684214703720093200,8.95809326171875,-0.4837450552076101,-4.526625192016363,-3.8188767356336113
1684214703730117400,8.968117431640625,-1.3119967908024788,-2.7170558961838482,-3.3424405421346424
1684214703740140300,8.978140380859376,-1.650744761532545,-1.2259253580242395,-2.5234862117171284
1684214703750164200,8.988164306640625,-2.0345652151763436,0.9308680604606866,-1.2876362565279007
1684214703760188400,8.9981884765625,-2.4788380916953083,3.6527608752816914,-0.01571750135272741
1684214703770212000,9.008212158203126,-3.0633763479948044,5.2503018698930735,0.702200759127736
1684214703780235300,9.0182353515625,-3.223987765711546,5.075045840752124,0.938454277805984
1684214703790259200,9.02825927734375,-3.0490228284716605,3.786283210542798,0.6428904920250177
1684214703800283100,9.038283203125,-1.9861457599222658,2.176055752837658,0.02354454171657562
1684214703810307300,9.048307373046875,-0.34664369241595266,0.47243572568595404,-0.6855678964957594
1684214703820331300,9.058331298828126,1.0252098934561014,-0.8039373785495758,-1.029425757585466
1684214703830354200,9.068354248046875,2.0339947218120096,-1.606971086257696,-1.1840890805527566
1684214703840378400,9.07837841796875,2.6189842290103433,-1.6793395723760127,-1.2825026930317283
1684214703850402000,9.088402099609375,2.870419826990366,-1.2052759532272814,-1.1127139893859623
1684214703860425000,9.098425048828124,2.8579765250027176,-0.5365899256885052,-0.5903323295310139
1684214703870448000,9.1084482421875,2.241517528307438,0.12255378200113773,-0.22296733612567185
1684214703880472000,9.11847216796875,1.7499159143805503,0.4763385783433914,0.07747136221528053
1684214703890496000,9.12849609375,1.1260966180503367,0.5253250198304653,0.1859843439042568
1684214703900520200,9.138520263671875,0.4769722000718116,0.49045653554499147,0.08923428072333335
1684214703910544100,9.148544189453125,0.17958034034715964,0.24570552989542482,-0.08021276987791061
1684214703920567000,9.158567138671875,0.2789794384658337,0.06499298891425133,-0.35092502299696204
1684214703930591200,9.16859130859375,0.60368368627429,-0.006225158125162124,-0.7020689494416117
1684214703940615200,9.178615234375,0.45522097151279445,-0.11320786150693893,-1.014630339513719
1684214703950639000,9.18863916015625,0.4344119922399521,-0.1468979496628046,-1.3487775384500622
1684214703960662000,9.198662109375,0.25659345566723496,-0.0990004724562168,-1.5746607620224355
1684214703970686200,9.208686279296876,0.43232057291865345,0.026492870128154752,-1.6053800176739692
1684214703980710100,9.218710205078125,0.4687339120259508,0.2852864296555519,-1.8331302041620015
1684214703990734000,9.228734130859374,0.5579506936252117,0.5528109926491975,-1.7638190597876906
1684214704000757200,9.23875732421875,1.0894845049679278,0.849442992183566,-1.7187170585185287
1684214704010781000,9.248781005859374,1.3981775291740894,1.0390367587566376,-1.3492667832717298
1684214704020805000,9.25880517578125,1.4161352106690406,0.9441665179729462,-0.7513838922306895
1684214704030829300,9.268829345703125,1.175136835551262,0.7716711857169866,-0.3140925451621413
1684214704040853000,9.27885302734375,1.0636977372825145,0.3973807769626379,0.017561375653743744
1684214704050876200,9.288876220703125,1.0879331838726998,-0.0626584084868431,0.28175211804956196
1684214704060900000,9.298900146484375,1.0637141038954256,-0.43707448944747446,0.4212757395520806
1684214704070924000,9.308924072265626,0.8172539562404155,-0.7316080553978681,0.27217385010421274
1684214704080948200,9.3189482421875,0.4745569556236267,-0.9820733470410108,-0.06395429351627827
1684214704090971000,9.328970947265624,0.15001177083440123,-0.9351315631240605,-0.13440730140209198
1684214704100995000,9.3389951171875,0.2780535557925701,-0.5545803404092788,0.03077741557955742
1684214704111019000,9.34901904296875,-0.1387794520717114,-0.25887539259195325,-0.2663821149602532
1684214704121043200,9.359043212890626,-0.6211527074694633,-0.022387188374996186,-0.2327241755083203
1684214704131067100,9.369067138671875,-0.8368658346831798,0.09957388842999934,-0.0769695501729846
1684214704141090000,9.379090087890624,-0.8439419836144894,0.12093582541048525,0.14837649778276682
1684214704151114000,9.389114013671875,-0.8445078738689422,0.03815408182740211,0.4076274456888437
1684214704161138200,9.39913818359375,-0.9424012618660926,-0.13358312553763388,0.6042325523287058
1684214704171162000,9.409162109375,-1.030072531056404,-0.3697667938500643,0.6586702449589967
1684214704181185000,9.41918505859375,-1.0691981613297015,-0.5506769032299518,0.7422799637988209
1684214704191209000,9.429208984375,-1.0604233187217265,-0.6749748985499143,0.8920330106317996
1684214704201233200,9.439233154296875,-0.9852748464960605,-0.7805863135784864,1.030688324867189
1684214704211257000,9.449257080078125,-0.9328292044658213,-0.8434972355216741,1.1971464227855204
1684214704221281000,9.459281005859374,-0.9544928278066217,-1.011321653357148,1.3533999375537038
1684214704231304200,9.46930419921875,-1.0661001222491264,-1.0687947681605816,1.4744368852511047
1684214704241328000,9.479328125,-1.1492904466331004,-0.8604460322350264,1.4951701689392327
1684214704251352000,9.48935205078125,-1.2440835305273532,-0.40828035663962364,1.3695856409400702
1684214704261376300,9.499376220703125,-1.255225686788559,0.07213818449378014,1.2354644630029796
1684214704271400200,9.509400146484374,-1.1120366015810519,0.4019184203922748,1.0057663573175668
1684214704281423000,9.519423095703125,-0.9622574704587459,0.5286486112952232,0.6168184776574372
1684214704291447000,9.529447021484375,-0.5475778412360698,0.4135135811179876,0.3358350058928132
1684214704301471000,9.539470947265626,-0.4169312806069851,0.46891222773492336,0.20422873338609931
1684214704311495200,9.5494951171875,-0.29908114625215526,0.5092331322073936,0.11113865401744842
1684214704321518000,9.55951806640625,-0.07997318896837532,0.47055473424494265,0.07546382178515196
1684214704331542000,9.5695419921875,-0.10679667929038404,0.40587563358545303,-0.11630962691456079
1684214704341566200,9.579566162109375,-0.2347755550801754,0.27150749514997,-0.42597237293571233
1684214704351590100,9.589590087890626,-0.5049310510993004,0.2846791114121675,-0.6503045676738023
1684214704361614000,9.599614013671875,-0.8217955451928078,0.3392740404307842,-0.8913494122818112
1684214704371637000,9.609636962890624,-1.0548410616099835,0.33563305357992645,-0.9963444489777088
1684214704381661200,9.6196611328125,-1.296695030643791,0.3203448835551739,-0.9247679900199174
1684214704391685000,9.62968505859375,-1.4820236871182917,0.33878421108722684,-0.6239616274103522
1684214704401709000,9.639708984375,-1.568798299729824,0.3167325382769108,-0.2596270877420902
1684214704411732200,9.649732177734375,-1.6088523699596524,0.27395722638964654,0.07778203559964894
1684214704421756000,9.659755859375,-1.6621897001326082,0.11080080036520958,0.3717299106165767
1684214704431780000,9.669780029296875,-1.6974233644686638,-0.12062836689651012,0.5553419724315405
1684214704441804300,9.67980419921875,-1.6612532960653303,-0.4474772255182266,0.6856997061818838
1684214704451827000,9.689826904296876,-1.4771148722887038,-0.7669546785891056,0.5730170375928283
1684214704461851100,9.69985107421875,-1.2522631837211549,-0.9914011473566293,0.47073768959641454
1684214704471875000,9.709875,-1.1528690357722342,-1.1524515410125256,0.32275983574241396
1684214704481899000,9.71989892578125,-1.1249731669783591,-1.0333563750326633,0.20362959844917058
1684214704491923200,9.729923095703125,-1.116937160038948,-0.7174445054888725,0.04809241525679826
1684214704501946000,9.739946044921876,-1.0274201168514787,-0.5095195479333401,-0.32848698121756315
1684214704511970000,9.749969970703125,-0.9008299189411103,-0.31946693167686463,-0.6603931232288479
1684214704521994200,9.759994140625,-1.0987314951322973,-0.19502865110337733,-0.9170411951601505
1684214704532018200,9.77001806640625,-1.5728315007686615,-0.21509762566387652,-1.216403496441245
1684214704542042000,9.7800419921875,-1.9680188593402503,-0.14514379947185516,-1.1235434264361859
1684214704552065000,9.79006494140625,-2.1809248201787472,-0.014446458503603935,-0.9935679700016975
1684214704562089200,9.800089111328125,-2.007278564321995,0.0203343474984169,-0.900294350759685
1684214704572113200,9.810113037109375,-1.1664473331391811,0.24573475598990915,-0.49881461404561994
1684214704582137000,9.82013720703125,0.06023527299314737,0.8208762383908033,0.3355184872895479
1684214704592160000,9.830159912109375,1.635444316548109,1.6815771221697329,1.4481858610548077
1684214704602184000,9.840183837890624,3.260852392250299,2.587432321926951,2.4662512895837425
1684214704612208000,9.8502080078125,4.238408846388757,3.1520863125830885,3.377828081858158
1684214704622232300,9.860232421875,4.2052559338495135,3.19296426641643,4.077492015984654
1684214704632255000,9.8702548828125,3.6041830145955083,2.590675833892822,3.8223780217528343
1684214704642279200,9.880279052734375,2.3781411905847487,1.7559522719353435,2.8862393274128437
1684214704652303000,9.89030322265625,0.6978638989672065,1.3242594755262136,1.4502128368377685
1684214704662327000,9.9003271484375,-0.8347910742357373,1.04125151219666,-0.15577128420919178
1684214704672351200,9.910351318359375,-2.3695766297265886,0.7184604045331477,-1.5492355211257933
1684214704682374000,9.920373779296876,-3.334069604152441,0.40283261262774467,-2.474253686514497
1684214704692398000,9.930398193359375,-3.4553964747071264,0.019232523736357688,-2.734540407209098
1684214704702422000,9.940422119140624,-2.860965769946575,-0.6245668998271227,-2.479780633242428
1684214704712446200,9.9504462890625,-1.954323949856311,-1.5444418571084737,-1.6213395110890267
1684214704722469000,9.96046923828125,-1.6481532837346196,-2.25128605812788,-0.5864364911362528
1684214704732493000,9.9704931640625,-1.3050665531478822,-2.76731425730288,0.7649035912781953
1684214704742517000,9.98051708984375,-0.1766216184057295,-3.1964941941082476,2.423328385919332
1684214704752541200,9.990541259765624,1.3580652990162372,-3.335930721849203,3.804285315701365
1684214704762565000,10.000565185546876,2.1429307512186466,-2.726113062864542,4.577026468737423
1684214704772588000,10.010588134765625,3.094499800533056,-1.363979491496086,4.653769516678154
1684214704782612000,10.020612060546876,3.913459391647577,0.13349194012284277,4.131629848885536
1684214704792636200,10.03063623046875,4.131612313228845,1.424409702539444,3.2573797477036712
1684214704802660000,10.04066015625,4.119727814167738,2.0143641386687756,1.8760154061645269
1684214704812684000,10.05068408203125,3.275468946623802,2.0617185950398444,0.3245642548158765
1684214704822707200,10.060707275390625,1.393821672052145,1.7378326778769493,-1.255332069772482
1684214704832731100,10.070731201171874,-0.7521955008745193,1.4219056107640267,-2.7600419282123445
1684214704842755000,10.080755126953125,-2.012927529994398,1.3550076650112866,-3.798177938736975
1684214704852779300,10.090779296875,-2.1151159848369656,1.6023697299420832,-4.317122025358676
1684214704862802700,10.100802734375,-1.6562439434707164,1.6458821239322423,-4.512441183841228
1684214704872826600,10.11082666015625,-1.2526187191605567,1.3960422707110642,-4.090509026207029
1684214704882850600,10.1208505859375,-0.8499402741812169,1.2532435730606317,-2.5672405977696178
1684214704892874800,10.130874755859375,-0.23914660977125166,1.4061013079106808,-1.3837082743167877
1684214704902898700,10.140898681640625,0.43812034523859616,1.3747352787882088,-0.5813730702668428
1684214704912921600,10.150921630859376,1.0043722726106643,1.1338859567523003,0.05346241785734892
1684214704922945800,10.16094580078125,1.357464264383167,0.4536386707574129,0.3346872971624136
1684214704932969500,10.170969482421874,1.5315886591456829,-0.35015199279785153,0.5550342216566204
1684214704942993700,10.18099365234375,1.5718307992935179,-1.0064286206185817,0.6727031542256474
1684214704953016800,10.191016845703125,1.4856559061408041,-1.3471651348173617,0.645172757743299
1684214704963040500,10.20104052734375,0.9968669384818524,-1.2569395049691199,0.462489793471992
1684214704973064700,10.211064697265625,0.7423626736462116,-0.9888795199245214,0.32982582860589027
1684214704983088600,10.221088623046874,0.5005914875250309,-0.5831950249969959,0.3900020648881793
1684214704993112600,10.231112548828126,0.4185832855977118,-0.3209229757040739,0.4490975201964378
1684214705003135700,10.2411357421875,0.2754957610685378,-0.2463338909268379,0.4631190312862396
1684214705013159700,10.25115966796875,0.20040924816317854,-0.29208208114504813,0.34804303781986234
1684214705023183600,10.26118359375,0.26011691708564755,-0.39313890160918236,0.3872214942589402
1684214705033207600,10.27120751953125,0.36674653271343555,-0.5108984350711107,0.40459933003932236
1684214705043230700,10.281230712890626,0.5183586514165625,-0.5887140806794167,0.5127993002563714
1684214705053254700,10.291254638671875,0.60695112710502,-0.6289630889594554,0.6047209203675389
1684214705063278600,10.301278564453124,0.6625076311647892,-0.6700999859899283,0.7892986123442649
1684214705073302800,10.311302734375,0.7257108140528201,-0.6238344938993453,0.98762309012264
1684214705083326500,10.321326416015625,0.7482698518633842,-0.5502262368530034,1.1593912771478294
1684214705093349600,10.331349609375,0.7903530898332596,-0.5112941563904285,1.3066396476835012
1684214705103373800,10.341373779296875,0.7906278151214122,-0.4492939195513725,1.2965262499481438
1684214705113397500,10.3513974609375,0.6708814917564392,-0.422651411819458,1.2444240145280956
1684214705123421700,10.361421630859375,0.5363666383266449,-0.48185588046014305,1.1216291172474622
1684214705133444900,10.37144482421875,0.4135702797412872,-0.5951373917251825,0.900874196474254
1684214705143468500,10.381468505859376,0.29692659856677056,-0.684668025046587,0.5973392856836318
1684214705153492700,10.39149267578125,0.11535481040775775,-0.7673182512044906,0.19740385580211878
1684214705163516700,10.4015166015625,-0.06328618042978923,-0.9030413113802671,-0.21529607084542512
1684214705173540600,10.41154052734375,-0.23481997874379157,-0.8591612531214952,-0.6273755275070667
1684214705183563800,10.421563720703125,-0.426301166498661,-0.7157008766919374,-0.8944199057683349
1684214705193587700,10.431587646484376,-0.41492753956913947,-0.5003086519956589,-1.0390610164150595
1684214705203611600,10.441611572265625,-0.39334344773795454,-0.29405834965407845,-1.2559537088021635
1684214705213635600,10.451635498046874,0.025205168405175206,-0.2701917363762855,-1.2358975937232375
1684214705223659800,10.46165966796875,0.571885074420832,-0.2625397603183985,-1.0432952929839492
1684214705233682700,10.4716826171875,0.9465244792759417,-0.2925274868249893,-0.7628627331003546
1684214705243706600,10.48170654296875,1.0638356844484806,-0.24800562353134153,-0.4595557858467102
1684214705253730800,10.491730712890625,1.0055524223059416,-0.10469313113987445,-0.2439493338778615
1684214705263754500,10.50175439453125,1.0052350269198418,0.08418108898699284,0.04489712634682655
1684214705273777700,10.511777587890625,1.0985614723276347,0.2565022337198257,0.3784229785144329
1684214705283801900,10.5218017578125,1.2265507964462041,0.3699900812119245,0.569608105932176
1684214705293825500,10.531825439453126,1.26357908911407,0.3883277019351721,0.6659361443087458
1684214705303849700,10.541849609375,1.1262322271287442,0.25839491559863087,0.659654579821229
1684214705313873700,10.551873779296875,0.9443547340214252,0.10858487788140773,0.5346288547486067
1684214705323896600,10.561896484375,0.9586129764765501,-0.015026304218173026,0.3686363285154104
1684214705333920800,10.571920654296875,0.960104603273794,-0.21974048303365706,0.37148528820574284
1684214705343944700,10.58194482421875,0.8600782949011773,-0.44759179180860514,0.1955550130650401
1684214705353968600,10.59196875,0.7578384751975535,-0.5357353546857834,0.02185585797727108
1684214705363991800,10.60199169921875,0.5860644429534674,-0.45198272024393077,-0.1201543196439743
1684214705374015500,10.612015380859376,0.36679917621612546,-0.4964268421262502,-0.19969108995646237
1684214705384039700,10.622039794921875,-0.18550730097703635,-0.620049130141735,-0.3517562131240964
1684214705394063600,10.632063720703124,0.45140060950703914,-0.4755062191724777,-0.08952274227589369
1684214705404087800,10.642087890625,0.2386656213212758,-0.44260406652390955,0.09959230086952447
1684214705414110700,10.65211083984375,-0.06443411292247474,-0.32215748593509197,0.14160773430019616
1684214705424134700,10.662134765625,0.061352586585283274,-0.16926351072788237,0.24485563506782054
1684214705434158800,10.672158935546875,0.20558044025599956,-0.2117781258523464,0.2413172318086028
1684214705444182500,10.6821826171875,0.38010165231637655,-0.17003917127549648,0.21935002241134643
1684214705454205700,10.692205810546875,0.4462385505687445,-0.056439680102467533,0.2151636766374111
1684214705464229600,10.702229736328125,0.4679061924975365,-0.05452887804508209,0.24734803640544414
1684214705474253600,10.712253662109376,0.6118541332483292,-0.05344225185215473,0.34066695609390735
1684214705484277800,10.72227783203125,0.6577146247345954,-0.30303017613887784,0.3886494812354445
1684214705494301700,10.7323017578125,0.702680067077279,-0.5463444269835949,0.44018210007399317
1684214705504324600,10.74232470703125,0.8732674468200653,-0.7654249848037957,0.565012887096405
1684214705514348800,10.752348876953125,1.002309421796724,-0.9624538698136806,0.5347749852210283
1684214705524372500,10.76237255859375,1.0588766007363795,-1.0966799694299698,0.34627369005978104
1684214705534396700,10.772396728515625,0.8945552225857972,-1.0922644910752772,0.09928367331176996
1684214705544420600,10.782420654296875,0.5543547880250961,-0.9266799611210822,-0.07688742484748363
1684214705554443500,10.792443603515625,0.1902070031005889,-0.6662257749050855,-0.24311142174899578
1684214705564467700,10.8024677734375,-0.18613113196380435,-0.20957155571877956,-0.2774240257173776
1684214705574491600,10.81249169921875,-0.35500118639469147,0.1898532942920923,-0.20103958195596933
1684214705584515600,10.822515625,-0.2318377115299925,0.42747664001882074,0.2821817416384816
1684214705594538800,10.832538818359374,-0.07360931649226694,0.6998124026864767,0.8573492352634667
1684214705604562700,10.842562744140626,0.12492168017625808,0.9391232631087303,1.4879507390797138
1684214705614586600,10.852586669921875,0.4291675887804478,0.923385011228919,1.9517147902712224
1684214705624610600,10.862610595703124,0.5660105928968638,0.5951560964256525,1.893492026144266
1684214705634634800,10.872634765625,0.6131722301095723,0.15039923578202724,1.4531611652493477
1684214705644657700,10.88265771484375,0.39628012224435805,-0.35168051753938195,0.8397279461160302
1684214705654681600,10.892681640625,-0.01583995868861675,-0.7714268555670977,0.14462269820719956
1684214705664705800,10.902705810546875,-0.4409621445357799,-0.9742717333793639,-0.41618864554613827
1684214705674729500,10.9127294921875,-0.6957838778227567,-1.0511217488259077,-0.7348232180520892
1684214705684752600,10.922752685546875,-0.6919043329756707,-1.153817568668723,-0.7046171726197004
1684214705694776800,10.93277685546875,-0.6317512583732605,-1.1525339585989713,-0.32027123379707334
1684214705704800500,10.942800537109376,-0.36272505864501,-1.0068056372374297,0.22404840936064718
1684214705714824700,10.95282470703125,0.13117548900716938,-1.0098515808045863,0.48307431633919473
1684214705724848600,10.9628486328125,0.3244640093117952,-1.1269488509655,0.3982113825678825
1684214705734871600,10.97287158203125,0.1898708299487829,-1.220482290187478,0.15792290928512812
1684214705744895700,10.982895751953125,0.004008651119470596,-1.3300351363182068,-0.20143734910190103
1684214705754919700,10.992919677734376,-0.1778641658127308,-1.5189777455061673,-0.684451459686458
1684214705764943600,11.002943603515625,-0.3519102346420288,-1.7602473387807607,-1.1544017982974648
1684214705774966800,11.012966796875,-0.34400866773724553,-1.9052496839553117,-1.4399980245545505
1684214705784990700,11.02299072265625,-0.1127110087675508,-1.9583336238890885,-1.499114230389893
1684214705795014700,11.0330146484375,0.09969722254872322,-1.9814380206227302,-1.4790630837470293
1684214705805038600,11.04303857421875,0.16564415118694303,-1.920420949602127,-1.4047154065102339
1684214705815062800,11.053062744140625,0.17331307837963103,-1.8435721031993626,-1.3586737863034009
1684214705825085700,11.063085693359374,0.23444237760305403,-1.777427021640539,-1.3223328913778065
1684214705835109600,11.073109619140626,0.35288291559908536,-1.7494243314713238,-1.2561892711237073
1684214705845133800,11.0831337890625,0.5688041326055303,-1.6776280922830105,-1.1547548495188356
1684214705855157500,11.093157470703124,0.9087503366768359,-1.6708885548949242,-0.9015706543058156
1684214705865181200,11.10318115234375,1.2417758381068706,-1.778410187458992,-0.4541021966159344
1684214705875204400,11.113204345703124,1.4744249025523661,-1.846055736708641,0.20584756675958632
1684214705885228300,11.123228271484376,1.6454747121751307,-1.9235002109169959,0.850174229067564
1684214705895252200,11.133252197265625,1.6393500918149948,-1.6641250521093607,1.883659783437848
1684214705905276400,11.1432763671875,1.5533400338351726,-1.3682698821663857,2.767627561035752
1684214705915299300,11.15329931640625,1.630382356983423,-1.5191484258979557,3.2273633796244856
1684214705925323300,11.1633232421875,1.7636276288688182,-1.9199439797401427,3.481275304590165
1684214705935347200,11.17334716796875,1.8245605287373066,-2.797456882110238,2.9132705422013996
1684214705945371400,11.183371337890625,1.5814415082037447,-3.4995541808634996,2.357078090420365
1684214705955395300,11.193395263671874,0.9100468062281608,-2.9045319399505853,2.19723765707612
1684214705965418200,11.203418212890625,-0.5426923707494512,-0.6173164903074503,2.5683026740431782
1684214705975442400,11.2134423828125,-2.813893053126335,3.585179623439908,3.2846178832411765
1684214705985466400,11.22346630859375,-4.3462768081724645,9.5323613496989,4.909959323447943
1684214705995490300,11.233490234375,-4.349686908876896,12.7386632365942,4.6064147680461405
1684214706005513200,11.24351318359375,-4.837123219817877,15.291511151874065,2.4361352605223656
1684214706015537200,11.253537109375,-5.068894332385063,17.91215191591978,0.729110977885127
1684214706025561300,11.263561279296875,-3.4861762283742426,15.420978074264525,-1.278812314081192
1684214706035585300,11.273585205078126,0.38282793547511096,5.94709346345365,-3.3378537988662718
1684214706045609200,11.283609130859375,3.3999650948643683,-0.6850117239177227,-5.535968238776922
1684214706055632400,11.29363232421875,3.1499042923688885,-4.2359728514134884,-6.3260021796584125
1684214706065656300,11.30365625,1.7391875996172428,-6.376634634786844,-5.675535699421167
1684214706075680300,11.31368017578125,0.8650900586485862,-7.293899117308855,-4.873141750921309
1684214706085704400,11.323704345703124,0.940063758829236,-6.7386033221065995,-3.250108003135025
1684214706095728400,11.333728271484375,2.126481866851449,-5.817797805976867,-1.2006859950885176
1684214706105751300,11.343751220703124,3.0090239955604074,-4.664470651173591,0.8208405825555324
1684214706115775200,11.353775146484375,3.1165958970069885,-3.470184878516197,2.383705108322203
1684214706125799400,11.36379931640625,2.4494810643076894,-2.600833070769906,3.237686912979185
1684214706135823400,11.3738232421875,1.3536077350854874,-1.4437912793576717,3.566527237679064
1684214706145846300,11.38384619140625,-0.021649540016520766,0.05499065033793449,3.926682738097012
1684214706155870200,11.3938701171875,-1.5103390964984893,1.3644336650043725,3.7486034682288762
1684214706165894100,11.40389404296875,-2.6762802336812017,2.0812205833673474,2.505551911097765
1684214706175918300,11.41391845703125,-2.940314616471529,2.509841132724285,0.7804106647506356
1684214706185942500,11.423942626953124,-2.537029583901167,2.8291157566994425,-0.4612582058504224
1684214706195965200,11.433965087890625,-1.9926000506281851,2.563527714726329,-1.4878516626194118
1684214706205989400,11.4439892578125,-1.0481938786804676,1.813617694440484,-2.1215064165264366
1684214706216013300,11.454013427734376,0.0823311137387529,1.0442968712419272,-2.174112509815395
1684214706226037200,11.464037353515625,0.7583656408768147,0.6143856975525617,-1.9370102653533219
1684214706236060400,11.474060302734374,0.7662275333583355,0.5269558359026909,-1.4240677572339773
1684214706246084000,11.484083984375,0.7880570878505706,0.16567513084709642,-1.4390505145713686
1684214706256108300,11.4941083984375,1.0686533138632774,0.13056056284606457,-1.9037293425202368
1684214706266132500,11.504132568359376,1.0780933423817156,0.026623803031444546,-1.7385832039833067
1684214706276156400,11.514156494140625,0.8453565996527671,-0.33585634094178674,-1.721392999729514
1684214706286179300,11.524179443359374,0.8829775975167751,-0.4842348845511675,-1.7096666138395666
1684214706296203300,11.534203369140625,0.9710755676865577,-0.6935428208976984,-1.7139695717304944
1684214706306227200,11.544227294921875,0.7783564356345682,-0.9844441678255795,-1.8366630544632672
1684214706316251400,11.55425146484375,0.9058452628850936,-0.994257121309638,-1.5781316530033944
1684214706326275300,11.564275390625,0.7623650127112865,-0.59258712272048,-1.1386088936209677
1684214706336298200,11.57429833984375,0.5472071812927722,0.11335399197936058,-0.6606155338078736
1684214706346322200,11.584322265625,0.4086029396574944,0.7139753680735826,-0.4178568710193038
1684214706356346400,11.594346435546875,0.3468436719674617,1.0868927349090576,-0.22519173417687416
1684214706366370300,11.604370361328124,0.2975474338788539,1.1419622957020998,-0.20387363633811473
1684214706376393200,11.614393310546875,0.16794840954132378,0.9430512502074241,-0.2827060577735305
1684214706386417400,11.62441748046875,0.006530278551578521,0.6487222669184207,-0.3544096502423286
1684214706396441300,11.63444140625,-0.17755561132021247,0.41084933034479615,-0.42439504061639305
1684214706406465300,11.64446533203125,-0.3724958534877747,0.32562896143794057,-0.4608122156485915
1684214706416489500,11.654489501953124,-0.46749936526231467,0.2741319984346628,-0.3776052323907614
1684214706426512100,11.66451220703125,-0.4981926096897572,0.19127543604969977,-0.2204422015622258
1684214706436536300,11.674536376953125,-0.41601833048053083,0.05837737016677856,-0.015082710580527781
1684214706446560300,11.684560302734376,-0.21927995284982024,-0.1336345634639263,0.12217939573079346
1684214706456584200,11.694584228515625,-0.09142952574528754,-0.26848434793651105,0.1505327990338206
1684214706466608400,11.7046083984375,-0.08920739271640778,-0.30993162609040736,0.04687281033396721
1684214706476631300,11.71463134765625,-0.09010894466601312,-0.36324995930194853,-0.03510784599930048
1684214706486655200,11.7246552734375,-0.09219787976928055,-0.35275428425073624,-0.12290098800361156
1684214706496679400,11.734679443359376,-0.046803836750984186,-0.29771336503028867,-0.23904665652811527
1684214706506703400,11.744703369140625,0.022537995022535322,-0.13559154275059698,-0.17045885799229143
1684214706516726300,11.754726318359374,0.1293828243035823,0.12200725403428077,0.04767886601984501
1684214706526750200,11.764750244140625,0.07575279479436577,0.31018413954675195,0.12393442270457744
1684214706536774400,11.7747744140625,-0.1693839222371578,0.44023675287067887,0.12663608287870884
1684214706546798300,11.78479833984375,-0.347474882543087,0.5135831441104411,-0.11592442698925733
1684214706556822300,11.794822265625,-0.4431856658041477,0.40334348475933074,-0.278969501593709
1684214706566845400,11.804845458984374,-0.5905740293323993,0.3890297127246857,-0.46144846772551534
1684214706576869400,11.814869384765625,-0.7643734299242496,0.3503589135468006,-0.7198267244502902
1684214706586893300,11.824893310546875,-0.8948911765418947,0.3762818748325109,-0.8606590904638171
1684214706596917500,11.83491748046875,-0.9829764333605766,0.3716547995537519,-0.8225181603789329
1684214706606941200,11.844941162109375,-1.0416389040790497,0.261391759327054,-0.5890577795505524
1684214706616964400,11.85496435546875,-0.9784884742915629,-0.003133037328720093,-0.2358820550173521
1684214706626988300,11.86498828125,-0.8571616768021136,-0.35530922943055626,0.10381547152251004
1684214706637012200,11.87501220703125,-0.8360394668616354,-0.6673620854586363,0.33280133728533984
1684214706647036400,11.885036376953124,-0.8356127658821642,-1.0573083285063505,0.5106850845813751
1684214706657059000,11.89505908203125,-1.024714803415537,-1.4822154102981089,0.7095566748484968
1684214706667083300,11.905083251953124,-1.2285785028815268,-1.7486153531759976,0.924153365252912
1684214706677107500,11.915107421875,-1.2578092735409736,-1.6855261520564555,1.0921724288776515
1684214706687131400,11.92513134765625,-1.175932954365015,-1.1009159995645283,1.3715110560446977
1684214706697155300,11.9351552734375,-1.1134920610863714,-0.10160860912799835,1.7773764604970812
1684214706707178200,11.94517822265625,-0.909375921229273,0.98255966925323,1.9502172451898454
1684214706717202400,11.955202392578125,-0.6605389614403248,1.776136397308111,1.6189572921276092
1684214706727226400,11.965226318359376,-0.40649537291899324,1.8107091135174036,1.0265084088340402
1684214706737250300,11.975250244140625,-0.2446576282776892,1.165399285390973,0.41588703225106
1684214706747274500,11.9852744140625,-0.40452304993271826,0.34707974574565886,-0.21247399916201828
1684214706757297200,11.995297119140625,-0.7938228117704391,-0.33304537517428395,-0.7188637246370315
1684214706767321300,12.0053212890625,-1.1946880698479712,-0.7917413293212652,-0.9894707638159393
1684214706777345500,12.015345458984376,-1.357298260166496,-1.0215560471236704,-1.030344918256998
1684214706787369200,12.025369140625,-1.3343863172650337,-1.0216963323771953,-0.8910761482983827
1684214706797392400,12.035392333984374,-1.2491782233178614,-0.8056967894375324,-0.6558668779760599
1684214706807416300,12.045416259765625,-1.1393487522028385,-0.5570633893966674,-0.4705570723325014
1684214706817440300,12.055440185546875,-0.858119050592184,-0.3589513853251934,-0.30532734716534615
1684214706827464400,12.06546435546875,-0.5848773520607501,-0.32435762632787224,-0.2240457790121436
1684214706837488400,12.07548828125,-0.5086497793614864,-0.35714462816417214,-0.17798691540956496
1684214706847511300,12.08551123046875,-0.6282990720927715,-0.41685763084888455,-0.164885149513185
1684214706857535500,12.095535400390625,-0.9407117013439535,-0.5153419704765081,-0.05084171396493911
1684214706867560000,12.105559814453125,-1.490990252906084,-0.546258502265811,0.15211422300636768
1684214706877584000,12.115583984375,-1.9462823899589479,-0.5093634805887938,0.3614332652688026
1684214706887608000,12.125608154296875,-2.050729729644209,-0.35399990039765833,0.49042263327538965
1684214706897631000,12.135630859375,-2.1166483089707793,-0.2780401117891073,0.8436322600781917
1684214706907655000,12.145655029296876,-2.139195948604494,-0.17308043866753578,1.1141606810629368
1684214706917678800,12.155678955078125,-1.9516636446058748,-0.03289046221077442,1.277922671765089
1684214706927702800,12.165702880859374,-1.6530663363479077,0.06266717631518841,1.3663552807167172
1684214706937726000,12.175725830078125,-1.0549110581062733,0.16151625760197638,1.5686898709192871
1684214706947750000,12.18575,-0.5068469677232206,0.24671909085214136,1.7626298500031232
1684214706957773800,12.19577392578125,0.14508783150091767,0.2912368624925613,2.3059128435894847
1684214706967798000,12.205798095703125,1.0069079285681246,0.2740758843332529,2.923269958168268
1684214706977822000,12.215822021484374,2.002730984020233,0.3461410035908222,3.5440751673743125
1684214706987844900,12.225844970703125,2.559239077621698,0.37230186528563497,4.125801581123471
1684214706997869000,12.235869140625,2.441710430306196,0.39559097093641754,4.223924101701378
1684214707007892700,12.245892822265626,2.0614310102701188,0.4418687379866838,3.6379642881661653
1684214707017917000,12.2559169921875,1.5767125799857078,0.5662304461926222,2.435743630856275
1684214707027940900,12.26594091796875,1.1032323136828839,0.7929711633771658,0.9631903673946857
1684214707037963800,12.2759638671875,0.5822479534052312,1.2131149762898683,-0.4068807189747691
1684214707047988000,12.285988037109375,-0.13685411003232,1.5853917071342467,-1.668261129000783
1684214707058012000,12.296011962890624,-1.0139937951758504,1.6536194401860236,-2.5753248277649283
1684214707068035800,12.306035888671875,-2.399876490922272,1.8445400714486837,-3.157565328516066
1684214707078059000,12.31605908203125,-3.185865248066187,1.842956017127633,-2.989300765697658
1684214707088083000,12.3260830078125,-2.622819569389522,1.5880664793014525,-2.2555220882624387
1684214707098107000,12.33610693359375,-1.385915721233189,1.412038881266117,-1.14224169716537
1684214707108130800,12.346130859375,-0.351290641438961,1.2861089008301496,0.06581336538642645
1684214707118155000,12.356155029296875,0.39339375315308567,1.0216162528783082,0.7153203529417514
1684214707128178000,12.366177978515625,1.1793816335141658,0.8729232364922761,0.7422551216185093
1684214707138201900,12.376201904296876,2.145146089180559,0.8415683132857084,0.7162894902348518
1684214707148226000,12.38622607421875,2.71602655313611,0.6730360394418239,0.9917223421350121
1684214707158249700,12.396249755859374,2.614932615531981,0.48663551595211024,1.0450108647301792
1684214707168274000,12.40627392578125,2.2302469233609736,0.2777829221576452,1.1120169470325112
1684214707178297000,12.416297119140625,1.4783506976939738,0.4126607636809349,0.5992956804484129
1684214707188320800,12.42632080078125,0.4857599021613598,0.7841390376240015,-0.3157061178386211
1684214707198345000,12.436344970703125,-0.3342575274430215,1.306556061053276,-1.131573880417645
1684214707208369000,12.446368896484374,-1.0067885399721563,1.4214374087303876,-1.6539888580203055
1684214707218392800,12.456392822265625,-1.6334708245180547,1.1929869650185108,-1.6474293533742428
1684214707228416000,12.466416015625,-2.070360166656971,0.7152174770891666,-1.479061622442305
1684214707238440000,12.47643994140625,-1.7836311369776725,0.10762450841665268,-1.0720783198758959
1684214707248464000,12.4864638671875,-1.0538543886601923,-0.4299538437873125,-0.477820049072802
1684214707258488000,12.496488037109375,0.7078676988482475,-0.8138654828459024,0.5762012205868959
1684214707268510700,12.5065107421875,2.1712556590795518,-0.9830939222604036,0.8946379324331879
1684214707278535000,12.516534912109375,2.570716749447584,-1.2895914822489023,0.8955214372694492
1684214707288558800,12.526558837890626,2.736358562546968,-1.3768617694228886,0.9550576220825314
1684214707298583000,12.5365830078125,2.659925311207771,-1.278812314081192,0.859810656940937
1684214707308607000,12.54660693359375,2.560623809978366,-1.1174907022684812,0.6636877808600664
1684214707318630000,12.5566298828125,2.638567465880513,-0.9330354676276444,0.41524142782390117
