time,seconds_elapsed,z,y,x
1684208203967794000,0.0327939453125,0.19908347945213317,0.30092122116088865,-0.1161415768712759
1684208203977819000,0.04281884765625,0.14755381975565104,0.279411400142312,0.053413610279560084
1684208203987844000,0.052843994140625,0.06466978484187275,0.26707915731370446,0.08292845857739448
1684208203997868000,0.062867919921875,0.08748604881651699,0.24594986004531383,0.08980068243443966
1684208204007893000,0.07289306640625,0.179292810376361,0.17932897766828537,0.04772913490235805
1684208204017918200,0.082918212890625,0.1909609998056665,0.17774083169400692,0.07126900044381618
1684208204027943200,0.092943115234375,0.1899854693043977,0.17906243568658828,-0.029371640434861183
1684208204037966800,0.102966796875,0.07180215747244656,0.10995207458138465,-0.18026070556044577
1684208204047992000,0.112991943359375,-0.06719539432935416,0.09350596669316291,-0.24311025270521638
1684208204058017000,0.12301708984375,-0.13991930628921836,0.07232932315170765,-0.34350773247778416
1684208204068042000,0.1330419921875,-0.07512976752519607,0.18574293636381625,-0.37789749333560463
1684208204078067000,0.14306689453125,0.042364429531432685,0.08384206629097461,-0.41379122901558874
1684208204088091100,0.153091064453125,0.11568623431921005,0.054773208194971085,-0.35775077736377714
1684208204098116000,0.1631162109375,0.1340799691438675,-0.012508768439292908,-0.2595575296372175
1684208204108141000,0.17314111328125,0.16409578923378138,-0.09841887317597865,-0.3236883487641811
1684208204118166000,0.183166015625,0.20252518087122587,-0.22898118958771227,-0.15761398946642874
1684208204128190000,0.19318994140625,0.3068751611292362,-0.3655442077189684,0.1205243220001459
1684208204138215200,0.203215087890625,0.3727320733964443,-0.26673896557390686,0.39113866770267486
1684208204148240100,0.213240234375,0.37575405156612396,0.07204115386009216,0.6021352877885103
1684208204158265000,0.22326513671875,0.3786054224092513,0.16316870098412037,-0.02794306893646717
1684208204168289000,0.2332890625,0.32609190277457234,0.047374914637207985,-0.6016612405359745
1684208204178314000,0.24331396484375,0.17398997299419716,0.10633505312800406,-0.517063387441635
1684208204188339000,0.2533388671875,0.22565818264484405,-0.7076140163481235,-0.7552928823679685
1684208204198364000,0.263364013671875,0.3159598003387451,-1.9860475602447984,-1.0302969874620438
1684208204208389000,0.27338916015625,0.17277298015356063,-2.672428234428167,-0.9782371298789977
1684208204218413000,0.2834130859375,0.14153262323737142,-3.0442133823633193,-1.0313210698127746
1684208204228438000,0.29343798828125,0.06815176347242669,-3.173805976960063,-1.1593658504456281
1684208204238463200,0.303463134765625,-0.14887188008427618,-2.832185081142187,-1.259943947482109
1684208204248488000,0.313488037109375,-0.028646212237142026,-2.5049556987702846,-1.1572948893904684
1684208204258512100,0.32351220703125,0.3785047750463709,-1.132687102356553,-1.546256213054061
1684208204268537000,0.333537109375,0.08270283312797545,0.25902035402059553,-1.869601447468996
1684208204278562000,0.34356201171875,-0.029330139380693433,0.5900631572008133,-1.6454267813801764
1684208204288587000,0.3535869140625,-0.03154902100656182,-0.08273907348513602,-0.714588239274919
1684208204298612200,0.3636123046875,-0.0722783966820687,-0.8575129013925791,-0.4757359362751245
1684208204308636000,0.373635986328125,0.12163557117767632,-1.2762731509923935,-1.4080141557946801
1684208204318660900,0.383660888671875,0.3517289597909897,-1.0396516757845877,-1.5286206031203269
1684208204328686000,0.39368603515625,0.33910211792998013,-0.15557166998386382,-1.3175786825880407
1684208204338711000,0.4037109375,-0.04641929441280663,0.016900281396508215,-0.867891672065854
1684208204348735000,0.41373486328125,-0.12531221386380492,0.02821837874650955,-1.046512501464784
1684208204358760200,0.42376025390625,0.13888232792429625,0.5055015444636345,-0.5297060113936662
1684208204368785200,0.43378515625,0.2475542995672673,0.726380676138401,-0.17164572968930006
1684208204378810000,0.44381005859375,0.28145189299397166,0.7917413293212652,-0.5161547481641173
1684208204388834000,0.453833984375,0.17189495521001516,0.902286109098792,-0.8578104230344294
1684208204398859000,0.46385888671875,0.05324402586631476,1.0082657729178666,-1.0502280148565768
1684208204408884000,0.473884033203125,0.027160540256649254,0.9199912771373987,-1.0914803549602627
1684208204418909200,0.4839091796875,-0.14385419805273414,0.8254279103457928,-1.2324588514462114
1684208204428934100,0.49393408203125,-0.2241151909865439,0.792892252922058,-1.3985539612710476
1684208204438958000,0.5039580078125,-0.19687047957777976,0.9049965371012687,-1.4247586621075867
1684208204448983000,0.513983154296875,-0.26196985147595403,1.1041092426478862,-1.116672079361975
1684208204459008000,0.524008056640625,-0.3995020799655467,1.4596440975278615,-0.6433759374544024
1684208204469033000,0.534032958984375,-0.12978504842892288,1.5066419955462216,0.024740473502874373
1684208204479057200,0.54405712890625,-0.07887070761919021,1.3844634765982626,0.8718506388247013
1684208204489082000,0.55408203125,-0.14314356556534766,0.576273701301217,1.187141746121645
1684208204499107000,0.564107177734375,-0.5728441652439534,-1.361424546316266,0.7866019206061958
1684208204509132000,0.574132080078125,-0.5228220970988273,-3.3011177671432494,0.40269817259311674
1684208204519156000,0.584156005859375,-0.20975231911316514,-2.223445280522108,0.3740168525099754
1684208204529181000,0.594180908203125,-0.017009586989879606,0.4515034122943878,0.5757891326546669
1684208204539206100,0.6042060546875,0.30365671053938564,1.7649761208683252,1.0896065239124
1684208204549231000,0.614231201171875,0.863389026884362,4.199822510623932,2.385641044820845
1684208204559256000,0.624256103515625,0.6325109176341444,10.06825160268545,4.60004669431895
1684208204569280300,0.6342802734375,1.145538985145092,7.644386041149496,1.6381388163290918
1684208204579305200,0.64430517578125,1.2646069708570837,0.6000275018543004,-0.3104857528418302
1684208204589330000,0.654329833984375,-0.21936638902425765,0.3716559685975313,-0.12514584432095288
1684208204599355000,0.66435498046875,-0.2287174240849912,0.037138767305016515,-0.690818656630814
1684208204609379000,0.674379150390625,-0.1772142505366355,-0.2736865927547216,-0.8902329754725098
1684208204619404000,0.684404052734375,-0.6636462798058986,-0.0930576384037733,-1.0436956904783845
1684208204629429000,0.694428955078125,-0.4627776705026626,-0.2198912896811962,-0.7368027014315128
1684208204639454200,0.7044541015625,-0.026723171752691267,-0.47226153816282745,-0.30238954014778135
1684208204649479200,0.714479248046875,0.33218715090975165,-0.6136188048332929,0.23811171376556156
1684208204659503000,0.724503173828125,0.6702221510648727,-0.8891817128539085,0.6822104027613997
1684208204669528000,0.734528076171875,0.8626888427257537,-0.9084066378057003,1.2516017972029745
1684208204679553000,0.744552978515625,0.9404828610241412,-0.7678355530768632,1.6793056701064109
1684208204689578000,0.754577880859375,0.8667104994572699,-0.628628157916665,2.049832780804485
1684208204699602200,0.764602294921875,0.7324993051491677,-0.42222938701510426,1.7725773896522818
1684208204709627100,0.774627197265625,0.23618067263774573,-0.1725128679126501,1.1128231488488614
1684208204719652000,0.784652099609375,-0.47903453942909835,0.17544833684265612,0.7212786768242716
1684208204729677000,0.794677001953125,-0.9409539856672287,0.3470604565232992,0.4960357969820499
1684208204739702000,0.804701904296875,-0.9931577087003737,0.8797311629414558,0.005962123274803161
1684208204749726000,0.814725830078125,-0.7448307442601769,0.4434633137017488,-0.36016017659306526
1684208204759751200,0.824751220703125,-0.6559118861615657,0.24077859488725661,-0.2898959692776203
1684208204769776000,0.834776123046875,-0.37115985564365983,0.04821545711457729,-0.24944296285808085
1684208204779801000,0.844801025390625,-0.06472082090936601,-0.30760990514457226,-0.04086290239468217
1684208204789825000,0.854824951171875,0.10382745422124862,-0.6613830110490322,0.2099038564130664
1684208204799850000,0.86485009765625,0.09591785014048218,-0.9526268878042697,0.28424598069190976
1684208204809875000,0.874875,0.04202113251909614,-1.1180962669461965,0.3666366791307926
1684208204819900200,0.884900146484375,-0.07532119844406843,-1.1220721848398447,0.5479143066488206
1684208204829925000,0.894925048828125,-0.31647067247033117,-0.9844646260917186,0.7643066482983529
1684208204839949000,0.904948974609375,-0.6603298487342893,-0.7624404160350561,0.942559082776308
1684208204849974300,0.914974365234375,-0.7711303568385541,-0.46484395538270473,1.0050943032748996
1684208204859999000,0.9249990234375,-0.8150150912724435,-0.46149990565180776,0.8251888408929109
1684208204870024000,0.93502392578125,-0.7882268914595246,-0.5854261450499296,0.64117506640926
1684208204880048000,0.945048095703125,-0.8766763054154812,-0.485444260340929,0.5817470181457698
1684208204890073000,0.955072998046875,-0.9490567742325365,-0.051805006039142606,0.6961671780519187
1684208204900098000,0.96509814453125,-1.1884686108112335,0.39007249977588654,0.6741627053841948
1684208204910123000,0.975123046875,-1.780960018072277,0.6315262174457311,0.398033395652473
1684208204920148200,0.985148193359375,-2.4148810217000545,0.7301777303338051,-0.2756476636946201
1684208204930172000,0.995171875,-2.324303363543749,0.7581091088324785,-0.6647659314855933
1684208204940196900,1.00519677734375,-1.7947277005314826,0.734676210796833,-1.1096423268556594
1684208204950222000,1.01522216796875,-1.0627721468701958,0.46268356247842307,-1.4882088054940104
1684208204960247000,1.0252470703125,-0.4538194341517985,0.08008475958406924,-1.639436454924196
1684208204970271200,1.035271240234375,-0.24898528221845626,-0.39392566807270046,-1.499711757891625
1684208204980296200,1.045296142578125,-0.44117008819803594,-0.6829489461690187,-0.845634832072258
1684208204990321200,1.055321044921875,-0.9333949485898018,-0.5975140577286482,-0.06677724198251962
1684208205000345900,1.065345947265625,-1.2736954094588755,-0.5460024816781283,0.6809618640050291
1684208205010370000,1.0753701171875,-1.1443161653518676,-0.5971650981605052,1.145555644018948
1684208205020395000,1.08539501953125,-0.26702567356079815,-0.7955214323818683,1.4188023840516806
1684208205030420000,1.095419921875,0.3924468276917934,-0.8700427126199006,1.6546712873265146
1684208205040445200,1.105445068359375,0.33546412675380705,-0.4028372888028621,2.265101379121095
1684208205050470100,1.11547021484375,-0.0902142316713929,0.48618017340004444,2.9900346329301595
1684208205060493800,1.125493896484375,-0.3161059308111667,0.2453536477178335,3.2603371362045404
1684208205070519000,1.13551904296875,-0.22870821786522863,-0.3718096978545189,3.5879315524965523
1684208205080544000,1.1455439453125,-0.5432908846318721,-0.49547231788039203,4.033704604445398
1684208205090569000,1.15556884765625,-0.9291295462302863,-0.10644318967759608,3.729032798579335
1684208205100593200,1.16559326171875,-0.7974775348857045,0.551543749192357,2.964713729190826
1684208205110618000,1.1756181640625,-0.2086333980858326,1.1108353360325098,2.3850433711886403
1684208205120643000,1.18564306640625,0.19559651411920784,1.4722680167794227,1.7483521721951663
1684208205130668300,1.195668212890625,0.22287235131859778,1.7180518726080656,1.1603384948700666
1684208205140692000,1.20569189453125,0.1588403163909912,1.812797025707364,0.7293959323063492
1684208205150717000,1.215717041015625,0.0606074673064053,1.782395457702875,0.4813895781226456
1684208205160742100,1.2257421875,-0.41249329815953967,1.8365490726947784,0.3656920917570591
1684208205170767000,1.23576708984375,-1.0315445033051074,2.043216723665595,0.398695366692543
1684208205180792000,1.2457919921875,-1.5661331721737979,2.2655594981521365,0.4569797978788614
1684208205190816300,1.255816162109375,-2.048623258884251,2.5849533645927902,0.04823839959874749
1684208205200841000,1.265841064453125,-2.0401754562735555,2.520720254135132,-0.8341670971184968
1684208205210866000,1.275865966796875,-1.1544155345618725,1.931691116157174,-1.6996809341371057
1684208205220891000,1.285890869140625,-0.2139363267995417,0.8209124787479638,-2.327580923909694
1684208205230915000,1.2959150390625,0.37794615478292104,-0.2843400887161493,-2.4100126850113273
1684208205240940000,1.30593994140625,0.6176325705192983,-0.9189712864398956,-2.0365815234348177
1684208205250965000,1.315965087890625,0.37708193916901944,-0.8883306489825248,-1.4189080363832414
1684208205260990200,1.325990234375,-0.046665889585018154,-0.5286836826086044,-0.8186620694726705
1684208205271015200,1.33601513671875,-0.46779169927239417,-0.14526654906868933,-0.5403171295180916
1684208205281039000,1.3460390625,-0.8107214857317506,0.45555473351180553,-0.4481416807763278
1684208205291064000,1.35606396484375,-0.9449581067420542,0.8394073358595371,-0.13904825907573104
1684208205301089000,1.366089111328125,-1.099330337808281,0.9901958632200956,0.08373042261004447
1684208205311114000,1.376114013671875,-1.3151238367818294,0.9860469268471002,0.006071721129119396
1684208205321138200,1.38613818359375,-1.4615828105054796,0.9871616100907326,-0.3027320699751377
1684208205331163100,1.3961630859375,-1.214465806376934,0.7380676068007945,-0.25066987430453297
1684208205341187800,1.406187744140625,-0.8507729256130755,0.47206221619844435,-0.2357248186290264
1684208205351213000,1.416213134765625,-0.6292880831301212,0.13995558317899703,-0.13856412882059813
1684208205361237000,1.426237060546875,-0.1861982789158821,-0.2201174996525049,0.2190899101704359
1684208205371262000,1.436261962890625,0.46324294992685316,-0.36724808902740474,0.5925193181812762
1684208205381287200,1.446287109375,1.046058108760789,-0.3819949917823076,0.9777540225371718
1684208205391312100,1.45631201171875,1.0722704083818941,-0.2759446008145809,1.098992045764625
1684208205401337600,1.466337646484375,0.9693267512578516,-0.12495090627074242,0.9861261295631527
1684208205411361800,1.47636181640625,0.5750841627230867,-0.003916881182789802,0.44372547176927324
1684208205421386800,1.48638671875,-0.15024667556881904,0.09338906231522559,-0.5249789828717708
1684208205431411700,1.49641162109375,0.4846984104096889,0.06942658744752407,-0.639475130623579
1684208205441436700,1.506436767578125,0.7936077077150344,0.0019599018961191177,-1.1653577843368053
1684208205451460600,1.516460693359375,0.7081400860488415,-0.10235445905923843,-1.6444699190467595
1684208205461485600,1.526485595703125,1.2367758378624916,-0.33267595734000205,-1.510845000194013
1684208205471510500,1.536510498046875,1.5386124203026295,-0.47983927994072434,-1.3561623880043625
1684208205481535700,1.54653564453125,1.6125187835127115,-0.5074988557606935,-1.2837389568284152
1684208205491560700,1.556560791015625,1.8526397912740706,-0.40823242584466934,-1.1775520799994468
1684208205501585000,1.5665849609375,1.839546500945091,-0.26795009492933747,-1.1434317837327719
1684208205511609900,1.57660986328125,1.7056453954994677,-0.04273614892065525,-1.1292673570409417
1684208205521634600,1.586634521484375,2.69886849758625,0.26059213338196274,-0.614357055979967
1684208205531659500,1.596659423828125,2.5976187848985193,0.0869926392763853,-0.7545414794787764
1684208205541683700,1.60668359375,2.338596092790365,-0.38614918885231014,-0.8439537471175194
1684208205551708700,1.616708740234375,2.1538719780802724,-0.8733575362563133,-0.848327724418044
1684208205561733600,1.626733642578125,1.85284612750113,-1.2355121015369892,-0.9353767700567841
1684208205571758800,1.6367587890625,1.6119138033568858,-1.3464829977720976,-1.130354275494814
1684208205581782500,1.646782470703125,1.3812024289757012,-1.322190268036723,-1.287109602305293
1684208205591807500,1.656807373046875,1.1600509101003407,-1.2071955231130123,-1.3372358614772557
1684208205601832700,1.666832763671875,1.0052753589302301,-1.0429618232458828,-1.4094883200004695
1684208205611857700,1.676857666015625,0.804386291360855,-0.9545581481277942,-1.5437129583120346
1684208205621882600,1.686882568359375,0.5410860680639743,-0.6370686540037394,-1.8164347976878283
1684208205631906800,1.69690673828125,0.36953181605041024,-0.417436892041564,-1.9503493471369147
1684208205641931800,1.706931884765625,0.17455577191710472,-0.18669687608778476,-1.9601827588871121
1684208205651956700,1.716956787109375,-0.03452184453858063,0.03440788103640079,-1.744701979124546
1684208205661981700,1.726981689453125,-0.30809388926923276,0.14656594122946262,-1.117246956640482
1684208205672005600,1.737005615234375,-0.5539397044181823,0.30407588579952716,-0.11548866592049598
1684208205682030600,1.747030517578125,-0.7814630964130163,0.40068391016125676,0.9866726575300097
1684208205692055800,1.757055908203125,-0.8849445136755705,0.3590647825717926,2.19788150793761
1684208205702080800,1.767080810546875,-0.8525041333198546,0.2552612937480211,2.9745939026921984
1684208205712104700,1.777104736328125,-0.5586445211082697,0.16980945417284965,3.353176455682516
1684208205722129700,1.787129638671875,-0.1591144206246361,0.04934533792734146,2.998889847297966
1684208205732154600,1.797154541015625,0.2434826114152558,-0.20167934116423128,2.195764369653165
1684208205742179600,1.8071796875,0.8287456565916538,-0.5284948820382356,1.0813178573861717
1684208205752204500,1.81720458984375,1.3428010943889617,-0.7304337509214878,-0.036354631190001964
1684208205762228700,1.827228759765625,1.708556314510107,-0.928950244140625,-0.6213833013549447
1684208205772253700,1.837253662109375,1.9160241759479044,-1.1245359446048735,-0.5270213023543358
1684208205782278700,1.847278564453125,1.7588754659056662,-1.188544014135003,0.036323943790793414
1684208205792303900,1.857303955078125,1.3927590112566948,-1.3823913464993238,0.5663502731800079
1684208205802327600,1.86732763671875,1.4072586612522602,-1.5331979940384626,0.9276523132845759
1684208205812352800,1.877352783203125,1.7005694074094295,-1.5623019234478472,1.2088137719646095
1684208205822377700,1.887377685546875,2.2430665113151074,-1.7427374010533094,1.312581897214055
1684208205832402700,1.897402587890625,2.186096669858694,-2.019359462738037,0.899749868619442
1684208205842427600,1.907427734375,0.9217910200357436,-2.089735898256302,0.16647680261880157
1684208205852451800,1.917451904296875,-0.5811538745582103,-1.8338444899111985,-0.7043731347307562
1684208205862476500,1.9274765625,-1.2578455138981341,-1.4588456406265495,-1.0979425367116928
1684208205872501500,1.93750146484375,-1.3513853828608988,-0.9597142157167196,-1.0176932342156768
1684208205882526700,1.947526611328125,-1.083316629987955,-1.2080477560281753,-1.2729521898761391
1684208205892550700,1.957550537109375,-1.3311211779892445,-1.2469704841405151,-1.6385376063883303
1684208205902575600,1.96757568359375,-1.3686299476504324,-1.2219523627400397,-2.048990923152864
1684208205912600800,1.977600830078125,-0.8032254308879375,-1.393963126349449,-2.5113936228632925
1684208205922625800,1.987625732421875,-0.2241173829436302,-1.3803157092690468,-2.7076930245548487
1684208205932649700,1.997649658203125,0.04098082968592644,-1.3180816636741162,-2.6634230901956557
1684208205942674700,2.0076748046875,-0.47552368176393206,-0.9794429985374211,-2.4557196664363143
1684208205952699600,2.01769970703125,-1.900233901619911,0.2606821497529745,-2.102201412075758
1684208205962724600,2.027724609375,-3.31915143648386,3.7660131604522467,-1.076860293455422
1684208205972749800,2.037749755859375,-2.4500889670729635,7.773242722687125,0.9433680610716343
1684208205982773800,2.047773681640625,-0.07339958273172378,8.913548483353853,3.55530734000653
1684208205992798500,2.057798583984375,1.162068095141649,7.080153490775823,6.110968266880512
1684208206002823700,2.06782373046875,1.5707798289358614,3.683533614686131,7.550746803465485
1684208206012848600,2.0778486328125,2.9668226841688154,0.3929015857219696,8.194305988532305
1684208206022872600,2.08787255859375,4.348196378058195,-1.5421744966983795,6.747724201673269
1684208206032897800,2.097897705078125,3.608335458099842,-2.354822420448065,3.2238428042829033
1684208206042922800,2.1079228515625,1.471983939141035,-3.1476778484910723,-0.022400924639403817
1684208206052947700,2.11794775390625,0.5046714868476614,-3.396220647639036,-2.207840299633145
1684208206062971600,2.1279716796875,0.2497720486819744,-2.55392051294744,-3.139762253060937
1684208206072996600,2.13799658203125,-0.12306293709967285,-1.4120178384780884,-3.2331869712114334
1684208206083021600,2.148021484375,-0.31287356129381805,-0.3887181625574827,-3.1410908713161945
1684208206093046800,2.158046875,-0.5918681973287835,0.6963929496318102,-2.8349183054983613
1684208206103071700,2.16807177734375,-0.9104571405947208,1.670387035113573,-2.423122049692273
1684208206113095700,2.178095703125,-1.3112170386016369,2.2206366528421637,-2.4850965675681826
1684208206123121000,2.188120849609375,-1.4783680872201919,2.1889391998082397,-2.6546675368100403
1684208206133145600,2.1981455078125,-1.102391917335987,1.790478226393461,-2.5567148198410865
1684208206143170600,2.208170654296875,-0.31869770087003707,0.9193710994124412,-2.361062191620469
1684208206153194800,2.21819482421875,0.19736615414023398,0.25576865874826904,-1.915187725123763
1684208206163219700,2.2282197265625,0.589028553456068,0.11953589548468589,-1.0413733850106597
1684208206173244700,2.23824462890625,1.0833575465202332,-0.1127343987762928,0.08776888434588909
1684208206183269600,2.24826953125,1.4188298565804958,-0.298514744541049,1.0942883981183171
1684208206193294800,2.258294921875,1.5792448749423027,-0.3178413763016462,1.7546584327325223
1684208206203318500,2.268318603515625,1.4407809916257857,-0.2813613651663065,1.9167837621435522
1684208206213343700,2.27834375,1.171594632899761,-0.22679800032973288,1.7987360593900084
1684208206223368700,2.28836865234375,0.9505869064092636,-0.3457674941033125,1.5165473034888506
1684208206233393700,2.2983935546875,0.7484966463565826,-0.5841226612359285,1.0970718913570046
1684208206243417900,2.30841796875,0.7051099245727062,-0.773248225775361,0.41363866880238054
1684208206253442800,2.31844287109375,0.8184230000197887,-0.828859053838253,-0.588297608833015
1684208206263467800,2.3284677734375,0.9227823691606521,-0.7117687979400158,-1.3694471092522142
1684208206273492500,2.338492431640625,0.7854922057986259,-0.45353170325160025,-1.723539364108443
1684208206283516700,2.3485166015625,0.6382932273626327,-0.07607610846459865,-1.8885992856666445
1684208206293541600,2.358541748046875,0.3906254940161481,0.4510843100994825,-1.8906980115115641
1684208206303566600,2.368566650390625,-0.008949030131101607,0.9963070395767688,-1.7722791373580693
1684208206313591800,2.378591796875,-0.3346784928014502,1.4902613541096448,-1.5985820280969143
1684208206323616800,2.38861669921875,-0.4658288382342085,1.762497748056054,-1.3894588006675244
1684208206333640400,2.398640380859375,-0.33024083914756774,1.6526590707212685,-1.253714697703719
1684208206343665700,2.408665771484375,0.06438389883888886,1.1967922025203703,-1.123672021251917
1684208206353690600,2.418690673828125,0.7047089425563812,0.31568799766004085,-0.9105278677433729
1684208206363715600,2.428715576171875,1.5900748965144156,-0.4170914396047592,-0.3494365380048752
1684208206373739800,2.43873974609375,2.1987083141505717,-0.9149953685462474,0.36530236178711056
1684208206383764700,2.4487646484375,2.3349346476733683,-1.292870650050044,0.9116139094144106
1684208206393789000,2.458788818359375,2.122020211267471,-1.4183189844489097,1.4374177988030015
1684208206403814000,2.46881396484375,1.7576643365502356,-1.4093559257924555,1.9008070253327487
1684208206413837800,2.478837890625,1.5182114373087883,-1.27359370265007,2.1259186800107357
1684208206423863000,2.488863037109375,1.3263351127564906,-1.224626550385356,2.0078895358271898
1684208206433888000,2.498887939453125,1.1024667361378668,-1.065996661874652,1.6718750817142427
1684208206443913000,2.508912841796875,0.5025859492778778,-0.731388275167346,1.1782476610481738
1684208206453938000,2.51893798828125,-0.49499417897462844,-0.380353069794178,0.5383174801334738
1684208206463961900,2.5289619140625,-1.501898600411415,0.09128361446857453,-0.02436842532008886
1684208206473986800,2.53898681640625,-2.262707615852356,0.638880087339878,-0.379367419757694
1684208206484011800,2.54901171875,-2.5048621752679345,1.090433183994889,-0.2648255331680178
1684208206494037000,2.559037109375,-2.069464679121971,1.1547434513419865,0.297872208853811
1684208206504061000,2.56906103515625,-1.3921395641840995,0.7505331206202507,0.5664530029021203
1684208206514086000,2.5790859375,-0.8099883491516113,-0.059382747817039484,0.4064636626064777
1684208206524111000,2.589111083984375,-0.16464465528819708,-1.0798428163975478,0.1365346688196063
1684208206534135800,2.5991357421875,0.4672901064258069,-2.0305764378011224,0.14800298829525707
1684208206544160800,2.609160888671875,0.8672574658155441,-2.5403964299857615,0.586604979570955
1684208206554185000,2.61918505859375,0.8019767460010946,-2.422564415809512,1.3023660620175301
1684208206564210000,2.6292099609375,-0.026243936868384478,-1.5485674126058817,2.1641658469490705
1684208206574235000,2.63923486328125,-1.7106605933129786,-0.08449322367608547,2.506189624479413
1684208206584260000,2.649260009765625,-3.2428876964926716,1.0884551619201899,2.196388785161823
1684208206594283800,2.65928369140625,-3.612152386039495,1.4461100776940583,1.4365458382740617
1684208206604308700,2.669308837890625,-3.2869933802008626,1.2949310897111892,0.7240858431994914
1684208206614334000,2.679333984375,-2.8617244793593883,1.1294669712662697,0.19949001442641018
1684208206624359000,2.68935888671875,-2.6492835056841373,1.1593488993108272,-0.49062706980630755
1684208206634382800,2.6993828125,-2.5527462084710595,1.1701678149670363,-1.2626121437780558
1684208206644408000,2.709407958984375,-2.3066028716802593,0.962684171438217,-1.8532137917697429
1684208206654433000,2.71943310546875,-1.8563386457920072,0.47926937109827994,-2.338101879532635
1684208206664458000,2.7294580078125,-1.2126281426209955,-0.1270475862890482,-2.608665371830761
1684208206674483000,2.73948291015625,-0.8086043474473059,-0.6228852303504944,-2.650205296704173
1684208206684507000,2.7495068359375,-0.7692531647898256,-0.8902396974742413,-2.48163327537179
1684208206694531800,2.75953173828125,-0.6680793668825179,-0.9526303949356079,-2.124728008921444
1684208206704557000,2.76955712890625,-0.49721075904555617,-0.5985854863524437,-1.7597902426630259
1684208206714582000,2.77958203125,-0.5219909800369292,0.09707271926403045,-1.5535463700622318
1684208206724606000,2.78960595703125,-0.7425123843152076,0.6667062518984079,-1.608029509269446
1684208206734631000,2.799630859375,-1.1313702476043253,0.8710311391353607,-1.898171708393097
1684208206744656000,2.80965576171875,-1.3219734104156493,0.974262381029129,-2.1057332394637167
1684208206754680800,2.819680908203125,-1.3512252238631248,1.2531190698981285,-2.2004972433939574
1684208206764705000,2.829705078125,-1.5995044036388397,1.510466522270441,-2.320775335548073
1684208206774730000,2.83972998046875,-1.6941607094109057,1.44487615198493,-2.3066256680339574
1684208206784755000,2.8497548828125,-1.230747079092264,0.735468822479248,-2.032544815264642
1684208206794780000,2.85977978515625,-0.6448001250386237,0.14411679451167583,-1.3999943693377077
1684208206804805000,2.86980517578125,-0.4609187447629869,0.30081542269885536,-0.36527211277931926
1684208206814828800,2.879828857421875,-0.41043490432500834,0.01263151803612709,0.7961378107145428
1684208206824854000,2.88985400390625,0.27195933057069777,-0.8612024035602808,2.067423674813658
1684208206834879000,2.89987890625,0.68070847376585,-1.2982546811759472,3.361947498898208
1684208206844904000,2.909904052734375,0.05159311685413122,-0.9480109184414148,4.307998223182559
1684208206854928100,2.91992822265625,-0.7800234189987182,-0.028546880048513412,4.167903523793816
1684208206864953000,2.929953125,-1.162000436732918,0.6694669487833976,3.21185718293488
1684208206874977800,2.939977783203125,-1.464149007731676,0.9319657925695181,1.992020204913616
1684208206885002800,2.950002685546875,-1.567659797219187,1.1644570361047983,1.1373206073760986
1684208206895027000,2.96002685546875,-1.4997719636462628,1.260357788980007,0.6740569069221616
1684208206905052000,2.970052001953125,-1.411383193836361,1.531675314515829,0.6806359930515289
1684208206915076900,2.980076904296875,-1.439760416406393,2.2349457487016915,1.06326358364895
1684208206925102000,2.99010205078125,-1.5187176332652568,2.923115644389391,1.2633856123685836
1684208206935127000,3.000126953125,-1.575586936956644,3.4445910030543803,1.0701089194990694
1684208206945151000,3.01015087890625,-1.8434663047373294,3.6995559442043304,0.46423386066034433
1684208206955176000,3.020176025390625,-1.9564391884446144,3.2517110544174908,-0.11114303793162107
1684208206965201000,3.030200927734375,-1.983167036372423,2.726382527455687,-0.5514031716778874
1684208206975225900,3.040225830078125,-1.8611971917390822,2.3704940368324516,-0.787813926744461
1684208206985250000,3.05025,-1.540136853390932,2.0761165382266045,-0.8796773869276047
1684208206995275000,3.06027490234375,-0.9143116240657866,1.9484505277782678,-0.8962833615526556
1684208207005300000,3.070300048828125,0.18007007835917174,1.9367817172944544,-0.741175801949203
1684208207015325000,3.080324951171875,0.8274608774781227,1.489352422571182,-0.8720230727821588
1684208207025350000,3.090349853515625,1.7548808433115481,0.4305149848014116,-0.7211734628841281
1684208207035373800,3.100373779296875,2.131630920177698,-0.6435194375783204,-0.19018091881126165
1684208207045399000,3.11039892578125,1.7646084565997122,-1.7558166628569363,0.289158010391891
1684208207055424000,3.120424072265625,1.241575347098708,-2.5901848355054855,0.840289671652019
1684208207065449000,3.130448974609375,0.7374772396922111,-2.6484628369510173,0.7704527498379349
1684208207075473000,3.140472900390625,1.215504501774907,-1.8055805184572935,1.0640633557245134
1684208207085497900,3.150497802734375,2.2178999213546513,-0.8237760514855385,1.265380293317139
1684208207095522800,3.160522705078125,2.4138673146128653,-0.2059229700833559,0.6217097568303346
1684208207105548000,3.170548095703125,3.084300478079915,0.3978068934202194,-0.33981121604740616
1684208207115572000,3.180572021484375,3.9341140571415423,0.7021861460804939,-0.9925044324234128
1684208207125597000,3.190596923828125,3.928717166534066,0.7771937485307454,-1.2089438280850648
1684208207135622100,3.2006220703125,3.304786226522922,0.6474918483406304,-0.74149845803231
1684208207145647000,3.210647216796875,2.6868571572750803,0.14503157126903532,0.19037877947092055
1684208207155671800,3.220671875,2.2481559434086082,-0.4215671237140894,1.3377470258697866
1684208207165696000,3.230696044921875,2.5811340985655784,-0.8774842607975005,1.8717004655748604
1684208207175721000,3.240720947265625,3.4082366641253232,-1.1053583659261463,2.0862290591791273
1684208207185746000,3.250745849609375,3.830515150979161,-1.2709113316982983,1.9270178636491297
1684208207195771000,3.26077099609375,3.5755607312232254,-1.4333306756198405,1.7762641153410077
1684208207205795000,3.270795166015625,3.1675071690768,-1.2706553111106156,1.2831617414623497
1684208207215819800,3.28081982421875,2.746032984343171,-0.9588520459294319,0.3960813848018646
1684208207225844700,3.2908447265625,2.345903931585699,-0.4780149871230125,-0.7265855510607362
1684208207235870000,3.300869873046875,2.2051943151690065,-0.0861784002840519,-1.6403244898051021
1684208207245895000,3.31089501953125,2.176826298818737,0.1956272015184164,-2.4251114699438214
1684208207255919000,3.320919189453125,1.9584622187048195,0.4506184461534023,-2.9678599182620644
1684208207265944000,3.330944091796875,1.5696296359874307,0.6324287192434073,-3.438403838852048
1684208207275969000,3.340968994140625,1.10964115781188,0.5683341404736042,-3.7622923863634465
1684208207285994000,3.350993896484375,0.3774890586651861,0.5599766464948653,-4.049443148586154
1684208207296018000,3.361017822265625,-0.27368133205771444,0.5807084688782692,-4.190926087462902
1684208207306043000,3.37104296875,-0.7464139948636292,0.5902987195223569,-4.059609153291583
1684208207316067800,3.38106787109375,-1.0913982296347617,0.5851093341857194,-3.620970483267307
1684208207326093000,3.391093017578125,-1.258490387672931,0.49089551148414606,-2.9353900195509195
1684208207336117000,3.401116943359375,-1.3537953666120768,0.29544834270775316,-2.0717168419629335
1684208207346141700,3.4111416015625,-1.3655873650841415,-0.1369283443123102,-1.068405768842995
1684208207356167000,3.4211669921875,-1.162220509224385,-0.72586045165658,-0.2933677370414138
1684208207366191900,3.43119189453125,-0.6467499439321458,-1.4044728299260139,0.2637266320154071
1684208207376216800,3.441216796875,0.06882642959728837,-2.025709708547592,0.5763806688070297
1684208207386241000,3.451240966796875,0.7660369792222976,-2.504353056702018,0.42585692986249923
1684208207396266000,3.461265869140625,1.3817805211246013,-2.70780233014822,-0.02389788519889116
1684208207406291000,3.471291015625,1.7489860861845314,-2.512977677184343,-0.5273784452289343
1684208207416316200,3.481316162109375,1.772198619467765,-2.078472745963931,-0.8290905245065688
1684208207426340000,3.491340087890625,1.748154896057397,-1.690085422796011,-0.8216127359718084
1684208207436365000,3.501364990234375,1.5821687995649873,-1.3257535134762526,-0.4329895582213998
1684208207446390300,3.511390380859375,1.1727993325144053,-0.9176531895786523,0.5163865110933781
1684208207456415200,3.521415283203125,0.5923778638839722,-0.5767068320214748,1.398133105510473
1684208207466440000,3.53143994140625,0.19357735631652176,-0.21409049444794653,2.6013424815967676
1684208207476464000,3.541464111328125,0.14880473313219844,0.014043138399720191,3.3975375754565
1684208207486489000,3.551489013671875,0.31763679364025593,-0.16495616892278195,3.460818499755859
1684208207496514000,3.56151416015625,0.9285703779775649,-0.3643938686400652,3.2767338519930838
1684208207506539000,3.5715390625,1.4564151986092329,-0.7105389638841152,2.773838398374617
1684208207516563200,3.581563232421875,1.5941092665970324,-1.0726537816762924,2.0793559585392476
1684208207526588000,3.591587890625,1.3233476213783024,-1.2247913855582475,1.324156015151739
1684208207536612900,3.60161279296875,0.8418775253653525,-1.1746803239554167,0.5732669207006692
1684208207546638000,3.61163818359375,0.22763152854442595,-0.8929518790423869,0.08723813847005367
1684208207556662000,3.621662109375,-0.3705103056937456,-0.6267477509975433,-0.4661676052019
1684208207566687200,3.631687255859375,-0.7737093404810875,-0.40450200714468953,-0.8187275359243154
1684208207576712200,3.641712158203125,-0.6614812107264996,-0.13950082514882087,-0.7511430692121386
1684208207586737200,3.651737060546875,-0.12487082677185535,0.2151724444657564,-0.23420798432528972
1684208207596761900,3.661761962890625,0.21402743914909658,0.5960796410113572,0.3041796384349465
1684208207606786000,3.6717861328125,0.349839894641377,0.6410819812983274,0.6075295480474829
1684208207616811000,3.68181103515625,0.49389242827780544,0.2842757913082838,0.6071721129119396
1684208207626836000,3.6918359375,0.664244245699048,-0.25294191088974477,0.5226707059293985
1684208207636861200,3.701861083984375,0.5648188623616471,-0.871899738663435,0.5420110739544034
1684208207646885000,3.711885009765625,0.22232352179680018,-1.3941174401283263,0.6239440917536616
1684208207656909800,3.721909912109375,-0.3513157758802175,-1.574790818142891,0.6350225351288914
1684208207666935000,3.73193505859375,-0.9861129778206348,-1.4091004897266626,0.42900779510885473
1684208207676960000,3.7419599609375,-1.444456465268135,-1.0225690235584974,0.13041940080970524
1684208207686985000,3.75198486328125,-1.6857459322869777,-0.6182891347318887,-0.2549292853146791
1684208207697009200,3.762009033203125,-1.8708780432760714,-0.16039806722700595,-0.6539601675719022
1684208207707034000,3.7720341796875,-1.9275965403199196,0.5205336939007044,-0.9849334126472472
1684208207717059000,3.78205908203125,-1.7216157025694847,1.2518056492120027,-1.3496800402477382
1684208207727084000,3.792083984375,-1.3327771285027266,1.661660707822442,-1.749638266482949
1684208207737108000,3.80210791015625,-0.7620242364495993,1.4869687423050402,-1.856671238747239
1684208207747133000,3.8121328125,-0.1558709269250743,0.5201414797127246,-1.0879381523087621
1684208207757158100,3.822158203125,-0.040596214282512665,-0.8818407024413347,0.08449439271986484
1684208207767183000,3.83218310546875,-0.811320474538207,-1.6905781747490167,1.2204144856482744
1684208207777207000,3.84220703125,-1.7201795322865248,-1.1143220091044903,1.939874714873731
1684208207787232300,3.852232177734375,-2.1474662026911973,0.47656829544603824,2.6835660067752003
1684208207797257000,3.862257080078125,-1.9992390502512454,2.233074694132805,3.1629969981759785
1684208207807282000,3.872281982421875,-1.3867191465705633,3.1137364159226415,3.2685169355288144
1684208207817307000,3.882306884765625,-0.9051648794054985,3.357892962810397,3.232273363497853
1684208207827331000,3.8923310546875,-0.4106418250739574,3.207159380507469,3.1971880215913053
1684208207837356000,3.90235595703125,0.2745855874210596,2.7148165928244588,2.6950036388516425
1684208207847381000,3.912381103515625,0.7042477547854185,2.0618542041182515,1.5091814508959651
1684208207857406200,3.92240625,0.6004325755238533,1.5524176582932472,-0.0810538968771696
1684208207867430000,3.932429931640625,0.1363712949514389,1.0526432593047619,-1.491103650152683
1684208207877455000,3.942455078125,-0.22675591475367546,0.5346621724963188,-2.4174609551906583
1684208207887480000,3.95247998046875,-0.1442652630716562,0.020564064601063727,-2.9884076162502167
1684208207897505000,3.962505126953125,0.29026708587864414,-0.45661505621969695,-3.492757360330224
1684208207907530000,3.972530029296875,0.9099030138432979,-0.7889660193890333,-4.089799708893895
1684208207917554200,3.98255419921875,1.4769342550247906,-1.2175362998634576,-4.362478293649852
1684208207927579100,3.9925791015625,1.7176748559892177,-1.1881880403041838,-4.485569251267612
1684208207937603800,4.002603759765625,1.5468050791084766,-1.1343903991430997,-4.389150904259085
1684208207947629000,4.012629150390625,1.2930840005397797,-1.203855565035343,-4.213508213888108
1684208207957653000,4.022653076171875,0.8186673301696776,-1.0120049594461917,-3.2343364335075018
1684208207967678000,4.032677978515625,0.4074871604353189,-0.809733497607708,-1.6461217779070139
1684208207977703200,4.042703125,0.4196124825149774,-0.7765683101087808,-0.46081075434386726
1684208207987728100,4.05272802734375,0.4566401906609535,-0.5967027413457632,0.3004261311203241
1684208207997752000,4.062751953125,0.427513464897871,-0.5901940901041031,1.0067027613848447
1684208208007777000,4.072777099609375,0.11900396229876205,-0.6266320156633853,1.7891423016145824
1684208208017802000,4.082802001953125,-0.24812720408439634,-0.2007254014402628,2.252453348341584
1684208208027827000,4.092826904296875,-0.2708347287212498,0.8087076616913079,2.3455361211866137
1684208208037852200,4.10285205078125,-0.15967269382821395,2.0719430519342423,2.0620412511229516
1684208208047876000,4.1128759765625,-0.14442600659132002,3.1045161676347255,1.649734123185277
1684208208057901000,4.122901123046875,-0.3345195393800735,3.3928871193021535,1.1852306518033147
1684208208067926300,4.13292626953125,-0.03272622982608154,2.4883500164061783,0.46921354876905674
1684208208077951000,4.142950927734375,0.5344669421851634,1.1337509321957826,-0.22429040142297743
1684208208087975000,4.152974853515625,1.0164601852893829,-0.06104454354941845,-1.0126640078768134
1684208208098000100,4.163000244140625,1.861152768075466,-1.0437947669386862,-1.5649030458569526
1684208208108025000,4.173025146484375,2.474344287407398,-1.8237603182703255,-1.9534601726338265
1684208208118050000,4.183050048828125,2.629171276503801,-2.371823824131489,-2.1264973566815257
1684208208128074200,4.19307421875,2.394423778474331,-2.6397926237612963,-1.851316725976765
1684208208138099000,4.203098876953125,1.75804778290987,-2.1955741077780724,-1.298187753419578
1684208208148124000,4.2131240234375,0.8505296183764934,-1.0304016168802976,-0.8872136276513337
1684208208158149000,4.223149169921875,-0.2715794278750196,0.47861646014750003,-0.5846303184971213
1684208208168174000,4.233174072265625,-1.437404793190956,1.736404690900445,-0.32183219950348135
1684208208178198000,4.243197998046875,-2.415527356779575,2.4501339752584697,-0.302673617786169
1684208208188223200,4.25322314453125,-3.0536066491305824,2.5199153674930335,-0.5099155615136027
1684208208198248200,4.263248291015625,-3.064741791129112,2.0540531749784945,-0.6108981476977468
1684208208208273200,4.273273193359375,-2.7459552429318426,1.3457687120229005,-0.7264218849316239
1684208208218297000,4.283297119140625,-1.9337246678113935,0.35493513542115684,-1.2233353415310382
1684208208228322000,4.293322021484375,-0.9664648590207099,-0.8817734824240208,-1.6994988555684685
1684208208238347000,4.303346923828125,-0.2451309448778629,-1.1068202551722526,-1.4944251957908272
1684208208248372000,4.3133720703125,0.10918174779601394,-0.3252677269101143,-0.7814426381468772
1684208208258397200,4.323397216796875,0.5912894841253757,-0.26737667895555495,0.1706955893576145
1684208208268421000,4.333421142578125,0.27881109616160393,-0.4892220253139734,1.3914195793464779
1684208208278446000,4.343446044921875,-0.623949060189724,-0.3699824824273586,2.3999188687592743
1684208208288471000,4.353470947265625,-0.9267642784036696,-0.19810908146202563,2.855467172530293
1684208208298496000,4.36349609375,-0.9132698599278927,-0.07954290779232978,2.6091066858574745
1684208208308520200,4.373520263671875,-0.5700444515228271,0.028677812951803206,1.816594079902768
1684208208318545200,4.383545166015625,0.15234510915279387,-0.025803134298324582,0.717794049578905
1684208208328570000,4.393570068359375,0.6035363867580891,-0.28211715196967124,-0.4569155004709959
1684208208338595000,4.403594970703125,0.6539269228894263,-0.8609405377537012,-1.4317767241761088
1684208208348620300,4.413620361328125,0.5129132820248603,-1.2945815456211567,-2.2178531596034765
1684208208358644000,4.42364404296875,0.6362462317049503,-1.2581845365941524,-3.020149785208702
1684208208368669000,4.4336689453125,0.732191992765665,-0.7803355536878108,-3.631877077206969
1684208208378694100,4.443694091796875,0.8497859604023397,0.3160030549585819,-3.78621394469887
1684208208388719000,4.453718994140625,1.0530313818395136,1.433967804479599,-3.4399095672398805
1684208208398744600,4.46374462890625,0.9657715429943055,1.9450456877708433,-2.55091782400012
1684208208408768800,4.473768798828125,0.6334006330154835,1.8717209238409995,-1.1550237295880914
1684208208418793700,4.483793701171875,0.12698496938161552,1.3238953183889388,0.4063762765839696
1684208208428818700,4.493818603515625,-0.531978047978878,0.6136147131800651,1.8549355009958146
1684208208438843600,4.50384375,-0.9069700291313231,-0.08732698579728602,2.9775314174488186
1684208208448867800,4.513867919921875,-0.9114194097556173,-0.6885866597950459,3.4859675540596244
1684208208458892500,4.523892578125,-0.7409412625409663,-0.9771072490662336,3.076120094233751
1684208208468917500,4.53391748046875,-0.39716991069093344,-0.9762310507535934,2.2976176011919973
1684208208478942700,4.543942626953125,-0.1302246088899672,-0.8964514115959406,1.6409250860467552
1684208208488966700,4.553966552734375,-0.04154445491805672,-0.7346808869719504,1.181630581484735
1684208208498991600,4.56399169921875,-0.14000219879969952,-0.5190297190785408,0.8877695079684257
1684208208509016800,4.574016845703125,-0.5785083284854888,-0.3365712112128734,0.6160501236334442
1684208208519041800,4.584041748046875,-1.2021429158985615,-0.13562427597641943,0.4841109659105539
1684208208529066800,4.594066650390625,-1.7117290993273258,0.11375263590812683,0.5191913393810391
1684208208539090700,4.604090576171875,-1.9898175803028046,0.2963970217347145,0.47900779755264516
1684208208549115600,4.61411572265625,-1.9337818048261104,0.0958989993095398,0.33879853187352416
1684208208559140600,4.624140625,-1.7449578535817563,-0.32291268821656705,0.1643549881592393
1684208208569165800,4.634165771484375,-1.6096141481123865,-0.7157131516516209,0.19909020145386455
1684208208579189800,4.644189697265625,-1.4901215072475373,-0.9360580303192139,0.4207102146238088
1684208208589214700,4.654214599609375,-1.3623873999990521,-0.9426403313189744,0.6365995751872658
1684208208599239700,4.66423974609375,-1.2401590505599975,-0.8163543770521878,0.8699550343364477
1684208208609264600,4.6742646484375,-0.9544719311490655,-0.6992331414937972,0.8558391229614615
1684208208619289600,4.68428955078125,-0.6336873410023749,-0.6622662236243486,0.6096572077259421
1684208208629313800,4.694313720703125,-0.7392739138506352,-0.5818944637924433,0.23966771103590725
1684208208639338800,4.7043388671875,-1.2402234940983354,-0.6280629252493382,-0.32142361870259045
1684208208649363700,4.71436376953125,-1.5514941137075424,-0.5545943689346313,-0.7074497656971216
1684208208659388700,4.724388671875,-1.61086166395545,-0.35982290746271606,-0.8740688993960618
1684208208669412600,4.73441259765625,-0.49810047442689537,-0.336713834553957,-0.6112164198666811
1684208208679437600,4.7444375,0.8037082459688186,0.22322364897429942,0.3010008622683584
1684208208689462800,4.754462890625,2.1117045689582823,1.7950754910558462,1.5360139282420278
1684208208699487700,4.76448779296875,2.042635270515829,3.476176812407374,1.6166571984916924
1684208208709512700,4.7745126953125,1.1481890612624586,4.270089640548825,1.5730217626437544
1684208208719537000,4.784536865234375,0.7927661423243582,3.5723359239578243,0.9310441476799547
1684208208729561600,4.7945615234375,0.4134498682320118,2.451730889061093,-0.8748641414269804
1684208208739586600,4.804586669921875,0.09192425045967101,1.7707395067006348,-2.1247572350159287
1684208208749611500,4.814611572265625,-0.2269534831523895,1.4292711710959671,-2.302890865419805
1684208208759635700,4.8246357421875,-0.9804419464468955,1.6648118653297423,-1.7180691160038113
1684208208769660700,4.83466064453125,-1.7511258746922016,2.423131402042508,-0.15777663268223405
1684208208779685600,4.844685546875,-1.9106969895757733,2.977330634179711,1.6895852181889115
1684208208789710800,4.8547109375,-1.7279639025524258,2.8601445166915656,3.647950552390516
1684208208799735800,4.86473583984375,-1.0477085793815553,1.9322762225687502,5.248318002599477
1684208208809759700,4.874759765625,-0.3631775516528636,0.6925327670723199,6.077488606604933
1684208208819784700,4.88478466796875,0.08863200398124754,-0.3060807958811521,5.904799213081598
1684208208829809700,4.8948095703125,0.3138332366388291,-0.7811696664243936,4.614868123614788
1684208208839834600,4.904834716796875,0.6008125147521496,-1.271135788103938,3.0151150059118863
1684208208849858800,4.91485888671875,0.6499919215280562,-1.4541028300136327,1.4745730788514018
1684208208859883800,4.9248837890625,0.07624627739973366,-1.2083645668923855,-0.10943243462145327
1684208208869908500,4.934908447265625,-0.04229596740510314,-0.6670797613859176,-1.2410595065310597
1684208208879933700,4.94493359375,0.2327355736851692,-0.520484009540081,-1.8556845657974481
1684208208889958700,4.954958740234375,0.24629648152589798,-0.9277858765363692,-2.0534335817754266
1684208208899982600,4.964982666015625,0.9587345570296049,-1.4800228686898946,-1.419340144190192
1684208208910007800,4.9750078125,1.6035586474657058,-1.9731845715403555,-0.46924978912621734
1684208208920032800,4.98503271484375,2.0998235770285127,-2.3369190994888545,0.257376386205852
1684208208930057700,4.9950576171875,2.074319717937708,-2.482964231714606,0.8273100708305835
1684208208940081700,5.00508154296875,2.448115036651492,-2.1409499526649713,1.6188582156673073
1684208208950106600,5.015106689453125,2.8979572377353904,-1.572817472243309,2.1592337973743674
1684208208960131600,5.025131591796875,3.040577071687579,-0.8525549867242574,2.4472052283301946
1684208208970156500,5.035156494140625,2.6716204251766205,-0.35889644026756284,2.356151330964267
1684208208980180700,5.0451806640625,2.370002453923225,-0.18475509437024593,2.3330375818803906
1684208208990205700,5.055205810546875,2.477404844021797,0.028853754040598867,2.2918866563245652
1684208209000231000,5.06523095703125,2.712738617506623,-0.1071703349083662,2.0098688730761407
1684208209010255600,5.075255615234375,3.076609339055419,-0.5137742827683687,1.8741431825518606
1684208209020280600,5.085280517578125,3.576850771033764,-1.0452268455684184,1.8950743268996475
1684208209030304800,5.0953046875,3.607269874694943,-1.491372530221939,1.8436138965144753
1684208209040329700,5.105329833984375,3.5545232038915153,-1.6697504907757044,1.7540373782247305
1684208209050354700,5.115354736328125,3.59987216565907,-1.4163392088085411,1.8282552916020154
1684208209060379600,5.125379638671875,3.6764299201607704,-0.9443237543612718,2.129569603733718
1684208209070403600,5.135403564453125,3.62344534894824,-0.6386708285033702,2.021983089239895
1684208209080428500,5.145428466796875,3.384534886020422,-0.2881879963159561,1.754133239814639
1684208209090453500,5.15545361328125,3.2379104926019906,0.033581367084383966,1.607223015192151
1684208209100478700,5.165478759765625,3.3063059834361073,0.18060089730024337,1.1444020900696514
1684208209110503700,5.175503662109375,3.3796289938002824,0.3023497926592827,0.5517670365542173
1684208209120528000,5.18552783203125,3.199785636869073,0.3560959958940744,-0.11104980669021605
1684208209130552800,5.195552734375,2.9107676194697616,0.2995353197604418,-0.7889826782628894
1684208209140577800,5.205577880859375,2.63075883795619,0.26456571318805217,-1.4015449597805738
1684208209150602500,5.2156025390625,2.1639543961554764,0.31000235323905945,-1.7676760274767875
1684208209160626700,5.225626708984375,1.6101310115933418,0.28819442605674267,-2.088642550061643
1684208209170651600,5.235651611328125,1.2755769854217767,0.3024281185925007,-2.307515602611005
1684208209180676600,5.245676513671875,0.9326355815898626,0.3695259708315134,-2.330897062720358
1684208209190701800,5.255701904296875,0.5510883335750549,0.299326060923934,-1.9848051589682698
1684208209200726800,5.265726806640625,0.45058220579624175,0.24831717369854447,-1.455316297456622
1684208209210750500,5.27575048828125,0.5751267962884158,0.31330373287200924,-0.9244301363676786
1684208209220775700,5.285775634765625,0.5846960772097111,0.3214437847077846,-0.3234142079979181
1684208209230800600,5.295800537109375,0.5947885052222758,0.13186053952872753,0.24548896453529595
1684208209240825600,5.30582568359375,0.6892104177165777,-0.12841186037957666,0.7913914929702878
1684208209250849800,5.315849853515625,0.8148246102016419,-0.3849789760291576,1.3628595475554466
1684208209260874800,5.325874755859375,1.0839210986871273,-0.4908300450325012,1.8077867963299155
1684208209270899700,5.335899658203125,1.4973048428803681,-0.27966332907676694,2.302348136845231
1684208209280924700,5.345924560546875,2.1547598668307066,0.0785837073713541,2.758488853551447
1684208209290948600,5.355948486328125,2.812259314444661,0.4177484422087669,2.932828644630313
1684208209300973600,5.3659736328125,3.3471962122291323,0.723357528924942,2.6753347695246337
1684208209310998800,5.375998779296875,3.6842327028661965,0.6547030948936939,1.8927973218783736
1684208209321023700,5.386023681640625,3.7628199173688888,0.22505495605468748,0.8960629968002438
1684208209331048700,5.396048583984375,3.799181270560622,-0.2935094835996628,0.06425006159245968
1684208209341073000,5.406072998046875,3.949260772868991,-0.8146382207840681,-0.5875321774184703
1684208209351097600,5.41609765625,4.134468871703744,-1.0081336709707975,-1.1033446880161761
1684208209361122600,5.42612255859375,4.282535280624032,-1.0532780500769614,-1.51719173887223
1684208209371147500,5.4361474609375,4.230892187148332,-1.0539584335565566,-1.850608285446465
1684208209381171700,5.446171630859375,3.999434378314018,-0.9535749823093413,-2.303106846258044
1684208209391196700,5.45619677734375,3.465548450887203,-0.8816577470898628,-3.034683629734814
1684208209401221400,5.466221435546875,2.549702018469572,-0.8527168992877006,-3.7640532585561273
1684208209411246300,5.476246337890625,1.672728483673185,-0.7816495588958263,-4.260809186506271
1684208209421271300,5.486271240234375,0.7168208936978131,-0.692896339687705,-4.646090360352397
1684208209431295200,5.496295166015625,-0.302837868437171,-0.6145441029846668,-4.816342589856684
1684208209441320200,5.5063203125,-1.383756205111742,-0.3870668882191181,-4.797037000884115
1684208209451345200,5.51634521484375,-2.078170548146963,0.028618191719055174,-4.422276052008569
1684208209461370000,5.5263701171875,-2.1306850176297125,0.6295914499908686,-4.05444782500565
1684208209471394300,5.536394287109375,-1.3560697412848473,1.2227251006782054,-4.065425146093965
1684208209481419300,5.546419189453125,-0.1378599991392344,1.69581256827116,-4.426541015976667
1684208209491444200,5.5564443359375,0.6381837756387889,2.0523171449661253,-4.875241353549063
1684208209501469200,5.56646923828125,0.8873392998576164,2.405066168519854,-5.105681802034378
1684208209511494100,5.576494140625,1.157993393048644,2.836129434853792,-5.216710565936565
1684208209521518300,5.586518310546875,1.7587877876222133,2.507504798731208,-5.032230781376361
1684208209531543300,5.596543212890625,2.1542098317325116,1.5069500385820864,-4.43753090428561
1684208209541568300,5.606568359375,2.1767396434485913,0.7584890480607748,-3.2837428539723157
1684208209551593200,5.61659326171875,1.7278221559941767,0.2555634915649891,-2.169742331907153
1684208209561617200,5.6266171875,1.3138432954519987,-0.26912089227437974,-1.4957511836975812
1684208209571642000,5.63664208984375,1.296848906031251,-0.5890566105067729,-0.6808205558381974
1684208209581667000,5.6466669921875,1.410353120136261,-0.4839326867341995,0.6415501833319663
1684208209591692300,5.6566923828125,1.163797110891342,-0.23433014940023422,2.2277174048833546
1684208209601717200,5.66671728515625,0.7701029134869575,0.1531844825863838,3.727695412495732
1684208209611741200,5.6767412109375,0.08026070067286491,0.5327344193041325,5.099383578673005
1684208209621766400,5.686766357421875,-0.43445645243618636,0.8159808675646781,6.526826949819922
1684208209631791000,5.696791015625,-0.6302127967596054,1.4681547362416982,7.4329866854816675
1684208209641816000,5.706816162109375,-0.4292681996107101,1.8482476937949657,7.657106991034746
1684208209651840300,5.71684033203125,0.14633215073989703,1.57331899202466,7.054475444161891
1684208209661865200,5.726865234375,1.0617968720972537,0.7495499548017979,5.720448023337125
1684208209671890200,5.73689013671875,2.196303591096401,-0.3674088325470686,4.1281379151165485
1684208209681915400,5.746915283203125,3.1206390349179505,-1.369153094741702,2.814661114889383
1684208209691939000,5.75693896484375,3.704120475640893,-1.943462802493572,1.7823054413318633
1684208209701964000,5.766964111328125,3.8698563967645168,-2.155245019999146,0.8802914271727204
1684208209711989200,5.7769892578125,3.698105160874128,-1.957204327598214,-0.3137123136729002
1684208209722014200,5.78701416015625,3.14622764968276,-1.2371791579663753,-1.1594187496766448
1684208209732039200,5.7970390625,2.015609170293808,-0.6139496442228556,-1.7195039711125193
1684208209742063400,5.8070634765625,1.022187330764532,-0.2173994728654623,-2.1895929875418543
1684208209752088300,5.81708837890625,0.2567114742900245,0.12443594248592853,-2.2431563815556466
1684208209762113300,5.82711328125,-0.35772038222551344,0.3692547526746988,-1.929541390777379
1684208209772138200,5.83713818359375,-0.9328899216771125,0.5353975010335446,-1.502873144531995
1684208209782162200,5.847162109375,-1.2000468204021453,0.5470499449044466,-0.9139335845336317
1684208209792187100,5.857187255859375,-1.2546680529057979,0.44357612642645833,-0.09487520921975373
1684208209802212400,5.86721240234375,-0.9589373861253261,0.3046440410763025,0.6542099045492709
1684208209812237300,5.8772373046875,-0.4357611052939668,0.025949849292635916,1.1259900889359413
1684208209822262300,5.88726220703125,0.005274725532531738,-0.33537586394846436,1.22302890593037
1684208209832286200,5.8972861328125,0.31958266701102256,-0.48510991382002827,1.218613281445205
1684208209842311200,5.907311279296875,0.6013268940150738,-0.44736675088107586,1.1447264997184277
1684208209852336000,5.917336181640625,0.828351688838005,-0.2855605704218149,0.9779416540637612
1684208209862361000,5.927361083984375,1.002956414463371,-0.11381985592544078,0.7620788892462849
1684208209872385300,5.93738525390625,1.0295172352612019,0.012824410259723662,0.7027543013572692
1684208209882410200,5.94741015625,0.982576620388031,0.0259855051279068,0.5301718753397464
1684208209892435200,5.957435302734375,0.85544077129364,0.0363987625926733,0.38975831926017995
1684208209902460400,5.96746044921875,0.6082276863794773,-0.0052174423873424525,0.3063506988637149
1684208209912485000,5.977485107421875,0.44540458396263416,-0.0664712447732687,0.3275979234233498
1684208209922509300,5.98750927734375,0.221695124232769,-0.15868600261211394,0.47594607189446686
1684208209932534300,5.9975341796875,-0.15639358082599936,-0.20567747088968752,0.5215037079766393
1684208209942559200,6.007559326171875,-0.5354594603538513,-0.21103636757433414,0.4813109599284827
1684208209952584200,6.017584228515625,-0.7380149998307227,-0.24958792428672313,0.35142449695169925
1684208209962608400,6.0276083984375,-0.8567980311214923,-0.1960404584944248,0.4711579608350992
1684208209972633000,6.037633056640625,-0.8742273048281669,-0.08406827626228332,0.7392321205355227
1684208209982658000,6.047657958984375,-0.6993968806881458,0.2747515916377306,1.0758557195227592
1684208209992683300,6.057683349609375,-0.6142109255075454,0.9106260674208402,1.3080717263132333
1684208210002707200,6.067707275390625,-0.4518436040341854,1.3730775747090578,1.2312187882572412
1684208210012732200,6.077732177734375,-0.3068422817729413,1.4707868383109568,1.1208907930355518
1684208210022757400,6.08775732421875,-0.24680720752701163,1.3246703944146632,0.9171524004496634
1684208210032782300,6.0977822265625,-0.2668446179054677,1.006131683498621,0.7966217948392033
1684208210042807300,6.107807373046875,-0.39563013390302654,0.6711632313072681,0.8740740139625967
1684208210052831200,6.117831298828125,-0.565952798295021,0.4593704924076795,1.0139547052744775
1684208210062856200,6.127856201171875,-0.8451110273938626,0.37627369152605533,1.0774787176147103
1684208210072881200,6.137881103515625,-1.3022902203023432,0.2580424488991499,1.1672297156885265
1684208210082906400,6.14790625,-1.7610475492477415,0.16850655488073824,1.2265467047929763
1684208210092931300,6.157931396484375,-2.1072937667787075,0.2844353657841682,1.1742546458892524
1684208210102955300,6.167955322265625,-2.1603858900189397,0.3099333796560764,1.3436577112182975
1684208210112980200,6.177980224609375,-1.9834417616605757,0.4875999770700931,1.6662779923595488
1684208210123005200,6.188005126953125,-1.5565549042284488,0.75271630987823,2.110148279426992
1684208210133030100,6.198030029296875,-0.9851789118409157,0.9883230550855397,2.5288638131022454
1684208210143054300,6.208054443359375,-0.3833329623878002,1.1982780571639537,2.7442770805865524
1684208210153079300,6.218079345703125,0.1281336096937768,1.337328800457716,2.8492928678095337
1684208210163104300,6.228104248046875,0.6700777741581201,1.258927463915944,2.6487626966804263
1684208210173129200,6.238129150390625,1.0114327125161886,1.1163520536273717,2.3661349648401138
1684208210183153200,6.248153076171875,0.765565781513974,0.7998837192445993,1.9267106973960995
1684208210193178000,6.25817822265625,0.4882464582800865,0.51912441162467,1.3776391835361719
1684208210203203300,6.268203369140625,0.8356921147286891,0.4118003474593162,0.8966616933457553
1684208210213228300,6.278228271484375,1.076790004698187,0.18782675690054892,0.14946239332333205
1684208210223253200,6.288253173828125,1.7722043185561895,0.016859364864230154,-0.49650136866718525
1684208210233277400,6.29827734375,2.7681431093424558,-0.049517771884799,-0.8401961481496691
1684208210243302100,6.30830224609375,3.538230240738392,0.015032733958959578,-0.8754927947193384
1684208210253327000,6.3183271484375,4.05491368895173,0.05699906755089759,-0.7344964703157544
1684208210263352000,6.32835205078125,4.210944793140888,0.04254851739406586,-0.5000114226147532
1684208210273376300,6.338376220703125,3.762629363232851,0.1182458556741476,-0.189115335406363
1684208210283401200,6.348401123046875,2.873231377279758,0.3669423840790987,0.3286129456847906
1684208210293426200,6.35842626953125,2.35949391939044,0.4608750517517328,0.6499044624403119
1684208210303451400,6.368451416015625,2.123898864620924,0.3490367250323295,0.5276046552002429
1684208210313476400,6.378476318359375,1.8760551536530254,0.1652373239517212,0.33281858068108555
1684208210323500000,6.3885,1.9804998629897832,-0.17513503310978412,0.016275427496433258
1684208210333525200,6.398525146484375,2.1277602162241935,-0.7184592354893684,-0.4198626578837633
1684208210343550200,6.40855029296875,2.273878998208046,-0.9862380655050277,-0.5988455985933542
1684208210353575200,6.4185751953125,2.479575758320093,-1.1287918484836816,-0.8789140013396739
1684208210363599400,6.428599365234375,2.373978956338763,-1.1987614567667244,-1.184892505890131
1684208210373624300,6.438624267578125,2.1389391973644494,-1.177301904630661,-1.4307061723351477
1684208210383649000,6.44864892578125,1.8001351125329732,-1.178905832695961,-1.6727037876233457
1684208210393674200,6.45867431640625,1.4883639960557222,-1.0238608169347048,-2.162004431131482
1684208210403699000,6.468698974609375,1.071809732067585,-0.8083587021231651,-2.525499889627099
1684208210413723000,6.478722900390625,0.5381061389377341,-0.6665887629985809,-2.8973198166146874
1684208210423748000,6.488748046875,-0.028622831361554562,-0.5538958652764558,-3.0737057265684005
1684208210433773000,6.49877294921875,-0.45316988420188425,-0.27561200785934925,-2.860577647411823
1684208210443798000,6.508798095703125,-0.7836743427217007,0.03745616269111633,-2.6616759542673827
1684208210453822000,6.518822021484375,-0.9903829102247953,0.34067221679091453,-2.427414778450131
1684208210463847000,6.528846923828125,-1.0910498545885086,0.5272416671067476,-2.0870079345971346
1684208210473872000,6.538871826171875,-1.0463123027175665,0.5083896671205759,-1.9865701228141783
1684208210483897000,6.54889697265625,-1.0462643719226121,0.23118659067749975,-1.9816648151159286
1684208210493922000,6.558922119140625,-1.182911561205983,-0.12832535113990307,-2.008087542617321
1684208210503946000,6.568946044921875,-1.3119891920179128,-0.3720908528834581,-1.8676959061086176
1684208210513971200,6.57897119140625,-1.3873007458508013,-0.3870417537778616,-1.5131930246248841
1684208210523996000,6.588995849609375,-1.3382751413971186,-0.27681846103966234,-0.9702569447800516
1684208210534020900,6.599020751953125,-1.1986959903150796,-0.01715454841852188,-0.32644846112728115
1684208210544045000,6.609045166015625,-0.8491618371546268,0.2594984929263592,0.35089930403381586
1684208210554070000,6.619070068359375,-0.5194178416132926,0.545018146815896,0.6951458721801638
1684208210564095000,6.629094970703125,-0.11843461971189825,0.6578437310069799,0.7376821146145462
1684208210574120000,6.639119873046875,0.3755366459557786,0.4413479289829731,0.5681736892148852
1684208210584145200,6.649145263671875,0.7853162647098303,0.017956512451171875,0.33540216743350026
1684208210594168800,6.6591689453125,0.93765026794672,-0.42995325926542277,0.2569482239216566
1684208210604194000,6.669194091796875,1.0235720631211995,-0.7673737807840109,0.2724772169649601
1684208210614219000,6.679218994140625,1.243149464547634,-0.9517992048084736,0.43890462748408315
1684208210624244000,6.689243896484375,1.4240695107996464,-1.0309154116213322,0.6714204209387302
1684208210634268200,6.69926806640625,1.4075357246279716,-1.102166291886568,0.900173062467575
1684208210644293000,6.709293212890625,1.3262941962242125,-1.1816185987859964,1.0941036892011762
1684208210654318000,6.719318115234375,1.2651105364650488,-1.3068559207826853,1.2196885094612837
1684208210664342800,6.7293427734375,1.274711308503151,-1.4332535187304019,1.348662387637794
1684208210674368000,6.739367919921875,1.3537211323320866,-1.471558991727233,1.4517480835810304
1684208210684392000,6.749391845703125,1.5993834076076745,-1.5628648180276155,1.5958040878161788
1684208210694417000,6.7594169921875,1.873353493478894,-1.6720032381385563,1.8280977629527448
1684208210704442000,6.769442138671875,2.05221543815732,-1.9211457567453383,1.9950898216173052
1684208210714467000,6.779467041015625,2.0291513734340665,-2.201473102688789,2.04221836027801
1684208210724491000,6.789490966796875,1.8037714232087134,-2.4305717811763285,1.947769267515838
1684208210734516000,6.799515869140625,1.4640262581348418,-2.610540225791931,1.6291320646613836
1684208210744541000,6.809541015625,1.02547351282835,-2.4665081869542598,1.1011509773641823
1684208210754566000,6.81956591796875,0.5800678328871727,-2.2363614607185123,0.6105401280403137
1684208210764591000,6.829591064453125,0.31948096020221706,-2.131474268311262,0.061167293146252626
1684208210774615000,6.839614990234375,0.05539281966434791,-1.6330740802854298,-0.9250032600805163
1684208210784640000,6.849639892578125,-0.5427566316246986,1.1493921534419058,-2.2246420890912413
1684208210794665000,6.8596650390625,-1.8727964441180227,5.8363686509341,-2.5149405016899107
1684208210804690000,6.86968994140625,-2.938832268959284,8.887466532114148,-2.8575837262928485
1684208210814713900,6.8797138671875,-3.4093700520694252,8.907665855056047,-2.963026799017191
1684208210824739000,6.889739013671875,-2.870834837532043,7.579953608727455,-1.52624627520442
1684208210834764000,6.899763916015625,-2.163405530101061,5.5831181124866,0.2457844403505325
1684208210844789000,6.9097890625,-1.3473650413036347,3.2898084376215935,0.6781672648504377
1684208210854814000,6.91981396484375,0.4444523247390985,1.1894862634211778,1.661847170305252
1684208210864838000,6.929837890625,2.169969710922241,-1.1021055016100405,3.1136183425009247
1684208210874862800,6.93986279296875,2.400471241945028,-3.4035692568361755,2.312605619226396
1684208210884887800,6.9498876953125,1.2760603850245475,-5.432434214544296,0.9333613385811448
1684208210894913000,6.9599130859375,0.33322540791630745,-6.49092912248671,-0.2987055909380317
1684208210904937000,6.96993701171875,0.03232873667478561,-6.5243012307345865,-1.405530230024457
1684208210914962200,6.979962158203125,-0.07376781325591728,-5.3810430500030515,-1.0431105840668082
1684208210924987100,6.989987060546875,-0.24726912595033645,-3.2605262290358543,0.38636926134377714
1684208210935011800,7.00001171875,-0.6497837586700916,-0.1946212393462658,2.2456790319010613
1684208210945036800,7.010036865234375,-1.641089628958702,3.1148814943045378,4.141034806090593
1684208210955061000,7.02006103515625,-2.121283713686466,5.048772750854492,4.4567178353145716
1684208210965086000,7.0300859375,-2.2279870156049726,5.173220968300104,3.3787948810636994
1684208210975111000,7.04011083984375,-2.277597726470232,4.1545004368633025,2.3134587289243935
1684208210985136000,7.05013623046875,-1.2996540265798568,2.416745500397682,1.1533417678505182
1684208210995159800,7.060159912109375,0.2485504161988385,0.4117231905698776,-0.1584413802012801
1684208211005184800,7.070184814453125,1.1826783369719982,-1.1312439178109168,-1.6150433335542678
1684208211015210000,7.0802099609375,1.9136428337693214,-2.4919430724620817,-2.661059283673763
1684208211025235000,7.09023486328125,2.0992986763715744,-2.7640087860167024,-3.351385772873461
1684208211035260000,7.100260009765625,1.8367244292616842,-2.1548954759091137,-4.0776936760365965
1684208211045284000,7.1102841796875,1.2661363723814487,-1.0923311265707016,-4.190134937085211
1684208211055309000,7.12030908203125,0.5787304833361878,-0.022263854256272315,-3.601266542626917
1684208211065334000,7.130333984375,0.08246789186093956,0.8199141153603792,-2.6693554028540847
1684208211075359000,7.14035888671875,-0.3483060726702213,1.432671334928274,-1.8205337574392557
1684208211085383000,7.1503828125,-0.5987538651892915,1.770325080680847,-0.9888342194780707
1684208211095407900,7.160407958984375,-0.38400165542960163,1.5163216780394315,-0.5092991831809281
1684208211105433000,7.17043310546875,-0.15947737218551336,0.9957254402965307,-0.583006516687572
1684208211115458000,7.1804580078125,0.14171382502317428,0.4647966091096401,-0.669326371268928
1684208211125483000,7.19048291015625,0.5540694317450746,0.20714578987658022,-0.671068246500194
1684208211135507000,7.2005068359375,0.6161912126045673,0.3514823646187782,-0.7328484108477831
1684208211145532000,7.210531982421875,0.16174067747499793,0.6240782395273446,-0.9977028778493404
1684208211155556900,7.220556884765625,-0.5946540286550298,0.8752893811017274,-1.1461819592237472
1684208211165581800,7.230581787109375,-0.9319861777704208,0.8417436698526144,-1.2048580200761556
1684208211175606000,7.24060595703125,-0.8825777845442294,0.7476356456130743,-1.0730065406367182
1684208211185631000,7.250630859375,-0.665310998147726,0.5064689281910657,-0.9062290015056729
1684208211195656000,7.260656005859375,-0.2374234392404556,0.12919628875553607,-0.7991530668824911
1684208211205681200,7.27068115234375,0.19521390800978988,-0.15186112502813337,-0.6208233293846249
1684208211215705900,7.280705810546875,0.7017921783268452,-0.36551731971204277,-0.009428922602534294
1684208211225730000,7.29072998046875,1.1713618470571934,-0.6486556314229965,0.4943231478452682
1684208211235755000,7.300755126953125,1.5011457362174987,-0.9157932409256696,0.9232447259753942
1684208211245780000,7.310780029296875,1.49754391233325,-1.0477613324820996,1.154403259602189
1684208211255805000,7.320804931640625,1.0751637917358428,-0.9536842879027128,1.1834841003969312
1684208211265829000,7.3308291015625,0.340451267516613,-0.6981319022536278,0.9827671745240688
1684208211275853800,7.340853759765625,-0.6407574985843152,-0.4306757283210754,0.6751186909347772
1684208211285878800,7.350878662109375,-1.5919044500291346,-0.14711480728387832,0.49279301566854117
1684208211295904000,7.360904052734375,-2.0771230849206446,0.06580605886280537,0.3692491997167468
1684208211305929000,7.370928955078125,-1.9469757790505884,0.14872984126508235,0.38547625802680846
1684208211315953000,7.380952880859375,-1.4917103838741779,0.10343816264271735,0.505338170595467
1684208211325978000,7.39097802734375,-1.098676696205139,-0.05276596002578735,0.5712459362670779
1684208211336003000,7.401003173828125,-0.8256383382260799,-0.27714871590733525,0.6016041035212576
1684208211346028000,7.411028076171875,-0.8239397906798869,-0.3126426386147737,0.3484972113281488
1684208211356052000,7.421052001953125,-1.024901996550709,-0.35542262667715546,-0.07560761417001485
1684208211366077000,7.431076904296875,-1.1311210220836103,-0.32582068461775776,-0.44677024629265066
1684208211376102000,7.441101806640625,-1.2282162454403935,-0.2898790181428194,-0.70256184752509
1684208211386127000,7.451127197265625,-1.3190239129602908,-0.13259995971918107,-0.7381760356113314
1684208211396152000,7.461152099609375,-1.3262393972970545,0.028465631505846977,-0.4991586051777005
1684208211406175700,7.47117578125,-1.6870131757438183,0.060135612010955804,-0.24449118566960096
1684208211416201000,7.481200927734375,-1.7167013347819446,0.06298807883262635,-0.17623700300231576
1684208211426226000,7.491225830078125,-1.8665479051172733,-0.006985621103644371,-0.4864554832100868
1684208211436251000,7.5012509765625,-2.1515714460529387,-0.14869009377658365,-1.0646424707867204
1684208211446275000,7.511275146484375,-2.140329774940014,-0.24211539644896982,-1.4364391630291937
1684208211456300000,7.521300048828125,-2.048158856242895,-0.45979251721203324,-1.6180435382835565
1684208211466325000,7.531324951171875,-2.1331907168403266,-0.6769868228942155,-1.572555168045312
1684208211476350000,7.541349853515625,-2.0330629939198492,-0.848656225720048,-1.3100769286558032
1684208211486375000,7.551375,-1.791189297272265,-0.9235656284928321,-0.6683448128856718
1684208211496398800,7.56139892578125,-1.6371031896710395,-0.9821142635732889,0.2000477944396436
1684208211506424000,7.571424072265625,-1.5570914953231811,-0.845763426887989,1.0487332462541759
1684208211516449000,7.581448974609375,-0.18428586942330002,-0.5323924739986657,1.898822281256318
1684208211526474000,7.591473876953125,1.887970486243814,0.24617022479772566,2.940233952450752
1684208211536498000,7.601497802734375,2.914824785906076,1.339706635504961,3.98417484986186
1684208211546523000,7.61152294921875,2.566832016968727,1.163433538275957,3.901169818916917
1684208211556547800,7.6215478515625,1.6920250125564633,0.6750976481467486,3.9048555216923355
1684208211566572800,7.63157275390625,0.5861503676712513,0.5822065984815359,3.7080078384682533
1684208211576598000,7.641597900390625,0.32872210514768957,0.7759504704713821,2.5211376027643677
1684208211586622000,7.6516220703125,0.23200623649731278,1.3887901076257227,1.0238131784006952
1684208211596647000,7.66164697265625,-0.199509011387825,2.309729479268193,-0.46435544121339917
1684208211606672100,7.671672119140625,-0.5904688153922557,3.2137019340187307,-1.856910746591538
1684208211616696800,7.68169677734375,-0.6230374983027577,3.783496794694662,-3.0120766611292957
1684208211626721000,7.691720947265625,-0.3733915602184832,3.839940566450357,-3.4093902180746194
1684208211636746000,7.70174609375,-0.8869429940164089,3.381114263921976,-3.203052529710531
1684208211646771000,7.71177099609375,-1.441683493423462,2.342829784837365,-2.651002000039816
1684208211656796000,7.7217958984375,-1.5557039864875375,1.4519851072072982,-1.7224577063515782
1684208211666821000,7.731821044921875,-1.5129088008560239,0.5348141481876373,-0.803273800074309
1684208211676844800,7.7418447265625,-1.0756488718390464,-0.16699439675211905,-0.03498860353380442
1684208211686869800,7.751869873046875,0.16391162830591202,-0.3984194723606109,0.2619181212887168
1684208211696895000,7.76189501953125,1.493875452953577,-0.42894963518083096,0.1765546906493604
1684208211706920000,7.771919921875,1.964633016294241,-0.7944359752327204,0.1551753641426563
1684208211716944000,7.78194384765625,1.5220819951318203,-0.8851794914752245,-0.13301044021621344
1684208211726969000,7.791968994140625,0.9768896607927977,-0.9898200156450271,-0.13962196731045842
1684208211736994000,7.801994140625,0.20836115701571106,-0.9808704009920358,-0.044942134532332416
1684208211747019000,7.81201904296875,-0.5085448576822876,-0.9176911835014819,-0.34148119508624075
1684208211757043700,7.822043701171875,-1.2116475340858102,-0.8013415168374777,-0.7989782948374747
1684208211767068000,7.83206787109375,-1.7488569068469106,-0.5836135426700115,-1.1209000723205507
1684208211777092900,7.8420927734375,-1.8914159505225716,-0.15936638609170914,-1.3716083789393305
1684208211787118000,7.8521181640625,-1.8310348393179474,0.46783612293601035,-1.3623714717775584
1684208211797143000,7.86214306640625,-1.5105623838603495,1.1248884113043547,-1.1567916160434484
1684208211807167000,7.8721669921875,-1.082582616624981,1.7386416561722755,-0.9555341535530983
1684208211817192000,7.88219189453125,-0.5656758810497821,2.1127017633020877,-0.6967803415142
1684208211827217000,7.892216796875,-0.16358911835327744,2.074237300351262,-0.35256533754989505
1684208211837241900,7.902241943359375,0.2816774453781545,1.7046669058561323,0.03197846193239093
1684208211847266800,7.912266845703125,0.6033750587165355,1.2044886022418737,0.3128717711955309
1684208211857291000,7.922291015625,0.7084264287095516,0.6529875231474638,0.46732378949970005
1684208211867316000,7.93231591796875,0.7738705954574048,0.05008943429291248,0.610022826167941
1684208211877341000,7.9423408203125,0.7104032086752354,-0.3914057942062616,0.7031272263228893
1684208211887366000,7.952365966796875,0.7852466335397214,-0.5813701476573944,0.8383312310606241
1684208211897389800,7.962389892578125,0.8113082726437598,-0.6433148549169302,0.8765978333517909
1684208211907415000,7.9724150390625,0.6357914006095379,-0.7062555874764919,0.7783746288783848
1684208211917440000,7.98243994140625,0.6164975020747632,-0.7410182732999324,0.7546591145090759
1684208211927465000,7.99246484375,0.8027133166473358,-0.6614794571608305,0.5957572771891951
1684208211937490000,8.002489990234375,0.770171740939468,-0.5995896949589252,0.4266648852445185
1684208211947513900,8.012513916015624,0.6688380032300949,-0.6813041015714406,0.3017180706270039
1684208211957538800,8.022538818359376,0.7114239300251006,-0.807778856408596,0.23863135372549293
1684208211967563800,8.032563720703125,0.8499825058877467,-1.10190150347054,0.3366914765916765
1684208211977589000,8.042589111328125,0.9144844964146613,-1.4034195214807987,0.5088717515490949
1684208211987613000,8.052613037109374,1.2408826886594295,-1.5012164633661507,0.8242224800787865
1684208211997638000,8.062637939453126,1.564618968218565,-1.4907430001467465,1.0687643730223177
1684208212007663000,8.0726630859375,1.5565478899657725,-1.4499533091187475,1.1040617502443493
1684208212017688000,8.08268798828125,1.5838158361196517,-1.2218670225441455,1.142414715644717
1684208212027712800,8.092712646484374,1.9319909758865832,-0.7621171754300594,0.9413613974243402
1684208212037737000,8.102737060546875,1.9386334826409815,-0.5664315217226743,0.6358405735135078
1684208212047762000,8.112761962890625,1.8095289638221264,-0.4361234723329544,0.27047391431853174
1684208212057787000,8.122786865234374,1.7799281908065079,-0.4874357264190912,0.07232961541265248
1684208212067811800,8.132811767578126,1.599416140833497,-0.6587690291583538,0.10469839183688164
1684208212077836000,8.1428359375,1.227451544678211,-0.6935393137663602,0.08048106542527675
1684208212087860700,8.15286083984375,0.997543303373456,-0.7245932081997394,0.30697745245993135
1684208212097886000,8.162885986328124,0.8645715877324343,-0.6097825876712799,0.6562700519494712
1684208212107911000,8.172910888671876,0.7010030737757682,-0.3272702989041805,0.7688320167683065
1684208212117935900,8.182935791015625,0.8378583528518676,-0.28405425751209257,0.7817527270093559
1684208212127960000,8.1929599609375,1.125712002646923,-0.2749433148175478,0.8042967133812606
1684208212137985000,8.202985107421876,1.2930705565363168,-0.3110591688156128,0.6891727891199291
1684208212148010000,8.213010009765625,1.195707329893112,-0.22851474111974238,0.1679641185671091
1684208212158035000,8.223034912109375,1.2515133882671594,-0.388775445702672,-0.3723360598161816
1684208212168059000,8.233058837890624,1.3663415444523095,-0.45741643573045726,-0.6404615113124251
1684208212178083800,8.243083740234376,1.3629413806200026,-0.46857612764835355,-0.7975652131691574
1684208212188108800,8.25310888671875,1.2931599883854388,-0.5933382333487272,-0.8586378137692808
1684208212198134000,8.263134033203125,1.2496440872639416,-0.7886287502586841,-0.8479954237237572
1684208212208159000,8.273158935546874,1.2288222485095261,-0.8118231633633375,-0.7348880999818443
1684208212218183200,8.28318310546875,1.3397674257814884,-0.9796785608589649,-0.5698509747773408
1684208212228207900,8.293207763671875,1.3499667482346296,-1.0155325490504503,-0.49281508136987684
1684208212238232800,8.30323291015625,1.4022130683004854,-0.996519221022725,-0.3171998635277152
1684208212248257800,8.3132578125,1.508431801572442,-0.9767740715891122,-0.1702519372433424
1684208212258283000,8.323282958984375,1.5378420204520225,-0.9416846380293369,-0.15260492913275955
1684208212268307000,8.333306884765625,1.4863029718726872,-0.9179121327757835,-0.08158493501394987
1684208212278332000,8.343331787109374,1.4024147283524273,-0.9906962139576673,-0.00024345336705446243
1684208212288357000,8.353357177734376,1.137539803084731,-0.9314087432086467,0.070290218539536
1684208212298382000,8.363382080078125,0.8673708630621433,-0.8153478303581476,0.15976824489086866
1684208212308405800,8.37340576171875,0.7482149068057536,-0.5447708940565585,0.25191782853901384
1684208212318431000,8.383430908203126,0.8438613926589489,-0.38872926847338674,0.18665069885849953
1684208212328456000,8.3934560546875,0.9141934045135974,-0.36129122644960876,0.14186521619260312
1684208212338481000,8.40348095703125,1.1420517275512219,-0.1969815387368202,0.19743103606998919
1684208212348505900,8.413505859375,1.5810054548740387,-0.05858779804706573,0.19128975683599708
1684208212358531000,8.423531005859376,1.8954770624816417,0.026189503267407415,0.10414046569317578
1684208212368554800,8.4335546875,1.9413363118588922,0.10867080259919167,-0.03296294292509556
1684208212378580000,8.443580078125,1.868918725901842,0.14309855737984178,-0.2069166572958231
1684208212388605000,8.45360498046875,1.6898469378650187,0.1165203470557928,-0.3944382937699556
1684208212398630100,8.463630126953126,1.5902935077011584,0.08218202412426472,-0.5312877276271581
1684208212408654300,8.473654296875,1.463882465749979,0.10143909777998923,-0.5502876116514206
1684208212418679300,8.48367919921875,1.3826409373462198,0.18128186530172824,-0.48185792628675694
1684208212428704300,8.493704345703126,1.3309434833347797,0.27098493258059025,-0.402059874689579
1684208212438729200,8.503729248046875,1.2069418406128882,0.3851970026940107,-0.23956717327088117
1684208212448754200,8.513754150390625,1.0405097539186476,0.42234921400249004,-0.03966799352169036
1684208212458778000,8.523778076171874,0.7028712788004428,0.29129765276908876,0.03491553829759359
1684208212468803000,8.533802978515626,0.46365343042388557,0.04881400752961635,0.08662555952966212
1684208212478828300,8.543828369140625,0.38320685179010033,-0.43594928480982775,0.08549304836839437
1684208212488853200,8.553853271484375,0.24005276483073829,-1.0595306807309388,0.09445552250295877
1684208212498878200,8.563878173828124,0.08879705834984779,-1.59306940215528,0.1286941844522953
1684208212508902100,8.573902099609375,0.053096799415349956,-2.1702613873451946,0.2699099968254566
1684208212518927000,8.583927001953125,0.052570875845104455,-2.8235359107404947,0.6259232828721404
1684208212528952000,8.5939521484375,-0.05701996420845389,-3.438376950845122,1.0913406542286277
1684208212538977000,8.60397705078125,-0.35064072616286573,-3.8796325253695247,1.4296175003156064
1684208212549001200,8.614001220703125,-0.7220550680242478,-3.6954093459188937,1.5972408426210283
1684208212559026200,8.624026123046875,-1.0933704064905643,-2.6635318112671373,1.6629612690269946
1684208212569051400,8.634051513671874,-1.5240565100751817,-0.800825968530774,1.7258720448397098
1684208212579076400,8.644076416015626,-2.2304899383366106,2.005427383497357,1.9273532330833374
1684208212589101000,8.65410107421875,-2.9788217495203018,5.984916705891489,2.4085630707249046
1684208212599125200,8.664125244140624,-2.4129881936907767,10.315480981147289,3.2967566493242977
1684208212609150200,8.674150146484376,-2.3772563705742358,12.132203071343898,3.9187963687613605
1684208212619175200,8.684175048828125,-1.654035765901953,11.30663487574458,4.325862673436105
1684208212629200100,8.6942001953125,1.3910849405646324,7.962246122151613,4.825013972090185
1684208212639225300,8.704225341796874,3.1347406255066392,2.7966093253701922,3.6057083244666455
1684208212649249000,8.7142490234375,1.506756123445183,-1.1452063921898603,1.3557403632000087
1684208212659274000,8.72427392578125,-0.9927999082386493,-3.834640706476569,-0.8260533487677574
1684208212669299200,8.73429931640625,-2.382021393018961,-5.346806433880329,-2.8918402161598205
1684208212679324200,8.74432421875,-2.338088727790117,-5.713673999157548,-4.040312039886415
1684208212689348000,8.75434814453125,-1.4630769945859907,-5.561213739192485,-3.8157486667409537
1684208212699373300,8.764373291015625,-0.6360357307594269,-4.839606268805265,-2.475213763718307
1684208212709398300,8.774398193359374,-0.19706337180137634,-3.668813599938154,-1.006601346836984
1684208212719423200,8.78442333984375,0.119783732765913,-2.5401205356538292,0.03169292298927903
1684208212729448200,8.7944482421875,0.19268771400041876,-1.0859300273567438,0.6847684166811406
1684208212739472100,8.80447216796875,-0.01590367157459259,0.37646775279343125,0.9970683793380856
1684208212749497000,8.8144970703125,-0.5969757130682468,1.4636907425701617,0.6608866058342159
1684208212759522300,8.824522216796876,-0.9415829312205314,2.216113622459769,-0.49415115227922796
1684208212769547300,8.83454736328125,-0.9147499424178153,2.6733213838756082,-2.1587918988257644
1684208212779571200,8.8445712890625,-0.6227799433451146,2.9195243418991565,-3.6987984038352963
1684208212789596200,8.85459619140625,-0.2439677463173866,2.9264690464705225,-4.874938571210206
1684208212799621000,8.86462109375,0.2892378706950694,2.206794005450606,-5.884828438198566
1684208212809646000,8.87464599609375,0.7053016477525234,1.3864625414609908,-6.222989548951387
1684208212819671000,8.884671142578124,1.1113923123281448,0.8036667449146508,-5.487599636927246
1684208212829695200,8.8946953125,0.8727670960824936,0.3929167832911014,-4.284631960642337
1684208212839720200,8.90472021484375,1.0159738630771635,0.28436054698228835,-3.091948947006464
1684208212849745200,8.9147451171875,1.0038310053408146,0.20049334625005721,-2.304612282384932
1684208212859770400,8.924770263671874,0.7906243079900741,0.13208148880302906,-1.9258137485563753
1684208212869794000,8.9347939453125,1.178855563813448,0.04065349742770195,-1.6376972100414335
1684208212879819300,8.9448193359375,1.6032289771199226,0.032142858713865276,-1.33510177205801
1684208212889844200,8.95484423828125,1.790313537351042,-0.0029290391892194748,-1.24175830245018
1684208212899869200,8.964869140625,1.7649942410469055,-0.011351999619603157,-1.2181909643799065
1684208212909894100,8.97489404296875,1.4388871407032011,0.027266192588210104,-1.367103468735516
1684208212919918300,8.98491845703125,0.8743534154258668,0.16581775418817996,-1.6731217207744717
1684208212929943000,8.994943115234374,0.11537636465243994,0.393462142214179,-2.0386795186273754
1684208212939968000,9.004968017578125,-0.6351087521076202,0.5937023904860019,-2.1264833281561732
1684208212949993200,9.0149931640625,-1.1599253109592944,0.7512064898371696,-1.7235374644123016
1684208212960018200,9.02501806640625,-1.518852219430357,0.6116811147689819,-1.2292559637516736
1684208212970042000,9.0350419921875,-1.5866108736656606,0.43629473724663254,-0.7742959812626242
1684208212980067300,9.0450673828125,-1.3005341704152524,0.16642273434400556,-0.4613301020428538
1684208212990092300,9.05509228515625,-0.6584216770254075,-0.08563537944853306,0.2314772441871464
1684208213000117200,9.0651171875,-0.1268951722063124,-0.2851566657960415,1.0185492665231228
1684208213010141200,9.07514111328125,-0.0438996397420764,-0.4163455896735191,1.6255409083016217
1684208213020166100,9.085166259765625,-0.3188277569904923,-0.37144904784858224,2.1411353922344745
1684208213030191000,9.095191162109375,-0.8327413020990788,-0.2947726354032755,2.543884272101521
1684208213040216300,9.10521630859375,-1.109187422695011,-0.23693536346256733,2.9322154811680314
1684208213050241300,9.1152412109375,-1.1972805705592036,-0.3654904317051172,3.2541789058357473
1684208213060265200,9.12526513671875,-1.36696069926396,-0.6529582970529795,3.3938992189541457
1684208213070290200,9.135290283203124,-1.7192602254845202,-1.0737719720512628,3.3669673728868363
1684208213080315100,9.145315185546876,-2.048238497350365,-1.3509715413630008,3.264531080763042
1684208213090340000,9.155340087890625,-2.1989352547742427,-1.3872452162712812,3.1044433946594596
1684208213100365000,9.165364990234375,-2.2119385287322104,-1.2230080092728137,2.9675290788725017
1684208213110389200,9.17538916015625,-2.192302100370079,-1.0095710102975368,2.8688784427672624
1684208213120414200,9.185414306640626,-2.185614000908285,-0.8701081790715456,2.7209681011915205
1684208213130439200,9.195439208984375,-2.2419572348989547,-0.8077619052737951,2.4848896468192336
1684208213140464000,9.205464111328125,-2.4169385387517512,-0.746317548751831,2.039426537602395
1684208213150488000,9.215488037109376,-2.6446727970182895,-0.6414911466211081,1.4279356847085058
1684208213160513300,9.22551318359375,-2.9663316857814785,-0.43940497822165486,0.6855784178897738
1684208213170538200,9.235538330078125,-3.2856396275043487,-0.24830606778264044,-0.09263020677193999
1684208213180563200,9.245563232421874,-3.4706372984588145,-0.09736731829643248,-0.6711274293415248
1684208213190588200,9.255588134765626,-3.449578143817186,-0.02253507241308689,-0.8545959910325706
1684208213200612000,9.265612060546875,-3.3960920528233047,-0.09280921660065651,-0.6449469861634075
1684208213210637000,9.275636962890625,-3.451542137366533,-0.25785306380689144,-0.34549057685807344
1684208213220662000,9.285662109375,-3.6589471627011894,-0.35711423302590845,-0.07292480482682585
1684208213230687200,9.295687255859375,-4.089242659533023,-0.3804436706870794,0.1596652229078114
1684208213240711200,9.305711181640625,-4.43361343858093,-0.35996027010679243,0.2657612065829337
1684208213250736000,9.315736083984374,-3.8957273356020448,-0.02995557780265808,0.4193617226243019
1684208213260761300,9.32576123046875,-1.6436454509213565,0.8445768474519252,0.6763241212017834
1684208213270786300,9.335786376953125,1.172025717793405,1.7151859617829321,0.6153931210294366
1684208213280811000,9.34581103515625,3.036386634260416,2.5275357793688773,0.13723024986833332
1684208213290835200,9.355835205078124,3.9660093708351254,3.2617508023947477,-0.42023923611119385
1684208213300860200,9.365860107421875,4.6080733489081265,3.585886310404539,-1.1791596613265574
1684208213310885000,9.375885009765625,4.698448031838238,3.557482638218999,-1.8320017846539616
1684208213320910300,9.385910400390625,3.9214389922246333,3.324486952292919,-2.077347687456757
1684208213330935300,9.395935302734374,2.81293326818347,3.2273955283284184,-2.0269097319871188
1684208213340959000,9.405958984375,1.5113491503238676,3.048538844347,-1.8148226863160728
1684208213350984200,9.415984130859375,0.05672814165502786,2.495873982170224,-1.2745230924546718
1684208213361009200,9.426009033203124,-1.1548410664975644,1.8876438846379517,-0.3812618552021682
1684208213371034000,9.4360341796875,-1.9814739687189458,1.1754600761562586,0.9294910730190574
1684208213381058300,9.446058349609375,-2.51882172703743,0.4098579812198877,2.3525772718697784
1684208213391083300,9.456083251953125,-2.802279772222042,-0.3444751162052154,3.6166423909351226
1684208213401107700,9.466107666015626,-2.501707802890241,-0.5762333692908287,4.73592202244699
1684208213411132700,9.476132568359375,-1.9008090711593626,-0.41363808428049087,5.3063312156289815
1684208213421157600,9.48615771484375,-1.2864099296033382,-0.024769699597358703,5.636616478440165
1684208213431181600,9.496181640625,-0.1446782277867198,0.185491591951251,5.872917051130533
1684208213441206800,9.506206787109376,0.8606395089805126,-0.30548399903178214,5.252739910694957
1684208213451231700,9.516231689453125,1.3147355681166053,-0.3486673071980476,3.223944511091709
1684208213461256700,9.526256591796875,1.0019535210311412,0.8314052311897278,0.32228710366412994
1684208213471280600,9.53628076171875,0.04555778221264481,2.328905304381251,-2.2529494612954557
1684208213481305600,9.5463056640625,-1.5655822602927685,2.1510563361376525,-3.3512264906585214
1684208213491330600,9.55633056640625,-2.665585821187496,0.8567027540534734,-3.962051865381002
1684208213501355800,9.566355712890624,-2.1170377466797827,-0.4085083201766014,-4.211388152994215
1684208213511380700,9.576380615234376,-0.17771452820897102,-1.273554539683461,-3.5693905181556937
1684208213521404700,9.58640478515625,2.1114239984512326,-1.8632260672181844,-2.503656014348566
1684208213531430000,9.596429931640625,3.3198423413574694,-2.4028262806385756,-1.1709573579095303
1684208213541454800,9.606454833984374,4.602109764328599,-3.0384149252176282,0.4554913128867745
1684208213551479600,9.6164794921875,5.131877150520682,-3.269190012484789,1.5860494403906165
1684208213561504500,9.62650439453125,5.219431515333056,-3.2042525531500576,2.4599323156952857
1684208213571528700,9.63652880859375,5.437191638204455,-2.8150246875047684,3.3099911016896364
1684208213581553700,9.6465537109375,5.310659015700221,-1.9452263050347565,3.948193435898423
1684208213591578600,9.65657861328125,4.92645043952167,-1.1347136397480964,4.298368225049972
1684208213601603800,9.666603759765625,5.212625342449545,-0.3878250131100416,4.940882869499921
1684208213611627500,9.67662744140625,5.30342497279346,0.7912409785836935,4.90241197680831
1684208213621652500,9.686652587890626,5.001773099270463,1.5970225236952305,4.959914902228117
1684208213631677700,9.696677734375,4.317883657380938,2.166551426911354,4.5335970768555995
1684208213641702700,9.70670263671875,4.400579476246238,2.296142852464318,3.5297707476899025
1684208213651727600,9.7167275390625,4.719027001747489,2.029624251642823,2.679366509258747
1684208213661751800,9.726751708984375,4.84302864446938,1.3441519244760274,1.790543692845106
1684208213671776800,9.73677685546875,4.408862151423096,0.7042857487082481,0.4721484331771731
1684208213681801700,9.7468017578125,3.7315491653144357,0.3889110547810793,-0.6244575942337512
1684208213691826700,9.75682666015625,2.7805402341008185,0.3992407256156206,-1.7074126974329351
1684208213701851600,9.7668515625,1.8567630086839197,0.3431862454384565,-2.750764396779239
1684208213711875600,9.77687548828125,1.0101268906146288,0.3849976807296276,-3.7136236325234173
1684208213721900800,9.78690087890625,0.36126075824610887,0.5763999580293894,-4.157745994655787
1684208213731925800,9.79692578125,-0.18349369613230226,0.7433709739059209,-4.2726399095535275
1684208213741950700,9.80695068359375,-0.5727694195073098,0.6878694514364003,-3.918024799866974
1684208213751974700,9.816974609375,-0.9394762412648647,0.7000380281358957,-3.5536505127102136
1684208213761999600,9.82699951171875,-1.0715600681554525,0.5617372264266014,-3.1065146479755636
1684208213772024600,9.837024658203125,-1.1176882706671953,0.10333528679013251,-2.7320421606525778
1684208213782049500,9.847049560546875,-1.1791354767333715,-0.5275637386679649,-2.4970409801229834
1684208213792074800,9.85707470703125,-1.161188389697671,-1.2830483442157505,-2.1897563614100215
1684208213802098700,9.8670986328125,-1.0687328088402748,-1.8411457528352737,-1.867831515187025
1684208213812123600,9.87712353515625,-0.7923135762512683,-2.3981331543862816,-1.6063409716606138
1684208213822148900,9.88714892578125,-0.23873620233945547,-3.129843501114845,-1.264205404318869
1684208213832173600,9.897173583984374,0.13495452348869294,-3.869586932173371,-0.7541703080788255
1684208213842198500,9.907198486328125,0.2944634963888675,-4.498460589283704,-0.1394505562663078
1684208213852222700,9.91722265625,0.23248426580522208,-5.116242359015345,0.45014293759614227
1684208213862247700,9.92724755859375,0.3189654484281316,-5.709781083372235,0.8122393429487943
1684208213872272600,9.937272705078126,0.8714625162899494,-6.487122131419182,0.6178486974880099
1684208213882297900,9.9472978515625,1.9849550888329743,-7.51019092119336,0.4565840765595436
1684208213892321500,9.957321533203125,3.65319225243628,-8.272920675563812,0.8296890749216079
1684208213902346500,9.967346435546874,5.309546670544147,-9.02245017209947,1.2478919828996062
1684208213912371700,9.977371826171876,7.052164829131961,-9.799529354339837,1.8248340849816798
1684208213922396700,9.987396728515625,7.993882784909009,-9.461331418707966,2.264465565435588
1684208213932421600,9.997421630859375,6.836335382062196,-7.085918045651912,3.472475619801879
1684208213942445800,10.00744580078125,4.335138159042597,-3.2317022856116293,4.424658563230931
1684208213952470800,10.017470703125,1.2449100444793701,0.6123305185884237,5.2005847760438915
1684208213962495500,10.02749560546875,-1.0495745193839072,5.132868499645591,5.947971999853849
1684208213972520700,10.037520751953124,-1.7838029864132403,10.362221689534186,6.405913336241245
1684208213982545700,10.047545654296876,-3.3441128592610356,14.64427006342411,5.770957728868723
1684208213992569600,10.057569580078125,-8.594540985882281,18.666575614237786,3.610433307161927
1684208214002594800,10.0675947265625,-13.079542374134062,23.654237770569324,3.708590314531326
1684208214012619800,10.077619873046874,-1.1199001014977692,20.434618721461295,4.590180257081985
1684208214022644700,10.087644775390626,2.5345716693550346,7.0280147227376695,-1.4012640970125794
1684208214032668700,10.097668701171875,-4.188679769840836,-3.15096519959867,-8.754434026196598
1684208214042693600,10.107693603515624,-2.328762096518278,-7.069259171795845,-13.568349973428248
1684208214052718600,10.117718505859376,3.186489517444372,-7.908115303513407,-12.660232089436054
1684208214062743600,10.12774365234375,5.831175173944234,-6.775574331629276,-10.275534755206108
1684208214072768800,10.137768798828125,4.972980135506392,-6.253256676921248,-6.417972022825479
1684208214082792700,10.147792724609374,3.480789274638891,-3.459923596742749,-3.0788696852028368
1684208214092817700,10.157817626953126,2.6723440632760522,-0.021486440142989158,-1.938979811860621
1684208214102842600,10.167842529296875,1.7444021193951367,3.2444770115107295,-1.7880895776912569
1684208214112867600,10.17786767578125,0.9935901818335056,6.641441755515337,-1.490043035183847
1684208214122892500,10.187892578125,0.8777075481593608,9.603666590499877,-0.8844605295509099
1684208214132916700,10.197916748046875,1.4572370363861322,8.690682561776041,-0.723734253282845
1684208214142941700,10.207941650390625,1.3871347416341304,5.109378902986645,-1.007138814714551
1684208214152966700,10.217966552734374,0.6161492000937462,3.1140836219251153,-1.3668825194612144
1684208214162991900,10.227991943359376,0.1535118148446083,1.9194179100394249,-1.9738900894612073
1684208214173015600,10.238015625,0.04111994589567184,0.5441249973684549,-2.8184917790934443
1684208214183040500,10.24804052734375,0.17768647115826605,-0.8619079214811325,-3.146648505443334
1684208214193065700,10.258065673828124,-0.11423428194522857,-0.9166396286219358,-2.7972391477063296
1684208214203090700,10.268090576171875,-0.4015922571778297,-0.5928501575708389,-2.096202756182849
1684208214213115600,10.27811572265625,-0.5078489843726158,-0.31462299877703187,-1.3770342033803462
1684208214223139800,10.288139892578124,-0.08320552195310592,-0.18862462927997112,-0.8100324805542826
1684208214233164800,10.298164794921876,0.21552491116523742,-0.17095160994529723,-0.45541620182394976
1684208214243189500,10.308189453125,0.19370470902323722,-0.17186930931210517,-0.55983753028512
1684208214253214700,10.318214599609375,0.098477909886837,-0.35540158388912674,-0.7763157966524362
1684208214263239700,10.32823974609375,0.08893383647203446,-0.5544301182836294,-0.6644491206213832
1684208214273263600,10.338263671875,0.12070318569839,-0.5865484270781278,-0.508603894393146
1684208214283288800,10.348288818359375,0.26210955220758914,-0.3892196823388338,-0.29649054523706436
1684208214293313800,10.358313720703125,0.16260697544813155,-0.6252794320106506,0.2653065946832299
1684208214303338800,10.3683388671875,0.12499532993435859,-0.6667442458212375,0.43855011495798824
1684208214313362700,10.37836279296875,0.11286182454824446,-0.8038152134746313,0.5115566067188978
1684208214323387600,10.3883876953125,-0.00554828177690506,-1.076914361730218,0.7631102781206369
1684208214333412600,10.39841259765625,-0.13127075694203377,-1.2762895176053046,0.9991074839502573
1684208214343437600,10.4084375,-0.26187632797360416,-1.5480992105722426,1.372144385512173
1684208214353462800,10.418462890625,-0.25729367635846134,-2.250828962010145,2.126471929979324
1684208214363486700,10.42848681640625,-0.29127777902483937,-2.2570593808323145,2.3926281272292136
1684208214373511700,10.43851171875,-0.15872925723195075,-1.5925030004441738,1.9144085574448109
1684208214383536600,10.44853662109375,0.16129881545901298,-0.36502573680281636,0.9407987951055169
1684208214393561600,10.4585615234375,0.6576327186048031,0.9038245707124472,0.037651977524161336
1684208214403587800,10.468587890625,1.2588017917096614,2.163759165844321,-1.2842258635625243
1684208214413611800,10.47861181640625,1.2621031713426112,3.249015823984146,-2.681619548882544
1684208214423637000,10.488636962890626,0.9669453360140323,2.5914661074876784,-2.921768029172718
1684208214433661700,10.49866162109375,0.49628246521949765,1.7818009989410637,-2.1611735332652926
1684208214443686700,10.508686767578125,0.1622796614562161,1.5779320387780666,-1.0879434130057692
1684208214453710800,10.5187109375,-0.05140517480028793,1.1351555382966994,-0.783074915523827
1684208214463735800,10.52873583984375,-0.14654668853972105,0.5868441951543092,-0.6801762665852904
1684208214473760800,10.5387607421875,-0.27117024428592995,0.11580080060958861,-0.6340118967816233
1684208214483786000,10.548785888671874,-0.4472948546886444,-0.44874329993128775,-0.8109189079999923
1684208214493811000,10.55881103515625,-0.3223918792128563,-2.968214430788159,-1.717254584750533
1684208214503834600,10.568834716796875,-0.21309213106036184,-4.600632092991471,-1.9373603939652442
1684208214513859800,10.57885986328125,-0.3940097661595791,-1.7741326562702655,-0.9482841824248432
1684208214523884800,10.588884765625,-0.2586275553107262,1.9149398878425359,-0.09249357478022575
1684208214533909800,10.59890966796875,0.18309804787822068,2.749514981240034,0.013299334295094013
1684208214543934700,10.608934814453125,0.4519488910395652,1.296454938277602,0.2825450219929218
1684208214553959000,10.618958984375,0.40673144669719036,0.5758534300625324,0.493719336733222
1684208214563984000,10.62898388671875,0.24278467401266096,1.5312924526780842,1.2670114016503096
1684208214574008600,10.639008544921875,-0.04396306036710739,1.1518676036447286,1.6783955695241688
1684208214584033800,10.64903369140625,-0.11680742036886513,0.5196452206283807,1.7368270079657435
1684208214594058800,10.659058837890624,-0.2846679324310273,0.5268330863058567,1.324551444210112
1684208214604083000,10.6690830078125,-0.22593517295531929,-0.14078618878424168,0.7945309600397944
1684208214614108000,10.67910791015625,-0.17541867235675454,-0.8353139290660619,0.7413496972113848
1684208214624132900,10.6891328125,-0.19027707266211508,-1.2561153291046618,0.61884618409276
1684208214634157800,10.69915771484375,-0.37680845598988233,-1.0958499483466149,0.5346516511023044
1684208214644181800,10.709181640625,-0.6076525899052619,-0.8408978666782378,0.6329974590420723
1684208214654206700,10.719206787109375,-0.6541232491791248,-0.9916986689984798,0.7639163338065147
1684208214664231700,10.729231689453124,-0.603855535709858,-0.9860217924058436,0.8033014187335967
1684208214674257000,10.7392568359375,-0.5090553644876927,-0.9483160388678312,0.4734893263921141
1684208214684281900,10.74928173828125,-0.2063841578543186,-0.6528671116381883,-0.024758301420509814
1684208214694305800,10.759305908203125,0.08825111490488052,0.009293313524127007,-0.09048808017671107
1684208214704331000,10.7693310546875,0.2642377233427018,-0.05883797341585159,0.16519728420227764
1684208214714355700,10.779355712890625,0.47045470793657,-0.27294015830159185,0.24517858341187238
1684208214724380700,10.789380615234375,0.7096024867516011,0.4363444216072559,0.23596827199608086
1684208214734405600,10.799405517578125,1.1683330007553099,0.9921955126047134,-0.029559564222395418
1684208214744429800,10.809429931640626,1.6086989329636097,1.7005892811536787,-0.1553197410494089
1684208214754454800,10.819454833984375,1.5619921268463133,1.3031833697497843,-0.32626667481958865
1684208214764480000,10.82947998046875,1.0233563745439052,0.9738029468238353,-1.233313422448933
1684208214774505000,10.8395048828125,0.1356429076116532,1.2831547271996735,-2.546886084266007
1684208214784528600,10.849528564453125,-0.6305868907690048,1.7690169206917286,-3.2864600039765235
1684208214794553900,10.859553955078125,-0.9302245018601417,2.075691590812802,-3.1155101475968956
1684208214804578800,10.869578857421875,-0.5568997598001733,1.7417378686219454,-2.373587618933618
1684208214814603800,10.879603759765626,0.013951295397803187,1.4107330593645573,-1.7198510309845207
1684208214824628700,10.889628662109375,0.32403555476665497,1.2456985645085572,-1.4905179592192173
1684208214834653000,10.89965283203125,0.3864788226654753,1.0038239910781384,-1.280468264594674
1684208214844678000,10.909677978515624,0.36901330860164017,0.9673942488253116,-1.0155018616512417
1684208214854702600,10.91970263671875,0.3870352875044569,1.1164794793993233,-0.38246319381594657
1684208214864727800,10.929727783203125,0.3482791481306776,1.1868559149175881,0.41984541448801754
1684208214874752800,10.939752685546875,0.43442602076530457,1.2283499548226595,0.9385127299949526
1684208214884776700,10.949776611328126,0.35920620033647865,1.3646259727060794,1.17530810046494
1684208214894802000,10.959802001953125,0.3434218077600002,1.4421955345988273,1.2260779182374477
1684208214904827000,10.969826904296875,0.47293315381407736,1.6252327191352842,1.181080254125595
1684208214914851800,10.979851806640625,0.6120552087783813,1.941872318431735,1.5234630742266773
1684208214924876800,10.989876708984376,0.49194180566668505,1.820717881834507,1.757147034677863
1684208214934900700,10.999900634765625,0.268016127636563,1.4986118338257073,1.8937185283765197
1684208214944925700,11.00992578125,0.2409387721513398,1.0553542718291282,1.5853344239890574
1684208214954951000,11.019950927734374,0.1021112979531288,0.9670862057894468,0.8171499113440513
1684208214964975900,11.029975830078126,-0.09055997636914252,0.701790424761176,0.20424656130373478
1684208214974999800,11.039999755859375,-0.24738369224071502,0.2999608516961336,-0.12808978881835936
1684208214985024800,11.050024658203125,-0.40325931360721584,0.26180852343440053,0.13199907121658325
1684208214995049700,11.0600498046875,-0.2566588855862617,-0.1602221261382103,0.5558551826506852
