time,seconds_elapsed,z,y,x
1684252780718745000,0.0257451171875,-3.5741485263377424,1.526724121849239,3.604895839039981
1684252780728771000,0.03577099609375,-3.393202761122584,0.5427040246546269,2.87618408960551
1684252780738797000,0.045797119140625,-2.7795588218480347,0.16861176882088183,1.9317333478637038
1684252780748823000,0.055822998046875,-1.8202473417133092,0.1537216582030058,1.4033280438050626
1684252780758848000,0.065847900390625,-0.9886948110073804,0.19250000940859316,0.905603855344653
1684252780768874000,0.0758740234375,0.7775766103684901,-0.5565989867553115,-0.04422286208076402
1684252780778900000,0.08589990234375,3.5470272951781747,-1.6215531538397072,-1.712581770633906
1684252780788926000,0.095926025390625,5.4222752241015435,-2.1041119218721986,-3.593868833591044
1684252780798952000,0.105951904296875,4.532682592359185,-2.9401641020849345,-6.510123652300238
1684252780808978000,0.11597802734375,0.13262977033555506,-5.03489970832467,-12.60445701072216
1684252780819004000,0.12600390625,-0.5637620102524757,-2.557683957134187,-10.629325981289147
1684252780829030100,0.136030029296875,-3.120289490827918,0.6166238318681716,-6.114493518397212
1684252780839054800,0.146054931640625,-1.7752309729009865,2.3939652210518716,-2.9976296181038022
1684252780849081000,0.1560810546875,-0.7894044108062982,5.257207411497831,-0.7377500652842223
1684252780859107000,0.166107177734375,0.43172436059117314,7.052131511384248,1.5516183246091007
1684252780869133000,0.176133056640625,1.085250812920928,6.645192047959566,2.85971693892926
1684252780879159000,0.186158935546875,1.1736994962245226,5.190148722225428,2.7821470847755667
1684252780889185000,0.19618505859375,0.835170136681199,3.9381086797356604,4.464064106424153
1684252780899211000,0.2062109375,1.40505852085948,3.45228477242738,6.130616970202326
1684252780909237000,0.216237060546875,3.0332559350192545,3.860847745400667,4.123263002556562
1684252780919262000,0.226261962890625,5.771398458373547,5.145854822468757,1.6920611067831515
1684252780929288000,0.236287841796875,7.9487366522371765,7.207090602427721,-0.6460562625795603
1684252780939314000,0.24631396484375,6.840159324264526,7.7283309832930565,-1.9921908853054044
1684252780949340000,0.25633984375,6.310578985077142,8.62376708036661,-2.8495383670032024
1684252780959366000,0.266365966796875,6.509239270681142,11.091073724222182,-4.658587438353896
1684252780969391900,0.276391845703125,6.019782852089405,12.27209552615881,-7.739992779514193
1684252780979418000,0.286418212890625,6.8508315249264236,10.932051037001608,-12.185678640943765
1684252780989444000,0.296444091796875,7.4406860078126185,11.5649000274837,-11.72122689974904
1684252780999469000,0.306468994140625,8.022765180522203,13.701201277559996,-8.61914351221919
1684252781009495000,0.3164951171875,7.510065833508968,13.31317694248557,-5.984866437008977
1684252781019521000,0.32652099609375,5.66299828940928,13.501345060169696,-3.639997839820385
1684252781029547000,0.336547119140625,3.608081775599718,14.066184928786754,-1.8342367040991783
1684252781039573000,0.346572998046875,1.2060392657499759,13.959182351660727,0.5288660534381866
1684252781049599000,0.356598876953125,-1.127694773961976,12.744103966343403,3.143503193154931
1684252781059625000,0.366625,-2.595048057627678,11.37664773864746,4.990204826551675
1684252781069651000,0.37665087890625,-3.617285657274723,10.556964509433508,5.61236232714951
1684252781079676000,0.386676025390625,-3.7553169943928717,8.786735290342568,6.7109203654110425
1684252781089702000,0.396701904296875,-2.4305298417307437,7.52226012917161,8.492402215400338
1684252781099728000,0.406727783203125,-1.1856336796462534,6.831858528909087,9.977709161973
1684252781109753900,0.41675390625,0.31995325388908386,4.890722708058357,11.521702690792083
1684252781119779800,0.42677978515625,1.2595032179772854,2.879218634995818,13.919287563645838
1684252781129806000,0.43680615234375,1.2138157449703664,1.183331247922778,16.722829903149602
1684252781139832000,0.44683203125,1.1514683021288366,-0.6412836413502693,18.091055361652373
1684252781149858000,0.456858154296875,1.3279203361213205,-1.5582681378871202,18.61730743319988
1684252781159884000,0.466884033203125,1.2614613663077354,-1.9330010297119615,19.470321269607542
1684252781169909000,0.476908935546875,0.9369412428945303,-3.0972113975793123,21.35935105564594
1684252781179935000,0.48693505859375,1.0691448967725037,-4.514046280950308,23.291453090691565
1684252781189961000,0.4969609375,1.8743880972236393,-5.342479802852869,23.488862499451635
1684252781199987000,0.506987060546875,3.401688849917054,-6.15364362552464,22.263489514613152
1684252781210013000,0.517012939453125,4.982928698068857,-6.785321818661689,20.465729314517972
1684252781220039000,0.527038818359375,6.482897791722417,-6.684103670156001,17.610026579666137
1684252781230065000,0.53706494140625,7.430429402214289,-6.502728865873813,13.856802173638343
1684252781240091000,0.5470908203125,7.913300597196817,-6.604010142743587,10.25583402943611
1684252781250115800,0.55711572265625,8.175096845671534,-6.236647487425804,6.773821350482105
1684252781260141800,0.567141845703125,7.395809339731931,-6.029988019761443,3.9743490368962284
1684252781270167800,0.577167724609375,11.838974158251284,-4.335587071853876,-3.06371946234405
1684252781280194000,0.587194091796875,16.400257991194724,-0.5265928478091955,-7.5848326129406685
1684252781290220000,0.597219970703125,10.952130532956122,-0.6070289050489663,-6.141116736906767
1684252781300246000,0.60724609375,-1.0405085848748683,-4.227610681259632,-5.016055891644954
1684252781310272000,0.61727197265625,-0.8813058649122715,-3.4940555834472176,-3.1954262726157903
1684252781320297000,0.627296875,2.6389409753680226,-1.6700778230339288,-0.15438509054780006
1684252781330323000,0.637322998046875,1.2767045281469822,-1.7915309503167867,-0.30565818655490873
1684252781340349000,0.647348876953125,0.17520694756852462,-1.6701783607989549,-1.1245008732914923
1684252781350375000,0.657375,-1.3125158462405204,0.41514731979966163,-2.851092610707879
1684252781360401000,0.66740087890625,-1.0538286696970462,1.887969463330507,-5.043918881082535
1684252781370427000,0.677427001953125,-0.7639478979885578,1.4562830966621636,-5.692025061929225
1684252781380452900,0.687452880859375,-2.0502479374766347,1.0946826581329108,-5.291352842205763
1684252781390478800,0.697478759765625,-0.7049731464505196,-1.8970143550515173,-3.846198457801342
1684252781400503800,0.70750390625,5.096281521004438,-11.331021128982306,-0.7663257330358028
1684252781410529800,0.71752978515625,5.910368537646532,-6.359831384024024,3.4042952330231664
1684252781420555800,0.7275556640625,6.196509538304805,-1.4546113640576601,7.625935023179649
1684252781430582000,0.73758203125,3.709097679531574,2.841480732753873,5.2523927046924825
1684252781440608000,0.74760791015625,-0.4080546581249684,7.909089116981625,2.7809780409961937
1684252781450634000,0.757634033203125,-2.7459821309387684,10.753591827905177,-0.639601971873641
1684252781460660000,0.767659912109375,-5.036511819696426,11.325934619498252,-3.634665246620774
1684252781470686000,0.77768603515625,-4.711163428765535,10.611592756199837,-5.7000780200034376
1684252781480712000,0.7877119140625,-1.933951462304592,8.42637520726323,-6.0695280029892915
1684252781490737000,0.79773681640625,-0.04324636346511543,6.058502751106023,-3.1223306412667036
1684252781500763000,0.807762939453125,1.3155764028549193,4.081850795716047,0.9059276804715395
1684252781510788900,0.817788818359375,2.329586272382736,2.6915719108372924,2.5316771169573067
1684252781520814800,0.82781494140625,1.9362275905430315,2.1736504452615977,2.5090759935706854
1684252781530840800,0.8378408203125,0.9015232349675149,1.6143132657140493,1.1277274341225623
1684252781540866300,0.8478662109375,0.062133434764668344,0.30753859347403045,-0.5195025972872972
1684252781550892300,0.857892333984375,-0.6251905846834183,-2.078817613878846,-1.5074533119291067
1684252781560918300,0.867918212890625,-1.8472259495317935,-2.827653282931447,-3.368265888264775
1684252781570943200,0.877943115234375,-2.4797300720989703,-2.3119144220918417,-4.585815632131696
1684252781580969200,0.88796923828125,-2.5385692145586014,-1.4844745874017475,-5.2917403802186245
1684252781590995200,0.8979951171875,-2.7342110291242596,-0.8833277261286974,-6.139545542067289
1684252781601021200,0.908021240234375,-3.007411884188652,-1.6423235546678303,-5.402544103193283
1684252781611047200,0.918047119140625,-2.9442145465195178,-2.2709867838978766,-4.258418491977453
1684252781621073200,0.9280732421875,-2.2331831229433416,-1.2652455610215663,-3.2421067752480504
1684252781631099100,0.93809912109375,-1.8885763431824742,0.5352466943860054,-1.8604151014506816
1684252781641125000,0.948125,-1.8757811590172349,2.5523750370711085,-0.8776192853540181
1684252781651150300,0.958150390625,-1.311438864658773,4.428426099070906,0.21098229929953813
1684252781661176300,0.96817626953125,-0.4179156154692173,6.6707298093199725,0.8163686978384852
1684252781671202300,0.978202392578125,0.6484172926224768,7.315478496432304,1.3246058047458529
1684252781681228300,0.988228271484375,0.9426362396657466,5.494464846521615,2.340951716005802
1684252781691254300,0.998254150390625,1.5223266175426542,4.007639312079549,2.5291724406599996
1684252781701280300,1.0082802734375,2.94516147198081,2.292939672508836,1.9422998961940408
1684252781711306200,1.01830615234375,7.951462862330675,0.16383622498214243,3.012254648044705
1684252781721332200,1.028332275390625,13.414080618214607,-1.840059711164236,5.356717587041855
1684252781731357400,1.038357421875,8.948862957841158,-1.8394319346547126,4.899107966826856
1684252781741383400,1.048383544921875,3.212773128736019,-1.3458926306635142,3.50624871006608
1684252781751409400,1.058409423828125,0.8431798401355743,-1.410134508949518,3.288414060653746
1684252781761435400,1.068435302734375,-0.1929343091726303,-1.6035896271258592,3.806471427568793
1684252781771461400,1.07846142578125,-0.790436091941595,-1.659140833956003,3.756478147126734
1684252781781487000,1.088487060546875,-0.9430337876159697,-1.4107979412943124,3.4357787510454654
1684252781791513000,1.09851318359375,-0.8762170904058962,-1.182223578941822,3.0516447014078496
1684252781801539300,1.108539306640625,-0.7955448132574557,-0.66556468064785,2.53569073651284
1684252781811564300,1.118564208984375,-0.6807143189847469,0.08221534187197685,1.952543642310798
1684252781821590500,1.128590576171875,-0.47509486189261074,0.8398650164991617,1.4123060077697038
1684252781831616500,1.138616455078125,-0.4785247632760554,0.5547855075925588,1.1315355942338705
1684252781841642500,1.148642578125,-0.6760206812757998,-0.1742594193190336,0.9849772517889738
1684252781851668500,1.15866845703125,-0.8082547302920371,-0.755844086509943,0.4850500003263354
1684252781861694200,1.168694091796875,-0.9296832345902919,-0.8227291727811098,-0.3180480047896504
1684252781871720200,1.17872021484375,-1.0653623825591056,-0.6593816080987454,-0.8426280514717102
1684252781881746200,1.18874609375,-1.1062906783401965,-0.39694297006726265,-1.1615057850837707
1684252781891771400,1.198771484375,-1.0318319419443607,-0.09108721511363983,-1.3392385796017945
1684252781901797400,1.20879736328125,-0.8403051614820957,-0.027166823866963386,-1.2196215817049145
1684252781911823400,1.2188232421875,-0.6254407600522041,-0.37083880699574945,-0.5708867475658654
1684252781921849300,1.228849365234375,-0.41889637013487513,-0.8285469191491603,-0.01781593493670225
1684252781931875300,1.238875244140625,-0.07247256754729896,-0.993005659943819,-0.05230258029773831
1684252781941901300,1.2489013671875,0.30474278874304145,-0.9458096090048551,-0.04154810817986727
1684252781951927300,1.25892724609375,0.806516289126873,-0.7476338920474052,-0.021516396889835594
1684252781961953300,1.268953369140625,1.4307003271162508,-0.6636831046849488,-0.2136716845139861
1684252781971978500,1.278978515625,2.0298715044021605,-0.7083253794878721,-0.22514380338191986
1684252781982004500,1.28900439453125,2.394309212183952,-0.7281786654710769,-0.15334201123565436
1684252781992030500,1.299030517578125,2.5073241814672946,-0.4581295524358749,-0.20609818051978945
1684252782002056400,1.309056396484375,2.495394089698791,0.003116670715808868,-0.3752798581831157
1684252782012082400,1.31908251953125,2.160304056954384,0.01141629702746868,0.05362593785598874
1684252782022108400,1.3291083984375,1.3402303671181202,-0.6261661517173052,0.9200864080749451
1684252782032134400,1.339134521484375,0.4876292031645775,-1.657684205406904,1.593233652806282
1684252782042159400,1.349159423828125,0.12885198709620163,-2.4368565605342387,1.6976155260398984
1684252782052185300,1.359185302734375,0.05914307557595894,-2.1644600075900553,1.1724933353051543
1684252782062211300,1.36921142578125,0.3219067260444164,-2.2567519223183394,0.8617471779614686
1684252782072237300,1.3792373046875,0.30512860972285266,-2.757062912401557,0.7140870117545127
1684252782082263300,1.38926318359375,0.03836684779524803,-4.051439875361323,0.4611372098192572
1684252782092289300,1.399289306640625,-0.11263502092189155,-5.473612612628936,0.14134528397172688
1684252782102315500,1.4093154296875,-0.16494150107661262,-5.752323171025514,0.01072568441480398
1684252782112341500,1.419341552734375,-0.31116321371197697,-5.709613910111784,-0.2392123684838414
1684252782122366500,1.429366455078125,-0.503902292573452,-5.46610852060914,-0.7714964136719703
1684252782132392400,1.439392333984375,-0.3790874337725341,-4.457473914378881,-0.9364590123355389
1684252782142418400,1.44941845703125,-0.20353344459831713,-2.725346170145273,-0.5742693757414817
1684252782152444400,1.4594443359375,-0.7387017399858683,-0.7480114931881428,1.5259592749565838
1684252782162470400,1.469470458984375,-1.8381576769351957,1.2550976764947175,4.40811045627296
1684252782172496400,1.479496337890625,-2.2414812879502772,2.766380191323161,6.344940688884258
1684252782182522400,1.4895224609375,-1.9910428843140602,3.2762767558753487,6.651724080076813
1684252782192548400,1.49954833984375,0.878848534888029,4.220509909343719,5.4726621800363064
1684252782202574300,1.50957421875,13.908846833652257,8.292221003839373,3.0986241869866844
1684252782212599300,1.519599365234375,11.238390776079893,5.85637858878374,-1.3019056048989295
1684252782222625300,1.529625244140625,20.966484541237353,3.94594185757935,-2.7279829483896494
1684252782232651300,1.5396513671875,27.704406310820577,4.829236265960335,0.23455109867453575
1684252782242677200,1.54967724609375,7.7471993498921385,2.580660635834932,2.404665771025419
1684252782252703500,1.559703369140625,-3.413039680492878,0.5549222857147454,2.231917925313115
1684252782262729500,1.5697294921875,-9.769100313806533,-0.9761293439447879,0.8734329395800828
1684252782272755500,1.57975537109375,-13.535489321833849,-1.562958926051855,-1.1666904942452907
1684252782282781400,1.589781494140625,-12.046625559562443,-1.404845754891634,-1.0918366210520267
1684252782292806400,1.599806396484375,-9.446887298291921,-0.9571364741832017,-0.3609896131545305
1684252782302832400,1.609832275390625,-6.382648195987939,-0.35383448070287704,0.4403887285619974
1684252782312858400,1.6198583984375,-0.1984558490730822,-0.7153735444337129,2.22692903098464
1684252782322884400,1.62988427734375,24.22789690545797,-0.8709393691986799,10.456721343439817
1684252782332910300,1.639910400390625,22.870389240324496,0.08802724302113056,13.063390865278244
1684252782342936300,1.649936279296875,5.399615648525953,0.7846078241795301,9.413902728056907
1684252782352962300,1.65996240234375,-5.4734746654629705,0.3908317937105894,7.7491820481419555
1684252782362988300,1.66998828125,-10.710360588943958,0.006285948401689529,7.335279759967326
1684252782373013200,1.68001318359375,-13.117261571675538,-0.8732002998679875,8.517568220838903
1684252782383039200,1.690039306640625,-13.275435533112287,-1.6185837826400995,8.356125028473139
1684252782393065200,1.700065185546875,-13.38443834414482,-2.8222242436200378,7.051263496378064
1684252782403091500,1.710091552734375,-13.574704895412921,-3.503668630445003,7.478287131932378
1684252782413117400,1.720117431640625,-12.857655526721476,-3.1212919458687303,9.348979881769418
1684252782423143400,1.730143310546875,-10.79864443707466,-1.4698247152805328,11.139313146734237
1684252782433169400,1.74016943359375,-4.227017099280655,0.7929489515453576,12.25463936444521
1684252782443194400,1.7501943359375,5.767267057657241,3.681929686620831,11.900437803995608
1684252782453220400,1.760220458984375,4.604474155372381,6.589259732857347,7.9409625111043445
1684252782463246300,1.770246337890625,-2.174737948237359,8.679040054777264,2.1984306662529707
1684252782473272300,1.780272216796875,-6.495833261141181,9.056055504581332,-2.8716841478377577
1684252782483298300,1.79029833984375,-7.3858853270888325,8.031007523688674,-6.416274571257829
1684252782493324300,1.80032421875,-4.387966078388691,5.902267064255476,-8.30832341285646
1684252782503350300,1.810350341796875,-1.2040063716828822,3.342211994075775,-8.459653792008757
1684252782513376300,1.820376220703125,0.03410013026148081,1.6515584160029888,-7.79117526974082
1684252782523401200,1.830401123046875,-0.35517537391781806,0.6672346596866846,-7.077062539023161
1684252782533427200,1.84042724609375,-1.9927976190268992,0.0905693287193775,-6.634336307424307
1684252782543453200,1.850453125,-3.840108031971752,-0.16327274588048457,-6.139479491093755
1684252782553479200,1.860479248046875,-5.05422224843204,-0.17988427346348762,-5.90822743396461
1684252782563505200,1.870505126953125,-5.658463568589091,-0.1768792464286089,-6.19601620182991
1684252782573531100,1.88053125,-5.607703103166818,-0.14867080455422402,-6.811043119895458
1684252782583557000,1.89055712890625,-5.626038385802507,-0.07966974904239177,-7.185086860412359
1684252782593583400,1.900583251953125,-5.615408270716667,-0.13095862225294114,-7.883746001410484
1684252782603608000,1.910608154296875,-5.31797080001831,-0.4125421057373285,-8.395816402870416
1684252782613634300,1.92063427734375,-4.898793786311149,-1.0310521897435188,-8.653428059136868
1684252782623660300,1.930660400390625,-4.754523554803431,-1.8402029190272091,-8.492879185262321
1684252782633686300,1.940686279296875,-4.871499536672235,-2.681367912209034,-8.095372151571512
1684252782643712300,1.950712158203125,-4.291815150144696,-3.3923294854193924,-7.854796970301866
1684252782653738200,1.96073828125,-3.3015631728231907,-4.047168773913383,-7.6130667737782
1684252782663764200,1.97076416015625,-2.7315353801742193,-4.554985609582066,-6.923935339581966
1684252782673790200,1.980790283203125,-2.098362564565241,-5.1134939370900385,-6.265657893332839
1684252782683815200,1.990815185546875,-0.8797638961672782,-5.67284514516294,-5.8985337229460475
1684252782693841200,2.000841064453125,0.7082473458155989,-6.26884353763163,-5.44811109162569
1684252782703867100,2.0108671875,1.4336664834454655,-6.743405169430375,-4.481581935197115
1684252782713893000,2.02089306640625,0.1854666036404669,-6.5348875066787,-3.277253491953015
1684252782723919000,2.030919189453125,-0.15739172501787543,-5.153939344725012,-1.2493074026554822
1684252782733945000,2.040945068359375,3.7826059833347796,1.2564146043121813,4.022359326827526
1684252782743971300,2.050971435546875,3.160623254781961,17.102455827713012,17.41777148492932
1684252782753997300,2.060997314453125,-9.043809186470508,29.363485185456273,17.648147928267715
1684252782764022000,2.07102197265625,19.144328735554218,38.208295063626764,10.864074648362397
1684252782774048300,2.08104833984375,21.044927378833293,27.569458911192417,3.74496861885786
1684252782784074200,2.09107421875,-0.8335685467034578,7.5760460798949,-3.783598501503467
1684252782794100200,2.101100341796875,-10.889665016692875,-1.2800544230967759,-5.923347846207022
1684252782804126200,2.111126220703125,-7.442551801684498,-3.256634482294321,-6.5456666748464105
1684252782814152200,2.121152099609375,0.7279495328903198,-2.9608441942811012,-5.950410040655732
1684252782824178200,2.13117822265625,5.940819790011644,0.1554553501278162,-3.7089287527054546
1684252782834204200,2.1412041015625,0.9514064060986042,3.9068846894323825,1.0250289839312434
1684252782844229000,2.15122900390625,-4.686950194007158,5.316394344481825,4.374038090801239
1684252782854255000,2.161255126953125,-4.263882602602243,5.949418691530823,5.2403766882061955
1684252782864281000,2.171281005859375,-1.9502713134646414,5.389619155168533,5.529334499850869
1684252782874307000,2.18130712890625,-1.3939327312111853,3.514712002506852,4.801641864331066
1684252782884333000,2.1913330078125,-2.6650843014061447,1.2741121735662222,2.7383883148089048
1684252782894359000,2.201359130859375,-3.348591465979814,-0.4682137240767479,1.2280942264959216
1684252782904385300,2.21138525390625,-3.022096243101358,-1.5210370161235331,0.43606297431737184
1684252782914411300,2.221411376953125,-2.2094588407456874,-1.7296856117784976,-0.1073141272932291
1684252782924436200,2.231436279296875,-1.0150117400467396,-1.304206283056736,-0.3108236064940691
1684252782934462200,2.241462158203125,0.14940956715755163,-0.8150964859455824,-0.010026596234738826
1684252782944488200,2.25148828125,1.4007412421822547,-0.5445253948628902,0.45465720015019173
1684252782954514200,2.26151416015625,2.6135411611735817,-0.5040753110527992,0.8380079904556273
1684252782964540200,2.2715400390625,3.5315070699632165,-0.6641232496678828,1.2489508443027735
1684252782974566100,2.281566162109375,3.9546436349511143,-0.9451333171784877,1.2868594269365072
1684252782984592100,2.291592041015625,3.900340966877341,-1.0895067167997359,1.0888672498524188
1684252782994618000,2.3016181640625,3.4855870303094383,-1.1207990961641072,0.9094827426046133
1684252783004643300,2.311643310546875,2.978932808679342,-1.003351112869382,0.9746826522678136
1684252783014669000,2.3216689453125,2.53534557633698,-0.8540437639772891,0.9763450325220823
1684252783024695000,2.331695068359375,2.070895734838396,-0.6675549776822328,1.0115066545352338
1684252783034721000,2.341720947265625,1.8069909697771072,-0.549078235861659,1.0447662423193453
1684252783044747000,2.3517470703125,1.6723979365445671,-0.5662871448159218,0.9724138305529951
1684252783054773200,2.361773193359375,1.5974451330214738,-0.6593214023441076,0.7703703322514891
1684252783064799200,2.37179931640625,1.5827496681928634,-0.6735854900181293,0.5419634354203939
1684252783074825200,2.3818251953125,1.555702086791396,-0.57483227032125,0.3754743578419089
1684252783084850400,2.391850341796875,1.437843184608221,-0.3682832772940397,0.2948068299338221
1684252783094876400,2.40187646484375,1.3816722384445368,-0.15369418567419052,0.29535335790067907
1684252783104902100,2.411902099609375,1.2138317462570964,-0.019737550649046896,0.2936798717305064
1684252783114928000,2.42192822265625,0.9549341418333351,0.017246318355202673,0.20613924318253993
1684252783124954000,2.4319541015625,0.7733867574632167,0.04118365878164768,0.09957008903771639
1684252783134980000,2.44197998046875,0.5859130517840385,0.07059972288012505,-0.03680091365277767
1684252783145006000,2.452006103515625,0.5157651643246411,0.10828794076144695,-0.23251257858425378
1684252783155032000,2.462031982421875,0.4726034834682941,0.22063480152487752,-0.33572014734148975
1684252783165057300,2.472057373046875,0.4367952341146767,0.2934603837609291,-0.4430123550638556
1684252783175083300,2.482083251953125,0.3940916722893715,0.28405484203398224,-0.43507425554096696
1684252783185109200,2.492109130859375,0.28585575397610663,0.24794892490804193,-0.4535550841271877
1684252783195135200,2.50213525390625,0.2439372050486505,0.1514940452814102,-0.42575317722707984
1684252783205161200,2.5121611328125,0.2911211271584034,-0.01581073259413242,-0.30034780518710613
1684252783215187200,2.522187255859375,0.35603469416089356,-0.38930385349094865,-0.2411316461086273
1684252783225213200,2.532213134765625,0.3382950393307954,-0.747479578268528,-0.21934417719244956
1684252783235239200,2.5422392578125,0.3261072464741766,-1.119257127419114,-0.29568478181213137
1684252783245264400,2.552264404296875,0.33266309785842896,-1.4477981769114732,-0.3474661147147417
1684252783255290400,2.562290283203125,0.35263854891657825,-1.7268465889602898,-0.40256840873360633
1684252783265316400,2.57231640625,0.3889942760851234,-1.9331822314977645,-0.45577802087366576
1684252783275342300,2.58234228515625,0.34427067967429753,-2.094987242913246,-0.5611775467172265
1684252783285368300,2.592368408203125,0.18905432593412697,-2.1773417009949685,-0.8244111345186829
1684252783295394300,2.602394287109375,0.2628460497885942,-2.2848867144346237,-0.9538327564626932
1684252783305420300,2.612420166015625,0.40682840426564215,-2.4573773705154656,-0.9527303481787442
1684252783315445200,2.6224453125,0.5935849015861749,-2.631380184724927,-0.9194763133525848
1684252783325471200,2.63247119140625,0.7884171533346176,-2.862137151813507,-0.8555337102741003
1684252783335497200,2.642497314453125,0.9904396088480949,-3.1549159830510614,-0.8543696349307894
1684252783345523200,2.652523193359375,1.2355413276314735,-3.57782750711143,-0.8897422693461179
1684252783355549400,2.662549560546875,1.5449473224125803,-4.063165384468436,-0.9102370681032538
1684252783365575400,2.672575439453125,1.880067604164779,-4.5884874816894525,-0.911117065808177
1684252783375601400,2.682601318359375,2.324364446081221,-5.063988440164923,-0.8656617210566997
1684252783385627400,2.69262744140625,2.9209096587777137,-5.427099283257126,-0.7474306245602667
1684252783395652400,2.70265234375,3.660066814380884,-5.242459924221039,-0.4426014361754059
1684252783405678300,2.71267822265625,4.769832767616212,-3.6366005985975263,0.13808248278349639
1684252783415704300,2.722704345703125,6.647758683577179,-1.3576491194307803,0.4700622745528817
1684252783425730300,2.732730224609375,7.342862177920341,0.8234048800855874,0.5170217402569949
1684252783435756300,2.74275634765625,4.905411743146181,2.172664941355586,0.7649924386054276
1684252783445782300,2.7527822265625,2.330235676202178,3.373821768826246,1.656378675766289
1684252783455808300,2.762808349609375,1.292950729548931,5.547984255263209,2.6016072700127957
1684252783465834200,2.772834228515625,0.37529578640460964,8.91621974838972,3.2151924648374317
1684252783475859200,2.782859130859375,-0.9792752407550811,12.868997589468956,3.5461160255521533
1684252783485885200,2.79288525390625,-2.3873019637703896,16.572297980898618,3.7495369496867057
1684252783495911200,2.8029111328125,-2.5245734224319456,17.57921175468564,2.4163731599539515
1684252783505937400,2.8129375,-0.6531409601435065,13.265537239432334,1.4051103971771894
1684252783515963400,2.82296337890625,1.3613380370765924,7.158866377484798,1.1765142613843083
1684252783525989400,2.8329892578125,1.9933160899430513,3.523391568046808,1.6494342634558676
1684252783536015000,2.84301513671875,1.4607494284212588,0.8386778525412082,2.3062127033188937
1684252783546040000,2.8530400390625,0.2306413048196584,-0.8193927218347787,2.63283827457875
1684252783556066000,2.863066162109375,-0.6939760977484285,-1.8341764983445406,2.7912065895438194
1684252783566092000,2.873092041015625,-1.3460375920921563,-1.6430337487637996,3.5117870549708603
1684252783576118000,2.883117919921875,-2.0353905600845814,-0.39818975525796413,4.614757356716692
1684252783586144000,2.89314404296875,-2.9742636478245257,1.3885890320956706,4.214923633643984
1684252783596170000,2.903169921875,-3.388504958695173,3.0368378851592537,3.654136255288124
1684252783606196200,2.9131962890625,-0.369053129155375,4.7506110575348135,3.785284847155213
1684252783616222200,2.92322216796875,-0.09847323371171951,5.606442289450764,4.004753819771111
1684252783626247200,2.9332470703125,-3.5113819813013074,4.707191602525115,3.250063871732354
1684252783636273200,2.943273193359375,-5.510336953914165,3.2077830653637647,3.3717993230879304
1684252783646299100,2.953299072265625,-6.356773750019073,1.5878022754073142,3.714165484315157
1684252783656325000,2.9633251953125,-6.486071161061525,0.07851648735404014,4.461776872269809
1684252783666351000,2.97335107421875,-5.236405446487665,-0.9595727614194154,5.003094703263044
1684252783676377000,2.983377197265625,-2.70394097854495,-1.4707798240482806,4.490197203329205
1684252783686403000,2.993403076171875,-1.3604488331519067,-1.5862749197095631,2.8970620424613354
1684252783696429000,3.003428955078125,-2.016778214073181,-1.4470856447279452,1.2329627093151212
1684252783706454000,3.0134541015625,-2.373357463439554,-1.106536177533865,-0.18828414527922868
1684252783716480000,3.02347998046875,-2.519671621865034,-0.819116242980957,-1.0900596745073794
1684252783726506000,3.033506103515625,-2.7618121527552604,-0.7013479416906834,-1.3474623641982675
1684252783736532000,3.043531982421875,-2.8596447504758835,-0.632619273379445,-1.205226561127603
1684252783746558000,3.053557861328125,-3.4335271727263925,-0.666301178228855,-0.9249000919669866
1684252783756584200,3.063584228515625,-3.684830668759346,-0.6759107180953026,-1.023679322887957
1684252783766610200,3.073610107421875,-3.6774984261751174,-0.7520464477926492,-1.2253858443200587
1684252783776636200,3.08363623046875,-3.769231245715916,-0.8707131592273711,-1.3499708398878574
1684252783786661000,3.0936611328125,-3.8325060325354334,-1.1294096881210802,-1.6302812346965074
1684252783796687000,3.10368701171875,-3.833417302161455,-1.3969447725087403,-1.9429946004599332
1684252783806713000,3.113713134765625,-3.455917283710837,-1.558740431573987,-2.4203306654080747
1684252783816739000,3.123739013671875,-3.179206666959822,-1.5235446150302887,-2.8230981038451195
1684252783826765000,3.13376513671875,-3.0660671945139764,-1.3179238427639006,-3.2371026833504435
1684252783836791000,3.143791015625,-3.0548543111041186,-1.111036411562562,-3.7337370307475326
1684252783846817000,3.153817138671875,-3.3702678757369515,-1.0358908619463443,-4.058595007812976
1684252783856843000,3.163843017578125,-3.4771535484850404,-1.2097101362824438,-4.059500432220101
1684252783866868000,3.173867919921875,-3.343829073883593,-1.5069009387433527,-3.7434231429815292
1684252783876894000,3.18389404296875,-3.223313811972737,-1.6542022085100412,-3.4583114853709933
1684252783886920000,3.193919921875,-3.1133319267749786,-1.6130033521592617,-3.286529854342341
1684252783896946000,3.20394580078125,-2.951405334806442,-1.3981868815243244,-3.2949609980791803
1684252783906972200,3.21397216796875,-2.7686241708576675,-1.1270575720369815,-3.4130268210113046
1684252783916998100,3.223998046875,-2.970667376898229,-1.0610837553918362,-3.3719694189578293
1684252783927024000,3.234024169921875,-3.773498840032518,-1.3473802388727665,-3.4771687460541725
1684252783937049000,3.244049072265625,-4.675791671133041,-1.8501351149767635,-3.929467108118534
1684252783947075000,3.254074951171875,-5.014544318038225,-2.3984493807286023,-4.426302531045675
1684252783957101000,3.26410107421875,-4.735590598535538,-3.057349342790246,-4.8337388380765915
1684252783967127000,3.274126953125,-4.276121321928501,-3.6670448366999624,-5.151055898243189
1684252783977153000,3.284153076171875,-3.9495407588541505,-4.077310229676962,-5.353311577990651
1684252783987179000,3.294178955078125,-3.5392543230891227,-4.285937198022007,-5.559809133091568
1684252783997205000,3.304205078125,-3.0382372305631637,-4.352411365404725,-5.656908155840635
1684252784007231000,3.31423095703125,-2.40803963137269,-4.207790713024139,-5.582349466201663
1684252784017256000,3.324255859375,-1.7871546349287033,-3.814199975994229,-5.31532174681425
1684252784027282000,3.334281982421875,-1.3103355795919895,-3.104558253210783,-4.815282851670682
1684252784037308000,3.344307861328125,-0.7203022330075503,-2.04281515712738,-4.199428250609338
1684252784047334000,3.354333984375,0.015115736067295073,-0.702141137894988,-3.412168742877245
1684252784057360100,3.364360107421875,0.5871242542047054,0.6582686784207821,-2.547864573909342
1684252784067386000,3.37438623046875,2.325589311701059,2.16961782874465,-0.9844558582633733
1684252784077412000,3.384412109375,11.146263112002611,5.544563048642874,2.543339789961278
1684252784087438000,3.39443798828125,21.48555634589195,13.19691436958313,4.691385253845155
1684252784097463000,3.404463134765625,20.053676453602314,23.839933360660076,6.793139798936248
1684252784107489000,3.414489013671875,2.666841374206543,31.197590956652164,5.509848878136276
1684252784117515000,3.424514892578125,-7.935982969126105,28.308694392728803,2.844215710675716
1684252784127541000,3.434541015625,-7.280234749093651,19.492584539341927,2.791124756479263
1684252784137567000,3.44456689453125,-3.1234646137326956,9.220647516366839,1.2893192411787808
1684252784147593000,3.454593017578125,10.95062480456829,-1.2471113539159298,-2.4871315805271266
1684252784157619000,3.464618896484375,34.72384785100221,-13.754969108104705,-7.548481781142949
1684252784167644000,3.474643798828125,4.011317123809457,-9.164536337566375,-1.4621535961307583
1684252784177670000,3.484669921875,-3.349223918664455,-6.926414881438016,0.04062207937613129
1684252784187695900,3.49469580078125,-2.844835303878784,-7.052119820946454,0.05437427200525999
1684252784197721900,3.504721923828125,-3.9929228044629093,-6.379330449742079,1.1179171109870076
1684252784207748000,3.514748046875,-5.142106868112087,-4.248940469536185,1.8415968576036392
1684252784217774000,3.524774169921875,-6.520540416896343,-1.7662398571938276,2.410101970729977
1684252784227800000,3.534800048828125,-7.2277335774838924,0.5101619374901056,2.3971960196666418
1684252784237826000,3.544825927734375,-6.674254476314783,2.557473236992955,1.727920647932589
1684252784247852000,3.55485205078125,-5.839123502600192,4.355563691955805,1.2230272984951733
1684252784257877000,3.564876953125,-4.986619369280338,5.32375289055109,1.4053122033596037
1684252784267903000,3.574903076171875,-4.252130205488204,4.891908118450641,1.4918401477336882
1684252784277929000,3.584928955078125,-3.3670062435925003,2.921809822487831,1.4756334015592931
1684252784287955000,3.594954833984375,-2.088489989848435,0.908828662610054,1.7789374262034892
1684252784297981000,3.60498095703125,-1.2449147206544875,0.7979957135409116,2.644060510338843
1684252784308007000,3.6150068359375,-0.6793944685578346,0.561806784531474,3.0275714596420524
1684252784318033000,3.625032958984375,-0.14108023982737214,-0.29279052167534825,2.7529972703978416
1684252784328058000,3.63505810546875,0.3700829836597666,-1.0772598141670227,2.4985490465983746
1684252784338084000,3.645083984375,0.8304641509473323,-1.795526741954684,2.2747573884777723
1684252784348110000,3.655110107421875,1.4122037164390087,-2.408186930888891,1.9726549947082994
1684252784358136000,3.665135986328125,2.0026924055755138,-2.8501421781152487,1.6539178386107085
1684252784368162000,3.675162109375,2.3860884963274,-2.9305034165531394,1.508816124714911
1684252784378188000,3.68518798828125,2.4035621936976908,-2.685413972729444,1.5695634388834236
1684252784388214000,3.695214111328125,2.263391506463289,-2.3925515548616647,1.6235335140019653
1684252784398240000,3.705239990234375,2.156713338986039,-2.048345903247595,1.6279799720168113
1684252784408265200,3.71526513671875,2.0779659654855727,-1.6234890903383492,1.7114266092494128
1684252784418291200,3.725291259765625,2.150224561488628,-1.0654606553018093,1.8049258539408444
1684252784428317200,3.735317138671875,2.062761382091045,-0.4541653249800205,1.941663351856172
1684252784438343200,3.74534326171875,2.0841940462201833,-0.013753215542435646,2.2828274438172578
1684252784448369200,3.755369140625,2.2798306000888346,0.14093115021288394,2.703034969615936
1684252784458395000,3.765394775390625,2.3415163641512393,-0.009965513697266578,2.9980276775106787
1684252784468420900,3.7754208984375,2.201125896686315,-0.26490239779651165,3.190721455925703
1684252784478446000,3.785446044921875,1.9571265861868856,-0.38155601584315296,3.3946137969642876
1684252784488472000,3.79547216796875,1.737094426730275,-0.2887941455155611,3.622560382807255
1684252784498498000,3.805498046875,1.5358628293335437,-0.08473755382597446,3.968670698998868
1684252784508524300,3.815524169921875,1.3258639881134033,0.1110655887812376,4.255246583943069
1684252784518550300,3.82555029296875,1.06135614259243,0.39166181479394435,4.554643956537545
1684252784528576300,3.835576171875,0.6785456697087735,0.6343441974759102,4.85039595836699
1684252784538602800,3.845602783203125,0.4273514792691916,0.725901368188858,5.04900071439147
1684252784548628700,3.855628662109375,0.2611708100527525,0.7063473574131727,5.098681567883491
1684252784558654000,3.865654052734375,0.05040851017944514,0.4562836323082447,4.856684244856238
1684252784568680000,3.875679931640625,-0.139006319630146,-0.11593407160043716,4.444764362670481
1684252784578705700,3.88570556640625,-0.25631690374817695,-0.9752017077058553,3.872064135941863
1684252784588731600,3.895731689453125,-0.39218379284143445,-1.7813053243786094,3.0721131966799495
1684252784598757600,3.905757568359375,-0.4988607912749052,-2.3296470626592636,2.3554639332219955
1684252784608784000,3.915783935546875,-0.4870166242241859,-2.4924112744957205,1.970290457534045
1684252784618809900,3.925809814453125,-0.6399480818975717,-2.429993104505539,2.044929518932849
1684252784628835800,3.9358359375,-0.6786497876703739,-2.4706916101187466,2.1645810036212203
1684252784638861000,3.945861083984375,-0.721498164793849,-2.629421451872587,2.2564511858060956
1684252784648887000,3.955886962890625,-1.1331703558288515,-2.50727683519423,2.5709695551648735
1684252784658913000,3.9659130859375,-1.7899410507768392,-1.9539315895378588,2.8577357019841667
1684252784668938800,3.975938720703125,-2.453741644361615,-0.8730454015672207,3.0638962802156806
1684252784678964700,3.98596484375,-3.407171665242314,0.7897019324481487,2.692193842127919
1684252784688990700,3.99599072265625,-4.386984081614017,2.6585107682347298,2.389738104876131
1684252784699016700,4.0060166015625,-5.034392927846312,4.160870556417107,2.5257915660500525
1684252784709042700,4.016042724609375,-6.191769650301337,5.326778375852108,2.1253813582636414
1684252784719068000,4.02606787109375,-6.851628228262067,6.043679860505462,0.8497507429584861
1684252784729094000,4.036093994140625,-6.987942240068316,5.806860232377052,-0.9432771679177879
1684252784739119900,4.046119873046875,-6.456683738535642,4.541505365762114,-2.6512039523527027
1684252784749145900,4.056145751953125,-5.364688127529621,2.658922271645069,-3.1195661449894305
1684252784759171800,4.066171875,-4.248825318723917,0.5118874461084604,-1.9978690770722924
1684252784769197800,4.07619775390625,-3.151104900330305,-1.4280875142693519,-1.4285177223801613
1684252784779223800,4.086223876953125,-1.97043498057127,-3.1163387073755264,-1.5825048996515572
1684252784789249000,4.0962490234375,7.095650335115194,-5.288583962014317,-4.131134758844971
1684252784799275000,4.10627490234375,18.332026848763228,-5.253174210458994,-7.105210775142908
1684252784809301000,4.116301025390625,15.343251860505342,-2.5829145522415637,-6.386009196853637
1684252784819327000,4.126326904296875,7.101652205878496,-0.1985942346304655,-3.978965590780973
1684252784829353000,4.13635302734375,-0.14411167994514107,1.7026543969899415,-1.4502613521546124
1684252784839379000,4.14637890625,-2.8198306264817714,4.27655094551742,-1.1746071856539695
1684252784849405000,4.156405029296875,-3.437446976518631,7.708042228502035,-1.6095815610170363
1684252784859431000,4.166430908203125,-4.372238932424783,10.798297231072187,-1.7149544911146164
1684252784869456000,4.176455810546875,-5.300513469260931,12.23822598978281,-1.259948477526754
1684252784879481900,4.18648193359375,-6.049393561977148,10.595706620281934,-0.05192435810249298
1684252784889507800,4.1965078125,-4.838213937664031,7.03060707731843,1.4304125962160528
1684252784899533800,4.206533935546875,-2.256075922752917,3.991776557037234,2.183241280427575
1684252784909560000,4.21656005859375,-0.08875964894890785,2.1677105338186022,2.034161602811515
1684252784919586000,4.2265859375,1.3337351598799227,1.1345628331005573,1.4133011562868951
1684252784929612000,4.236612060546875,2.0337597440123556,0.3148135529130697,0.7871878307353705
1684252784939637000,4.246636962890625,1.8025626319408417,-0.5412590865433216,0.35272213554680343
1684252784949663000,4.2566630859375,1.145768409986794,-1.3556512236118317,-0.10722381866127252
1684252784959689000,4.26668896484375,0.7158277179419994,-1.9913456666529177,-0.5723626653373242
1684252784969715000,4.27671484375,0.6219876969888806,-2.5608196248114106,-0.8095030498526989
1684252784979741000,4.286740966796875,0.17249708582162857,-2.981708118611574,-1.3699478983812032
1684252784989767000,4.296766845703125,-0.23724691362977027,-3.2791105179965494,-2.102147343800962
1684252784999793000,4.30679296875,-0.5414598698124289,-3.4765269410192965,-2.608855633705854
1684252785009819000,4.31681884765625,-1.0487867300070821,-3.698438922873139,-2.8053450050115583
1684252785019843800,4.32684375,-1.7371651538789272,-3.917347631257772,-2.7315339188694954
1684252785029869800,4.336869873046875,-2.314375843769312,-4.192425970631837,-2.6146973454713818
1684252785039895800,4.346895751953125,-2.6872747981652614,-4.446927970445156,-2.6179604389205573
1684252785049921800,4.356921875,-2.984471445845067,-4.650843107837439,-2.7003596129268406
1684252785059948000,4.366947998046875,-3.163902422583103,-4.827531215608119,-2.8640608133524657
1684252785069974000,4.37697412109375,-3.364923884360492,-4.915383686584234,-2.8771973583012818
1684252785080000000,4.387,-3.659119012136757,-4.83071978251636,-2.7151418792560693
1684252785090026000,4.39702587890625,-3.8726539185285564,-4.545680605620145,-2.2712127016082406
1684252785100051000,4.407051025390625,-3.776232648910582,-4.097358745971322,-1.674764227284491
1684252785110077000,4.417076904296875,-3.402376832181215,-3.3875574487119913,-1.1353909544877707
1684252785120103000,4.42710302734375,-2.8130747224807737,-2.5582892295509576,-0.6498775744333863
1684252785130129000,4.43712890625,-2.2255051356613635,-1.7961083412349224,-0.45551732411086554
1684252785140155000,4.44715478515625,-1.7881785711489617,-1.3450959273278713,-0.5438625470399856
1684252785150180900,4.457180908203125,-1.365644355968386,-1.1633750860869885,-0.41652416111081836
1684252785160206800,4.467206787109375,-1.105338784442842,-1.0485825857371092,-0.06771633119722828
1684252785170231800,4.477231689453125,-0.9175451991595327,-1.0057874001055955,0.45239952088389546
1684252785180257800,4.4872578125,-0.8293794244505465,-0.8863409364700316,1.1846795207265763
1684252785190283800,4.49728369140625,-0.8670843012057244,-0.7613929528087378,1.986097244605422
1684252785200309800,4.507309814453125,-1.0713714867807924,-0.6066711776524781,2.723694019024074
1684252785210336000,4.5173359375,-1.1838964805901049,-0.2058218477964401,3.444280037409067
1684252785220362000,4.527362060546875,-1.1025169319551438,0.44730946773588653,4.359194741934537
1684252785230388000,4.537387939453125,-0.8345803540945053,1.1229612426340578,5.204199459409714
1684252785240414000,4.5474140625,-0.48229719448685643,2.2696371228545904,6.008753508552909
1684252785250439000,4.55743896484375,-0.054164702641498294,3.884432619127631,6.604063918757438
1684252785260465000,4.56746484375,0.31233050392568107,6.229227566558122,6.78573098398447
1684252785270491000,4.577490966796875,0.5522855074703693,9.879725757604836,6.518308712321519
1684252785280516900,4.587516845703125,1.0721866756211966,12.86018533746004,5.034857038226724
1684252785290542800,4.59754296875,1.421326349571347,13.057627479445934,1.9463450799316167
1684252785300568800,4.60756884765625,6.552265342459083,11.383820991277695,-2.896281413477659
1684252785310594800,4.6175947265625,17.31650306754112,8.602633691444993,-9.56382382493317
1684252785320620800,4.627620849609375,16.297921067792178,4.387724086326361,-10.80787637580037
1684252785330645800,4.637645751953125,11.93851823606491,0.9412462466120719,-8.269687100470065
1684252785340671700,4.647671630859375,6.517217409953474,-0.8715244756102561,-4.687810902489722
1684252785350697700,4.65769775390625,1.6817255907297133,-1.1012421627789735,-2.1142364255234596
1684252785360724000,4.667723876953125,0.17565708422251045,-1.374834062987566,-1.1121532867632806
1684252785370750000,4.67775,-0.22292788089811802,-2.149969709944725,-1.2376061512067913
1684252785380776000,4.68777587890625,-1.3517249900788069,-3.0854139922797676,-1.3213785132624207
1684252785390802000,4.697802001953125,-3.532567392671108,-3.6335827120810746,-2.28756513986364
1684252785400827000,4.707826904296875,-6.68897449106276,-3.3390444699555633,-4.079685726636648
1684252785410852900,4.717852783203125,-6.724151602905988,-2.6981203095674515,-5.041380887037516
1684252785420878800,4.72787890625,-5.233806077644228,-2.22202372328639,-4.436822463755309
1684252785430904800,4.73790478515625,-3.7627825079679487,-1.9659487750679254,-3.032374768270552
1684252785440930800,4.747930908203125,-2.7507781330436467,-2.216014838260412,-2.1387050963476297
1684252785450956800,4.757956787109375,-2.6628081731677056,-2.952030773228407,-2.077363323417306
1684252785460982800,4.767982666015625,-2.6654700858533382,-3.7456051631957292,-2.4039886024162174
1684252785471008800,4.7780087890625,-2.8172973086118698,-4.119992018061876,-2.506349783477187
1684252785481033700,4.78803369140625,-3.807098035034537,-3.943202203482389,-2.7502877191782
1684252785491059700,4.798059814453125,-3.1937340817451476,-2.9499177265971896,-2.9192671522676945
1684252785501085700,4.808085693359375,-1.2952625136226414,-2.0380401978105307,-2.540488784444332
1684252785511111700,4.818111572265625,-0.38804070168733595,-1.0783061083495615,-2.230876015044749
1684252785521138000,4.828137939453125,-0.10272278091497719,0.033197336202859876,-2.164037690524757
1684252785531164000,4.838163818359375,0.07924436323717236,0.8186229065060615,-2.0151681485280393
1684252785541189000,4.848189208984375,0.41925358607470986,1.2690420306950807,-1.793012713307142
1684252785551214300,4.85821435546875,1.1229760018117725,1.4438473934590816,-1.2891507527440786
1684252785561240300,4.868240234375,2.5402970612645146,1.4933704260408878,-0.577029195843637
1684252785571266000,4.87826611328125,4.552597837662697,1.7998042731434105,0.23248203731551764
1684252785581292000,4.8882919921875,6.843201760700345,2.3293659076303244,1.0044657961130141
1684252785591318000,4.898318115234375,11.379396160572767,2.5904788500159976,2.368129938049614
1684252785601344000,4.908343994140625,14.935969867253302,2.022415927699208,3.9483796061202883
1684252785611370000,4.918369873046875,7.614175027281045,1.3248627021163701,3.0295424674540756
1684252785621396000,4.92839599609375,3.0072981946811077,0.315419117590785,1.8350638025730848
1684252785631421200,4.938421142578125,2.4168787713885305,-0.7943062113732099,2.0570694540597496
1684252785641447200,4.948447265625,1.5398147818297148,-1.4811363828897475,1.8838162891738115
1684252785651473200,4.95847314453125,1.1009919874101877,-1.8900947849214076,1.7111825713604687
1684252785661499100,4.9684990234375,0.9735410810172557,-2.1447890924364326,1.6732110064931214
1684252785671525000,4.978525146484375,0.8482331780023873,-2.1115286278694865,1.538924262730777
1684252785681551000,4.988551025390625,0.7652790004618465,-1.349169460377097,1.4401786418184637
1684252785691577000,4.9985771484375,0.5992138473838567,-0.3376654361903667,1.1934122046932578
1684252785701603000,5.00860302734375,0.7639739092126488,0.15352292076051235,1.0389389974705874
1684252785711628300,5.018628173828125,1.0464657397136092,0.5591986478596925,1.0174145634047687
1684252785721654300,5.028654296875,1.0682125843584538,0.8438023559480905,0.7000035413444042
1684252785731680300,5.03868017578125,0.8953940114974975,0.6714695207774639,0.14041969355940817
1684252785741706200,5.048706298828125,0.7759826191753149,0.23820728309452532,-0.443899367031455
1684252785751732200,5.058732177734375,1.3405524386793375,-0.30147593243420123,-0.8944055849820375
1684252785761758200,5.06875830078125,2.2162027620479465,-0.8788584717601537,-1.3233642802521586
1684252785771784200,5.0787841796875,2.8767385086178776,-1.5005121144890785,-1.5733168000675737
1684252785781809200,5.08880908203125,2.3854218491122126,-1.8923773429006336,-1.2290560572654008
1684252785791835100,5.098835205078125,0.9639160513207315,-1.2883446970582006,-0.21990495288036763
1684252785801861000,5.108861083984375,0.24529051935374735,0.4214741847336292,1.0045084662109613
1684252785811887000,5.11888720703125,0.06389028836935758,2.9117899482548237,1.704016917514801
1684252785821913000,5.1289130859375,-1.1425056087985634,5.5573360209763045,1.6468321181334553
1684252785831939300,5.138939208984375,-2.945834841197729,8.507661743852495,1.3637592728741466
1684252785841965300,5.14896533203125,-5.0782174565255636,10.481169555997848,0.597049947348237
1684252785851991300,5.1589912109375,-6.956641092875599,9.633606970733403,-0.8526018946059047
1684252785862016300,5.169016357421875,-6.081998777505755,6.3523939274996515,-1.3996807733438907
1684252785872042200,5.179042236328125,-2.871646738436818,2.8591274486035108,-0.7910797966726124
1684252785882068200,5.189068115234375,-0.4131628679841757,-0.060327335190773004,-0.0825005885541439
1684252785892094200,5.19909423828125,1.409341897267103,-2.8358588012188672,0.6365347663227469
1684252785902120200,5.2091201171875,4.00774744862914,-3.4528228248268364,0.756764927681908
1684252785912146200,5.219146240234375,4.591400154265761,-2.8339976835221052,0.4638405504938215
1684252785922172200,5.229172119140625,4.325550246486068,-1.821773528367281,0.30155937293395396
1684252785932197000,5.239197021484375,11.193707584744692,0.5966168166279793,0.764339235393703
1684252785942223000,5.24922314453125,14.507307232320308,2.7027076373577117,1.1987288696713745
1684252785952249000,5.2592490234375,5.322380433154106,3.201331697267294,0.20044768047742545
1684252785962275000,5.269275146484375,-1.751680585965514,4.296310707998275,-0.6789893218230456
1684252785972301000,5.279301025390625,-4.687404952037334,5.6277679860740895,-0.45184206966422497
1684252785982327300,5.289327392578125,-5.5710699472963805,6.520514697933197,0.9173902277935295
1684252785992353300,5.299353271484375,-6.150569624906778,6.796431241697072,2.7312486721873284
1684252786002379300,5.309379150390625,-6.572712502682209,6.157872056874632,4.560481868910789
1684252786012404200,5.319404296875,-6.399635571146011,4.6577504030078645,5.243751133075357
1684252786022430200,5.32943017578125,-5.2742053080499165,3.019834727910161,4.6422564812779425
1684252786032456200,5.339456298828125,-3.227381499803066,1.8544523936539887,3.8185505724191664
1684252786042482200,5.349482177734375,-1.4662220146134495,1.192650864931941,3.196122438186407
1684252786052508200,5.359508056640625,-1.2504650482580064,0.8371522504091262,2.7692887722462416
1684252786062534100,5.3695341796875,-2.14738612319231,0.48240650008022784,1.9013555991262197
1684252786072560000,5.37956005859375,-3.193412302444875,0.2382598900645971,0.6875586319215595
1684252786082585000,5.389585205078125,-3.7247704649597404,0.014717092138528823,-0.37667215279173105
1684252786092611000,5.399611083984375,-3.6522567251518367,-0.224287478813529,-1.4764080391936003
1684252786102637000,5.409636962890625,-3.2943899201929567,-0.5637403829425573,-2.4762109580621123
1684252786112663000,5.4196630859375,-2.9126012646377086,-1.0143120673447847,-3.1658745994389057
1684252786122689000,5.42968896484375,-2.946576891736686,-1.3808552229732274,-3.4614220186069606
1684252786132715000,5.439715087890625,-2.9301170475840568,-1.8284785789638756,-3.451372626018524
1684252786142741200,5.4497412109375,-2.736966757573187,-2.454301031810045,-3.2797494004219767
1684252786152767200,5.459767333984375,-2.519589204278588,-3.2369927932351827,-3.089204032212496
1684252786162792200,5.469792236328125,-2.400396569273621,-4.157717645344138,-2.9333941695585843
1684252786172818200,5.479818115234375,-2.457320964153111,-5.097096344518661,-2.832382941801846
1684252786182844200,5.48984423828125,-2.5530039826244115,-5.8442959368020295,-2.7700498197466135
1684252786192870100,5.4998701171875,-2.7305580595746637,-6.371130776673555,-2.6777023754388094
1684252786202896100,5.509896240234375,-2.90988469915539,-6.605133009293675,-2.5480466524779795
1684252786212922000,5.519922119140625,-3.083766225072741,-6.420261595067381,-2.3991674658700823
1684252786222948000,5.529947998046875,-3.395079076388478,-5.735906873753667,-2.210761740037799
1684252786232973000,5.53997314453125,-3.6173721665143965,-4.656616430541873,-1.9760691870659588
1684252786242999000,5.5499990234375,-3.5917782910525795,-3.357387935897708,-1.7200446538604794
1684252786253025000,5.56002490234375,-3.3995977228567003,-2.020907861223817,-1.0974174899242817
1684252786263051000,5.570051025390625,-3.2857308129191396,-0.7891711865723132,-0.48912809995282436
1684252786273077000,5.580076904296875,-3.2384500063061714,0.21590368134975432,0.15024609104692935
1684252786283103000,5.59010302734375,-3.0367692038372156,1.1961965747147798,1.0407272691268474
1684252786293129200,5.600129150390625,-2.586004334950447,2.1863842546284196,1.8887867710627615
1684252786303154000,5.61015380859375,-1.4818166202388703,3.3010762660890816,2.3663822175994516
1684252786313180200,5.62018017578125,10.212506928884983,6.098426180693507,1.9513851199254393
1684252786323206100,5.6302060546875,21.141170077013967,11.146515625458955,2.6897423573225736
1684252786333232000,5.640232177734375,5.673174230986834,11.425621320652962,2.3241955192551016
1684252786343258000,5.650258056640625,0.9211679197013377,10.957676476645469,-0.3459571714565158
1684252786353284000,5.6602841796875,-1.5997899425819515,8.247179500585794,-2.5370973884403702
1684252786363310000,5.67031005859375,-2.9031179814994332,4.1973242640674115,-2.9177593780532476
1684252786373336000,5.680336181640625,-3.0234967575490472,0.31193712069392204,-2.052510037189722
1684252786383361000,5.690361083984375,-2.6516999191761017,-2.8524241515725848,-1.3682852258659899
1684252786393387000,5.700386962890625,-2.28850709688887,-5.174581735259294,-0.9030130351338534
1684252786403413000,5.7104130859375,-1.7548842043124138,-6.469523930886387,-0.7346863668646663
1684252786413439000,5.72043896484375,-1.1861572651289403,-6.051183952525258,-0.6400333490282297
1684252786423465000,5.73046484375,-1.1890203994750976,-5.023591547846793,-0.39365328087210655
1684252786433491000,5.740490966796875,-1.5989831562437116,-3.9945360848784444,-0.2208597145882435
1684252786443517200,5.75051708984375,-2.342513412364572,-2.7831109613716603,-0.046531029425282026
1684252786453542000,5.7605419921875,-3.4241280607402325,-1.2798176917314528,-0.032335568274371326
1684252786463568100,5.770568115234375,-4.33011360887885,0.24696809717714785,0.09934376946855336
1684252786473594000,5.780593994140625,-5.00910826446414,1.5266536869615315,0.25213822982404377
1684252786483620000,5.7906201171875,-5.589715026533604,2.4342396560341117,0.3440603248592466
1684252786493646000,5.80064599609375,-6.057172379285097,2.780436773726344,0.4366489575117826
1684252786503672000,5.810672119140625,-5.25355298064351,2.199246658810973,0.4205365385573357
1684252786513698000,5.820697998046875,-3.439994322913885,1.1580799022883177,0.26243776124864815
1684252786523724000,5.83072412109375,-1.951354870917648,0.38404198743999,0.0380095587901771
1684252786533749000,5.8407490234375,-0.9548539892692118,-0.1380056181550026,-0.06322700215503572
1684252786543775000,5.85077490234375,-0.21352127972524612,-0.4760024782568216,0.023970000587031245
1684252786553801000,5.860801025390625,0.2179004081249237,-0.6386702439814805,0.037582492484524846
1684252786563827000,5.870826904296875,0.486343255007267,-0.4611240580767393,-0.10632153605930507
1684252786573853000,5.88085302734375,0.60133390827775,0.03764554778337478,-0.575966242787242
1684252786583879000,5.89087890625,0.9222586375474929,0.20916180587410926,-0.6999198085837066
1684252786593905000,5.90090478515625,1.81272980569005,0.06624795741140842,-0.5117408772446215
1684252786603930000,5.91093017578125,2.3647592925727365,-0.14018471575975416,-0.2280140250559896
1684252786613956000,5.9209560546875,1.7127829922944307,-0.02994213379919529,0.000612359744682908
1684252786623982000,5.930982177734375,0.3536176230818033,0.31217911275625226,-0.021761530757322907
1684252786634007800,5.9410078125,-0.5648837077587843,0.5087076470285654,-0.6277424611233174
1684252786644033800,5.95103369140625,-0.7311988900750875,0.6345137088239192,-1.2305953956618905
1684252786654059800,5.961059814453125,-0.8182394601464271,0.5945967089772224,-1.324385439993441
1684252786664085800,5.971085693359375,-0.9996639487892389,0.7486907076239585,-1.3309440678566693
1684252786674112000,5.981112060546875,-1.126390632560849,0.5375099631428718,-0.691067809086293
1684252786684137000,5.991136962890625,-1.2908873672783374,-0.5484188951700926,0.47864802432954306
1684252786694163200,6.0011630859375,-1.3808172290503977,-1.380723705548048,1.3187645313717424
1684252786704189200,6.011189208984375,-1.3398755623310803,-1.7196294971883297,1.6770643209204077
1684252786714215200,6.021215087890625,-1.5742320152163505,-1.4233476262658833,1.676236491794139
1684252786724241000,6.031240966796875,-1.83331958925426,-0.5378811345428228,1.2971519806310534
1684252786734267000,6.041266845703125,-1.7422896572858093,0.2226005486398935,1.1002562204815447
1684252786744292900,6.05129296875,-1.5261170958667993,0.3115858230382204,1.139245291828364
1684252786754318000,6.061318115234375,-1.282969433760643,-0.16379823105931282,1.3820644526325165
1684252786764344000,6.071343994140625,-1.2310042687237261,-0.7627022818416357,1.4700360199436544
1684252786774370000,6.0813701171875,-1.28163204767704,-1.0661878005325793,1.229108079713583
1684252786784396000,6.09139599609375,-1.2252075651437044,-0.7594342199563979,0.5626299374826252
1684252786794422000,6.101422119140625,-0.8839186777591704,-0.32308687573969364,-0.20738456706851718
1684252786804448000,6.111447998046875,1.0887423082984984,0.16819383566975593,-1.2947985493727028
1684252786814474000,6.121473876953125,4.271918609541654,0.6372358272641897,-2.459079498258233
1684252786824500000,6.1315,4.706218958100676,0.8190297337412834,-2.6729344303846356
1684252786834525000,6.14152490234375,3.843037363421917,1.0146890839636324,-2.1738174723915753
1684252786844551200,6.15155126953125,3.124454209291935,1.3264958562761544,-1.3171728782661258
1684252786854577200,6.1615771484375,2.7222680778741837,1.4724696768313645,-0.3838420809537172
1684252786864603100,6.17160302734375,2.4647312404096127,1.3320856391072273,0.3673229078292847
1684252786874629000,6.181629150390625,2.191684114602208,1.1200281117916107,0.684379709624499
1684252786884655000,6.191655029296875,1.7276393467731772,0.8837690401554107,0.9463827327176928
1684252786894681000,6.20168115234375,1.2314257090061902,0.42109015385210513,1.2010139118686318
1684252786904706000,6.2117060546875,0.8708412425864487,-0.08139876479208469,1.3120723402567207
1684252786914732000,6.22173193359375,0.6711012719869613,-0.44616965005099773,1.3611328698933123
1684252786924758000,6.231758056640625,0.494868579833582,-0.6101905839502811,1.4322950489617883
1684252786934784000,6.241783935546875,0.30487302752658724,-0.5787012207090855,1.4866281121738254
1684252786944810000,6.25181005859375,0.16195640258491037,-0.33156185861825943,1.5175979815855623
1684252786954836000,6.2618359375,0.06508022880628704,0.1035714336335659,1.554593102636188
1684252786964862000,6.271862060546875,0.0422024804353714,0.5308294624656439,1.61681998783797
1684252786974888200,6.28188818359375,0.08211962641254067,0.8098959946930409,1.7719379227049648
1684252786984913000,6.291912841796875,0.19861191641762851,0.9228437439590692,2.028037274712324
1684252786994939100,6.301939208984375,0.3525146302759647,0.9752385325849056,2.346524255441129
1684252787004965000,6.311965087890625,0.4635691131412983,1.0568062242031098,2.5715245586991307
1684252787014991000,6.3219912109375,0.43840902598686515,1.1336340278178452,2.6723177597910164
1684252787025017000,6.33201708984375,0.2766448580384254,1.0112912582188844,2.7266587140485643
1684252787035043000,6.34204296875,0.03431501512117684,0.7636345942556858,2.8069968638718126
1684252787045069000,6.352069091796875,-0.316456059423089,0.5228425553649664,2.884779776254296
1684252787055094000,6.362093994140625,-0.654779009674117,0.4214034575849771,2.8652433011353016
1684252787065120000,6.3721201171875,-1.0851059245575219,0.644855654618144,2.753098100423813
1684252787075146000,6.38214599609375,-1.5451929677367209,0.978520038473606,2.692569105181098
1684252787085172000,6.392171875,-2.0876661062449218,1.1877426346242428,2.63708102671504
1684252787095198000,6.402197998046875,-2.5737854893684387,1.1288087996184826,2.5050930614143607
1684252787105224000,6.412223876953125,-2.780535557925701,0.7376800687879324,2.4512257160179316
1684252787115250000,6.42225,-2.833716528493166,0.309158303630352,2.438383039449155
1684252787125275000,6.43227490234375,-2.5457448052763936,0.11560030960142612,2.5891683519393203
1684252787135300900,6.44230078125,-2.109644713819027,0.17833470593392847,2.7730691675677894
1684252787145327000,6.4523271484375,-1.7986065877914428,0.3614893793702125,2.9183474070742723
1684252787155353000,6.46235302734375,-1.5258102218747138,0.5368927080273628,2.9409774642944333
1684252787165379000,6.472379150390625,-1.0683423482179641,0.7448468916773796,2.9759298274710773
1684252787175405000,6.482405029296875,-0.35278467938899993,0.888764948746562,3.0903438498973843
1684252787185431000,6.49243115234375,0.8094692937135696,0.9693447983711957,3.361911550801992
1684252787195457000,6.50245703125,3.7888475080728528,1.0085545267313718,4.029360145500302
1684252787205482000,6.51248193359375,6.371560984784364,0.8278829022824764,4.478001738622784
1684252787215508000,6.522508056640625,4.8593093326628205,0.47076925377845763,4.033921754327416
1684252787225534000,6.532533935546875,1.7764228130340576,0.2030857008308172,3.493924650543928
1684252787235560000,6.542559814453125,-0.41861945288963615,-0.08319266247153281,3.223381031990051
1684252787245586000,6.5525859375,-1.8280230902813375,-0.3422679615497589,3.1666841622561215
1684252787255612000,6.56261181640625,-3.057561524236202,-0.47973348147869105,3.383200714807212
1684252787265638000,6.572637939453125,-4.194060293835402,-0.5589999104171991,3.7164901278704403
1684252787275662800,6.582662841796875,-4.79844569863826,-0.4743377599149942,4.018316481177509
1684252787285688800,6.592688720703125,-5.051407775533199,-0.10489537571370601,4.358727708944678
1684252787295715000,6.602715087890625,-5.350746111416816,0.4384878633767366,4.592664475113153
1684252787305741000,6.612740966796875,-5.497599052894115,1.214167115691304,4.678868009838461
1684252787315767000,6.62276708984375,-5.011629891896248,2.0947218699753285,4.538272082929313
1684252787325793000,6.63279296875,-3.7849966778635977,3.14898776204586,4.330185797332227
1684252787335819000,6.642819091796875,-3.0221675547719,3.88279361974895,3.994851726698875
1684252787345844000,6.652843994140625,-3.4842928988456725,3.7554905973941084,3.20141353033185
1684252787355870000,6.662869873046875,-4.3146889529928565,3.0383915443420406,2.4082113346777856
1684252787365896000,6.67289599609375,-4.866426763452589,2.2454197964429854,1.895198830062151
1684252787375922000,6.682921875,-5.2398342518925665,1.7414648968994617,1.5542356675006448
1684252787385948000,6.692947998046875,-5.37808069306612,1.3030097667485474,1.3136059795647859
1684252787395974000,6.702973876953125,-5.405920301628113,0.9359691829919814,0.9476770103119313
1684252787405999900,6.712999755859375,-5.407744009923935,0.739566320925951,0.5654410493806005
1684252787416025900,6.72302587890625,-5.323252539813518,0.6805576671183109,0.37583157378174364
1684252787426050800,6.73305078125,-5.132844534248114,0.7416185772806405,0.2586494748815894
1684252787436076800,6.743076904296875,-5.093489844459295,0.9095920481979847,0.11629874019436537
1684252787446103000,6.75310302734375,-5.0014159563958644,1.0507271965503693,-0.12534955019950866
1684252787456129000,6.76312890625,-4.659406353521347,1.0671411557346582,-0.42822891969084736
1684252787466155000,6.773155029296875,-4.143723606783151,0.8727157312214374,-0.43483577060997486
1684252787476181000,6.783180908203125,-3.669917761787772,0.7716770309358835,-0.5854932189367711
1684252787486207000,6.79320703125,-3.077587536437809,0.8058136938154697,-1.047303286516294
1684252787496232000,6.80323193359375,-1.8479463727608323,0.9433025946199893,-1.4171332817956805
1684252787506258000,6.8132578125,-0.36035394559949635,1.026571829459071,-1.892595077304542
1684252787516284000,6.823283935546875,0.03073971391767263,1.0701035126715899,-2.691335471732914
1684252787526310000,6.833309814453125,-0.7169125905692577,1.2203905202507972,-3.1909608176395294
1684252787536336000,6.8433359375,-1.796965250325203,1.190884439781308,-3.30439927303195
1684252787546363000,6.85336279296875,-2.6509873869925737,1.114137884709239,-3.280213218541443
1684252787556388900,6.863388916015625,-2.811988973070681,1.150686284905672,-3.1255840901046987
1684252787566414800,6.873414794921875,-2.9427190472647546,1.48122523021698,-2.841597929392755
1684252787576439800,6.883439697265625,-2.578447343699634,1.9061328965306281,-2.6090949954196807
1684252787586465800,6.8934658203125,-1.1948653261110185,1.9590648607730865,-2.6649919469475742
1684252787596491800,6.90349169921875,-0.13269962070137262,1.6222352908849715,-2.99850026345849
1684252787606517800,6.913517822265625,-0.7835588996484876,1.8598130439043044,-2.7159678086861967
1684252787616543700,6.923543701171875,-0.6818260796189308,2.1665637018710373,-2.515137485566735
1684252787626569700,6.93356982421875,-0.4510544994831085,2.3995436057060955,-2.2797649875067174
1684252787636595700,6.943595703125,-0.5703367124676704,2.563808285233378,-2.1433201889276505
1684252787646620700,6.95362060546875,-0.5803799675762653,2.504371176880598,-2.03218504204154
1684252787656646700,6.963646728515625,-0.10770721826404332,2.0918267330557105,-1.9281288936309515
1684252787666672600,6.973672607421875,0.12711013013124464,1.192827975064516,-2.4782313579738138
1684252787676699000,6.983698974609375,-0.17181699460297822,0.16138824730813503,-3.5441239749521016
1684252787686724900,6.993724853515625,-0.6222951555028557,-0.8158429203987121,-4.357396168079972
1684252787696750800,7.003750732421875,-0.9622001873135566,-1.7866665591508148,-4.989885677599907
1684252787706776800,7.01377685546875,-1.302820089395344,-2.6112743852853773,-5.46247162541151
1684252787716801800,7.0238017578125,-1.663040764003992,-3.332499578356743,-5.7645987152308225
1684252787726827800,7.033827880859375,-2.018611859241128,-3.968148428690433,-5.823747069770097
1684252787736853800,7.043853759765625,-2.3262878153592346,-4.618723045477271,-5.749661258339882
1684252787746879700,7.053879638671875,-2.614952197015285,-5.122902401426434,-5.657372266221046
1684252787756905700,7.06390576171875,-2.831842259053886,-5.4674628578275435,-5.410518735334277
1684252787766931700,7.073931640625,-2.815850032413006,-5.719614495122433,-5.0543344766348595
1684252787776957700,7.083957763671875,-2.5124209200844168,-5.874778753349185,-4.745624501293897
1684252787786983700,7.093983642578125,-2.081126183082163,-5.8955029769480225,-4.465249809077382
1684252787797008600,7.104008544921875,-1.5713596746504306,-5.8257408739358185,-3.8913188715100286
1684252787807034600,7.11403466796875,-0.9975614235520363,-5.856924532228708,-3.131030080550909
1684252787817060600,7.124060546875,-0.4523427857279777,-5.9491141556262965,-2.3141050640039142
1684252787827086800,7.1340869140625,-0.055335518252849575,-5.965117195922136,-1.4785488506145774
1684252787837112800,7.14411279296875,0.23503873606100678,-5.8026996055662625,-0.5351405671304091
1684252787847138800,7.154138916015625,0.5861303477965295,-5.338984361952543,0.584859304947406
1684252787857164800,7.164164794921875,0.6830909119229763,-4.35835069232583,2.0582085410922764
1684252787867189800,7.174189697265625,0.1309774000186473,-2.4657325264066454,3.2118212348386646
1684252787877215700,7.1842158203125,-0.6194283678948879,0.2165185983777046,3.4747944181382655
1684252787887241700,7.19424169921875,-0.654314972358942,3.4604642794907092,3.694391985569894
1684252787897267700,7.204267822265625,-0.9992354942440986,6.684058661970496,3.511608775794506
1684252787907293700,7.214293701171875,-2.6309166588664055,11.19031385065317,1.9341317873075603
1684252787917319700,7.224319580078125,-4.6472903837919235,17.074270182192326,-2.082018163485825
1684252787927345700,7.234345703125,-2.796600557541847,23.38350125979185,-4.315210054257512
1684252787937371000,7.244370849609375,5.700756649917364,25.749138504242897,0.028930618669092655
1684252787947396900,7.25439697265625,2.6941794629871842,18.207965584808587,3.8354911858260627
1684252787957422800,7.2644228515625,0.5602011029005051,8.136580944794416,4.347945618167519
1684252787967448800,7.27444873046875,1.7310300121247768,1.0977426302254198,3.4008705192714928
1684252787977474800,7.284474853515625,2.272606494054198,-3.6984067741692064,1.8059389765061438
1684252787987500800,7.294500732421875,2.342714634025097,-6.060781217432022,0.8985980682358146
1684252787997526800,7.30452685546875,3.6926919036537407,-8.062786809787154,0.22426234437227247
1684252788007552800,7.314552734375,8.434124798476695,-10.173761310905217,-1.222718378676474
1684252788017578000,7.324577880859375,9.708955933967232,-10.57156235910654,-2.7578800740033387
1684252788027604000,7.33460400390625,4.323269442072511,-8.978780541720987,-2.7351071011811494
1684252788037630000,7.3446298828125,0.06880414470024407,-6.982308033573627,-2.2996419466264544
1684252788047656000,7.354656005859375,-0.6683171211611479,-5.004684018281102,-2.5768963148653508
1684252788057682000,7.364681884765625,-1.4220119937479496,-2.5528788949400183,-2.8949469500035048
1684252788067708000,7.3747080078125,-2.4588053574919697,0.014299743509292601,-3.0212153686136007
1684252788077733600,7.384733642578125,-3.616294892671704,2.3668349298030136,-3.0799487126111984
1684252788087758800,7.3947587890625,-4.600608712115884,3.9947412520617243,-2.7236896351099014
1684252788097784800,7.404784912109375,-5.036876561355591,4.577443525105714,-1.4558178172379732
1684252788107810800,7.414810791015625,-4.6171764005571605,4.31980030465722,-0.05035948340594768
1684252788117836800,7.4248369140625,-3.54767026925683,3.4669366903752086,1.085929442834854
1684252788127863000,7.434863037109375,-3.085013010263443,2.2423440422594547,1.9257596802815793
1684252788137889000,7.444888916015625,-1.7452958533644676,1.585948756495118,2.5998922827884554
1684252788147915000,7.4549150390625,0.10457622676193713,1.5501128884822128,3.3296859822407363
1684252788157940000,7.46493994140625,1.462811621648073,1.5724287651866673,3.5393291418910025
1684252788167966000,7.474966064453125,3.642649231112003,1.3230290569484233,3.4509482631266115
1684252788177992000,7.484991943359375,8.74887171589434,0.4234264878451824,3.2795378034979104
1684252788188018000,7.495017822265625,8.610524152433872,-0.04286415921449661,2.045764654582739
1684252788198044000,7.5050439453125,4.841170449382067,0.4423825327277183,0.805678669258952
1684252788208070000,7.51506982421875,2.504585111892223,0.6328250250846147,0.11611293529868125
1684252788218095900,7.525095947265625,1.3201589083395897,0.379511942794919,-0.641004532147944
1684252788228121900,7.535121826171875,0.7784381956338882,-0.03525368421077728,-1.5440421902664005
1684252788238146800,7.545146728515625,0.42142450037300583,-0.27210078486800193,-2.1972987396135926
1684252788248172800,7.5551728515625,0.178359840375185,-0.28299276576042176,-2.4083285313166676
1684252788258198800,7.56519873046875,0.08486790220737457,-0.1634235525280237,-2.3212229331851004
1684252788268224800,7.575224853515625,0.09803294259831309,-0.04843815995454788,-1.9094854218289254
1684252788278250800,7.585250732421875,0.2894043863683939,-0.10212181934714316,-1.3304445939019323
1684252788288277000,7.595277099609375,0.7305113462023437,-0.05483633655905723,-0.49393911696374415
1684252788298303000,7.605302978515625,1.3143605973243713,0.030575755527615545,0.3332892669327557
1684252788308328000,7.615327880859375,1.8004175827361641,0.137822078281641,0.8382849077008664
1684252788318354000,7.62535400390625,2.256441687325388,0.17673253143429754,1.2625110214911401
1684252788328380000,7.6353798828125,2.5796038202583786,0.15449439614117144,1.5506243451356887
1684252788338406000,7.645406005859375,2.6883880201041697,0.04636427628993988,1.7112544675529002
1684252788348432000,7.655431884765625,2.732414208835363,-0.14667700038850306,1.7958781857408581
1684252788358457900,7.665457763671875,2.802051516424119,-0.3533499120563268,1.8701978059269486
1684252788368483800,7.67548388671875,2.943048425349593,-0.5224532637864351,1.9952885590597986
1684252788378508800,7.6855087890625,3.1900343504443764,-0.7063736608982085,2.192731431698054
1684252788388534800,7.69553466796875,3.4548704050064085,-0.8374369125694036,2.438889235405624
1684252788398560800,7.705560791015625,3.7822295512378212,-0.7362088271915912,2.5367554431349038
1684252788408586800,7.715586669921875,4.430185217697918,-0.4063070107400417,2.5665534922882913
1684252788418612700,7.72561279296875,5.376562105196714,0.15968728860914705,2.4679279906243083
1684252788428638700,7.735638671875,6.096544020208716,0.4815887539565563,2.0079484264075753
1684252788438665000,7.7456650390625,5.884098370358347,0.1251432139724493,0.97674557614699
1684252788448689700,7.755689697265625,5.695823285168409,-0.7922744132846593,-0.28495281378701326
1684252788458716000,7.7657158203125,8.756061335137487,-1.6558184115350245,-0.6756801242098212
1684252788468742000,7.775741943359375,15.368082350379227,-2.1281430780619384,0.299165609665215
1684252788478767900,7.785767822265625,15.41716699154377,-0.7520312502235174,1.2455259844206272
1684252788488793900,7.7957939453125,4.012912284046411,1.6206962447494266,-0.45436830020621416
1684252788498819800,7.80581982421875,-7.2237833785533905,2.491737905278802,-1.240228170273453
1684252788508845800,7.815845703125,-10.291225660812854,3.771542153006792,-0.9193015413075685
1684252788518871800,7.825871826171875,-8.761931688475608,5.905732694539427,-0.8772352544724941
1684252788528896800,7.835896728515625,0.49418520067930216,10.392289495539664,-1.8896388578474521
1684252788538922800,7.8459228515625,6.992382852864265,17.290310641664266,-4.421577256089448
1684252788548948700,7.85594873046875,-0.7233589902296662,20.875044274902343,-7.471389189112186
1684252788558974700,7.865974609375,-7.982703803768754,21.931308062791825,-7.112281151920556
1684252788569000700,7.876000732421875,-10.660175877583026,18.834000219100712,-0.9039569649204611
1684252788579026700,7.886026611328125,-8.30401314844191,13.97432146860361,4.990448572179675
1684252788589052700,7.896052734375,-7.525843832877278,11.010739373791218,8.983754238480328
1684252788599077600,7.90607763671875,-9.558123567464946,9.61149450764656,13.018869001984596
1684252788609103600,7.916103515625,-13.162065174520015,8.566670982182025,15.929325071287154
1684252788619129600,7.926129638671875,-15.346824458295107,5.691141849353909,14.401134676277637
1684252788629155600,7.936155517578125,-12.395953376495838,1.9884213036388159,11.673563815820216
1684252788639181600,7.946181640625,-8.950289775773882,-1.0676631337821483,8.191765656399726
1684252788649207600,7.95620751953125,-5.615092628896236,-3.7540006510972974,5.022920516717433
1684252788659233500,7.966233642578125,-0.9573696984171867,-5.832073584088683,2.449991644178331
1684252788669259800,7.976259765625,1.7300430469140409,-7.342652919083833,-0.09369929730817675
1684252788679284500,7.986284423828125,4.575685867783427,-8.773265567916631,-0.8758493530720471
1684252788689310700,7.996310791015625,4.3383179581224915,-9.041337827920913,-1.6674071425199508
1684252788699336700,8.006336669921875,1.4269506191939114,-7.143841826832294,-2.1824464767880736
1684252788709362700,8.01636279296875,0.7357982005640864,-4.482348243394494,-1.5928636504501104
1684252788719388700,8.026388671875,1.4391589433819054,-1.9861621265351772,-0.8656949657391756
1684252788729414700,8.03641455078125,-1.0536652958288788,-0.37228082249760625,-0.6428726641073823
1684252788739440600,8.046440673828124,-4.514948198226094,0.4155652529507875,-0.6589067571286111
1684252788749465600,8.056465576171876,-6.433183035960793,0.6614782881170511,-0.2321157612863928
1684252788759491600,8.06649169921875,-4.742366960802674,0.6742080058306456,0.2849058328401297
1684252788769517600,8.076517578125,-1.4353119125649332,0.8187707905441522,-0.541984259012714
1684252788779543600,8.08654345703125,0.7443669992059468,0.3993172979831695,-1.6237606007561087
1684252788789569500,8.096569580078125,0.6375771880477666,-0.7299404144465923,-1.8238010886721312
1684252788799595500,8.106595458984375,-1.086778168618679,-1.957989340496063,-1.4993302112281321
1684252788809621500,8.11662158203125,-2.9799653665974732,-3.0245594183444977,-1.0087788370065391
1684252788819646700,8.126646728515626,-4.171640372234583,-3.870400002121925,-0.7920647160567342
1684252788829672400,8.13667236328125,-4.956159349086881,-4.448202812686563,-0.8775333606362342
1684252788839698700,8.14669873046875,-5.454160893183946,-4.872356445762515,-1.253333735562116
1684252788849724700,8.156724609375,-5.733094738942384,-5.105910350093245,-1.8214473651528358
1684252788859750700,8.166750732421875,-5.877887825280427,-5.150441565737128,-2.50242764159739
1684252788869776600,8.176776611328124,-5.852757475677132,-5.091823372551799,-3.1688439706385134
1684252788879802600,8.186802734375,-5.632948019060493,-5.147675608155131,-3.854131588888168
1684252788889827800,8.196827880859376,-5.449186027380824,-5.281952561175823,-4.30887149888575
1684252788899853800,8.206853759765625,-5.311102667814493,-5.445139382338524,-4.6097848290011285
1684252788909879800,8.2168798828125,-5.044779297304153,-5.6066468721121545,-4.869592534007132
1684252788919905500,8.226905517578125,-4.563070131838321,-5.663073108211159,-5.054248551917076
1684252788929931500,8.236931640625,-4.1001071678966285,-5.60119094479382,-5.061054724800586
1684252788939957500,8.24695751953125,-3.8731042926445602,-5.3353334382295605,-4.816126609018445
1684252788949983500,8.2569833984375,-3.738443016481399,-4.9270098269701,-4.196947831970453
1684252788960008700,8.2670087890625,-3.6417137038275595,-4.412563344028592,-3.132102385957539
1684252788970034700,8.27703466796875,-3.4719068800032136,-3.8662025504320856,-2.275571627470106
1684252788980060700,8.287060791015625,-2.909558535940945,-3.261569016087055,-1.6293053754016755
1684252788990087000,8.2970869140625,-1.9336650465786456,-1.8618284753799437,-0.7724100944507867
1684252789000113000,8.30711279296875,-0.9788332691412418,2.1224153480648993,1.100735016974434
1684252789010138600,8.317138671875,9.91880922923684,12.496215247189998,5.811755018681287
1684252789020164600,8.32716455078125,21.53119581503868,32.97183233399391,10.61020276314616
1684252789030189800,8.33718994140625,-1.3714987810850143,44.660446419429775,1.018593690186739
1684252789040215800,8.3472158203125,-5.181932682543993,37.675267214334006,-12.474902410048246
1684252789050241800,8.35724169921875,12.843536984997987,25.314476336634158,-12.366777550894021
1684252789060267800,8.367267822265624,46.3403295971632,0.7885778968542814,-10.114663809770345
1684252789070293800,8.377293701171874,21.589114920043944,-3.905029416954517,-5.032967863479256
1684252789080319700,8.38731982421875,-0.7743652471065521,-0.5245557890236378,-2.4633579062297937
1684252789090345700,8.397345703125,-1.237287879037857,-3.0248411578953265,-2.0294902499996126
1684252789100371700,8.407371826171875,-3.0377099918186663,-4.8264270537585015,-1.8163592482335864
1684252789110396700,8.417396728515625,-4.916366852402687,-5.648088889569044,-1.9028559206865727
1684252789120422700,8.427422607421875,-5.882037930697202,-5.5386254752874375,-2.2272896809905767
1684252789130448600,8.43744873046875,-7.046337730413675,-4.353732969397306,-2.1376360058113932
1684252789140475000,8.447474853515626,-7.846493252336979,-2.563398535388708,-1.4730252648875117
1684252789150500900,8.4575009765625,-8.587873929208516,-0.41157764461934565,-0.5350368510276079
1684252789160526800,8.46752685546875,-10.645146650755406,2.050840058150887,1.3498073198892175
1684252789170552800,8.477552734375,-12.286923677456379,3.4417069720506666,3.5982214758425948
1684252789180577800,8.487577880859375,-9.898379020148516,3.158735833600163,4.101747920840978
1684252789190603800,8.497603759765624,-6.659005469256639,3.524251399746537,3.3551889645487067
1684252789200629800,8.507629638671874,-5.085321735572815,4.302454617580771,2.4603856124207377
1684252789210655700,8.51765576171875,-3.833599965251982,4.9839241388469935,1.4601454711787403
1684252789220681700,8.527681640625,-2.94387435477972,5.5434875283658505,0.6764419023625552
1684252789230707700,8.537707763671875,-2.321241491755098,5.582706024554372,-0.01622764283195138
1684252789240733700,8.547733642578125,-1.823707126778364,4.96141946157217,-0.3551137068584561
1684252789250758700,8.557758544921874,-1.4354828852176666,3.6263591905683277,-0.5148325596496462
1684252789260784600,8.56778466796875,-0.12278704276774077,1.4244237310647965,-0.7127385197550058
1684252789270810600,8.577810546875,2.764502122491598,-0.9074877693951129,-1.518578078664094
1684252789280836600,8.587836669921876,2.8885505269646643,-0.894889569106698,-0.8410404900193214
1684252789290862800,8.59786279296875,2.151836088338494,-0.3355564812123775,0.49643845949880777
1684252789300888800,8.607888916015625,2.449601475816965,-0.5015186123073101,0.9023089054524898
1684252789310914800,8.617914794921875,3.253589123249054,-1.1433213090956211,0.6944568670026957
1684252789320939800,8.627939697265624,4.230736704325675,-1.8560341098874806,0.11681706498004496
1684252789330965800,8.6379658203125,5.159511591899395,-2.386073298758268,-0.5954598286125808
1684252789340991700,8.64799169921875,5.3637143140614025,-2.432260464915633,-1.1808649308744816
1684252789351017700,8.658017822265625,4.65497976925075,-2.2198598232507702,-1.5627891224429011
1684252789361043700,8.668043701171875,3.549613804540038,-2.251311777091026,-1.877866148597747
1684252789371069700,8.678069580078125,2.642633400145173,-2.5324217978447674,-2.035249836439639
1684252789381095700,8.688095703125,2.1115862032756207,-2.836395976835489,-1.9545310167357324
1684252789391121700,8.69812158203125,1.457838655541092,-3.160511611101031,-1.7710947498790919
1684252789401146600,8.708146728515626,0.7229056935042143,-3.4542478891938924,-1.5732463651798665
1684252789411172600,8.718172607421875,-0.33427126370742916,-3.6055443660765882,-1.2325507675133645
1684252789421198600,8.728198486328125,-1.7906623507887125,-3.555760636731982,-0.7855191668707877
1684252789431224600,8.738224609375,-2.7278444167017937,-3.2553555483996868,-0.312722791178897
1684252789441250800,8.748250732421875,-2.943007508817315,-2.6897230681002138,-0.3378508026946336
1684252789451276800,8.75827685546875,-2.559158998122811,-1.8183587514877317,-0.2876999205380678
1684252789461302800,8.768302734375,-1.6595874086797235,-0.7978186034083365,-0.13243264032825827
1684252789471327700,8.77832763671875,-0.4441026345185935,0.17375556145012377,-0.1543727425228804
1684252789481353700,8.788353759765625,0.5319802399359643,1.1145733535170554,-0.7467068403303623
1684252789491379700,8.798379638671875,1.1000342482939363,1.6771376784175633,-1.2816210878916083
1684252789501405700,8.80840576171875,1.2114878134794533,1.6804612698823214,-1.2788152366906405
1684252789511431700,8.818431640625,1.2919669792085886,1.2338777783334254,-0.8166321710802614
1684252789521457700,8.828457763671874,1.6593956854999063,0.8272101175874471,-0.2312204929471016
1684252789531483600,8.838483642578124,2.0485387954711913,0.5138870954930782,0.30919308268278833
1684252789541508600,8.848508544921875,2.642646259626746,0.2995417495012283,0.8406303017832338
1684252789551534600,8.85853466796875,3.4692286007046698,0.2985486468106508,1.3898270494580267
1684252789561560600,8.868560546875,4.3123108256846665,0.5408937603622674,1.626859443554282
1684252789571586600,8.878586669921875,4.954895028239489,0.909220292276144,1.6995220903135835
1684252789581612500,8.888612548828124,5.4842275301456445,1.1578063460439443,1.471147342186421
1684252789591638500,8.898638427734374,5.797496191704273,1.1355950987577437,0.9962078900512308
1684252789601664500,8.90866455078125,5.317376341256499,0.9189917447060346,0.45339273317232726
1684252789611689500,8.918689453125,4.3144846625924105,0.6541127277851104,0.14745456063225865
1684252789621715500,8.928715576171875,3.6277731490194793,0.48966801551580424,-0.029272856235504147
1684252789631741400,8.938741455078125,3.567817862011492,0.5901181022584437,-0.2608617441035807
1684252789641767400,8.948767333984375,3.9972739854097363,0.9544698853224516,-0.5988774550363422
1684252789651793400,8.95879345703125,4.681851409563422,1.140844689849019,-1.0020929295018315
1684252789661819400,8.9688193359375,4.899371586199105,0.9288269100219011,-1.1970382862359286
1684252789671845600,8.978845703125,4.306458008003235,0.4850076224893331,-1.1240535679154098
1684252789681870300,8.988870361328125,3.5933529930233954,0.010039747977256774,-0.9143252141997218
1684252789691896600,8.998896484375,3.502278052869439,-0.6388607981175184,-0.08918912640735506
1684252789701922600,9.008922607421875,3.925158597269654,-1.3590367743968963,1.4265426229149103
1684252789711948500,9.018948486328124,3.3882667660251258,-1.3218798869132995,2.6171932539403437
1684252789721974500,9.028974609375,2.343642854785919,-0.32032676337659355,3.23200828282088
1684252789732000500,9.03900048828125,1.5730810916155575,1.7158517322152853,4.001191158853471
1684252789742026500,9.049026611328125,0.6385638609975576,4.620581825086474,4.830252165004611
1684252789752051700,9.0590517578125,-1.1151686890617012,7.942623137792944,5.632220289307832
1684252789762077700,9.06907763671875,-3.237414233517647,11.043124224567412,6.090932610067725
1684252789772103400,9.079103515625,-4.594322763714194,13.221431555724143,6.835254601088166
1684252789782129400,9.08912939453125,-4.342533529990911,12.925095324265957,7.3422016681849955
1684252789792155400,9.0991552734375,-1.5224122499994932,8.460434128731489,5.5659863604217765
1684252789802181400,9.109181396484376,2.012336578363925,4.019327996307611,3.1024925528526306
1684252789812207400,9.119207275390625,3.926727454021573,0.637802228975296,1.1016600959300995
1684252789822233600,9.129233642578125,9.431869761902094,-2.6542180394768713,-1.441880769561231
1684252789832258600,9.139258544921875,16.062306139278412,-4.511404826530814,-4.871249945825338
1684252789842284800,9.149284912109374,7.702575779789686,-3.9254637176960703,-4.397513951195776
1684252789852310800,9.159310791015624,-0.4639975676864385,-3.2504023099064825,-2.490064126847684
1684252789862336500,9.16933642578125,-3.240898568502068,-3.266162189096212,-2.3023865691594776
1684252789872362500,9.179362548828125,-3.7582080396592614,-2.769034505224228,-2.7280282488361
1684252789882388500,9.189388427734375,-4.226306028401852,-1.4595803846418858,-2.8784505732327696
1684252789892414500,9.19941455078125,-4.780507598626613,0.47691140979528424,-3.5398619335934516
1684252789902439700,9.209439697265625,-5.274370143222809,2.493984807422757,-4.228848406361044
1684252789912465700,9.219465576171874,-5.547903006720542,4.891625209856033,-5.912088201045989
1684252789922491600,9.22949169921875,-3.58808528175354,7.993157393243909,-8.985620616874098
1684252789932517600,9.239517578125,-3.572114974683523,8.912270718502997,-9.409909859028458
1684252789942543600,9.249543701171875,-2.0525208508446813,8.178327498155832,-7.597609676927328
1684252789952569600,9.259569580078125,1.7420520491376519,6.990864849516749,-4.465171190883219
1684252789962595600,9.269595703125,4.56718545820266,5.8391690953075885,-1.5974728978112338
1684252789972620500,9.27962060546875,3.1634853662148115,4.850798109427094,0.16979790986552834
1684252789982646500,9.289646484375,-0.32885523000806566,4.192961392682791,1.1729048387154937
1684252789992672800,9.2996728515625,-2.8447154768913983,3.5645623673468827,1.5964808180339634
1684252790002698800,9.30969873046875,-4.349095372724533,3.0724042885810134,1.3529093775577843
1684252790012724700,9.319724853515625,-4.926213708156347,2.6743922279775143,0.6218070797249674
1684252790022750700,9.329750732421875,-4.723288750845193,2.174568729150295,-0.49772857237458223
1684252790032776700,9.339776611328125,-4.273686203736067,1.6110317598253487,-1.4277939381502567
1684252790042801700,9.3498017578125,-4.4329862465932965,1.1307336302012205,-1.8980461823172867
1684252790052827600,9.35982763671875,-4.9757384943038225,0.4619646005541086,-2.0813436252251267
1684252790062853600,9.369853515625,-5.833920088738203,-0.4182119680672884,-2.040255243511498
1684252790072879600,9.379879638671875,-6.781805334973335,-1.3536346230924128,-1.913025140262395
1684252790082905600,9.389905517578125,-7.4133122631967066,-2.2450690833091733,-1.809696283213049
1684252790092931600,9.399931640625,-7.414867091423273,-3.1491268782556054,-1.840236821296811
1684252790102957600,9.40995751953125,-7.095456273847818,-4.058056078630686,-1.8634908556342125
1684252790112982500,9.419982421875,-6.8750190407216545,-4.842247723224759,-1.7870108425438402
1684252790123008500,9.430008544921876,-6.900538097381592,-5.327644637292623,-1.5783809515893459
1684252790133034500,9.440034423828125,-7.072959779879451,-5.5244893979072565,-1.2351567122280598
1684252790143060500,9.450060546875,-7.397802559375762,-5.533516753971576,-0.9243088480755686
1684252790153086700,9.460086669921875,-7.532985521325468,-5.596972450315952,-0.7088339865971356
1684252790163112700,9.47011279296875,-7.358402861401438,-5.691506006491184,-0.5829447765629738
1684252790173138700,9.480138671875,-6.928381213074922,-5.964523906204104,-0.45587980074770745
1684252790183163600,9.49016357421875,-6.321393224558234,-6.358267203447222,-0.43216793964020905
1684252790193189600,9.500189697265625,-5.630922066190839,-6.855517636916041,-0.5207898606188595
1684252790203215600,9.510215576171875,-4.755397415028512,-7.383295310595631,-0.511953497081995
1684252790213241600,9.52024169921875,-3.616837328985333,-7.889484252801537,-0.31779841394275427
1684252790223267600,9.530267578125,-1.843824908916652,-8.47164350501001,0.23890680966600775
1684252790233293600,9.54029345703125,-0.4680830834344029,-8.789020186409354,0.9546385929528624
1684252790243319600,9.550319580078124,1.7189058590888977,-8.528083185112475,1.7003677473574876
1684252790253344500,9.560344482421876,6.578326835432648,-7.547075421476364,3.6643542824417352
1684252790263370500,9.57037060546875,16.199521483838556,-4.120811517751217,7.127936401692033
1684252790273396500,9.580396484375,28.707749824905395,5.865780623379349,6.375268022608757
1684252790283422500,9.59042236328125,5.964495264631509,12.712806326282024,2.638004571300745
1684252790293448400,9.600448486328125,-6.601410773900151,26.246903316974638,-2.7396923831447957
1684252790303474700,9.610474609375,-1.9896753953531383,34.965774446880815,-10.460224967646598
1684252790313500700,9.620500732421876,3.461667225539684,27.101920894420147,-15.224636002475023
1684252790323525600,9.630525634765625,17.58952388986349,8.543017134872079,-10.872490594530104
1684252790333551600,9.640551513671875,8.697314547136425,-2.502089787945151,-3.8125536700919267
1684252790343577600,9.65057763671875,-0.005092354702949524,-5.306992309886216,-1.9594712496168911
1684252790353603600,9.660603515625,-3.8305472996830936,-3.812935070624947,-1.7608679548971353
1684252790363629600,9.670629638671874,-6.048128656607866,-3.0834540903836487,-1.7891918398447333
1684252790373655600,9.680655517578124,-4.789656535243988,-2.93520238802433,-2.4758909323275087
1684252790383681500,9.690681640625,1.6265841337442397,-2.3934505495280027,-3.227117295908928
1684252790393706500,9.70070654296875,3.4641689792275425,-0.21509236496686934,-1.0315800130099058
1684252790403732500,9.710732421875,0.12280556480512023,1.5781740308403969,2.6126535646840927
1684252790413758500,9.720758544921875,-3.0497999503239988,2.0937048018872737,4.199265169002116
1684252790423784400,9.730784423828124,-4.940864164799452,1.7228151414871216,4.372616533565521
1684252790433810400,9.740810546875,-4.798778876115382,0.6963128701329231,3.8462329445928334
1684252790443836400,9.75083642578125,-3.893663973331451,-0.01713584371805191,3.4859307291805743
1684252790453862700,9.760862548828126,-2.4514522182501852,-0.2109726546883583,3.3126448310688135
1684252790463888600,9.770888671875,-1.2875824805140494,-0.044645197412371634,3.0072751060664653
1684252790473913600,9.78091357421875,-1.292136928948015,0.5583224495470523,2.777882120807469
1684252790483939600,9.790939697265625,-1.8672725661300122,1.2934715385526419,2.6890163811355827
1684252790493965600,9.800965576171874,-2.2145476883172988,1.7821686632096767,2.7623095808833837
1684252790503991600,9.810991455078126,-2.1240122618675232,1.7990420565992593,2.68590672468245
1684252790514017500,9.821017578125,-1.6619408399380742,1.3029542371690273,2.495118487627804
1684252790524043500,9.83104345703125,-0.9825170722205191,0.4725958846837282,2.331185962664336
1684252790534069500,9.841069580078125,-0.2750327466666698,-0.4357563925862312,2.2666167521201075
1684252790544094200,9.85109423828125,0.546541995382309,-1.3236778762459753,2.054309780088067
1684252790554120200,9.8611201171875,1.5671335813879965,-1.8351386213749645,1.717555759654194
1684252790564146200,9.871146240234374,2.5772750850498674,-1.9919857181221245,1.2116058869011699
1684252790574172200,9.881172119140626,3.4315982504904268,-1.8047919984281062,0.5827651091471314
1684252790584198100,9.8911982421875,3.6880502153277397,-1.2007587680637837,-0.1399067756012082
1684252790594224400,9.901224365234375,3.082347590446472,-0.4640811543166637,-0.7113195198025554
1684252790604250400,9.91125048828125,2.2184943801164625,0.05497369920313358,-1.189054155614227
1684252790614275300,9.921275390625,1.577573142337799,0.21255553996562956,-1.5443120932489633
1684252790624301300,9.93130126953125,1.0446621974229813,0.22104688945710657,-1.6730293663159013
1684252790634327300,9.941327392578126,0.571840687289834,0.11746259634196758,-1.58973119764328
1684252790644353300,9.951353271484376,0.21274669688986614,-0.039967268729209894,-1.3816111559070645
1684252790654379300,9.961379150390625,0.1935375540290959,-0.23534254131317137,-0.8948643616002052
1684252790664405200,9.9714052734375,0.38952655633091926,-0.5456821636825799,-0.33726737678349017
1684252790674431200,9.98143115234375,0.5953595100432634,-0.9032371262133121,0.03611775369420647
1684252790684456400,9.99145654296875,0.8361017915081232,-1.2735896109968423,0.29553543646931646
1684252790694482400,10.001482421875,1.1457061584055424,-1.5824632524669169,0.5026775730840861
1684252790704508400,10.01150830078125,1.5907336526840925,-1.7725982863098382,0.7549794325046241
1684252790714534400,10.021534423828125,2.0944734481722116,-1.7596236539244652,1.1213606755696237
1684252790724560400,10.031560302734375,2.671960616916418,-1.4423703066438436,1.5834791515111921
1684252790734586000,10.041586181640625,3.340425110659003,-0.9771136788070202,2.146062473373115
1684252790744612400,10.0516123046875,3.9169028100997205,-0.48041854113340376,2.731178529560566
1684252790754637300,10.06163720703125,4.139979159557819,0.06128244395852089,3.2685674966722726
1684252790764663600,10.07166357421875,3.9925159772276877,0.6337789648085832,3.718353291393816
1684252790774689500,10.081689453125,3.645045770859718,1.103359885585308,3.9976498329848047
1684252790784715500,10.091715576171875,3.2655776672065255,1.3947574915975331,4.074099743197858
1684252790794741500,10.101741455078125,3.021973493504524,1.612262178403139,3.9866625750243663
1684252790804767500,10.111767578125,2.8521359822809695,1.4645488207042217,3.571870060011744
1684252790814793500,10.12179345703125,2.5885113493353127,0.9116665163844824,2.7651670161411164
1684252790824818400,10.131818359375,2.1693116854049266,0.1927344026863575,1.8749027687475084
1684252790834844400,10.141844482421876,1.7591307558409868,-0.603506576141715,1.1840469949766992
1684252790844870400,10.151870361328125,1.5201422592408955,-1.543583194452524,0.8583503751300274
1684252790854896400,10.161896484375,1.3735584900937974,-2.52948925152421,0.807558783917129
1684252790864922400,10.17192236328125,1.1677835501790046,-3.4406606778681277,0.9673733521677553
1684252790874948400,10.1819482421875,0.9572744944144039,-3.9992075838208194,1.1770542134799062
1684252790884974300,10.191974365234374,0.4719809676557779,-3.7785067313224077,1.0330331344276666
1684252790894999300,10.201999267578126,0.133498954385519,-2.7842010946959257,1.383006263527274
1684252790905025300,10.212025390625,-0.21532851181030271,-0.47999943893849845,1.8711755649179218
1684252790915051500,10.222051513671875,-0.4810989246129989,2.365021742901206,2.6633015096426007
1684252790925077500,10.232077392578125,-1.1425801353394984,5.611368639937043,3.3027848235726354
1684252790935103500,10.242103515625,-2.5042443356305357,9.497182484290002,3.058261196938157
1684252790945129500,10.25212939453125,-3.8785400539577006,12.673638683497906,2.3007634980022904
1684252790955155500,10.262155517578124,-4.6929894741714,14.371749591839313,1.416090348614007
1684252790965180400,10.272180419921876,-4.703635955870151,13.54553725311756,0.8608185188092291
1684252790975206400,10.282206298828125,-4.180923748886585,10.92703116301298,0.1299005645673722
1684252790985232400,10.292232421875,-3.390782255977392,7.401713595339656,-0.31974874429292977
1684252790995258400,10.30225830078125,-2.5102748479664325,3.5859155364990234,-0.27869119610898196
1684252791005284400,10.312284423828125,-1.582576649713516,-0.19908055684268475,-0.8276583728116005
1684252791015310300,10.322310302734374,0.8680173442721366,-3.9823388666063546,-1.8252802213139832
1684252791025336300,10.33233642578125,11.292224073076248,-6.718696844631433,-5.197164153945446
1684252791035361300,10.342361328125,13.041340361511706,-6.792123315370082,-7.622740026530623
1684252791045387300,10.35238720703125,4.706855502438545,-5.3507443578511475,-5.760888754796982
1684252791055413200,10.362413330078125,-1.4267279163539408,-3.294535466143489,-3.589011748948693
1684252791065439500,10.372439453125,-3.880186359860003,-1.105120465517044,-3.4503865375906226
1684252791075465500,10.382465576171874,-4.68480149154067,1.4044815977543592,-3.3860330156236884
1684252791085491500,10.392491455078124,-4.994325705873966,4.246929129713774,-3.207169025118649
1684252791095517400,10.402517333984376,-4.746191779787838,6.098312198925018,-2.2967180220037697
1684252791105542400,10.41254248046875,-4.26144631536603,5.564793351244926,0.0052472530037164684
1684252791115568400,10.422568359375,-4.054155856321752,3.3720021521836516,2.5858275170788168
1684252791125594400,10.432594482421875,-4.4649932039678095,1.1260603776931761,4.114842964735627
1684252791135620400,10.442620361328125,-5.245438647770881,-0.43021921672523017,4.664207031801343
1684252791145646300,10.452646240234374,-6.037132630819082,-1.1824234854280948,4.64633556728512
1684252791155672300,10.46267236328125,-6.664349168372154,-1.2674801882058382,4.530043183766305
1684252791165698300,10.4726982421875,-6.99136578477621,-1.33416945964396,4.001138259622454
1684252791175723300,10.48272314453125,-7.145702360007166,-1.022630982878804,2.57011849129349
1684252791185749200,10.492749267578125,-7.125925061869621,-0.6237602596193552,0.34544936806485055
1684252791195775200,10.502775146484375,-6.3421531039923424,-0.7013596321284771,-0.6013849078126251
1684252791205801200,10.51280126953125,-2.257258118274808,-0.9110586136192083,0.9112937375493347
1684252791215827500,10.522827392578124,2.4810844093173743,-2.567182145580649,4.33393813560307
1684252791225853400,10.532853515625,0.44690380954444403,-4.888080084595084,4.711180672161281
1684252791235879400,10.54287939453125,0.09010200346857308,-2.039510854884982,2.9520243434876203
1684252791245904400,10.552904296875,-1.0198778847783803,1.3431249195158481,0.4287906452268362
1684252791255930400,10.562930419921875,-2.6184271796494722,0.8353443242043256,-0.0650967780822888
1684252791265956400,10.572956298828124,-2.1026625998467208,0.4906693015128374,-0.8510008891500532
1684252791275982300,10.582982421875,-1.2547919715464115,-0.1691062743395567,-1.3342470549248158
1684252791286008300,10.59300830078125,-0.8997843554109335,-1.1869734038174151,-1.124681271359697
1684252791296034300,10.603034423828126,-0.9633148705571889,-2.1852958748698232,-0.3922909795429557
1684252791306060300,10.613060302734375,-1.2793822229236365,-2.755376566749811,0.0055638446722179645
1684252791316085200,10.623085205078125,-1.6630881102770565,-2.8073013997763394,-0.2754011415876448
1684252791326111200,10.633111328125,-1.7863357197612524,-2.4676626176863907,-0.8597238554403185
1684252791336137200,10.64313720703125,-1.9486621247023344,-2.0759300757437944,-1.3011487951822578
1684252791346163200,10.6531630859375,-2.2527643139868974,-1.748151827317476,-1.739962967903912
1684252791356189200,10.663189208984376,-2.546865041477978,-1.6420599352955818,-1.7484265526056288
1684252791366215400,10.67321533203125,-2.282539859047532,-1.7987930502742528,-1.253165685518831
1684252791376241400,10.683241455078125,-1.9751397972613571,-1.771763004529476,-0.7943903825253248
1684252791386266400,10.693266357421875,-1.7577070066481828,-1.9119173251509665,-0.19720716418623924
1684252791396292400,10.703292236328124,-1.3221911448195576,-1.952105543154478,0.33358722696602344
1684252791406318300,10.713318359375,-0.8359764846280217,-2.1380963167995213,0.8754664912343024
1684252791416344300,10.72334423828125,-0.43502486344128843,-2.2625912959963084,1.4644099967554212
1684252791426370300,10.733370361328125,-0.1338748019605875,-2.443570378959179,2.002143539521098
1684252791436396300,10.743396240234375,0.3501943706348538,-1.89040750413239,2.501079734119773
1684252791446422300,10.75342236328125,0.6440893464207649,-1.01838676943779,3.0883316332921384
1684252791456447500,10.763447509765625,0.9972060342431068,0.13724515517652033,3.3620617729276416
1684252791466473200,10.77347314453125,1.2076838911518455,1.6231617580801248,3.373267934335768
1684252791476499200,10.783499267578126,1.1330535975813865,3.522785418847203,3.2434722183823586
1684252791486525200,10.793525146484376,1.0614283310458064,5.970519931748509,2.970391482566297
1684252791496551200,10.80355126953125,1.071431254144013,8.472263682734965,2.076046687860787
1684252791506577200,10.8135771484375,0.8658494987137615,10.160636456394196,0.69848203086555
1684252791516603400,10.823603271484375,-1.6607427161946893,6.819888105130195,-0.6677008158937097
1684252791526628400,10.83362841796875,-3.1710406038999555,5.028868026944995,-2.980933919368684
1684252791536654600,10.843654541015624,-4.158931697309017,5.290638556456566,-6.00004120978713
1684252791546680300,10.853680419921876,-4.644891505956649,7.463707402437925,-8.783740200179814
1684252791556706300,10.863706298828125,-2.0275088669240473,6.134208272692561,-8.395293840301036
1684252791566732300,10.873732177734375,6.7424670117974275,0.11154197412133217,-7.648506920471787
1684252791576758300,10.88375830078125,10.165673866039514,-3.281820945999026,-6.844483032682538
1684252791586784000,10.893783935546875,8.646060745239257,-3.809511525917053,-4.402683755049109
1684252791596809200,10.903809326171874,7.000346379089355,-4.465772956168651,-1.7259823733463882
1684252791606835200,10.913835205078126,4.832423663824796,-4.85138380036056,0.12495090627074242
1684252791616861400,10.923861328125,1.2693816379129885,-4.2142876738280055,1.4430927756994962
1684252791626887400,10.933887451171875,-2.4046949971199036,-2.786756039875746,2.2530045524835587
1684252791636913400,10.943913330078125,-5.151641589176655,-1.9056015661329029,1.370783326292038
1684252791646939400,10.953939453125,-7.469197232025861,-0.8203384782522917,0.56565644569695
1684252791656965400,10.96396533203125,-9.359766648721694,-1.1992401801943777,1.2289186946213244
1684252791666990300,10.973990234375,-9.935960270524024,-2.051428671693802,1.491665375688672
1684252791677016300,10.984016357421876,-9.428960011935233,-2.2108424040585755,0.8969146451935172
1684252791687042300,10.994042236328125,-8.12357299466133,-1.7216437596201897,0.42260786493867636
1684252791697068300,11.004068359375,-5.959381867140531,-0.8310580251872539,0.27407033137530085
1684252791707094300,11.01409423828125,-2.0895324846386907,-0.23319617693424224,0.3249327958673239
1684252791717120300,11.024120361328125,3.399356023055315,-0.8482920685827732,0.38817572624385355
1684252791727146200,11.034146240234374,7.299030634978413,-5.9437301245003935,-1.7252569816812873
1684252791737171200,11.044171142578126,7.9678037562787525,-4.309696843793988,-3.2262133328065272
1684252791747197200,11.054197265625,5.934490002468228,-1.201341536387801,-3.315434461787343
1684252791757223200,11.06422314453125,3.8312376200348135,0.15724164902269838,-4.491571414291858
1684252791767249400,11.07424951171875,2.359417347022891,3.9546354516446587,-4.498746420487762
1684252791777275400,11.084275390625,2.638220844399929,4.235688773775101,-2.536311206498742
1684252791787301400,11.09430126953125,0.1836941688741557,4.880373748001456,0.11298778901547193
1684252791797327400,11.104327392578124,-3.102926268094778,5.159910820350051,0.41354485303908584
1684252791807352300,11.114352294921876,-5.786601872724295,4.369251441046595,2.2855229665115475
1684252791817378300,11.12437841796875,-6.972738241195678,3.7845454269647596,3.963215940724313
1684252791827404300,11.134404296875,-6.22814970819354,3.0395640952527523,4.075242483492195
1684252791837430300,11.14443017578125,-4.411901080727577,2.2571482281595467,3.0892996015414593
1684252791847456300,11.154456298828125,-2.818292164868116,1.2707336370438336,1.8604782298147677
1684252791857482200,11.164482177734374,-1.0630244411308318,0.5476707071512937,2.017536923485994
1684252791867508200,11.17450830078125,1.1162170290708542,-0.31871056035161016,2.4329756274476644
1684252791877533200,11.184533203125,3.3782243876993654,-1.6577093398481606,1.6166799948453903
1684252791887559200,11.19455908203125,4.214699761760235,-2.65785727276206,0.6054504036858678
1684252791897585200,11.204585205078125,3.2337586336195465,-3.8854584550440308,-0.9784832135945558
1684252791907611100,11.214611083984375,1.190273029884696,-4.760460835897923,-2.569685068312287
1684252791917637400,11.224637451171875,-0.7906552876502275,-4.5692765852630135,-3.728309452740848
1684252791927663400,11.234663330078124,-2.0188105966836214,-3.3672640177458524,-4.373821233180165
1684252791937689300,11.244689453125,-2.2414678439468143,-2.5652386102974414,-4.43841499364376
1684252791947714300,11.25471435546875,-1.7516203802108763,-2.2499662077009677,-3.374252561458945
1684252791957740300,11.264740234375,-1.1731360171228646,-1.961792239910364,-1.9432436067849397
1684252791967766300,11.274766357421875,-0.5868149325272068,-2.033606599277258,-1.3229320263147353
1684252791977792300,11.284792236328125,0.003994038072228432,-2.1534821019798516,-1.2685600923970342
1684252791987818200,11.294818359375,0.32889877688884733,-1.4437217212527989,-1.2955112276867031
1684252791997844200,11.30484423828125,-0.13638820955362171,0.06631985360383987,-1.278593995155394
1684252792007870200,11.3148701171875,-1.3381541453659533,2.168520681157708,-1.314594406080246
1684252792017895200,11.324895263671875,-2.6561703425884247,4.516845556280017,-1.5367092170298098
1684252792027921200,11.334921142578125,-3.038111558356881,5.940579551514983,-0.8037386411070824
1684252792037947100,11.344947021484375,-2.7380647819429633,5.857512561249733,1.4190595736831426
1684252792047973000,11.35497314453125,-1.985968649789691,5.4483460694253445,3.365734908482432
1684252792057999000,11.3649990234375,-0.5226221175473184,3.0319191334575413,3.5655154302880168
1684252792068025000,11.375025146484376,1.1212556077599525,0.8794616983503103,2.908058360511064
1684252792078051300,11.38505126953125,1.897986999475956,1.498431801083684,2.8721655016139147
1684252792088076000,11.395075927734375,2.168828139671683,2.1360610115796326,2.0638860022068024
1684252792098102300,11.405102294921875,2.507767249059677,1.4737883582144975,0.6665414167255163
1684252792108128300,11.415128173828125,2.7413188153028485,1.4041227013140916,0.29991175185739993
1684252792118154200,11.425154296875,2.607209035542607,2.3505349523872137,0.3264554753899574
1684252792128180200,11.43518017578125,1.866975190618634,3.9049259565800427,0.11674480346143246
1684252792138206200,11.445206298828126,1.429685597115755,6.081275723928213,0.15848171221166849
1684252792148232200,11.455232177734375,1.6187258214592932,8.120538741531968,0.6161962541058659
1684252792158257200,11.465257080078125,1.7715864789187907,9.720936294618248,2.332579024457931
1684252792168283100,11.475283203125,1.2925894950211048,9.623892801448703,4.182678775860369
1684252792178309000,11.48530908203125,1.1867629028718918,9.877498729205131,6.729674750241637
1684252792188335000,11.495335205078124,1.222171485383436,10.607494088709354,8.314443941563367
1684252792198361000,11.505361083984376,1.043106711609289,12.011716743266582,7.873729634308814
1684252792208387000,11.515386962890625,0.3454915997713804,13.317031279826164,5.122569223949313
1684252792218413000,11.5254130859375,-1.1833002682626246,14.246357956063747,1.9251883101344107
1684252792228438000,11.53543798828125,-2.8597195692777633,14.89481485004425,-1.578154741618037
1684252792238464000,11.545464111328124,-3.6393735704421997,14.269209254819154,-5.839982749778032
1684252792248490200,11.555490234375,-3.39697818800807,13.167309504914282,-8.939455078026652
1684252792258516200,11.56551611328125,-2.7266905704915523,10.850911215406656,-10.15678445714116
1684252792268542200,11.575542236328126,-2.4778350521326065,8.763398253896831,-10.402166746431588
1684252792278568200,11.585568115234375,-3.1793080815076826,5.587230223980546,-11.997839024561642
1684252792288594200,11.59559423828125,-5.4460208413481705,2.176008406564593,-12.594151889806986
1684252792298619400,11.605619384765625,-6.656894176191091,1.0468640913814307,-12.116619717764854
1684252792308645400,11.615645263671874,-7.082170091295242,2.3723124844312666,-9.537993218106031
1684252792318671000,11.625671142578126,-6.440132416707277,0.6972966204732656,-12.442803974997997
1684252792328697000,11.635697021484376,-5.0356736153066155,-0.8314671905100345,-13.19446872999668
1684252792338723000,11.64572314453125,-0.18540625175535677,1.800972732400894,-8.722845878756045
1684252792348749000,11.6557490234375,17.60820988563299,-1.6482108591407536,-8.55026988247931
1684252792358775000,11.665775146484375,14.970393530380726,-3.1801515465945003,-9.463943647032975
1684252792368800300,11.67580029296875,3.689216921019554,-2.7862363999158144,-8.626478092890977
1684252792378826200,11.685826171875,-0.684563395628333,-1.3134195170819758,-7.2735717840731136
1684252792388852200,11.695852294921876,-0.14096622152626515,-2.4125521403610706,-5.5691661595016715
1684252792398878200,11.705878173828125,2.0187142967022953,-1.9230624040216207,-3.265376007154584
1684252792408904200,11.715904296875,2.4590333210289477,-1.9705594837337732,-2.031611041545868
1684252792418930200,11.72593017578125,3.1343504571452736,-3.143458184969425,1.4519991357326507
1684252792428956200,11.7359560546875,3.3220608941897747,-2.9839748944997786,4.663705512019992
1684252792438981400,11.7459814453125,4.059327121479809,-3.79642466532886,6.803087192454933
1684252792449007400,11.75600732421875,4.596611166912317,-4.9122214231610295,7.337355981719494
1684252792459033300,11.766033447265626,3.8332442836821077,-5.609498754411936,7.895971861255169
1684252792469059300,11.776059326171875,3.1967741800934073,-5.508119862386584,9.503377831798792
1684252792479085300,11.786085205078125,3.3863691157102584,-4.442068255454301,12.62137307420969
1684252792489111300,11.796111328125,3.7042826804652806,-4.496574921667576,14.896280830943583
1684252792499137300,11.80613720703125,3.167787447322905,-6.037468730905652,12.392436892807483
1684252792509162200,11.816162353515624,2.4140704359695313,-5.922023904126882,10.733189675867557
1684252792519188200,11.826188232421876,1.9563991486951708,-4.690654893743991,9.69939315585196
1684252792529214200,11.836214111328125,1.861233139835298,-3.038804801318049,8.60530729456842
1684252792539240200,11.846240234375,1.068575572451949,-1.5150398215353489,6.927143195712566
1684252792549266700,11.8562666015625,-1.3432716345101594,-0.5071142403572797,4.52987571824491
1684252792559292700,11.866292724609375,-2.370379470542073,2.4419255343616006,2.3394126698702573
1684252792569318700,11.876318603515625,-3.6712937263160943,4.143030071561038,-0.8844587759852409
1684252792579344000,11.88634375,-3.737867262420058,5.127559287321567,-3.0928543714135883
1684252792589369900,11.896369873046876,-3.3146015180945394,4.700556694555282,-4.810653146043419
1684252792599395800,11.906395751953125,-2.5260709675133226,3.635817923787236,-6.28171354059875
1684252792609421800,11.916421875,-1.7198796725571155,3.149487528261542,-6.776158853518963
1684252792619447800,11.92644775390625,-0.976160908126831,3.161917970767617,-6.664712740987539
1684252792629474000,11.93647412109375,-0.24324293917417525,3.4766613810539244,-6.305478447067737
1684252792639499800,11.946499755859374,0.3224555920988321,3.9414188271969555,-6.081484982764721
1684252792649525000,11.95652490234375,0.5341887097656727,5.282212673416733,-5.550794636508822
1684252792659551000,11.966551025390626,1.2498796495854854,6.534115937784314,-4.524192411911487
1684252792669577000,11.976576904296875,2.427045945137739,4.9369665728390215,-4.427692231838405
1684252792679603000,11.98660302734375,2.4358067592203616,3.0323665849640964,-4.110242777463793
1684252792689629000,11.99662890625,2.803121483743191,2.8860452661454676,-3.222872205685079
1684252792699655000,12.006655029296875,2.9845395426452157,3.1531340680703517,-2.6738492071419953
1684252792709679900,12.016679931640626,2.5248890642523762,3.48966874666512,-2.3692452058151363
1684252792719705900,12.026705810546876,1.5861539236783981,3.654689797517657,-2.541589146901667
1684252792729731800,12.03673193359375,0.4865349781870842,3.461260982826352,-2.943413751530647
1684252792739757800,12.0467578125,-0.26242811663746834,3.220261146403849,-2.8083851033598184
1684252792749783800,12.05678369140625,-0.14802783047556875,3.1391826996073124,-1.9169865912392734
