time,seconds_elapsed,z,y,x
1684252685822542600,0.01654248046875,-3.5361347297638654,0.7375435829266905,1.5536806639663874
1684252685832567800,0.02656787109375,-3.735362586122751,1.2364444139510393,1.9571514283671974
1684252685842593800,0.03659375,-3.3248797510027885,1.075060258296132,1.6567223746374249
1684252685852619500,0.04661962890625,-2.3913597147285937,0.5883388176262379,1.05551640358828
1684252685862645500,0.0566455078125,-1.4081249226927757,0.9356000574186444,0.9309417832840233
1684252685872671500,0.06667138671875,-0.7937631905376911,1.914074503184855,1.1917093462981283
1684252685882697500,0.076697509765625,-0.40355566620528693,2.4522078589230776,0.44413788849506525
1684252685892723500,0.086723388671875,-1.1684458134800195,2.5827584848970173,-0.8922848665010183
1684252685902748700,0.096748779296875,-3.383143139401078,2.831605235427618,-1.8197149884022772
1684252685912774700,0.106774658203125,-6.090706984618306,4.5285964920893305,-1.6001166903182864
1684252685922800600,0.116800537109375,-8.634038883534073,5.528279437839984,-1.3543059464827178
1684252685932827000,0.126826904296875,-8.473042265892028,5.173854590028524,-0.47966596920043225
1684252685942852600,0.1368525390625,-4.067548714119195,3.899129253000021,0.9685437111213803
1684252685952878600,0.146878662109375,1.127709313943982,3.002623480868339,0.13255538992509244
1684252685962904600,0.156904541015625,4.581369174116849,3.5372996818900106,-1.352894764510542
1684252685972929800,0.1669296875,2.0175509520113466,3.7371278422296044,-1.8877695568442343
1684252685982955800,0.176955810546875,2.844239091551304,2.760934785398841,-1.3197066345274449
1684252685992981800,0.186981689453125,1.0208581279873847,-2.9645693522840735,-4.274187723517418
1684252686003007700,0.1970078125,0.5931926873981952,-3.296720408967137,-4.658965624016523
1684252686013033700,0.20703369140625,2.7095699243426323,1.5301754313468932,-0.3410972372699529
1684252686023059700,0.217059814453125,4.9226750126361845,3.9222202057302,5.067051919388771
1684252686033085700,0.227085693359375,4.981421800637245,3.741715170019865,6.7363786317944525
1684252686043110700,0.237110595703125,4.0047073502808805,1.779148438605666,1.6042251485504209
1684252686053136600,0.24713671875,2.119514365926385,-0.016727262917160986,-4.749451950627565
1684252686063162600,0.25716259765625,4.177508972007036,0.5034188929706812,-5.702641148489714
1684252686073188600,0.267188720703125,5.92697012835741,3.182028446382284,-3.814830090591311
1684252686083214600,0.277214599609375,5.174125223663449,7.6109619104534385,-0.4373299255132675
1684252686093240800,0.28724072265625,6.35109219725132,10.179567951357365,0.0010135609567165373
1684252686103266800,0.297266845703125,6.743512136936188,11.55535244693756,0.8671285787388682
1684252686113291800,0.307291748046875,6.55876113421917,11.56092995480895,1.2303922743052242
1684252686123317800,0.31731787109375,5.86272065128684,10.502512788277864,1.3152064004987478
1684252686133343700,0.32734375,4.853856620214879,9.323416401445865,1.8815286166280507
1684252686143369700,0.33736962890625,4.318521663023531,8.35614081056416,1.9532067823946475
1684252686153395700,0.347395751953125,5.007918177896737,7.544418769487738,3.1468752999365326
1684252686163421700,0.357421630859375,6.126883628892898,8.102692703717947,0.6675690062075853
1684252686173446700,0.36744677734375,6.006343524801731,7.9343737803637975,-4.010435664799809
1684252686183472600,0.37747265625,5.512478642117977,7.610379142129421,-6.023308103606104
1684252686193498600,0.38749853515625,3.824793558461964,7.7358531954914325,-7.509240488600731
1684252686203524600,0.397524658203125,0.07560673738718032,7.457448342043161,-7.137071894305944
1684252686213550600,0.407550537109375,-1.8956193935617804,7.311306179183721,-2.671897488552332
1684252686223576600,0.41757666015625,-1.4140449603915213,7.584201913821697,1.7400795800209043
1684252686233602600,0.4276025390625,-0.721404933552444,7.2666826090812675,3.626927345845103
1684252686243627500,0.43762744140625,-0.21190321353673933,5.499409901708364,5.340858339130878
1684252686253653500,0.447653564453125,-0.6090300157383084,4.543367652502655,6.897788506412506
1684252686263679700,0.4576796875,-1.8329937183007596,4.663212175545096,7.370662623515725
1684252686273705700,0.467705810546875,-1.9395012053862213,4.892279289850593,8.546495624637604
1684252686283731700,0.477731689453125,-1.561104822617769,4.919764093625545,10.888698217487335
1684252686293757700,0.4877578125,-1.8685431705877185,4.026293743667006,14.794538950824737
1684252686303783700,0.49778369140625,-2.558357618612051,2.73202842438817,18.147393919467923
1684252686313808600,0.50780859375,-1.0676458903864026,0.8776005806535482,19.853594610762595
1684252686323834600,0.517834716796875,-0.25629180583953853,-1.113494326108694,20.94050605037212
1684252686333860600,0.527860595703125,0.38272374444827434,-2.630701554811001,20.761717170929906
1684252686343886600,0.537886474609375,1.3472794088467954,-3.9414807865172623,20.32336316306591
1684252686353912600,0.54791259765625,1.9261188689827917,-4.879888010311126,19.66781484951973
1684252686363938600,0.5579384765625,3.0048505092680453,-5.406483196207881,17.95665039833784
1684252686373964500,0.567964599609375,3.4447079074323175,-5.597409672689437,16.022689583683015
1684252686383989500,0.577989501953125,3.771605281370878,-6.143139182645082,14.545885677039623
1684252686394015500,0.588015380859375,4.4219361525297165,-6.719090812385081,12.481707413887976
1684252686404041500,0.59804150390625,4.702584985512495,-6.969463749569654,10.001904861074685
1684252686414067700,0.608067626953125,4.906351654344797,-7.0795993640244,7.39502841848731
1684252686424093700,0.61809375,5.670965907287598,-7.135361583256721,4.125608104377985
1684252686434119700,0.62811962890625,6.365649714913964,-6.856425399410724,1.3554670992165803
1684252686444145700,0.638145751953125,7.801270547297596,-6.020009062060714,-1.5265461349338292
1684252686454170600,0.648170654296875,9.077797380790114,-4.750210660040378,-3.1464719798326493
1684252686464196600,0.658196533203125,8.274561428508163,-3.554694468805194,-2.179749931180477
1684252686474222600,0.66822265625,5.214731374818086,-3.0104625039309263,-0.8712538419753313
1684252686484248600,0.67824853515625,2.705516849559545,-2.049972919927537,-0.8596563431620597
1684252686494274600,0.688274658203125,-1.2470856349527835,-1.7884692246586082,0.6216396142035723
1684252686504300500,0.698300537109375,-5.0863937487185,-0.6407330217301845,1.1324778435200453
1684252686514326500,0.708326416015625,-1.389153680241108,0.8365542845159769,0.7937515000998974
1684252686524351500,0.7183515625,1.2970260161638258,-0.37259149588197465,-0.2646376093804836
1684252686534377500,0.72837744140625,0.6817442465543746,-0.7367299284562469,-0.5625251619338989
1684252686544403500,0.738403564453125,-2.1466730064868926,4.115763294450939,-3.204778038328886
1684252686554429400,0.748429443359375,-1.4732618501223622,6.288757613891363,-2.536860657075047
1684252686564455700,0.75845556640625,-2.43727843920812,5.430684156006574,-3.2669425258189437
1684252686574481700,0.768481689453125,-1.6409540198802948,3.1299080907836556,-1.9685434677362441
1684252686584507600,0.778507568359375,-1.3007599419951439,1.7350030074089764,-0.8175736897140741
1684252686594532600,0.78853271484375,-0.059294046620279546,3.744961896856129,-3.528830544230342
1684252686604558600,0.79855859375,1.5843489200830458,6.075374390929937,-6.205286719000339
1684252686614584600,0.80858447265625,2.2942713595040143,6.72254533675313,-6.848248522695899
1684252686624610600,0.818610595703125,2.6901176203757524,8.197403954547644,-6.4367112100869415
1684252686634636500,0.828636474609375,2.6631138781160115,9.456240817570686,-4.539562999522686
1684252686644662500,0.83866259765625,2.837075191271305,8.710131943133472,-2.581654907569289
1684252686654688500,0.8486884765625,3.1600676667258143,6.157124453377723,-0.9957102427273988
1684252686664713700,0.858713623046875,2.448269934952259,3.528509349451959,-0.3793710730195045
1684252686674739700,0.86873974609375,1.9370666717156766,1.9138500467792152,-0.8079957140296697
1684252686684765700,0.878765625,1.7958453063845634,0.9112444915801287,-1.4283300908535719
1684252686694791700,0.888791748046875,1.305116091378033,0.09203881675004959,-1.9177485155224798
1684252686704817400,0.8988173828125,0.4123106350690126,-0.7949281426638364,-2.0031126768141982
1684252686714843600,0.90884375,-0.15638327862769363,-1.3868418961673974,-1.8582324967145918
1684252686724868600,0.91886865234375,-0.13404665139615535,-2.069343683090806,-2.2409803526908156
1684252686734894800,0.928894775390625,0.4749544305086136,-1.2824211522281168,-2.947770193174481
1684252686744920800,0.9389208984375,-0.035818624617159366,0.39731238790154455,-2.04544550563097
1684252686754946800,0.94894677734375,-0.9627548985868691,1.4179104036480188,-1.0438362679928541
1684252686764972800,0.958972900390625,-1.1403326486736536,2.6540041044652463,-0.020400398471951485
1684252686774998800,0.968998779296875,-0.8712626098036765,3.6855659972965715,0.7566010423570871
1684252686785024800,0.979024658203125,-1.2112994513005018,4.025282520797848,2.706914441397786
1684252686795049700,0.9890498046875,-1.1188140598267315,3.8404122756153343,4.698355385118723
1684252686805075700,0.99907568359375,-0.7751178190395236,3.4930028595238922,5.237634696021676
1684252686815101700,1.009101806640625,-1.0527630862921475,2.9367069473683833,4.4736564028948544
1684252686825127700,1.019127685546875,-1.1740320891797542,2.0599854876369235,2.6929110504865643
1684252686835153700,1.029153564453125,-1.148413079276681,1.3477619316667317,1.2374357630759476
1684252686845179600,1.0391796875,-1.1996645430862902,0.6959452058643102,0.26287059970796106
1684252686855205600,1.04920556640625,-1.193200900030136,-0.22070435962975024,-0.5064858793258666
1684252686865230600,1.059230712890625,-1.0218430473715066,-1.305375326836109,-1.0071861609876156
1684252686875256600,1.069256591796875,-0.8129834393143653,-2.247098543310165,-1.5891998672455547
1684252686885282800,1.07928271484375,-0.3707148883551359,-2.9664345616340637,-1.9786732320845126
1684252686895308800,1.089308837890625,0.389700451593101,-3.5109447589278218,-1.2499910010054707
1684252686905334800,1.099334716796875,1.5929653572589157,-4.125698705270886,-0.2563297997623682
1684252686915360800,1.10936083984375,3.1307121006429193,-4.499411021876335,2.6109154888451096
1684252686925386800,1.11938671875,4.774059153139591,-4.286588355407119,5.0250060908198355
1684252686935411700,1.12941162109375,5.209682274734973,-4.209515052598714,4.671555056476593
1684252686945437700,1.139437744140625,4.642755662971735,-4.237801820406317,3.595953823171556
1684252686955463700,1.149463623046875,3.4516762851402163,-4.086826246041059,2.169116016702354
1684252686965489700,1.15948974609375,2.175199136008322,-3.948391588819027,0.5788023429960012
1684252686975515600,1.169515625,1.139458788448572,-3.79991192292273,-1.1215531294018029
1684252686985541600,1.179541748046875,0.1090774837039411,-3.3563983403384685,-2.2460025647670028
1684252686995567600,1.189567626953125,-0.45883331679105754,-2.9339246231734752,-2.624503869214654
1684252687005592600,1.199592529296875,-0.9548829961679876,-2.7921646209210156,-2.317479070481658
1684252687015618600,1.20961865234375,-1.7219662695728242,-1.7763024015247821,-1.7253738860592245
1684252687025644500,1.21964453125,-2.2468566973783073,-0.47802141686379906,-0.7215320670634507
1684252687035670800,1.2296708984375,-2.6029239055693147,0.9211573983073233,0.9198661894530057
1684252687045696800,1.23969677734375,-2.37196995460391,2.0698212374746796,2.782013229262829
1684252687055722800,1.24972265625,-1.6427717368267476,2.1052268973767756,4.497929258885979
1684252687065748700,1.259748779296875,-1.5537233340643346,1.368472711262107,4.891691553090513
1684252687075773700,1.269773681640625,-1.2062088501632213,2.1618372578710314,5.242178769192099
1684252687085799700,1.279799560546875,-1.0055974304914475,2.372987022691965,4.165329873913526
1684252687095825700,1.28982568359375,-0.5331915154218674,3.835807996690273,3.9150492911875245
1684252687105851600,1.2998515625,0.12185834708288311,4.750204230299592,3.7453622943505644
1684252687115877600,1.309877685546875,-0.1283957860276103,4.0502807684540745,2.596069509629905
1684252687125903600,1.319903564453125,-0.4906456283763051,2.754731839105487,1.2702101976916194
1684252687135929600,1.3299296875,-0.5635828542932868,1.2532172695755959,0.45670127319842574
1684252687145954600,1.33995458984375,-0.5038762813493609,-0.3525684062898159,-0.4291261607915163
1684252687155980500,1.34998046875,-0.552924097634852,-1.373088096103072,-1.430470902274549
1684252687166006500,1.360006591796875,-0.18113266608938575,-1.586534447428584,-2.2967335118338466
1684252687176032500,1.370032470703125,-0.09729030753746629,-1.588144220712781,-3.1267510880574583
1684252687186058500,1.38005859375,-0.5009961958684027,-1.9251988315284252,-3.6596830757603045
1684252687196084700,1.390084716796875,-0.365556555743888,-2.2167191871374845,-3.625601650199294
1684252687206110700,1.40011083984375,0.004611950774863362,-2.5779198126941916,-3.735185768251121
1684252687216135700,1.4101357421875,0.2214157227694988,-3.195700997903943,-3.3321813061878083
1684252687226161700,1.42016162109375,0.6161258192181587,-3.7727819239348173,-2.3015818286478518
1684252687236187600,1.430187744140625,0.28898058973206203,-3.5870670446217057,-2.0669730084367095
1684252687246213600,1.440213623046875,-0.5724924291968345,-1.88434601213634,-1.9825151483349501
1684252687256239600,1.450239501953125,-2.450496378830075,-0.5196697705477475,-1.175380873440206
1684252687266265600,1.460265625,-3.0275790584266185,-0.7155389641284943,-0.8724677478097379
1684252687276290600,1.47029052734375,-2.8345190770477053,0.08545710027217865,-0.7379258602425456
1684252687286316500,1.480316650390625,-2.4002824413746593,-0.0005313303977251052,-0.9163274939328432
1684252687296342500,1.490342529296875,1.2257517550230026,2.0126292777001855,-2.3788575221605597
1684252687306368500,1.500368408203125,3.3370641097933054,4.949784553357959,-3.860629718735814
1684252687316394500,1.51039453125,-4.100194261658191,-0.2095037511795759,-0.22005977811589836
1684252687326420500,1.52042041015625,-4.03932332111001,-1.1267781705737114,-0.07481324892193078
1684252687336446500,1.530446533203125,-2.511163321238756,-1.1536807905465363,-1.148722291356325
1684252687346471400,1.540471435546875,-1.9495570277154444,-2.0453619190007446,-0.6571558948732912
1684252687356497400,1.550497314453125,-1.993793644326925,-4.23706999900043,0.6347885802425444
1684252687366523600,1.560523681640625,-1.7013995746232569,-5.701449892878532,1.0230958969768136
1684252687376549600,1.570549560546875,-1.6245594960488379,-5.599908503767848,0.5614171276267618
1684252687386575600,1.58057568359375,-1.6009309293106198,-5.241753821778297,0.10325118870325387
1684252687396601600,1.5906015625,-1.427457545802742,-3.2719594771981235,0.8216627856586128
1684252687406627600,1.600627685546875,-0.7348352007508278,0.969400327950716,2.201337785871327
1684252687416652800,1.61065283203125,0.9052876290023326,1.2166150933653115,1.158642869933322
1684252687426678800,1.6206787109375,2.166892787694931,1.5139379977732896,1.672353805141896
1684252687436704500,1.63070458984375,1.9059645542263983,2.925640778952837,4.6025002249509095
1684252687446731000,1.64073095703125,1.4744576357781887,4.142553393959999,7.318309920465945
1684252687456757000,1.650757080078125,1.0048702852606772,4.155347993603349,8.86573459277749
1684252687466783000,1.660782958984375,0.15558102233409882,4.071491898787022,8.228580014055966
1684252687476809000,1.67080908203125,0.14849077181220055,4.16879316610992,7.066845096391439
1684252687486834200,1.680834228515625,1.5606524026751518,5.065411750966311,6.23383710618019
1684252687496860000,1.69085986328125,5.636853209805488,6.728087773311138,4.5967736639976495
1684252687506886000,1.700885986328125,7.246969023829698,6.9457233930200335,2.1799059985250233
1684252687516911900,1.710911865234375,5.703866890892386,5.904339778876304,1.048024951854348
1684252687526937900,1.720937744140625,10.3152366509974,5.126736865022778,-0.2519289344549179
1684252687536963800,1.7309638671875,30.90161946685314,4.982582661110162,-5.925688856375217
1684252687546989800,1.74098974609375,20.599365047025678,3.4858506496816872,-5.8345899508237835
1684252687557015000,1.75101513671875,8.071805982545017,2.1475538809746504,-2.770725527051091
1684252687567041000,1.761041015625,3.57762233992815,0.8955828120678663,-1.3721180820271373
1684252687577067000,1.77106689453125,0.5017659015992656,0.1598246512532234,-0.6469660709008574
1684252687587093000,1.781093017578125,-2.4864731166183947,0.38106443293392656,0.14970482377707958
1684252687597119000,1.791118896484375,-4.488051423472166,1.0040899485379458,2.0015458658888936
1684252687607145000,1.80114501953125,-5.283316835266351,2.0369173312604425,3.82257208302021
1684252687617170000,1.811169921875,-4.139707941401005,3.0369284860521555,4.918228554621338
1684252687627196200,1.821196044921875,-1.3212684770166874,4.03163919634819,4.978648828792572
1684252687637222100,1.83122216796875,1.7194670001029968,4.495864727571607,4.101762533888221
1684252687647248100,1.841248046875,12.123231829380988,4.965555538463592,1.5067305506125093
1684252687657274000,1.851274169921875,18.132080615001914,4.932911159968376,-0.606009498873353
1684252687667300000,1.861300048828125,7.291143681120872,3.245516875952482,0.5153711965709924
1684252687677326000,1.871326171875,-0.3747513042643666,2.0920862607747317,1.5709537241980434
1684252687687351000,1.88135107421875,-6.662336074984073,1.6036778899312019,3.6565032766804095
1684252687697377000,1.891376953125,-11.196448992407321,1.1539338885247707,6.5762734100341795
1684252687707403000,1.901403076171875,-12.008415363633633,0.523359857237339,8.026225550109148
1684252687717429000,1.911428955078125,-11.044618262517451,-0.017422843965888023,7.226849780386686
1684252687727455000,1.921455078125,-11.772820308864116,-0.6359469564974307,7.369194304528832
1684252687737481000,1.93148095703125,-13.97641171888113,-1.0366945795446634,8.863052806347609
1684252687747507000,1.9415068359375,-15.04296776820421,-1.4941256283223627,10.569364556801318
1684252687757532000,1.951531982421875,-12.433837409210204,-1.969828831371665,11.467750151330232
1684252687767558000,1.961557861328125,-4.182216419045627,-2.0501590901494025,12.954450013566017
1684252687777584000,1.971584228515625,4.418493318599462,-1.68581607491374,14.539544783580302
1684252687787610000,1.981610107421875,4.824398762801289,-0.4032704195231199,11.298787084853648
1684252687797636000,1.991635986328125,1.9898720869690179,1.2840800253510474,5.096470321574807
1684252687807662000,2.001662109375,-0.6720099112644792,2.874340215304494,-0.5285591794461012
1684252687817688000,2.01168798828125,-2.2910247787982225,4.389252026546001,-3.737369834291935
1684252687827713000,2.021713134765625,-4.583577497816085,5.515646750760078,-4.463745834255218
1684252687837739000,2.031739013671875,-4.650084982946515,5.4455994010657065,-3.9636365042239423
1684252687847765000,2.041764892578125,-3.8747330628901717,4.327667969292402,-3.7211540280282493
1684252687857791000,2.051791015625,-3.0377427250444886,3.2560254104852673,-3.855798645317554
1684252687867817000,2.06181689453125,-3.355696329548955,2.3034435308665038,-3.3129666103690862
1684252687877843000,2.071843017578125,-4.405450297152996,1.3744874415069819,-2.540318688574433
1684252687887868000,2.081867919921875,-5.318559413561225,0.34065701922178265,-2.3384873717188834
1684252687897894000,2.091893798828125,-5.774534418311715,-0.6259831963658332,-2.6757003879666326
1684252687907920000,2.101919921875,-5.142987158077955,-1.1597317611485718,-3.6986511043190955
1684252687917945900,2.11194580078125,-3.6062399471253155,-1.252664896389842,-4.977618316701054
1684252687927972000,2.12197216796875,-2.3882664248883723,-1.0468360343307257,-6.086473292571306
1684252687937998000,2.131998046875,-2.1199042420268057,-0.7058826625108718,-6.755496004718542
1684252687948024000,2.142024169921875,-2.7338474565088746,-0.35573768397569655,-7.099293075531721
1684252687958049000,2.152049072265625,-3.2589199628829952,-0.12439911760687827,-7.272622520524263
1684252687968075000,2.162074951171875,-3.6938673771739006,-0.21887889776825903,-6.689202454599738
1684252687978101000,2.17210107421875,-4.201975304743647,-0.6863216374725103,-5.841889460182189
1684252687988127000,2.182126953125,-5.147597282221913,-1.4087573753774165,-5.229313442400097
1684252687998153000,2.192153076171875,-6.239280174016952,-2.265898520848155,-4.940227035939693
1684252688008179000,2.202178955078125,-7.070884142649174,-3.18181158876121,-4.973524909907579
1684252688018205000,2.212204833984375,-7.401271112269162,-3.9259892028748986,-5.228608509001136
1684252688028230000,2.22222998046875,-7.367640645346045,-4.39425261131227,-5.538237937274575
1684252688038255900,2.232255859375,-6.923263723930716,-4.671705278602242,-5.902209196588396
1684252688048281900,2.24228173828125,-6.0723103271842,-4.963911862909794,-6.016739831131696
1684252688058307800,2.252307861328125,-4.860032970762252,-5.264805027019977,-5.991405483388901
1684252688068333800,2.262333740234375,-3.384655589790642,-5.618509743863344,-6.029720893257856
1684252688078360000,2.272360107421875,-1.7171420642867683,-6.058156714147329,-5.975568447309732
1684252688088386000,2.282385986328125,0.04902940384596586,-6.4450114209204905,-5.843951653409004
1684252688098411000,2.292410888671875,14.026453806900978,-5.864926636898518,-4.376917737890779
1684252688108437000,2.30243701171875,66.43686553380489,8.747228624862432,12.798283300298452
1684252688118463000,2.312462890625,1.4934699408926069,24.429458757722376,25.891680012261865
1684252688128489000,2.322489013671875,-30.98203565034866,21.863676542067527,8.310865498554707
1684252688138515000,2.332514892578125,-15.448506717181205,26.08757200219631,-2.1525994739264247
1684252688148541000,2.342541015625,11.697976957064867,21.43277635734081,-7.167088846907019
1684252688158566000,2.35256591796875,25.576349157476425,9.560350595864653,-5.7986412700861685
1684252688168592000,2.362591796875,-4.954105923688411,3.6186715586751697,-0.22093524577617643
1684252688178617900,2.372617919921875,-15.029071344798803,3.016764234423637,0.8582955762028693
1684252688188643800,2.382643798828125,-6.242981366622447,-1.600167835983634,-1.291639646950364
1684252688198669800,2.392669921875,-1.3694658139526843,-3.105833679974079,-3.990090795907378
1684252688208695800,2.40269580078125,-3.324378815743327,0.05656944396197795,-3.7964696735143657
1684252688218721800,2.4127216796875,-2.9558392256006596,1.528301454168558,-2.734856049029529
1684252688228747000,2.4227470703125,-0.7117091767072677,2.6352263387590646,-0.7615785385087132
1684252688238773000,2.43277294921875,2.0038529737874864,3.91479677773118,1.5399600355193017
1684252688248799000,2.442799072265625,0.18752032129988072,4.802458733671903,3.2748148666292427
1684252688258825000,2.452824951171875,-2.6018705971240994,4.083302163568139,3.5141567067116495
1684252688268851000,2.462850830078125,-2.4534967296898365,2.590356684941053,2.5209891342043873
1684252688278877000,2.472876953125,-2.000141698179394,1.6620967611521482,1.5116747290164232
1684252688288903000,2.48290283203125,-2.1244553294599053,1.7352011603295803,0.9919383229732512
1684252688298928000,2.49292822265625,-1.9672658490158617,1.9724515810906886,1.0504857890099286
1684252688308954000,2.5029541015625,-1.5129260442517698,2.025536105546355,1.5650231651052833
1684252688318980000,2.51297998046875,-0.9698141694486141,1.9146277531534432,2.0819839689552784
1684252688329006000,2.523006103515625,-0.34679223404116927,1.5559154372811317,2.394342822192609
1684252688339031800,2.53303173828125,0.42201779009103774,0.9547305820852517,2.355517416974902
1684252688349057800,2.543057861328125,1.2630617872416972,0.233189162671566,1.96455995105803
1684252688359083800,2.553083740234375,2.0374714580118654,-0.606498159173131,1.2320514396890998
1684252688369109000,2.56310888671875,2.9734564230948686,-1.4010545459151267,0.473685433486104
1684252688379135000,2.573135009765625,3.9187107363045213,-1.90711781591475,-0.2081447377860546
1684252688389161000,2.583160888671875,4.609234501641988,-2.1478730299264193,-0.7424182032257318
1684252688399187200,2.593187255859375,4.850271455204487,-2.2098130610108373,-1.1811129873514175
1684252688409213200,2.603213134765625,4.897486210843921,-2.243499642035365,-1.615294970227778
1684252688419239200,2.6132392578125,4.832984220317006,-2.239398051935434,-2.019115424849093
1684252688429264100,2.62326416015625,4.4035950246751305,-2.0527163734167813,-2.17061473082751
1684252688439290000,2.6332900390625,3.5168186193972826,-1.7449416330993175,-2.130058556294441
1684252688449316000,2.643316162109375,2.6489047354996202,-1.4138123206794262,-1.997755241434276
1684252688459342000,2.653342041015625,2.0051064809799195,-1.0441583395540714,-1.8083342010796069
1684252688469368000,2.6633681640625,1.3917191468149424,-0.7170861935704946,-1.4309601470962166
1684252688479394000,2.67339404296875,0.893882437890768,-0.5369593435227871,-0.8761679175019264
1684252688489420000,2.683419921875,0.5803811366200446,-0.48190907195210453,-0.3203223794624209
1684252688499445000,2.693445068359375,0.44813715073168275,-0.5315075078576803,0.2854202851682901
1684252688509471000,2.703470947265625,0.4854354925125837,-0.5317687891423702,1.0257952921286224
1684252688519497000,2.7134970703125,0.5633709651082753,-0.6645639791727066,1.8115575470402836
1684252688529523000,2.72352294921875,0.6635545098692178,-0.8449433426767587,2.3763655592143533
1684252688539549000,2.733548828125,0.8283867601513862,-1.0441343741565943,2.755585825586319
1684252688549575200,2.7435751953125,1.2002526451725513,-1.3420932383805513,2.8671570258021353
1684252688559601200,2.75360107421875,1.5728519590348005,-1.7332038490325212,2.760825479805469
1684252688569625900,2.7636259765625,1.9202654667794703,-2.0951590923488137,2.443892742781341
1684252688579652000,2.773652099609375,2.263039478155225,-2.3437328711569307,2.0055475027456877
1684252688589678000,2.783677978515625,2.575021168643236,-2.4137106627464293,1.7356018500849604
1684252688599704000,2.7937041015625,2.94366977211833,-2.2671692714363334,1.6015148666784167
1684252688609730000,2.80372998046875,3.3286113387465477,-2.0302356615394355,1.5330819664433597
1684252688619756000,2.813756103515625,3.5993449269145725,-1.7274182513684033,1.4494970897838473
1684252688629781000,2.823781005859375,3.7865655346155163,-1.3097463815271853,1.4462418873801826
1684252688639807000,2.833806884765625,3.79618267326653,-0.7712906619668006,1.4801391885459423
1684252688649833000,2.8438330078125,3.643371115645766,-0.22537819665968417,1.524379604549706
1684252688659859000,2.85385888671875,3.4406939956158396,0.10884265203475951,1.653833082936704
1684252688669885000,2.863885009765625,3.316138810664415,0.2011737297296524,1.823243016397953
1684252688679911000,2.873910888671875,3.3409836213245985,-0.02149637701511383,1.996307672974467
1684252688689937000,2.88393701171875,3.4106571692705154,-0.43000995788872237,2.1076494483485817
1684252688699961900,2.8939619140625,3.6100463536709544,-0.8501800742864608,2.0622814896196124
1684252688709987800,2.90398779296875,3.8838498508036134,-1.223380349716544,1.8347189346581696
1684252688720013800,2.914013916015625,4.204538140968978,-1.5782698924303054,1.3186977497458456
1684252688730040000,2.9240400390625,4.390650787428021,-1.9371745160043239,0.8266288105681538
1684252688740066000,2.934066162109375,3.8273850362598894,-2.356830253139138,0.7427762228831648
1684252688750092000,2.944092041015625,2.4489906504422425,-2.594350138491392,1.3660256103709338
1684252688760118000,2.954117919921875,1.1909351470552385,-2.0209528694093226,2.6680735463500023
1684252688770143000,2.96414306640625,0.3689589845985174,-0.9863210676133632,4.362123488862812
1684252688780169000,2.9741689453125,-0.5504612877178937,0.8925152411907911,6.190132989010214
1684252688790195000,2.98419482421875,-1.6218880848824977,3.057832157871127,7.766736409533023
1684252688800221000,2.994220947265625,-2.284606143927574,5.147587929871678,8.598663034248352
1684252688810247000,3.004246826171875,-2.1051076549112797,6.782108117312193,8.094860694918037
1684252688820273000,3.01427294921875,-1.3012101699806748,7.3490399897724386,5.739967547321319
1684252688830297900,3.0242978515625,-1.9874552350856363,5.964370176947116,2.333579725933075
1684252688840323800,3.03432373046875,-2.260395393387228,3.633654608273506,-0.31267595636248585
1684252688850349800,3.044349853515625,-2.200639574474096,1.8373451915085315,-2.1367454867124556
1684252688860375800,3.054375732421875,-1.988479317436367,0.577426378467679,-3.1128344986468552
1684252688870401800,3.06440185546875,-1.5733423729002476,-0.06029109483361244,-3.740448511084914
1684252688880428000,3.074427978515625,-0.9827532921291887,-0.09660393270850182,-4.04935663934648
1684252688890454000,3.0844541015625,0.14935352612137795,0.39305122332572934,-4.4969256348013875
1684252688900479000,3.09447900390625,1.716897295745462,1.3095412143439054,-5.310827358004451
1684252688910505000,3.1045048828125,0.5847635894879698,1.7144968104749918,-5.19829345023632
1684252688920531000,3.114531005859375,-1.681082908912003,2.243682012864947,-4.4128363157510755
1684252688930557000,3.124556884765625,-3.1401003989741203,3.155472447890043,-4.020106579464674
1684252688940583000,3.1345830078125,-4.08158308469057,4.263689710378647,-4.22722197420299
1684252688950609000,3.14460888671875,-4.393035052216053,5.472585023146867,-4.413794931650162
1684252688960635000,3.154634765625,-4.040521006461978,6.5459022371679545,-4.43725997838974
1684252688970660000,3.16466015625,-3.066135291314125,7.419982827001809,-4.316270376965403
1684252688980685800,3.174685791015625,-1.4117965969428419,7.00727471704781,-2.9841414832383393
1684252688990711800,3.1847119140625,0.1644362367019057,5.3449301186144345,-1.3799614890038967
1684252689000737800,3.19473779296875,0.42386867865473027,3.4542098952710627,-0.9205360515385865
1684252689010763800,3.204763671875,0.9177215786397457,2.1982056253254414,-0.7501397373884916
1684252689020789800,3.214789794921875,1.079202180406451,1.4493360540032385,-0.6427402698993683
1684252689030815000,3.22481494140625,0.37439036199748515,1.238285657903552,-0.7304609311893582
1684252689040841000,3.234841064453125,-0.8880623534351587,1.2168565009057521,-0.9327981517404317
1684252689050867200,3.2448671875,-2.801352428244054,1.2488748564571142,-1.3065607372283934
1684252689060893200,3.25489306640625,-5.050708102831244,1.2719652246654032,-1.4035469472527504
1684252689070919000,3.2649189453125,-5.875804004743695,1.1308598869293927,-1.6107932748943565
1684252689080945000,3.27494482421875,-5.626453980866074,0.8642933553129434,-2.0776094071328637
1684252689090971000,3.284970947265625,-4.603797279024124,0.39600539695620535,-2.6994255469471216
1684252689100996000,3.29499609375,-3.167630503195524,-0.15731646782457828,-3.424872741627693
1684252689111022000,3.30502197265625,-2.3348934388801452,-0.719032651463151,-4.078409130829573
1684252689121048000,3.315048095703125,-2.3617206555292007,-1.1840537169784306,-4.3373184256911275
1684252689131074000,3.325073974609375,-2.5973054811656473,-1.5775369019806385,-4.243928194332122
1684252689141100000,3.33510009765625,-2.6795781061828134,-1.9429256268769501,-4.118336067548394
1684252689151126000,3.3451259765625,-2.7507322480753063,-2.2117782236039636,-4.108019840717316
1684252689161152000,3.355152099609375,-2.8881527598187327,-2.2908955994606015,-4.293895463550091
1684252689171177000,3.365177001953125,-2.7931030708149076,-2.2347926039665937,-4.4740702443927525
1684252689181203000,3.375202880859375,-2.3775758117869494,-2.1917653631448744,-4.58534041583538
1684252689191229000,3.38522900390625,-1.9504843716934321,-2.161469009080529,-4.631120170235634
1684252689201255200,3.395255126953125,-1.8469407028496265,-2.128188086247444,-4.533887876495719
1684252689211281200,3.40528125,-2.0480743928298355,-2.025364840632677,-4.372686091670394
1684252689221307100,3.41530712890625,-2.303985674919188,-1.915980336806178,-4.1060950101345774
1684252689231333000,3.4253330078125,-2.4638740390583873,-1.6777479192703961,-3.693885497352481
1684252689241358000,3.435358154296875,-2.6039962109759447,-1.1289759728789328,-3.146317666053772
1684252689251384000,3.445384033203125,-2.5959438374236226,-0.1305330903172493,-2.4126982708334923
1684252689261410000,3.45541015625,-2.4200002644099294,1.405634274920821,-1.4020505712151528
1684252689271436000,3.46543603515625,-2.220959747316688,3.7588849160075184,-0.440484590151906
1684252689281462000,3.4754619140625,0.6423489324942231,9.32590354208648,1.0507535000354051
1684252689291488000,3.485488037109375,6.199862355864048,16.285573627394438,3.538405012783408
1684252689301513000,3.495512939453125,1.6345839003264904,16.350269679188727,2.95629602945745
1684252689311539000,3.5055390625,-2.3832816222131252,14.430292966222762,0.8645330092877149
1684252689321565000,3.51556494140625,-1.0420704273641108,10.662058038067817,0.044755672049522396
1684252689331591000,3.5255908203125,2.8818606739372012,4.0149826605796815,-0.9003349750310182
1684252689341617000,3.535616943359375,6.020954233956337,-1.2827666046649218,-1.873221391531825
1684252689351643100,3.54564306640625,4.2837300433665515,-3.1418945889145133,-1.8572744653373956
1684252689361669000,3.555669189453125,0.8354641511917114,-3.3438200137943026,-1.1719295639425515
1684252689371694000,3.565694091796875,-1.4487141227126121,-3.815231072607636,-0.640683629630506
1684252689381720000,3.575719970703125,-1.7705729179620742,-4.720955339461565,-0.5702291604399681
1684252689391746000,3.58574609375,-0.5479483185162768,-5.797488592919707,-0.8611074187532067
1684252689401772000,3.59577197265625,0.7473037102449684,-6.720216017022729,-0.8175161143079399
1684252689411798000,3.605798095703125,1.3981442114263771,-7.006673828545212,-0.2217120753675699
1684252689421824000,3.615823974609375,1.120724788818881,-6.055325874635577,0.9571212766140699
1684252689431849000,3.625848876953125,0.5520230571419,-4.2672775057375425,2.465429159545898
1684252689441875000,3.635875,0.5172258114617317,-2.3867682952851057,4.029024629935622
1684252689451901200,3.645901123046875,1.215271204475686,-0.07887479927241801,6.172391580614447
1684252689461927200,3.65592724609375,2.7143834621042013,2.6634622531622645,8.18696497811973
1684252689471953200,3.665953125,4.123406210419535,4.648375840941071,9.003858284354209
1684252689481979100,3.675979248046875,3.340723801344633,4.7036318642169235,7.878975133746862
1684252689492005000,3.686005126953125,1.7158764282651244,4.105558419039845,6.0722238179445265
1684252689502030000,3.696030029296875,1.1938036882288754,3.2070816390961405,4.821970074349641
1684252689512056000,3.70605615234375,1.0070049592018127,2.0348212357640265,4.012573553611338
1684252689522082300,3.716082275390625,1.005682186165452,0.6569196018993854,3.491052309978008
1684252689532108300,3.7261083984375,1.2477974364839493,-0.8570160577863455,3.034688890431821
1684252689542134300,3.73613427734375,1.5014835898697376,-2.15514506675601,2.654248434615135
1684252689552160300,3.74616015625,1.2117157039511948,-2.8887101014405485,2.5089175881385803
1684252689562186200,3.756186279296875,0.2603414465565234,-3.1857980280488727,2.396573357723653
1684252689572211200,3.766211181640625,-0.3938496802270412,-3.6038615275561807,1.9327698513045906
1684252689582237200,3.7762373046875,-0.6086357557237148,-4.017897086721659,1.2845143251150846
1684252689592263200,3.78626318359375,-0.5075556274492293,-3.977101550474763,0.8470169340804219
1684252689602289200,3.7962890625,-0.2855868008416146,-3.5276667611479757,0.48058191500157116
1684252689612315100,3.806315185546875,-0.05196341147124767,-2.881816250273585,0.14376023615896702
1684252689622341000,3.816341064453125,0.14480426531918347,-2.080743028983474,-0.052199266053736204
1684252689632366000,3.826365966796875,0.307093772315979,-1.0887860013097523,-0.10967793381512164
1684252689642392000,3.83639208984375,0.5485647333815693,-0.05708440774679183,-0.09736907186210154
1684252689652418000,3.84641796875,0.9701512924484909,0.7712707882225514,-0.0026899697363376614
1684252689662444000,3.856444091796875,1.7866952007234096,1.2651871088325977,0.23247516918331385
1684252689672470300,3.86647021484375,3.3700071789741513,1.2484838113129137,0.5989496434897184
1684252689682496300,3.876496337890625,5.482350045835972,0.6778729580789804,0.978307564766705
1684252689692522200,3.886522216796875,6.9645409062147134,0.10114975944459438,1.278887863535434
1684252689702547200,3.896547119140625,7.186583236449956,-0.5105652575939893,1.4651299815930425
1684252689712573200,3.9065732421875,8.567143275868892,-1.3877765466690062,2.1954143871717156
1684252689722599200,3.91659912109375,17.106648018705844,-1.6735867079377174,5.970004967963695
1684252689732625200,3.926625244140625,5.010211257269979,0.9151362383216619,5.813002972915768
1684252689742651100,3.936651123046875,-1.616044619551301,2.2398025410830975,3.9668952137589453
1684252689752677000,3.946677001953125,-1.8222693490602075,3.3186849880158897,4.5774245281443
1684252689762702300,3.956702392578125,-2.8851351655632254,4.980139359611273,5.6141550557851785
1684252689772728300,3.966728271484375,-2.938696075358987,6.41015638063848,7.3576242782443755
1684252689782754300,3.97675439453125,0.06372338910354301,6.023417409199476,8.16587367477417
1684252689792780300,3.9867802734375,0.657670128005743,3.473288105228543,6.293931217136978
1684252689802806000,3.996805908203125,-0.6206300718348473,1.1426952861517667,3.538885782037675
1684252689812832000,4.00683203125,-1.1960977905154226,-0.3898714242458343,1.3417159295007586
1684252689822858200,4.016858154296875,-1.6728149929128586,-1.2131541392564773,-0.06311228973418474
1684252689832883200,4.02688330078125,-0.9385950745161622,-0.8989332915395498,-0.6791901781573891
1684252689842909400,4.036909423828125,5.035383692449331,1.746693445202708,-1.4665359028682112
1684252689852935400,4.046935302734375,2.920982139492035,4.378021607479453,0.43010494269579647
1684252689862961400,4.05696142578125,0.12324410235285758,7.606318468561768,2.316227316854894
1684252689872987400,4.0669873046875,-1.6458450067922472,11.384265227913856,2.5309350664183494
1684252689883013400,4.077013427734375,-3.3186744666218755,13.825559478634595,1.689397148270905
1684252689893039000,4.0870390625,-5.265237573218346,13.758064736032486,0.7190750293001532
1684252689903064300,4.097064208984375,-7.467717222601175,11.586290021514891,0.49634530132263893
1684252689913090300,4.10709033203125,-8.806248969107866,7.9328633758008475,1.572945774798095
1684252689923116300,4.1171162109375,-8.093072642457484,4.222883068215847,2.8831860773220654
1684252689933142300,4.127142333984375,-5.298259552854299,1.2988187447994948,2.765613006342947
1684252689943168300,4.137168212890625,-2.0706202788978816,-0.9035469228148459,3.063642013193667
1684252689953194200,4.1471943359375,-1.6292685505226254,-2.5582336999714372,3.414171314871311
1684252689963220200,4.15722021484375,-3.0317455304563046,-3.793443019169569,2.550761756655574
1684252689973245200,4.1672451171875,-3.948865051549673,-4.6550557570964095,0.7175052957653999
1684252689983271200,4.177271240234375,-3.1866122670412063,-5.1398003447353835,-0.9033382485002279
1684252689993297400,4.18729736328125,-1.1594503138586878,-5.15993127861619,-1.9578209981918333
1684252690003323400,4.197323486328125,0.46446489293724297,-4.565991572242975,-3.94538305465281
1684252690013349400,4.207349365234375,1.3586664797797798,-3.165599289628863,-5.562094029158353
1684252690023375400,4.217375244140625,1.3446426306024193,-1.4582792389154433,-5.794113563528657
1684252690033400300,4.227400390625,1.1614520090699194,-0.20823943033218384,-5.338130375471711
1684252690043426300,4.23742626953125,0.7604960039690136,0.1349549984127283,-4.380334560596943
1684252690053452300,4.247452392578125,-0.9632488195836544,-0.15793196937441825,-3.198737004598975
1684252690063478300,4.257478271484375,-2.487691844758391,-0.7610334718465804,-2.3231477637678384
1684252690073504300,4.267504150390625,-3.361914181150496,-1.4862164626330137,-1.447388427066803
1684252690083530200,4.2775302734375,-4.111000902354717,-2.1123153943330046,-0.9705150111943482
1684252690093556200,4.28755615234375,-4.741862518411875,-2.6067460942059753,-1.0143062221258878
1684252690103581200,4.297581298828125,-4.9470431456953285,-3.0214152750998733,-1.5274702640414237
1684252690113607200,4.307607177734375,-5.071663212576508,-3.120100105735659,-2.2101637741446494
1684252690123633200,4.317633056640625,-5.23537025822103,-2.980245644843578,-2.61833774780035
1684252690133659100,4.3276591796875,-5.3216836830615994,-2.6761113068550824,-3.1067817744791504
1684252690143685400,4.337685302734375,-5.315597641146183,-2.289378180634975,-3.5239421876668926
1684252690153711400,4.34771142578125,-5.096630480572581,-1.9902076025336979,-3.8792566777944564
1684252690163736000,4.357736083984375,-4.8919192243665455,-1.8257225582540033,-4.0312405524194235
1684252690173762300,4.36776220703125,-4.76647030544579,-1.8560323563218115,-4.027285092791915
1684252690183788300,4.377788330078125,-4.6891167243912815,-1.9772183571010826,-4.067330102932453
1684252690193814300,4.387814208984375,-4.698966795015335,-1.9988234551876782,-4.133409133517742
1684252690203840300,4.39784033203125,-4.750651681806147,-1.9341554604440927,-4.204989684128761
1684252690213866200,4.4078662109375,-4.786259586282074,-1.836864714515209,-4.323925860154628
1684252690223892200,4.417892333984375,-4.671033078429103,-1.7117460504621267,-4.456061709493398
1684252690233917200,4.427917236328125,-4.4508346224948765,-1.4145242683410644,-4.480392433151603
1684252690243943200,4.437943115234375,-4.0741625793009995,-0.9093635001391172,-4.335817373478412
1684252690253969200,4.44796923828125,-3.4580893670529127,-0.13190613223612307,-3.9755303556352852
1684252690263995100,4.4579951171875,-2.7271266238212584,0.7449427532672882,-3.2785534686356783
1684252690274021000,4.468021240234375,-1.8449752479955552,1.8495517621308564,-1.9089765955239533
1684252690284047000,4.478047119140625,-1.6213116001687944,2.9595167450696227,0.352922626554966
1684252690294072000,4.488072021484375,-1.7465058136761187,3.657953767749667,2.753653980740905
1684252690304098000,4.49809814453125,-1.4268484739936886,3.9587691904485225,4.649837437926233
1684252690314124000,4.5081240234375,-0.7413492588199675,3.8426761288940905,6.102270581161975
1684252690324150300,4.518150390625,-0.11166357294069602,4.149868100887537,7.5787582614630455
1684252690334176300,4.52817626953125,-0.6948807915031909,5.9916135731816285,9.415901792919636
1684252690344202200,4.5382021484375,1.5854109963566063,11.715572234988212,12.463624644708633
1684252690354228200,4.548228271484375,17.929243335974217,22.769881870436667,19.10038087275624
1684252690364253200,4.558253173828125,8.8284356664747,22.730775017929076,17.05788486458063
1684252690374279200,4.568279052734375,2.950744825071096,16.72326244934797,10.462622676438093
1684252690384305200,4.57830517578125,4.000393578734994,9.041265347206592,2.9211466824039816
1684252690394331100,4.5883310546875,9.864337634336948,2.922902878421545,-3.8811248097538944
1684252690404357000,4.598357177734375,16.75461854159832,-0.6637380497425794,-9.02256298482418
1684252690414383000,4.608383056640625,17.277165913408993,-2.5375918939590454,-10.775917056959868
1684252690424408300,4.618408203125,9.11605492299199,-3.5971968089699744,-8.294659044641255
1684252690434434000,4.62843408203125,1.1837287228077649,-4.48683152628839,-5.1629041569471354
1684252690444460000,4.6384599609375,-2.438583238196373,-5.2370530967414375,-3.7075989654064174
1684252690454485800,4.64848583984375,-2.468065353268385,-6.021175767752528,-3.869612943397462
1684252690464511700,4.65851171875,-2.7316823874294758,-6.725064041575789,-3.2901211568325754
1684252690474537700,4.668537841796875,-2.8514567678451535,-6.974308851513266,-2.5261495857074854
1684252690484563700,4.678563720703125,-3.3606782096147536,-6.610291999492049,-1.8004124681696294
1684252690494589000,4.6885888671875,-3.9389845857873556,-5.280703437897563,-0.5687158332675695
1684252690504615000,4.698614990234375,-4.7065956824585795,-3.3428058683156965,0.8041153654649853
1684252690514641000,4.708640869140625,-5.462815324282646,-1.020370636731386,1.6642466326624155
1684252690524667000,4.7186669921875,-6.691618283569812,1.3955553639769553,1.704179414600134
1684252690534692900,4.72869287109375,-7.535116103613376,3.1023709722995756,2.545736621969938
1684252690544718800,4.73871875,-7.5264230940699575,3.9478824702531097,4.46592434733808
1684252690554743800,4.748743896484375,-6.8705772588819265,3.331368528500199,4.970542679226398
1684252690564769800,4.758769775390625,-4.99713374903202,2.067166923573613,4.8228173388287425
1684252690574795800,4.768795654296875,-3.6106805599212644,0.88220369053483,4.390594088804722
1684252690584821800,4.77882177734375,-2.8235364952623843,-0.040945173850655554,3.4865327867269515
1684252690594847700,4.78884765625,-2.532331196951866,-0.7227069560617208,2.553943017040193
1684252690604873700,4.798873779296875,-2.2759319852150974,-1.0839186875343323,1.6685042901068925
1684252690614900000,4.80889990234375,-1.96040107781291,-1.1956354337006807,0.8919891714900732
1684252690624924700,4.818924560546875,-1.6510592343091963,-1.1103104353755713,0.3263812411099672
1684252690634951000,4.828950927734375,-1.4395698622703552,-0.8664625160455703,-0.08720540524423122
1684252690644977000,4.838976806640625,-1.324271750485897,-0.4982055422365665,-0.3833268249079585
1684252690655003000,4.8490029296875,-1.2291817294716834,0.11529694274067878,-0.6084112993180751
1684252690665028900,4.85902880859375,-0.9789034848332404,1.001200656837225,-0.7914318249806761
1684252690675054800,4.869054931640625,-0.10087214807961135,2.1149416511833667,-1.1982672435089945
1684252690685080800,4.879080810546875,1.4737614702075719,2.9141765511304136,-1.8019991528391837
1684252690695105800,4.889105712890625,3.1166870824217794,3.290122325876355,-2.229843749387562
1684252690705131800,4.8991318359375,5.913452475136518,3.557847379878163,-2.7315292426943776
1684252690715157800,4.90915771484375,14.425844754642247,3.6893016766935585,-4.523659620209038
1684252690725183700,4.919183837890625,12.401141592788695,2.256660736903548,-4.630145187723636
1684252690735209700,4.929209716796875,7.6765522807389495,1.0785042612701654,-3.744365100006759
1684252690745235700,4.939235595703125,5.544703333896398,0.6303145035684108,-3.049348114903271
1684252690755260700,4.9492607421875,4.1367666272521015,0.0968827496498823,-1.9908263189539313
1684252690765286700,4.95928662109375,2.987764349910617,-0.39503099896609783,-1.272795830270648
1684252690775312600,4.969312744140625,2.0926095539964735,-0.6048889704108238,-0.8824839687809347
1684252690785339000,4.9793388671875,1.4408715925186872,-0.8701403277754783,-0.6453390542209148
1684252690795364900,4.98936474609375,0.9189613495677709,-1.0008803388416767,-0.4365943047150969
1684252690805390800,4.999390869140625,0.4174281242132187,-0.9670575642168522,-0.1661959398508072
1684252690815416800,5.009416748046875,0.1988813079435378,-0.8589385502815247,0.16655951246619224
1684252690825441800,5.01944189453125,0.13707045619674027,-0.7745330048888921,0.5818643609151244
1684252690835467800,5.0294677734375,0.2396727525372058,-0.763544577884674,1.156271976083517
1684252690845493800,5.03949365234375,0.45913317652046676,-0.7341717684060335,1.8809160376876592
1684252690855519700,5.049519775390625,0.7548878086984158,-0.6668769322901964,2.7757193898156283
1684252690865545700,5.059545654296875,1.1333938623864204,-0.5955103166908026,3.6621316379562017
1684252690875571700,5.06957177734375,1.4904337880671024,-0.6008984394699335,4.315219698868692
1684252690885596700,5.0795966796875,1.82615320475623,-0.7659031237095594,4.6251136232972145
1684252690895622700,5.08962255859375,2.297955308713764,-1.1030489199399947,4.664514490315318
1684252690905648600,5.099648681640625,3.029506227096915,-1.474662218439579,4.495946268375218
1684252690915674600,5.109674560546875,3.6948183942884203,-1.6955425191581248,4.1781943239226935
1684252690925700600,5.11970068359375,3.8548622412502764,-1.8518980329960584,3.6064281631737947
1684252690935726800,5.129726806640625,6.622321459981799,-2.0727590444922446,2.9563910142645238
1684252690945752800,5.1397529296875,12.081737789475918,-1.8887544762283563,3.3998747862324117
1684252690955777800,5.14977783203125,9.594438743427395,-0.9072101214975118,4.680454402247071
1684252690965803800,5.1598037109375,4.896850835549831,0.6376987686008214,5.449863488250971
1684252690975829800,5.169829833984375,3.8802129556059834,2.729367096224427,7.211839258259534
1684252690985855700,5.179855712890625,3.6248470324397086,5.195002591997385,9.478823820778727
1684252690995881700,5.1898818359375,2.251853044360876,7.195918051028252,9.707024089121818
1684252691005907700,5.19990771484375,1.1173704368896782,8.648229905971885,8.420850306361913
1684252691015932700,5.2099326171875,-0.6180746151983738,9.18062004188299,6.4723910107553
1684252691025958700,5.219958740234375,-2.8190190178379413,8.921911822551488,4.59159801492542
1684252691035984600,5.229984619140625,-5.268952794349193,8.234929090821742,2.5603707120001316
1684252691046010600,5.2400107421875,-8.53536632785797,7.864833795669674,2.0780071742787958
1684252691056036600,5.25003662109375,-11.286457180112599,6.949428092756867,1.3581386565133928
1684252691066062600,5.2600625,-12.966173184585571,5.226275682139397,0.9154735074520111
1684252691076088600,5.270088623046875,-15.010886868810653,3.6366380079984664,1.470747383083403
1684252691086113800,5.28011376953125,-15.801794085395334,2.0952526158511637,2.391449146577716
1684252691096139800,5.290139892578125,-13.242684771633147,0.6490864240556955,3.17558292350471
1684252691106165800,5.300165771484375,-5.34240264596343,-0.5199515100985765,5.680872384274005
1684252691116191700,5.310191650390625,1.7172352955281733,-1.1062713891178368,9.84462054195404
1684252691126217700,5.3202177734375,-0.35194121430218217,-1.166546117338538,11.821662957966327
1684252691136243700,5.33024365234375,-4.789029343256354,-0.5289636685937643,10.797914953756331
1684252691146269000,5.34026904296875,-6.818833627641201,0.6564163285523653,7.260538699498772
1684252691156295000,5.350294921875,-6.951525357297062,1.6971920399308205,2.4489848052233456
1684252691166321000,5.36032080078125,-6.902234964427351,2.031332809126377,-0.8641291046619415
1684252691176347000,5.370346923828125,-7.0716206402301784,2.054540666234493,-2.976323502963781
1684252691186372900,5.380372802734375,-7.262995445001125,2.0609441035360097,-4.670444464886188
1684252691196398800,5.39039892578125,-7.420881821668147,2.273352928507328,-6.422945135062933
1684252691206424800,5.4004248046875,-6.569125291845202,2.340512155544758,-7.730093901312351
1684252691216449800,5.41044970703125,-5.422300943064689,1.8659061000823973,-8.737603887426852
1684252691226475800,5.420475830078125,-4.834719081285596,1.3923492614120243,-9.874825126081705
1684252691236501800,5.430501708984375,-4.801347557559609,0.8398416356235742,-10.5018476023674
1684252691246527700,5.44052783203125,-5.319114124834537,0.06657353610396385,-10.381979698449372
1684252691256553700,5.4505537109375,-5.816203814783692,-0.5068132115840912,-9.748678288024664
1684252691266580000,5.460580078125,-6.023249651417136,-0.9017951107114552,-8.970106821399927
1684252691276604700,5.470604736328125,-5.907300966769457,-1.3699100505888462,-8.309433419924973
1684252691286631000,5.480630859375,-5.8551773963004345,-1.936263830900192,-7.633163220867514
1684252691296657000,5.490656982421875,-6.09401888564527,-2.7026246352493764,-7.11287151902914
1684252691306683000,5.500682861328125,-6.222339560610056,-3.5846862869650122,-6.439722082340717
1684252691316708900,5.510708984375,-6.472638263514638,-4.44283514817357,-5.853184176656604
1684252691326734800,5.52073486328125,-6.69052172050476,-5.09144752497673,-5.341640429419279
1684252691336760800,5.5307607421875,-6.5244093672841785,-5.529837188675999,-4.960243403530121
1684252691346785800,5.540785888671875,-6.148181268465518,-5.694101283681392,-4.887310269266367
1684252691356811800,5.550811767578125,-5.9109840391963715,-5.65743948623836,-5.15025218064487
1684252691366837800,5.560837646484375,-5.662416690129041,-5.496760263982415,-5.260481903123855
1684252691376863700,5.57086376953125,-5.273182394742966,-5.357316137456894,-5.369933042445779
1684252691386889700,5.5808896484375,-4.725643205016851,-5.146515916725993,-5.380335778516531
1684252691396915700,5.590915771484375,-3.5931925417646764,-4.181066956749558,-5.045994518312812
1684252691406941700,5.600941650390625,7.755138326197862,3.7616280772358177,0.5563035109400749
1684252691416966700,5.610966552734375,49.24333184332847,30.91549835460186,31.274602884662148
1684252691426992600,5.62099267578125,-4.541433469569683,46.73336211578846,39.09040873779058
1684252691437019000,5.631018798828125,-9.83473510775566,43.35853380026817,19.41290368438363
1684252691447044900,5.641044921875,4.003905970770121,29.437438894939422,0.17461130149662493
1684252691457070300,5.6510703125,27.477459841930866,8.433806818568707,-10.290835200190543
1684252691467096300,5.661096435546875,18.615158730733395,-7.832478170987963,-6.4415820309936995
1684252691477121300,5.671121337890625,-9.085864367389679,-0.48474867929220194,-0.4471282659500837
1684252691487147300,5.681147216796875,-8.41352624708414,-0.20018238060474394,-2.2755653438597916
1684252691497173200,5.69117333984375,-3.7717280309677124,-2.0717565894514323,-3.244703806003928
1684252691507199200,5.70119921875,-2.893853309547901,-2.580379480805993,-3.5879780219867823
1684252691517225200,5.71122509765625,-3.5797196044683455,-3.269399855843186,-3.6248973013222217
1684252691527251200,5.721251220703125,-4.568762206000089,-3.1763316960453984,-3.095992084917426
1684252691537277200,5.731277099609375,-4.501883549469709,-2.6196687041431663,-1.5684247902423143
1684252691547302100,5.74130224609375,-3.83667133552134,-2.227452762597799,-0.2648921686634421
1684252691557328100,5.751328125,-3.0845398397937416,-2.890940636971593,0.2020844148337841
1684252691567354000,5.76135400390625,-2.3576760563135144,-3.6541684039920566,0.8159531027749181
1684252691577380000,5.771380126953125,-2.25555657505393,-3.266246360248327,1.9857441933840512
1684252691587406000,5.781406005859375,-2.074026287949085,-2.9200340449869633,2.489519936968386
1684252691597432300,5.791432373046875,-1.2806582342088222,-3.0863989116638897,2.5119343056112524
1684252691607457300,5.801457275390625,0.2041746651113033,-3.1378157951682804,2.742366278529167
1684252691617483300,5.811483154296875,1.2636544924378394,-2.5481933674722907,3.329000045803189
1684252691627509200,5.82150927734375,1.3322598266303538,-1.4350836567670107,4.279948186740279
1684252691637535200,5.83153515625,1.1146364818811416,-0.24861878699362278,4.864338266740739
1684252691647561200,5.841561279296875,1.0945715989738702,0.5464753598868847,4.593606139877438
1684252691657587200,5.851587158203125,0.9242027573525905,0.8148381272703409,3.6105183550968762
1684252691667613200,5.86161328125,0.6708715548843145,1.1056471197396516,2.759347223946452
1684252691677638400,5.871638427734375,0.3309697379440069,1.6506120750635862,1.9391124983295798
1684252691687664400,5.881664306640625,0.40439620868265624,1.4110656523197889,1.105879467190802
1684252691697690400,5.8916904296875,-0.12394552862048148,2.2014298480689525,0.6914274361789227
1684252691707716400,5.90171630859375,1.1203086822986603,1.4999585722595452,1.0542559551984072
1684252691717742000,5.9117421875,2.95137143253684,-0.3638128538817167,2.630133984056115
1684252691727768000,5.92176806640625,1.88691966201663,-0.5931675529569387,2.940353194916248
1684252691737793300,5.931793212890625,1.2628712331056595,-1.0427391204059124,2.4614444738239047
1684252691747819300,5.9418193359375,1.1157623441059141,-1.7442817078858612,2.336382216133177
1684252691757845200,5.95184521484375,1.3536983359783887,-2.202473219642043,1.8885158451668917
1684252691767871500,5.96187158203125,1.471991537925601,-3.0617367640942335,2.1873181744776664
1684252691777897500,5.9718974609375,0.7710661324959248,-3.043326078134775,1.930549837167561
1684252691787923500,5.98192333984375,-0.04253039721548557,-2.8060715657204387,0.7942077194347977
1684252691797949400,5.991949462890625,-0.9348691127955913,-2.477134794908762,-0.5547345080576837
1684252691807974400,6.001974365234375,-2.088653363716602,-1.728150072774291,-1.9190248190686106
1684252691818000400,6.01200048828125,-3.1959985195457934,-1.0073001427561044,-3.2590704772695895
1684252691828026400,6.0220263671875,-3.6076387080073355,-0.5182762703627347,-4.289377401603758
1684252691838052400,6.03205224609375,-3.4295699595332145,-0.12159165897071361,-4.95653344309628
1684252691848078300,6.042078369140625,-3.1199452074348923,0.7670078700810671,-5.926015019589662
1684252691858104300,6.052104248046875,-2.497750881958008,1.5963661056131124,-6.562175326576829
1684252691868129300,6.06212939453125,-1.4049112213432788,2.164911843010783,-6.404082613682746
1684252691878155300,6.0721552734375,-0.03350187210738659,2.5963357593506573,-5.927926990690827
1684252691888181200,6.08218115234375,1.8093010002851486,2.4904613094717263,-4.919574708533287
1684252691898207200,6.092207275390625,7.0882795140862465,1.6586024892956017,-3.347837140481174
1684252691908233200,6.102233154296875,10.143015459507703,0.5923784484058618,-1.6881316583797334
1684252691918259500,6.112259521484375,6.306682562160492,0.2246241634219885,-2.088146583238244
1684252691928285400,6.122285400390625,3.808609024119377,-0.1651093136578798,-3.068979282568395
1684252691938310100,6.13231005859375,2.8449849414825437,-0.745670483019948,-3.156629216709733
1684252691948336400,6.14233642578125,2.763651643142104,-1.3088544011235237,-2.6052491336464882
1684252691958362400,6.1523623046875,2.3864853866904974,-1.6334294695943592,-1.7804399397209285
1684252691968388400,6.162388427734375,1.531063904619217,-1.4739865111351012,-0.8235060023725033
1684252691978414300,6.172414306640625,0.5869540852695703,-1.2529524811595678,-0.04506956030428409
1684252691988440300,6.1824404296875,-0.1361971074283123,-1.2476099510878325,0.6034542614325881
1684252691998465300,6.19246533203125,-0.7736988921523094,-1.3964263015925884,0.9028300067171454
1684252692008491300,6.2024912109375,-1.5207377409160137,-1.636022408697009,0.780138423680514
1684252692018517200,6.212517333984375,-1.9378209972143172,-1.8163678699314594,0.6876145998924971
1684252692028543200,6.222543212890625,-2.368030277067423,-1.5133558139711618,1.2163548349939286
1684252692038569200,6.2325693359375,-3.226118932521343,-0.20885726996958254,2.54854934130311
1684252692048595200,6.24259521484375,-4.350166216826438,2.416324060115218,4.658109299448133
1684252692058621200,6.25262109375,-5.557387458902597,6.556743949177861,6.051261693936586
1684252692068646100,6.262646240234375,-6.851898861896991,11.027395909559726,6.640805795699357
1684252692078672100,6.272672119140625,-7.371384508049488,14.843180524396896,7.687524341130256
1684252692088698000,6.282697998046875,-5.920910974448919,15.660406423586606,6.159231654790044
1684252692098724400,6.292724365234375,-4.119461272186041,12.788726367402075,2.34038677559942
1684252692108750300,6.302750244140625,-1.170577418681234,8.862364824083446,-0.935246421675384
1684252692118776300,6.3127763671875,15.036978756922483,5.76736291924715,-5.074472424778342
1684252692128801300,6.32280126953125,21.401282317924498,2.91737271682322,-7.179800444442034
1684252692138827300,6.3328271484375,8.64107594256401,1.1740490403145551,-6.643371846795081
1684252692148853200,6.342853271484375,2.5038813475370407,0.41255847235023974,-6.521352902323007
1684252692158879200,6.352879150390625,-1.2202807762660086,-0.34467093103826046,-6.1120145610630505
1684252692168905200,6.3629052734375,-3.676249887418747,-1.1201894398331642,-6.057842241370677
1684252692178931200,6.37293115234375,-4.850371116186678,-2.0083757119089363,-6.228395207387209
1684252692188957200,6.382957275390625,-5.217668012791871,-2.8068647619247433,-6.408955188155174
1684252692198982100,6.392982177734375,-4.909473001235723,-3.382252328041196,-6.94694153663814
1684252692209008000,6.403008056640625,-2.9254139844596385,-3.619963352051377,-7.868345603182911
1684252692219034000,6.4130341796875,-0.8622393453925847,-3.4024469748079773,-8.619577227461338
1684252692229060000,6.42306005859375,-1.3395777484282851,-2.8346044172436,-8.377109364312886
1684252692239086000,6.433086181640625,-2.4839345380514857,-2.236942475476861,-7.593699225485325
1684252692249112300,6.4431123046875,-3.288880216860771,-1.605219858676195,-6.351368091583252
1684252692259137300,6.45313720703125,-3.567322187449038,-0.9457803829103708,-4.54744410816133
1684252692269163300,6.463163330078125,-3.422082818648219,-0.26898002249896524,-2.6387968907222152
1684252692279189200,6.473189208984375,-3.5741000110208985,0.6676911712825297,-0.7804340456262231
1684252692289215200,6.48321533203125,-3.5545606132924554,1.5284382322907446,0.47645256011188025
1684252692299241200,6.4932412109375,-2.900698060876131,2.002917446503043,1.2702075673431157
1684252692309267200,6.50326708984375,-2.0765642819941044,2.2674790680378676,1.5149845842167735
1684252692319293200,6.513293212890625,-1.3681079696029423,2.3715800785034893,1.4471023036018014
1684252692329318400,6.523318359375,-0.7984124776482582,2.4294939228117465,1.153405480736494
1684252692339344400,6.533344482421875,-0.3326701121211052,2.335968666896224,0.6403878615543246
1684252692349370400,6.543370361328125,-0.036031098324060436,1.9100369182318448,-0.06775134771168231
1684252692359396000,6.55339599609375,-0.034432138694822784,0.9404004434376955,-0.6714064654786139
1684252692369422000,6.563422119140625,-0.547398027689755,-0.4935153385937214,-0.8157731430981308
1684252692379448000,6.573447998046875,-1.4780927774101495,-1.8514274928748606,-0.7078478981692343
1684252692389473300,6.583473388671875,-2.310054181177914,-2.7936621660023926,-0.6769544549945742
1684252692399499300,6.593499267578125,-2.561966164498031,-3.3789988792032,-0.6781099086400121
1684252692409525200,6.603525146484375,-2.4969316745296117,-3.7004210366010666,-0.6082614425186067
1684252692419551500,6.613551513671875,-2.5789611384406683,-3.783417884239554,-0.4315154670808464
1684252692429577500,6.623577392578125,-2.8664555995345116,-3.620407588687539,-0.25192864219397304
1684252692439603500,6.633603515625,-3.008679419906437,-3.2850223723888394,-0.13270005909278987
1684252692449628400,6.64362841796875,-2.75787773591578,-2.8235896867543455,0.02336407058313489
1684252692459654700,6.653654541015625,-2.1697800335690376,-2.156887526509166,0.1993753020055592
1684252692469680600,6.6636806640625,-1.2879030907705424,-1.517773630413413,0.3476898404680192
1684252692479706600,6.67370654296875,-0.3667342942863703,-0.9356576328247785,0.500675731742382
1684252692489732600,6.683732666015625,0.21841712547540662,-0.4071101438164711,0.6939137000367045
1684252692499758600,6.693758544921875,0.5631450473979115,-0.1458650994837284,1.0682846266813575
1684252692509784600,6.70378466796875,0.9303034123152494,-0.13569500312507152,1.5257754428222774
1684252692519809500,6.7138095703125,1.4611732067912817,-0.4608627767920494,1.8236188639730213
1684252692529835800,6.723835693359375,2.081772664292157,-0.8450199150443076,2.342873477848619
1684252692539861800,6.73386181640625,2.6360417467951773,-0.926682299208641,3.3804613529711958
1684252692549887700,6.7438876953125,2.9287784924566744,-0.31098961071074005,4.822023265841603
1684252692559913700,6.753913818359375,3.4250095197498798,1.186074409151077,6.450424093618989
1684252692569939700,6.763939697265625,5.539619162499904,3.3272213456928728,8.343368422752619
1684252692579964700,6.773964599609375,10.499981808495521,7.023508643490076,10.392089589053391
1684252692589990700,6.78399072265625,12.911244493567942,11.054162335932254,10.40074869632721
1684252692600016600,6.7940166015625,4.461674288678169,11.109985345441102,6.851423061078786
1684252692610042600,6.804042724609375,-2.5047896945536134,8.115660906362534,2.695388838776946
1684252692620068600,6.814068603515625,-3.3152655349612234,4.387475664523244,-0.2936711039021611
1684252692630094600,6.824094482421875,-3.137660020084679,0.6343143868595361,-2.3343071634247896
1684252692640120600,6.83412060546875,-2.809144397294521,-1.96646256980896,-3.6598236532747745
1684252692650145500,6.8441455078125,-2.391578472045809,-3.4141835898309942,-4.208500322598218
1684252692660171500,6.854171630859375,-2.09721777844429,-4.196315379285812,-4.412226367159188
1684252692670197500,6.864197509765625,-1.9310896431326865,-4.248795508107543,-4.358256292040646
1684252692680223700,6.8742236328125,-1.8872668680191038,-3.6932092055261134,-4.304370972596109
1684252692690249700,6.884249755859375,-1.8694445033416152,-2.573131993895769,-4.348856303271651
1684252692700275700,6.894275634765625,-1.877998542805761,-0.9534569088876247,-4.299688952259719
1684252692710300700,6.90430078125,-1.9019266770124434,0.772847243759036,-4.222557489523291
1684252692720326700,6.91432666015625,-1.9669535681962966,2.1269763723701236,-4.1735482516825195
1684252692730352600,6.9243525390625,-2.0016532717861235,2.7771564368814228,-4.075052513878047
1684252692740378600,6.934378662109375,-1.8439140485048293,2.472515318414569,-3.5769951479405164
1684252692750404600,6.944404541015625,-1.6064438475131988,1.4404548284113405,-3.0034765905663368
1684252692760430600,6.9544306640625,-1.401249776226282,0.3623392741978168,-2.7594097677886484
1684252692770456600,6.96445654296875,-1.3251251524448393,-0.3704185357570648,-2.5798978347688912
1684252692780481500,6.9744814453125,-1.319676239389181,-0.6055144088327884,-2.4174442963168024
1684252692790507500,6.984507568359375,-1.270093585574627,-0.43333354935348034,-2.198043712761998
1684252692800533500,6.994533447265625,-1.2920657634079455,-0.044025604209303855,-1.7739242742165922
1684252692810559500,7.0045595703125,-1.390699156117439,0.4510936624497175,-1.1444269322499632
1684252692820585500,7.01458544921875,-1.5202572639226912,0.847348650252819,-0.5240484240233898
1684252692830611700,7.02461181640625,-1.6619091296255588,1.118735149371624,0.09605389761030673
1684252692840636400,7.034636474609375,-1.7415455609202384,1.182397181943059,0.6486842729955912
1684252692850662700,7.04466259765625,-1.6649030507445335,1.1209271064579487,1.0837710957571864
1684252692860688600,7.054688720703125,-1.4514192900180816,0.8767255513846873,1.296805943672359
1684252692870714600,7.064714599609375,-1.2498913400232792,0.5728519101589917,1.4305524430781602
1684252692880740600,7.07474072265625,-1.1332219398856163,0.1981540896475315,1.4704577524870632
1684252692890766600,7.0847666015625,-1.0642810170631856,-0.25451836642622944,1.4634431975498794
1684252692900792600,7.09479248046875,-0.9775531662028283,-0.6838473563134669,1.542059638147056
1684252692910817500,7.104817626953125,-0.95206691583395,-1.02590255189538,1.691780536276102
1684252692920843500,7.114843505859375,-0.9862287131547928,-1.2717635646134615,1.933192752891779
1684252692930869500,7.124869384765625,-1.038266431971267,-1.430937058481574,2.1915976053625346
1684252692940895500,7.1348955078125,-1.1203601202249527,-1.4905273115694522,2.5395988498672843
1684252692950921500,7.14492138671875,-1.2611341801799834,-1.3842004417479037,2.976629792433977
1684252692960947500,7.154947509765625,-1.4172820426166057,-1.245486383062601,3.4232083155468103
1684252692970972400,7.164972412109375,-1.4756675960898398,-1.1437199530243873,3.739650054183602
1684252692980998400,7.174998291015625,-1.4405541971325873,-1.110398698180914,3.9887788365259764
1684252692991024400,7.1850244140625,-1.412934368801117,-1.0982336286127568,4.130901242350042
1684252693001050600,7.195050537109375,-1.3703975418448446,-1.1671814926326274,4.221484307333827
1684252693011076600,7.20507666015625,-1.2692752549290656,-1.293957860764861,4.205248627325892
1684252693021102600,7.2151025390625,-1.1268261744339019,-1.4475830728560686,4.182951455321907
1684252693031127800,7.2251279296875,-0.9248258576869964,-1.6786457448929548,4.120938066740334
1684252693041153800,7.23515380859375,-0.6082979386040941,-1.8950766649872064,4.0455429262772205
1684252693051179500,7.245179443359375,-0.12686696902513503,-2.0347464169621468,4.008909478145838
1684252693061205500,7.25520556640625,0.4501858999550342,-2.050249691042304,4.017533514106273
1684252693071231500,7.2652314453125,1.0596902552068233,-1.8531196837455033,4.0366798208639025
1684252693081257500,7.275257568359375,1.6259949356794356,-1.4346324058681725,4.040415792521834
1684252693091283500,7.285283447265625,2.1113801593095065,-0.9716846394956111,3.926043855671584
1684252693101308700,7.29530859375,2.6455110014081,-0.5694663593739271,3.669481416197121
1684252693111334700,7.305334716796875,4.603702001956105,-0.22996844705939293,3.1162673957049845
1684252693121360600,7.315360595703125,10.604234794652461,0.16018997743427751,1.8810297271952032
1684252693131386600,7.32538671875,9.92427567794919,-0.2062707606077194,1.0223267392352222
1684252693141412600,7.33541259765625,5.6327831838876,-0.6067869129866361,1.2691826082095503
1684252693151438600,7.3454384765625,2.6730934203386307,-0.5362929885685443,1.9892744133368134
1684252693161463600,7.355463623046875,1.1484867290347813,-0.3759130415201187,2.4125407421842215
1684252693171489800,7.36548974609375,0.8244178565204143,-0.24499942745268344,2.3830738246813414
1684252693181515800,7.375515869140625,0.5672200052192434,-0.10260229634046554,2.2008277905225753
1684252693191541800,7.385541748046875,0.13639584487080572,0.2333405538409948,2.164857482475042
1684252693201567700,7.395567626953125,-0.23795772878024726,0.786474787095189,2.0827526152402163
1684252693211593700,7.40559375,-0.4991163004059344,1.3840344375312328,1.8567673925980925
1684252693221619700,7.41561962890625,-0.7317992671210318,2.001128809520602,1.3422957752153277
1684252693231644700,7.425644775390625,-0.813267516952753,2.627670808812976,0.4782385667458176
1684252693241670700,7.435670654296875,-0.6951578548789024,3.3204841463923453,-0.6785474963396787
1684252693251696600,7.445696533203125,1.5044776571191847,4.327676737120747,-2.2278508220046755
1684252693261722600,7.45572265625,8.652920694136618,5.846673771849274,-4.8810734207034105
1684252693271748600,7.46574853515625,10.636662900048494,6.412146093150973,-6.809653126841783
1684252693281774600,7.475774658203125,6.370383757698535,5.327873185351491,-6.610354543334245
1684252693291799600,7.485799560546875,2.175818436950445,3.4890164202362297,-6.032811845010519
1684252693301825500,7.495825439453125,-1.730141538852453,1.6607383322805165,-5.193680403482913
1684252693311851500,7.5058515625,-4.237697483249009,0.2202221290707588,-3.942635801771283
1684252693321877500,7.51587744140625,-5.357800706103443,-0.8809656731724739,-3.0535011429294943
1684252693331903700,7.52590380859375,-5.462667440244555,-1.4747557419419288,-2.1869234760716556
1684252693341929700,7.5359296875,-4.200690233369172,-1.6173112784862518,-1.586139018370211
1684252693351955700,7.545955810546875,-2.4718837425127624,-1.33842127186954,-0.978057681658864
1684252693361980700,7.555980712890625,-0.9482783372059463,-0.791364897224307,-0.3235790431708097
1684252693372006700,7.566006591796875,0.01175005902647972,0.04103811283111572,0.25245208154618737
1684252693382032600,7.57603271484375,0.7944111330524086,0.7338292385786771,0.5527960873410105
1684252693392058600,7.58605859375,1.2681342682003973,1.1788631625980137,0.5512485656380653
1684252693402084600,7.596084716796875,1.2493436430126428,1.5429279454141855,0.8137658218637108
1684252693412110600,7.606110595703125,0.4878624273985624,1.484474002879858,0.8858157435521483
1684252693422135600,7.616135498046875,-0.38659284096658225,0.9165490277290343,0.5415782354950904
1684252693432161500,7.62616162109375,-0.6561451103955507,0.29778935287594793,0.11754063001424074
1684252693442187500,7.6361875,-0.45315439437180755,-0.03647591948211193,-0.23084815250337123
1684252693452213500,7.646213623046875,-0.5193681572526693,-0.25565233889222144,-0.31509616924673317
1684252693462239700,7.65623974609375,-1.1188035384327173,-0.5043272399872542,-0.33801819515079257
1684252693472265700,7.666265625,-2.0068013021990656,-0.7523679348319768,-0.24159458744525908
1684252693482290700,7.676290771484375,-2.5403648658037183,-1.1024188053429127,0.040243455322086806
1684252693492316700,7.686316650390625,-2.559231771098077,-1.4084516704291103,0.615129209396243
1684252693502342700,7.6963427734375,-2.214672191479802,-1.7006863117873667,1.1044161166399717
1684252693512368600,7.70636865234375,-1.6269611503630876,-1.94572314864099,1.2548662058264017
1684252693522394600,7.71639453125,-1.328307874134183,-2.167058791911602,1.0490104557603597
1684252693532420600,7.726420654296875,-1.4885212324440478,-2.4013281510353086,0.6464978688672185
1684252693542446600,7.736446533203125,-1.8285925607323645,-2.5963562176167962,0.251809399728477
1684252693552471600,7.746471435546875,-1.8991145422011613,-2.786962960624695,-0.1594923505589366
1684252693562497500,7.75649755859375,-1.775310175617039,-2.9373604428410527,-0.512348926140368
1684252693572523500,7.7665234375,-1.7520710465878246,-3.130813807451725,-0.7899272656366229
1684252693582549500,7.776549560546875,-1.8669506406992673,-3.328306802842021,-1.0589996425941586
1684252693592575500,7.786575439453125,-2.2346043879181146,-3.481252215975523,-1.391596689479053
1684252693602601500,7.7966015625,-2.738145153702795,-3.628585634446144,-1.901061876876652
1684252693612626400,7.80662646484375,-2.752247036552429,-3.761874160951376,-2.6049647637471556
1684252693622652400,7.81665234375,-2.098689312301576,-3.8498675017029043,-3.336655821253359
1684252693632678700,7.8266787109375,-1.213283026333153,-3.925175548404455,-3.829642459797859
1684252693642704600,7.83670458984375,-0.3953945715814829,-4.002968982180953,-4.0711739188790315
1684252693652730600,7.846730712890625,0.23626754720360038,-4.020943030288815,-3.9821126566350458
1684252693662756600,7.856756591796875,0.5511202630832791,-3.8559026902139184,-3.40941739834249
1684252693672781800,7.86678173828125,0.793663675685972,-3.5508927384346722,-2.4195927065223453
1684252693682807800,7.876807861328125,1.142255287299305,-2.875474187770486,-1.228794775980711
1684252693692833500,7.88683349609375,1.2592132951200008,-1.822610563713312,-0.008288520395755767
1684252693702859500,7.896859619140625,1.3053507769167423,-0.3157598938524723,1.3703235998257994
1684252693712885500,7.906885498046875,1.0960859490595758,2.171215327069163,3.1324992763206363
1684252693722911500,7.916911376953125,0.3012660160105675,6.38307489696741,5.0224096445858475
1684252693732937500,7.9269375,-0.44028753320984537,12.419862659871578,6.238197639477253
1684252693742962700,7.936962646484375,2.951286092340946,19.19777157192826,7.610451622843742
1684252693752988700,7.94698876953125,11.404496699559688,23.80009234865904,10.559061773973703
1684252693763014700,7.9570146484375,7.855630498516559,18.2390913754344,9.650067107146977
1684252693773040600,7.96704052734375,3.1493337990045545,8.798615113228559,5.097219094115496
1684252693783066600,7.977066650390625,1.1358347527325152,2.9638141500025985,1.0048618096932769
1684252693793092600,7.987092529296875,-0.6173474699676037,-0.5653472336173058,-1.939207190875709
1684252693803118600,7.99711865234375,-0.6799860047101974,-3.509257244232297,-3.8254531914144754
1684252693813143800,8.007143798828125,2.6548867325186727,-6.260774212944507,-5.9588201416045425
1684252693823169800,8.017169677734374,6.20834493752718,-7.920081635639071,-8.276705454799533
1684252693833195800,8.02719580078125,3.5502503488779067,-7.862582801872492,-7.450672564297914
1684252693843221800,8.0372216796875,0.2886532757401466,-7.241541738083958,-5.244781645166873
1684252693853247700,8.047247802734375,-0.5355237577617168,-6.41966655178368,-4.525004605077207
1684252693863273700,8.057273681640625,-0.8678045052390545,-5.285649077606201,-4.064664390854538
1684252693873298700,8.067298583984375,-1.4962556260883808,-3.736985218888521,-3.2616184081867337
1684252693883324700,8.07732470703125,-1.8352116866111754,-1.8857997180759907,-2.0519737383559344
1684252693893350700,8.0873505859375,-2.501573655116558,0.2078355257064104,-0.30726562175154687
1684252693903376600,8.097376708984376,-3.0074364341080186,2.1535043138116596,1.6402547855697571
1684252693913402600,8.107402587890626,-3.3722342073738574,3.6481811462759968,3.5066391706883904
1684252693923428600,8.1174287109375,-3.6926083170235153,4.005255047291517,4.61859386613965
1684252693933453600,8.12745361328125,-3.324624899458885,3.38147959010303,4.693150509952009
1684252693943479600,8.1374794921875,-2.4224096636392174,2.8004864590644836,4.471401317444443
1684252693953505800,8.147505859375,-1.5937947938203811,2.092417684686184,3.813547065043449
1684252693963531800,8.15753173828125,-1.0345875242628157,1.0554214918464422,2.822539300918579
1684252693973557800,8.167557861328126,-0.6542670415639877,-0.03638531858921051,1.8544133768178521
1684252693983583700,8.177583740234375,-0.3512462177753448,-0.9951426719725132,1.0848534841664135
1684252693993608700,8.187608642578125,-0.06768529673814773,-1.5576298399835824,0.5468906626895069
1684252694003634700,8.197634765625,0.4526438145011663,-1.5411334632128477,0.10301190005466342
1684252694013660700,8.20766064453125,1.3701239856004714,-0.9981137967377901,-0.38240854101926086
1684252694023686700,8.217686767578124,2.436149289047718,-0.24694120917022228,-0.600145867536962
1684252694033712600,8.227712646484376,3.0973002449065445,0.4155371959000826,-0.3339376478388905
1684252694043738600,8.237738525390625,3.4285879627585407,0.9543833760827779,0.34481209307461974
1684252694053764600,8.2477646484375,6.3492702425211665,1.0943144093424082,1.0842048109993339
1684252694063789600,8.25778955078125,14.074298092615603,0.833202636000514,1.5411676577433944
1684252694073815600,8.267815673828125,10.659904659426212,0.408906379583478,1.5359456853114068
1684252694083841500,8.277841552734374,3.763930508959293,0.43160570264756676,1.5432691600672899
1684252694093867500,8.287867431640626,1.5789679576970637,0.01590191800892353,1.3892480805262923
1684252694103893800,8.297893798828126,1.0289325672410428,-1.0760165361076592,0.6258677532926201
1684252694113919700,8.307919677734375,0.37028935641944405,-1.8331734587818382,0.08480243575572967
1684252694123944400,8.3179443359375,0.11715404184944928,-2.0871213318437336,-0.05175181454718113
1684252694133970700,8.327970703125,-0.09169044170379638,-2.018549899920821,-0.10295856243222952
1684252694143996700,8.33799658203125,-0.43311954127661884,-1.831076194241643,-0.17357114479392766
1684252694154022700,8.348022705078124,-0.6945043594062328,-1.6288041478812694,-0.13407237035930156
1684252694164048600,8.358048583984376,-0.7746323736101388,-1.3946803347080945,-0.05486410134881735
1684252694174074600,8.36807470703125,-0.6954852602023631,-1.15979138238132,-0.1000751159504056
1684252694184100600,8.3781005859375,-0.46761342009603973,-0.9765291569173336,-0.21047668786495924
1684252694194125600,8.38812548828125,-0.13538805606774984,-0.7911006933301686,-0.12067834351807832
1684252694204151600,8.398151611328124,0.1747824933450669,-0.46670273499190806,0.20336393325030802
1684252694214177500,8.408177490234374,0.5628614081509411,0.0012976385951042175,0.6758493432968854
1684252694224203500,8.41820361328125,1.2564865005046129,0.5143634808331727,1.2616565966188906
1684252694234229500,8.4282294921875,2.3791987368136644,0.8725736924022436,1.7899447040386498
1684252694244255500,8.43825537109375,3.703042032754421,0.7867337302923202,2.045478823378682
1684252694254280400,8.448280517578125,4.5192742447316645,0.190010530680418,2.0838953555345534
1684252694264306400,8.458306396484375,4.586971816429496,-0.32040333574414254,2.068684926921129
1684252694274332400,8.46833251953125,5.002064775693416,-0.7600748559474945,2.0018834272801875
1684252694284358700,8.478358642578126,9.519646245032549,-2.0714859558165073,1.8559319646872579
1684252694294384600,8.488384521484376,10.447847132110596,-2.724786782696843,1.738037114407867
1684252694304410600,8.49841064453125,4.88532698649466,-1.6766677228182554,2.2173205140314995
1684252694314435800,8.508435791015625,1.5993671871252357,-0.03464168979227543,3.0920296110272405
1684252694324461800,8.5184619140625,0.548851587498933,1.5902859089165926,4.222043694782257
1684252694334487600,8.528487548828124,-0.44993568805363027,3.69616221011281,5.3950189683854575
1684252694344513500,8.538513427734374,-1.802108458432555,6.009116496646404,6.419231082975864
1684252694354539500,8.54853955078125,-2.1790122645556926,8.000847947746514,6.9020958482176065
1684252694364565500,8.5585654296875,-1.3273755617201328,9.475297400218247,6.632368806743622
1684252694374590700,8.5685908203125,-1.2917385772801935,9.311783831319213,5.520153414529561
1684252694384616700,8.57861669921875,-2.159271791297197,7.121636424764991,3.141201345953345
1684252694394642700,8.588642578125,-1.7996691024564206,4.242051879066229,0.9302405762121081
1684252694404668700,8.598668701171874,0.21715222010612487,2.3558260445326566,-1.2462456769973038
1684252694414694700,8.608694580078126,1.452724965789169,1.2578729864269493,-2.626987794984877
1684252694424720600,8.618720703125,-0.1773943563438952,0.24059447049200533,-1.8584850101709365
1684252694434746600,8.62874658203125,-3.0143536661505697,-0.4996440506070852,-0.026876608748733995
1684252694444771600,8.638771484375,-5.532921710687876,-0.6934007820785045,1.7694103039234876
1684252694454798000,8.648798095703125,-7.644372597146034,-0.25143384441435335,3.0019089028581973
1684252694464824000,8.658823974609374,-9.181004657286405,0.19887948131263256,3.6652749044179913
1684252694474850000,8.66885009765625,-10.419557441693543,0.6377081209510564,3.852839210990071
1684252694484876000,8.6788759765625,-10.920715988516807,1.247381403028965,4.128604363584518
1684252694494902000,8.688902099609376,-7.470690100932121,1.7115052274435758,3.7890585204750296
1684252694504927000,8.698927001953125,0.7529711614221334,2.1179805804878473,4.3662893763706085
1684252694514953000,8.708952880859375,5.564965785202384,2.4066513918846844,5.897825866937637
1684252694524979000,8.71897900390625,2.829476991227269,2.4773294406980275,6.400051750731468
1684252694535005000,8.7290048828125,-1.4865046319246291,2.6907664396733044,6.496589047944545
1684252694545031000,8.739031005859376,-5.0064434291690585,2.710696882545948,5.22692274787128
1684252694555057000,8.749056884765626,-6.3909647734344,2.777529361847043,3.5163895803302525
1684252694565081900,8.759081787109375,-6.307346579027175,2.8629847085535522,2.5442513518482444
1684252694575107800,8.76910791015625,-6.062905369979143,2.816522817108035,1.5359437856152653
1684252694585133800,8.7791337890625,-5.973322714209556,2.806160997569561,0.24919512557685375
1684252694595160000,8.78916015625,-6.008109365430474,2.86684956728816,-1.1036790345370768
1684252694605186000,8.79918603515625,-6.010830899348854,2.5476947703003883,-2.0783374291464685
1684252694615212000,8.8092119140625,-5.846158808064461,1.918525929635763,-2.6497359256267545
1684252694625238000,8.819238037109375,-5.8573804593026635,1.1163093835294247,-3.0114149823501704
1684252694635263000,8.829262939453125,-6.201825764891505,0.5531593676954507,-3.2882825432285663
1684252694645289000,8.8392890625,-6.510562628239393,0.05427110389173031,-3.332590179249644
1684252694655315000,8.84931494140625,-6.728857004117965,-0.5077993000119925,-3.225753898601234
1684252694665341000,8.8593408203125,-6.916189840021729,-1.1138649129867553,-3.3589009708091613
1684252694675367000,8.869366943359376,-7.149818563154339,-1.810391133609414,-3.774304018935561
1684252694685393000,8.879392822265626,-7.277005850175023,-2.4720769269973037,-4.411221574030816
1684252694695417900,8.88941796875,-7.180513561147451,-3.0583406919151543,-5.177040234327316
1684252694705443800,8.89944384765625,-7.010062886461615,-3.670991528499126,-5.938185934376716
1684252694715469800,8.9094697265625,-6.9238675350427625,-4.2579649029910565,-6.43880321393013
1684252694725495800,8.919495849609374,-6.725947254151105,-4.838225628101825,-6.640945496430993
1684252694735521800,8.929521728515626,-6.473438473981618,-5.4766760918527835,-6.707564625242352
1684252694745547800,8.9395478515625,-6.295751418301463,-6.290563202008604,-6.834980460321903
1684252694755574000,8.949573974609375,-6.170584823453426,-7.085617601400614,-6.868370688748359
1684252694765598700,8.9595986328125,-6.0163026087582105,-7.580166374695301,-6.571518908983468
1684252694775625000,8.969625,-5.705065745288134,-7.821657501766085,-6.258849966883659
1684252694785651000,8.97965087890625,-5.4536091045200825,-7.865175156453251,-5.8164335318863385
1684252694795677000,8.989677001953124,-5.4854830831646915,-7.378619720000028,-5.179022932577133
1684252694805703000,8.999702880859376,-5.46885051279366,-6.7180158766299485,-4.770623917993903
1684252694815729000,9.00972900390625,-5.073294613170623,-6.024273149245977,-4.610524541452527
1684252694825753900,9.01975390625,-1.0139002716735004,-4.0710172670125955,-3.648598494905233
1684252694835779800,9.02977978515625,49.823734022736545,12.12390052242279,10.82993973904848
1684252694845805800,9.039805908203125,37.6087135519743,35.18079433113336,31.52257811305523
1684252694855831800,9.049831787109374,-2.8481822762191293,49.396457873725886,22.778659051132202
1684252694865857800,9.05985791015625,-20.113767641949654,42.952983160853385,-4.2023073131769895
1684252694875883800,9.0698837890625,-10.369430013477801,24.64172203674316,-14.856718051362037
1684252694885908700,9.07990869140625,13.009616020470856,4.275297146064043,-16.05292456294894
1684252694895934700,9.089934814453125,13.861914402085542,-6.582782645797729,-10.843718089032173
1684252694905960700,9.099960693359375,2.8885899821922183,-9.324116658669709,-6.773427967250346
1684252694915986700,9.109986572265624,-8.31857768036723,-5.670111336284876,-4.140604305718839
1684252694926013000,9.120012939453124,-8.288193063497543,-4.547589069589972,-3.2669241133794187
1684252694936039000,9.130038818359376,-7.0895631241559975,-4.8856017117828126,-2.598714471180737
1684252694946065000,9.14006494140625,-7.562539532589912,-4.675653723967075,-0.8669576060861348
1684252694956089900,9.15008984375,-8.07721047193706,-4.098044974669814,0.5921782496586442
1684252694966115800,9.16011572265625,-5.933300500422716,-3.00221256197989,2.401211538918316
1684252694976141800,9.170141845703125,5.487129096806049,-0.6499941865503788,8.502306938821077
1684252694986167800,9.180167724609374,9.108302993690968,0.6780296099454164,12.301529710435867
1684252694996193800,9.19019384765625,0.9431390746213495,-0.3514227433860302,9.431100531095266
1684252695006219800,9.2002197265625,-3.254662305438518,-0.5372177021980286,6.164342714193463
1684252695016245000,9.210244873046875,-1.2599695203147827,0.43887715495526786,6.394353831350803
1684252695026271000,9.22027099609375,2.8352736948072907,1.770252599966526,9.111493314164877
1684252695036297000,9.230296875,2.107818667435646,2.5768027913630007,10.604707088339328
1684252695046323000,9.240322998046874,-1.7542508748449384,2.814769835960865,9.655707743382454
1684252695056349000,9.250348876953124,-2.882612953609228,2.2810656948417423,7.507215704774856
1684252695066374700,9.260374755859376,-1.325258423435688,1.275615563866496,5.649170255064964
1684252695076399900,9.27039990234375,0.9552513910889625,0.04798106383681297,3.6502708120316263
1684252695086425900,9.28042578125,2.4006863460004326,-0.7353986798524856,1.3800740094676613
1684252695096452000,9.2904521484375,2.9867852757453917,-0.6348796195268631,-0.27648616034537554
1684252695106478000,9.30047802734375,3.343953869307041,-0.14053367532789707,-1.16496644693166
1684252695116504000,9.310504150390624,3.5653380278944966,0.14012977070212362,-1.8831074102520942
1684252695126530000,9.320530029296876,3.37594066067636,0.33977439116835595,-2.7165236890032887
1684252695136555000,9.330554931640625,2.7243723566770552,0.7465180397599935,-3.3231150794178244
1684252695146581000,9.3405810546875,2.0038287161290644,1.1498849053949116,-3.5737034129187464
1684252695156607000,9.35060693359375,1.2645499799728392,1.3545003000110387,-3.6269358214125034
1684252695166633000,9.360633056640625,0.921301775214076,1.2696265525847672,-3.536494795247912
1684252695176659000,9.370658935546874,0.6697481038123368,0.88619480599761,-3.3413825575143097
1684252695186685000,9.380684814453126,0.4258902476102113,0.24570494537353516,-3.004916267980635
1684252695196711000,9.3907109375,0.20809094350589438,-0.31713644290268417,-2.634654968611896
1684252695206736000,9.40073583984375,0.19724106645584105,-0.7000222460448742,-2.163402607491612
1684252695216761900,9.410761962890625,0.40135556234512476,-0.8687304609775542,-1.5409864559575914
1684252695226787800,9.420787841796875,0.8028712106227874,-0.7703729625999927,-0.6996753323033451
1684252695236813800,9.430813720703124,1.3865794458389282,-0.5306833319932222,0.10402765296846628
1684252695246840000,9.440840087890624,2.0464216571867464,-0.3284551247745752,0.7287804307565092
1684252695256866000,9.450865966796876,2.5305507432758807,-0.07456511937975883,1.1733292016074062
1684252695266891000,9.46089111328125,2.7941309525579214,0.11913608251214027,1.3678937423303723
1684252695276917000,9.4709169921875,2.784953374367952,0.21929098570048808,1.316608668512106
1684252695286943000,9.48094287109375,2.5471406435489654,0.2574222711741924,1.2062681791350245
1684252695296969000,9.490968994140625,2.2166069589346646,0.15413666874468326,0.9894383228510618
1684252695306995000,9.500994873046874,1.9283523271232843,-0.04903028062880039,0.5894941251412034
1684252695317021000,9.51102099609375,1.6647754788421094,-0.16337971338629723,0.20400544602423906
1684252695327047000,9.521046875,1.5414789156496524,-0.33295068262815475,-0.19971534761488435
1684252695337071900,9.53107177734375,1.4735142174482345,-0.6323153219968081,-0.5397694325074553
1684252695347097900,9.541097900390625,1.7183325892455874,-0.9057786273896694,-0.8035483792319893
1684252695357123800,9.551123779296875,1.8475528433986006,-1.0335381613403558,-0.8442702657207846
1684252695367149800,9.56114990234375,1.9620827472895384,-1.1514040777862071,-0.8440630527108908
1684252695377175800,9.57117578125,2.1195798323780295,-1.292410046800971,-0.8519891695350408
1684252695387201800,9.581201904296876,2.2622183710306882,-1.4421961191207169,-0.7982201699465513
1684252695397226800,9.591226806640625,2.400272650633007,-1.5929571739524602,-0.6644079118281603
1684252695407252700,9.601252685546875,2.5814205142915245,-1.7223977928578853,-0.49062838498055933
1684252695417279000,9.611279052734375,2.7781343420028684,-1.7885060495376586,-0.25212094989567996
1684252695427305000,9.621304931640625,2.9414114717975255,-1.538532925325632,0.165828860104084
1684252695437331000,9.6313310546875,2.9946877194330095,-1.3438111482143402,0.5477008100286126
1684252695447357000,9.64135693359375,2.9024980960354205,-1.1231336765915154,0.9104296680659055
1684252695457382400,9.65138232421875,2.642218974125385,-0.9977367801189422,1.1734545815527437
1684252695467408400,9.661408447265625,2.2914473881244657,-1.220886779335141,1.2680109340816736
1684252695477434400,9.671434326171875,2.057704244831949,-1.7893273027926682,1.1043486043617128
1684252695487460400,9.68146044921875,2.0080765828318894,-2.687367444884777,0.6681734018415212
1684252695497486300,9.691486328125,2.1677613872230053,-3.8771985762208696,0.05867430728673934
1684252695507512300,9.70151220703125,2.3053765447556973,-5.267955015483499,-0.7888426852703094
1684252695517537300,9.711537353515626,2.2146435499072075,-6.264115924587846,-1.3720721970587968
1684252695527563300,9.721563232421875,2.0682684550747275,-6.454369031852483,-1.1220818294510244
1684252695537589200,9.73158935546875,2.119335502228141,-6.3231280855268235,-0.45857671168148517
1684252695547615200,9.741615234375,2.2366578133165835,-5.484831925779581,0.6939522784814238
1684252695557641500,9.751641357421875,2.017041979575902,-3.4172003073036668,2.2646327386960388
1684252695567667500,9.76166748046875,1.1689046631634235,0.27302783658504487,4.602637003073096
1684252695577693400,9.771693359375,-0.46178266811594365,5.0431397134035825,7.3665879214227195
1684252695587718400,9.781718505859375,-2.070086318151653,9.858221197283267,8.26926682923138
1684252695597744400,9.791744384765625,-2.749474064707756,13.169343641090393,7.194704583585262
1684252695607770400,9.801770263671875,-2.51848504242897,14.146734383273124,5.3893572893619535
1684252695617796400,9.81179638671875,-2.725933030122518,12.455228572285174,3.3487852349862455
1684252695627822300,9.821822265625,-2.5007494792520997,9.209147632709145,1.4268237779438495
1684252695637848300,9.831848388671874,-2.055467717951536,6.205185596713424,-0.03555471298396587
1684252695647873300,9.841873291015625,-1.6454624372154474,4.102638732200861,-1.0513222398340702
1684252695657899300,9.851899169921875,-1.4702338806033133,2.6154262442678213,-1.9555197355121372
1684252695667925200,9.86192529296875,-1.5273568667948245,1.5123457601457833,-2.784119846153259
1684252695677951200,9.871951171875,-1.6992051333189009,0.7320441087275743,-3.8991111328214405
1684252695687977200,9.881977294921874,-1.961215901327133,0.4353787914454937,-4.8567789374023675
1684252695698003200,9.892003173828124,-2.3150462903767823,0.6987690311133861,-5.703671076059341
1684252695708028400,9.9020283203125,-2.1873662514030934,0.96760233861804,-6.513909016057848
1684252695718054400,9.912054443359375,-0.8784708606820553,1.0113391890138388,-7.01257106989026
1684252695728080400,9.922080322265625,0.2491895726189017,0.807993375942111,-7.062615495997667
1684252695738106400,9.9321064453125,1.72210903904438,0.5350111320644617,-7.210061727192998
1684252695748132400,9.94213232421875,5.700039441558719,0.7033966909140348,-6.05453618556261
1684252695758158300,9.952158447265624,6.390029538410902,0.22886428520977495,-3.2624542744889853
1684252695768184300,9.962184326171876,4.739789219269156,-0.4012929819703102,-3.4785602004125713
1684252695778209500,9.97220947265625,2.6688264105439186,-0.34630466971993445,-4.867668872468173
1684252695788235500,9.982235595703125,1.901668318337202,0.33090894766747947,-5.018039758938551
1684252695798261500,9.992261474609375,8.051645238047838,2.1743816821455955,-2.2453131211981177
1684252695808287500,10.00228759765625,16.539000106930732,5.321966007134318,1.1764780210271477
1684252695818313500,10.0123134765625,15.856348682403564,8.954539834433794,2.9852202183857557
1684252695828339500,10.02233935546875,6.360347516852617,10.399986479783058,4.252493485842645
1684252695838364400,10.032364501953126,-1.728847407388687,7.936061879581213,3.9530847150713204
1684252695848390400,10.042390380859375,-4.295032066364586,4.652344744572043,2.6286598198503253
1684252695858416400,10.05241650390625,-3.3996921231418846,2.3203654395729303,1.1969108604639769
1684252695868442400,10.0624423828125,-3.7399940453156826,0.702795802411437,0.322946298225224
1684252695878468400,10.07246826171875,-4.801003858688474,-0.37334932851195335,0.06017565176039934
1684252695888494600,10.08249462890625,-5.82612958099246,-1.1027601661264896,-0.10005991838127375
1684252695898519300,10.092519287109376,-7.123010051205754,-1.703729332745075,-0.7173226326748728
1684252695908545500,10.102545654296875,-8.52124895517826,-2.319742339238524,-1.5565800386697053
1684252695918571500,10.112571533203125,-8.722518546497822,-3.1395816357970237,-2.042499807567894
1684252695928597500,10.122597412109375,-7.806079408884048,-4.009108800110221,-2.160286813558638
1684252695938623500,10.13262353515625,-6.66519438702464,-5.202265276476741,-1.955096833924949
1684252695948649500,10.1426494140625,-5.346175150239468,-6.505807542666792,-1.6627686690643428
1684252695958674400,10.15267431640625,-4.193657265992463,-7.4851283761292695,-1.7036013224512339
1684252695968700400,10.162700439453126,-3.866428175881505,-8.124633901891112,-2.072535318738967
1684252695978726400,10.172726318359375,-4.388426973898708,-8.494671329376102,-2.371186841402203
1684252695988752400,10.18275244140625,-4.024939114187657,-8.502422089633345,-2.5038012680381536
1684252695998778400,10.1927783203125,1.016888932095468,-8.867350211280584,-1.9383552502214907
1684252696008804400,10.202804443359375,19.508935954684016,-10.842633216404915,1.6694465393930673
1684252696018830300,10.212830322265624,32.094291959095,-6.304573607182502,4.196052052174508
1684252696028855300,10.222855224609376,31.27531132519245,5.74209111534655,-1.683367804978788
1684252696038881300,10.23288134765625,12.000852819424868,8.304460892209411,-4.296699415054917
1684252696048907300,10.2429072265625,-11.01325164887309,7.240888242611288,-1.354107062909752
1684252696058933500,10.25293359375,-16.04539709005356,11.833729827857017,-0.38512773685008284
1684252696068959500,10.26295947265625,-14.45291863952875,16.57799706932306,-0.24552871202379464
1684252696078985500,10.2729853515625,-12.733139504736661,15.571059914660452,2.191510511600971
1684252696089010400,10.283010498046876,-9.074940822315215,10.501164880800246,4.220744887143373
1684252696099036400,10.293036376953125,-6.934370224356651,5.770220062243938,4.210762130050361
1684252696109062400,10.3030625,-5.30993303951323,2.4447084430783987,2.999733604645729
1684252696119088400,10.31308837890625,-4.015714774246514,0.33655309103429315,1.7415553516618907
1684252696129114400,10.3231142578125,-3.3375802426218986,-0.9856266556084156,1.1332986583836375
1684252696139140400,10.333140380859374,-2.9685458546996113,-1.6711469135701655,0.8947934152558445
1684252696149165300,10.343165283203126,-3.289814575101435,-2.0154215387672183,1.0767380553152412
1684252696159191300,10.35319140625,-3.7140284139320254,-2.272856669422984,1.5908438350602983
1684252696169217300,10.36321728515625,-3.8263738133907315,-2.499971480616927,2.373027646963298
1684252696179243300,10.3732431640625,-3.5408006757482884,-2.8586393728256225,2.688711845231056
1684252696189269200,10.383269287109375,-3.2610195655107495,-3.1785879505395886,2.5782918608769774
1684252696199295200,10.393295166015625,-3.4353146406650543,-3.672511869934201,2.1253250980317593
1684252696209321500,10.403321533203124,-3.3712697462558743,-4.822432431164383,0.825557966466248
1684252696219346200,10.41334619140625,-2.3246190053641795,-3.4151480509489773,1.3970876881107688
1684252696229372400,10.423372314453125,-1.7657612798966467,-1.1235223836481572,2.9874513384386896
1684252696239398400,10.4333984375,-1.3520847633019089,-0.22209552172720431,3.794039523757994
1684252696249424400,10.44342431640625,-1.3079039685308933,-0.2025374192982912,4.0174861678332086
1684252696259450400,10.453450439453125,-1.1700936537522821,-0.6792173584252595,3.829763455829024
1684252696269476400,10.463476318359374,-0.7889595896482468,-1.637072210010886,3.1771108637243506
1684252696279501300,10.473501220703126,-0.59413493668437,-2.8789807345867153,2.335201043524593
1684252696289527300,10.48352734375,-0.47579150238726287,-3.911423501905799,1.7251133354268966
1684252696299553300,10.49355322265625,-0.4494307707387954,-4.313307435506582,1.4610902046829461
1684252696309579300,10.503579345703125,-0.7690449288666248,-4.029749437078833,1.6008986344762146
1684252696319605200,10.513605224609375,-0.8562917620997875,-3.4601112282693385,2.404547989864647
1684252696329631200,10.52363134765625,-0.7595499552905559,-2.7435961125850676,3.3249861339867115
1684252696339656400,10.533656494140626,-0.6664332801759243,-2.07123870305717,4.021131246337294
1684252696349682400,10.543682373046876,-0.7553180168092251,-1.237888183018565,4.299596305540204
1684252696359708400,10.55370849609375,-0.42563247345685956,-0.2148895358711481,4.527369872903823
1684252696369734400,10.563734375,0.13369009304344653,0.5483569358497857,4.623732982593775
1684252696379760400,10.573760498046875,0.7144337063003331,1.1495435446113347,4.423874427115917
1684252696389786400,10.583786376953125,1.7660259221822023,1.7315081510305403,4.161923864862323
1684252696399811600,10.5938115234375,3.80789415384829,2.1194056448549032,3.973540643122792
1684252696409837600,10.603837646484376,6.491850328984857,2.206055754303932,3.793330790966749
1684252696419863600,10.613863525390625,16.25871017038822,1.7896891218423843,3.569135082089901
1684252696429889500,10.6238896484375,25.580468867754934,-0.3248269974052906,3.782425950592756
1684252696439915500,10.63391552734375,11.669727014136313,-1.7869155654758213,3.9146427562132478
1684252696449941500,10.64394140625,4.301410076963902,-1.178711771428585,4.053584193913639
1684252696459967200,10.65396728515625,3.5959266429036854,-1.3643775509029625,4.109958699825405
1684252696469992200,10.6639921875,2.543379245188832,-1.5420961707651615,3.8783144285082813
1684252696480018200,10.67401806640625,1.8205821266256272,-1.337093822658062,3.0026141285181045
1684252696490044200,10.684044189453125,1.4348882803253828,-1.2059469843566417,1.9791015404991805
1684252696500070100,10.694070068359375,0.6555109772104769,-1.4001321703732013,1.2647259210616348
1684252696510096100,10.70409619140625,-0.24217498114909974,-2.0151339539974926,1.0372019445449112
1684252696520122000,10.7141220703125,-0.6708335609614848,-2.234153721541166,1.4154649101920425
1684252696530147000,10.72414697265625,-0.8403881635904311,-0.9342746540337801,3.1984029503390192
1684252696540173000,10.734173095703126,-1.2143044783353805,1.7078104645788668,6.027139060071111
1684252696550199000,10.744198974609375,-1.676301227593422,4.843389294475316,8.649334067821503
1684252696560225000,10.75422509765625,-2.2851358668901023,8.217766943618654,10.216150838345289
1684252696570251000,10.7642509765625,-2.5201684654712677,11.862628590083121,10.306766928815842
1684252696580277200,10.77427734375,-1.182120995350182,14.747933851516246,8.461299805650114
1684252696590302000,10.784302001953124,-0.606655541691929,13.547470851528644,3.9853751655623313
1684252696600328200,10.794328125,7.357407420623302,11.267035855805874,-2.8505343923032282
1684252696610354200,10.804354248046875,15.162197374218701,8.98507525795102,-8.372452478417754
1684252696620380200,10.814380126953125,2.75870746473819,5.821573232862353,-5.40448880752027
1684252696630406100,10.82440625,-3.4077266687765717,3.3351632446080446,-2.5254434832647443
1684252696640432000,10.83443212890625,-5.269088403427601,1.585375925043225,-1.1434610098272562
1684252696650457000,10.84445703125,-6.457906558328866,0.31408348507285117,0.35716333286464214
1684252696660483000,10.854483154296876,-8.307470595419407,-0.037167408877611156,2.005425922192633
1684252696670509000,10.864509033203126,-13.550844711875914,1.2109230192035436,4.973472302937507
1684252696680535000,10.87453515625,-18.83813980312347,1.834381081005931,8.172074282979965
1684252696690561000,10.88456103515625,-18.25865064690709,1.4661545023351907,8.283813240978121
1684252696700587000,10.8945869140625,-12.76499711676836,0.4985960028588772,7.0960372886061664
1684252696710612000,10.904612060546874,3.2639515273094175,-0.9906734176039695,9.776326173406838
1684252696720638000,10.914637939453126,5.2709056819826365,-1.0239309595614672,8.984475538492202
1684252696730664000,10.924663818359376,1.6376304284155367,-1.0424743319898844,5.966622339788079
1684252696740690000,10.93468994140625,-1.8352806601941585,-1.1811574110150336,5.183278251934051
1684252696750716200,10.944716064453125,-4.464034003546834,-0.916644889318943,5.146758493310212
1684252696760742100,10.9547421875,-4.713233220776916,-0.2093950301080942,4.486167801682651
1684252696770768100,10.96476806640625,-3.768968503126502,1.0071025743573903,2.5761136400550604
1684252696780793000,10.97479296875,-2.340276593223214,1.6611083346366882,-1.5049930592954157
1684252696790819000,10.984819091796876,-3.8166444465368983,2.269668687036633,-5.0957092740744345
1684252696800845000,10.994844970703125,-4.95739152123034,2.691311214074492,-7.312094699212908
1684252696810871000,11.00487109375,-2.8022826948314905,1.9935972449719905,-8.114300139403342
1684252696820897000,11.01489697265625,-1.389713067689538,1.261221127811074,-7.933731390807032
1684252696830923000,11.024923095703125,-2.9113258378744122,0.6701315501719712,-6.617081805762648
1684252696840948200,11.0349482421875,-5.3173985530883074,0.1460135680437088,-4.639281557120382
1684252696850974200,11.04497412109375,-6.476079343879222,-0.3100426852494478,-2.4427760137110948
1684252696861000000,11.055,-6.643426791852712,-0.833426507884264,-0.6579886924356222
1684252696871026000,11.06502587890625,-7.045669037371874,-1.4714362421303986,-0.11554711810946464
1684252696881052000,11.075052001953125,-7.811528321939706,-2.2875907126963138,-0.639577714215219
1684252696891078000,11.085077880859375,-7.642256627905368,-3.2525358148038386,-1.398961665289104
1684252696901103000,11.09510302734375,-6.472952151769399,-4.184500438329577,-2.0986545332491398
1684252696911129000,11.105129150390624,-5.522792530861497,-4.8683811123907565,-2.7319214568823575
1684252696921155300,11.1151552734375,-5.62480153748393,-5.19249382404685,-3.412050669455528
1684252696931181300,11.125181396484376,-6.148080730700492,-5.286977111339569,-4.076334662643075
1684252696941207300,11.135207275390625,-6.508614416781067,-5.211999904027581,-4.6542000170499085
1684252696951233000,11.14523291015625,-6.311954365083575,-5.066402515569329,-4.983598560154438
1684252696961258200,11.15525830078125,-6.170361536091566,-4.928115742385387,-4.884367493812739
1684252696971284200,11.1652841796875,-6.514043456092477,-4.7373546855986115,-4.609588721907139
1684252696981310200,11.175310302734376,-6.650542761337757,-4.339133366158604,-4.611217784413695
1684252696991336200,11.185336181640626,-6.314136969819665,-3.6867373791635036,-4.694279221720993
1684252697001362200,11.195362060546875,-5.513794400891661,-3.0613731914788485,-4.711789159448444
1684252697011388200,11.20538818359375,-3.9780154504492877,-2.51212602879107,-4.72378033375442
1684252697021414100,11.2154140625,-1.536453196442127,-1.8262930516183375,-4.482291837032139
1684252697031439000,11.225439208984374,11.933151156073809,0.05345101968050003,-1.7650854264616964
1684252697041465000,11.235465087890624,65.42237401823998,10.410755711078643,20.499091485893725
1684252697051491000,11.245490966796876,-2.461253627426922,28.73924152623415,29.616552768552303
1684252697061517000,11.25551708984375,-36.99655546734333,29.766080482196806,17.79237636646032
1684252697071543300,11.265543212890625,-22.236049719023704,27.467254089736937,5.9521297040551895
1684252697081569300,11.2755693359375,15.153968475055693,18.156269299840925,1.6516712287276982
1684252697091594000,11.285593994140624,23.72947742820978,5.553648856896162,0.7442705530941486
1684252697101620200,11.2956201171875,-8.076751622253656,1.5937030238837002,-0.1717933214664459
1684252697111646200,11.305646240234376,-13.079969075113533,-0.46403146995604033,-0.3814554780781269
1684252697121672200,11.315672119140626,-5.330040007996558,-4.773882627528906,-2.4410034510806202
1684252697131698200,11.3256982421875,3.213880213195085,-8.552689803102613,-4.648308913184702
1684252697141724200,11.33572412109375,3.5708980001091954,-7.128459548783302,-5.074939457768202
1684252697151749000,11.3457490234375,1.0113478107117115,-4.450322289058565,-3.962268723002076
1684252697161775000,11.355775146484374,0.4671978250324726,-3.0217431918799877,-3.2634669586628675
1684252697171801000,11.365801025390626,0.672288874336332,-1.2775152600079773,-2.6470485862389204
1684252697181827000,11.3758271484375,1.0194297026194632,0.15254092398583888,-2.1118460232555867
1684252697191853000,11.38585302734375,0.7418297358132898,1.2580892595261335,-1.8151400817021726
1684252697201879000,11.395879150390625,-0.20112331471666692,2.042466782081127,-1.5791154033437371
1684252697211904000,11.405904052734375,-1.2176188635803757,2.5774802522331473,-1.2412316482275723
1684252697221930000,11.415929931640624,-1.8337246629238129,2.9281793575197455,-0.9235580297082662
1684252697231956000,11.4259560546875,-1.9049243975237011,3.054627808871865,-0.6640498921707272
1684252697241982000,11.43598193359375,-1.5720261757351457,2.849605587020516,-0.5213964482098817
1684252697252008200,11.44600830078125,-1.3374407363995908,2.4703075792372227,-0.2820171987265348
1684252697262034200,11.4560341796875,-1.536468394011259,2.0813684674054382,0.06466244178563356
1684252697272060200,11.46606005859375,-2.1464869823955,1.8822586844682692,0.7088792139783501
1684252697282085000,11.476085205078125,-2.6927473843574523,1.6399246768325566,1.6171534575760365
1684252697292111000,11.486111083984374,-2.579258952343464,1.1462094317525624,2.2668147589102388
1684252697302137000,11.49613720703125,-1.9505423854909836,0.3998112189799547,2.515814654175937
1684252697312163000,11.5061630859375,-1.420775291559845,-0.4118506163418293,2.5149764497861264
1684252697322189000,11.51618896484375,-1.2054876962818204,-1.0528986953705548,2.4607070994600653
1684252697332215000,11.526215087890625,-1.0459762026309967,-1.5448165356397627,2.4084844525307414
1684252697342240000,11.536239990234375,-0.8983680588722228,-1.9484417599499224,2.2669851470410824
1684252697352266000,11.546265869140624,-0.7608253820538521,-2.395036941936612,2.018717657703161
1684252697362292000,11.5562919921875,-0.5832393755953759,-2.7863573959469794,1.6766779519513249
1684252697372318000,11.56631787109375,-0.3811058609228581,-3.087877167522907,1.328022335191071
1684252697382344000,11.576343994140625,-0.07061722200419754,-3.3162703280895944,0.8007897281736135
1684252697392370000,11.586369873046875,0.37109073593020436,-3.3516970307797194,0.22375497937202452
1684252697402395100,11.59639501953125,0.9070248280584812,-3.194093562707305,-0.2994058481618762
1684252697412420900,11.6064208984375,1.3633967231720685,-2.796111897242069,-0.9701280577033757
1684252697422447000,11.616447021484374,1.9042770395308732,-2.2805782035857436,-1.1508639795601368
1684252697432473000,11.62647314453125,2.4824668035864828,-1.7032126153945921,-0.7007239645734429
1684252697442499000,11.6364990234375,2.894381132814288,-1.4135130454719065,-0.3473340127676725
1684252697452525000,11.646525146484375,3.1928216430753467,-1.1231167254567145,-0.24075316818505524
1684252697462550300,11.65655029296875,3.5163626923233267,-0.9551555294990539,-0.22288842567056416
1684252697472576300,11.666576171875,3.890791632765531,-0.8976602028638124,-0.2573860308170318
1684252697482602200,11.676602294921874,4.0385996830105775,-0.9019657911032438,-0.341176659181714
1684252697492628200,11.686628173828124,3.662659168961644,-0.6771130796223879,-0.5732414939984679
1684252697502654000,11.696654052734376,3.241320008784532,-0.48657589471936225,-0.8288923715859651
1684252697512680000,11.706679931640625,3.664272449377179,-0.8530266958892345,-0.2201066859975457
1684252697522705200,11.716705078125,4.249343205118179,-1.7204010660827158,1.1017989198789
1684252697532731100,11.726731201171875,5.368769259363413,-2.413623568984866,3.0001594288423656
1684252697542757000,11.736757080078124,6.370050580221414,-2.651100199717283,4.560460533861816
1684252697552783000,11.746783203125,6.57610506772995,-2.511916185432672,5.831640453368425
1684252697562809000,11.75680908203125,5.44964020088911,-1.969175920420885,6.792726541960239
1684252697572835300,11.76683544921875,3.1238816701009866,-1.4711398895323275,7.483305836877227
1684252697582861300,11.776861328125,0.6005398352906107,-1.20766606323421,8.19468709680438
1684252697592886300,11.78688623046875,-0.41460824448689815,-1.173072304236889,8.825835128587483
1684252697602912300,11.796912353515625,-0.49408159417435527,-1.221785774001479,9.313518107765912
1684252697612938200,11.806938232421874,-0.9574665829204022,-0.935239115151763,9.164300190722942
1684252697622964200,11.816964111328126,-2.1666836749888954,-0.3440267879158258,7.949412359541654
1684252697632990200,11.826990234375,-4.030633234176039,0.593801174685359,5.675877060204744
1684252697643016200,11.83701611328125,-4.887565705332159,1.3242144673407077,3.9605259709879754
1684252697653041200,11.847041259765625,-4.1127217347979546,1.9509259779810904,3.2202053245633837
1684252697663067100,11.857067138671875,-3.049066083091497,2.9371593673110006,2.710864640328288
1684252697673093000,11.867093017578124,-2.198435342428088,4.331527567330003,2.307215742881596
1684252697683119000,11.877119140625,-1.307721597701311,6.409367276087403,1.4905734887987374
1684252697693145000,11.88714501953125,0.4207148177336901,9.180144241064786,0.3550365499690175
1684252697703171000,11.897171142578125,4.012245929092169,12.787269738852977,-3.0209780527263876
1684252697713196000,11.907196044921875,3.7488942678689954,12.904485082435608,-5.141089800024032
1684252697723222000,11.917221923828125,3.050076136916876,12.054702483034132,-6.835337603196502
1684252697733248000,11.927248046875,2.7488895428180693,10.485087021702528,-8.327429679864645
1684252697743274200,11.937274169921874,2.5599066016197205,7.558745985525846,-8.79698955785334
1684252697753300200,11.94730029296875,2.3349942689061165,4.630499407988786,-8.322247893312573
1684252697763326200,11.957326171875,1.9129846621215343,2.4804291602790354,-7.463193023175001
1684252697773351200,11.96735107421875,1.1818109064877031,1.0251736530989408,-6.466446423137188
1684252697783377200,11.977377197265625,0.17008870950564742,0.028683658170700073,-6.0560220402061935
1684252697793403100,11.987403076171875,-1.2052432200014591,-0.5305822097063064,-5.576968942207098
1684252697803429000,11.99742919921875,-2.5902666685700413,-0.832833218166232,-4.941156425744295
1684252697813455000,12.007455078125,-3.09716901974231,-0.7385206112653017,-4.405576846142113
1684252697823481000,12.017481201171876,-3.4121430239140986,-0.4940244571596384,-4.2229336293593045
1684252697833506000,12.027506103515625,-4.049787724240124,-0.20760113242864608,-4.021128908249736
1684252697843532000,12.037531982421875,-4.779561549948156,0.2746954775363207,-3.497009172555804
1684252697853558000,12.04755810546875,-5.166243530502915,0.9653156889855861,-2.539530168545246
1684252697863584000,12.057583984375,-3.6699244837895035,1.8450147032231092,-0.9029965954557061
1684252697873610000,12.06760986328125,-1.1550655229032039,2.494348380038142,0.721956722216308
1684252697883636000,12.077635986328126,-0.43735330638885495,2.876173275950551,2.1542340893909335
1684252697893662200,12.087662109375,1.6524638404101133,2.8832290396809577,3.1679554973661896
1684252697903687000,12.09768701171875,4.529890331292152,2.6459248429059983,3.49244756372869
1684252697913713200,12.107713134765625,3.972201211212575,2.421647300964594,3.647940907779336
1684252697923739100,12.1177392578125,-0.3708940443143248,2.2632956448733803,3.9590573597401377
1684252697933765000,12.12776513671875,-4.758420854502916,1.7183283514618872,3.8906197833299636
1684252697943791000,12.137791015625,-6.694801005259156,0.5430114831686019,3.207309018111229
1684252697953817000,12.147817138671876,-6.651547554466128,-0.5075859495222568,2.41020294688642
1684252697963842000,12.157842041015625,-5.408201690563559,-1.4219687391281126,1.1731526759967208
1684252697973868000,12.167867919921875,-4.642386829659342,-2.243815283855796,0.10004530533403158
1684252697983894000,12.17789404296875,-4.920398884397745,-2.7790613937199113,-0.640129795140028
1684252697993920000,12.187919921875,-5.484820235341787,-3.1096897708803413,-1.3026686982259152
1684252698003946000,12.197946044921874,-5.710607012802362,-3.5436370682179925,-1.7169395274519919
1684252698013972000,12.207971923828126,-5.798288803386688,-4.118298658147454,-2.235504843889177
1684252698023997200,12.2179970703125,-5.539330408686399,-4.593382852515578,-2.6934365356653927
1684252698034023200,12.228023193359375,-5.1700020062536,-4.956505970567465,-3.0394045207768676
1684252698044049200,12.238049072265625,-4.683423481185734,-5.105577757138014,-3.5093209571182724
1684252698054075000,12.248074951171875,-4.327651018157601,-4.9873956143498415,-4.018098454512655
1684252698064100900,12.258100830078124,-3.9462364566117523,-4.833876200720668,-4.293784112130105
1684252698074127000,12.268127197265626,-3.7698449937000866,-4.6203205438017845,-4.304503659065068
1684252698084152000,12.278152099609375,-3.538496490459144,-4.261249331489205,-4.174760842342675
1684252698094178300,12.28817822265625,-3.0715517634049054,-3.712124333876371,-3.644984688322246
1684252698104204300,12.298204345703125,-2.4426062101021406,-3.003683803576231,-2.8639062073126436
1684252698114230300,12.308230224609375,-1.6177327187687158,-1.8184096048921345,-1.8899191360935568
1684252698124256300,12.31825634765625,0.47788025482743973,-0.5489262601703405,-0.9403726786479354
1684252698134282200,12.3282822265625,8.038495833617448,1.3626497041970491,0.24360680405050514
1684252698144307200,12.33830712890625,17.826722872698305,4.9556198353826995,2.773347107726335
1684252698154333200,12.348333251953125,15.570384207355975,7.458395852026343,6.153018771624565
1684252698164359200,12.358359130859375,14.335234509390592,9.413528634047507,7.088592817819118
1684252698174385200,12.36838525390625,12.594150720763206,10.232734893399476,5.253761070436239
1684252698184411100,12.3784111328125,7.623825483679771,9.021535979864002,2.4775442524924873
1684252698194437000,12.38843701171875,4.486267754925787,7.712429065284132,0.7788789251387119
1684252698204462000,12.398462158203126,2.354689149457216,6.962424936974048,0.4871463880836963
1684252698214488000,12.408488037109375,-0.5010929342411459,7.100821015751362,1.574446680880338
1684252698224514000,12.41851416015625,-2.020383837349713,8.401208617302775,2.7847099210008976
1684252698234540000,12.4285400390625,-2.2767397944666445,8.769895799222589,3.359066098242998
1684252698244566300,12.438566162109375,-2.52643103299737,-2.032538093262911,3.8894022242337463
1684252698254592300,12.44859228515625,-2.408125117699057,-11.991405776643752,5.0255613866150375
1684252698264617200,12.4586171875,-2.7257518283367155,-10.786558862483501,5.844895656260848
1684252698274643200,12.468643310546875,-4.884796825140715,-5.094802096101641,5.055899241733551
1684252698284669200,12.478669189453125,-4.89739268734157,-2.1176444804012773,3.879932385098934
1684252698294695200,12.488695068359375,-4.271531656050682,-0.7686316718906163,2.49289759670794
1684252698304721200,12.49872119140625,-3.715033791582286,0.0369955594420433,1.332807815901935
1684252698314747100,12.5087470703125,-3.5902179098680613,0.2918886043995619,-0.12637962389960886
1684252698324773000,12.518773193359374,-3.6165143806412816,0.31336919932365415,-1.7398412412203847
1684252698334798000,12.528798095703126,-3.7663711801096795,0.3046574850797653,-3.0061382109910246
1684252698344824000,12.538823974609375,-4.700931080825627,0.2570885091751814,-3.5672552596926685
1684252698354850000,12.54885009765625,-5.596629920488596,0.21772271347045896,-3.318759514556825
1684252698364876000,12.5588759765625,-6.061945585036278,-0.2047247002094984,-2.647319804395735
1684252698374902000,12.568902099609375,-5.958817218995094,-0.21312077263295648,-1.4895952914163468
1684252698384928000,12.578927978515624,-5.779132852017879,0.34408640914857386,-0.26364889060407876
1684252698394953000,12.588952880859376,-5.573120450085401,0.8125485550284385,0.5947431317105889
1684252698404979000,12.59897900390625,-5.023862766003608,0.5531400784730911,1.213852350653708
1684252698415005200,12.609005126953125,-4.501348711940646,0.02254559380710125,1.1785878527879714
1684252698425031200,12.61903125,-4.37341060655266,0.1683779600650072,1.085400158263743
1684252698435057200,12.62905712890625,-3.942971609596908,-0.6024205344706773,1.6449913125723599
1684252698445083100,12.639083251953124,-3.3446436051368713,-0.3729267191857099,1.8503969807833431
1684252698455107300,12.649107421875,-3.143064801737666,2.6642683088481425,1.014281379945576
1684252698465133300,12.65913330078125,-3.3484757306456565,6.37990561928153,-1.041535005313158
1684252698475159300,12.6691591796875,-2.878875520646572,7.655528781932592,-2.5891940709024666
1684252698485185300,12.679185302734375,-2.2431894070424137,3.6113065828651187,-2.652439339366555
1684252698495211300,12.689211181640625,-2.234554703557491,-0.38023674993813034,-3.3160821120411157
1684252698505237200,12.6992373046875,-1.0308207190752028,-0.31413141586780546,-4.479558904936909
1684252698515262500,12.709262451171876,0.2398246551632881,0.5704103622257709,-4.651443996340036
1684252698525288400,12.719288330078125,1.9597896679162978,0.8070452814370394,-3.985377211388945
