time,seconds_elapsed,z,y,x
1684252795978116900,0.023116943359375,-1.681763584652543,2.341984566184878,3.6848294997155664
1684252795988142800,0.033142822265625,-1.7951561550766229,4.167958761112391,3.334298736733198
1684252795998168800,0.0431689453125,-1.8060528121441601,3.626020460133254,2.05552529335767
1684252796008194800,0.05319482421875,-2.1961241428762674,2.833201564708352,1.4951213613614438
1684252796018220000,0.063219970703125,-2.9699276644468307,0.18943886827230452,-0.6001929215490818
1684252796028246000,0.07324609375,-2.072342280384898,-5.8085699589043855,-4.990237559777498
1684252796038272000,0.08327197265625,0.40090310586988925,-6.853608003902435,-5.010958276244998
1684252796048298000,0.093298095703125,2.7434955748200416,-2.372605914419889,-1.2154972683165222
1684252796058324000,0.103323974609375,5.084302913919091,-0.6866577375590801,-1.7896698326200247
1684252796068350000,0.113349853515625,6.223811971250176,-0.7233002457797527,-3.125459002420306
1684252796078376000,0.1233759765625,4.966988786137104,-1.3116729656755923,-3.861530466967821
1684252796088401200,0.133401123046875,4.947556940436363,-0.6843073750406503,-3.3747672329828142
1684252796098427100,0.14342724609375,3.031470805168152,0.9881085355520248,-2.406422843825817
1684252796108453000,0.153453125,0.6303238559186458,2.6900036386072634,-0.8016373579788952
1684252796118479000,0.16347900390625,-1.3061451421648262,3.9752778421789405,1.3636878150731324
1684252796128505000,0.173505126953125,-2.9196009142667054,4.336964789947867,2.618694013892114
1684252796138531000,0.183531005859375,-2.515341483706236,5.685894011828303,3.1926436561599374
1684252796148556000,0.19355615234375,0.4878834701865911,7.769478986239433,4.748032146957517
1684252796158582000,0.20358203125,2.5825486415386196,7.449669524735212,3.0094492352351545
1684252796168608000,0.21360791015625,3.7878970754802226,5.650230577772856,-0.0804888103403151
1684252796178634000,0.223634033203125,3.7249393917858598,4.8266269602447744,-0.050238779635727406
1684252796188660000,0.233659912109375,3.584228021803498,5.6121758646667,1.3004957381010054
1684252796198686000,0.24368603515625,3.4065485649079084,8.144230582764743,3.4305858585774898
1684252796208712000,0.2537119140625,4.339702690479159,9.251486891266703,4.314233902701735
1684252796218737000,0.26373681640625,5.876600708079338,8.68264480127096,4.845514031544328
1684252796228763000,0.273762939453125,6.640248746338487,7.789580694025754,4.324431471589207
1684252796238789000,0.2837890625,7.084658400979638,6.665975308269262,3.4095062456697223
1684252796248815000,0.293815185546875,7.93369807305932,5.642021552354097,2.098755071014166
1684252796258841000,0.303841064453125,9.589177461898327,6.152349494060874,0.047020109850168225
1684252796268867000,0.3138671875,11.140766268151998,8.37589063617289,-2.8746891748726364
1684252796278893000,0.32389306640625,12.944155414044856,9.507511570602654,-10.030222608542442
1684252796288918000,0.33391796875,10.912946523559093,10.39639985346794,-14.18111479178071
1684252796298944000,0.343944091796875,8.114238180083037,14.963033230745792,-6.60984308668077
1684252796308970000,0.353969970703125,3.6362870026037095,15.115525639414786,-3.477786585691571
1684252796318996000,0.363995849609375,0.09399988768994808,14.167595969516038,-1.675748854407668
1684252796329022000,0.37402197265625,-2.846657258608937,14.282750288915633,2.107147051784396
1684252796339048000,0.3840478515625,-6.819016582992672,13.261499362218379,6.747188779622316
1684252796349073000,0.394072998046875,-9.44565980232358,10.856866324418782,9.741240831500292
1684252796359099000,0.404098876953125,-10.053126514267921,8.546133221065997,12.608060003650188
1684252796369124900,0.414124755859375,-9.213857710096239,6.277268251627683,14.324241990733146
1684252796379150800,0.42415087890625,-8.677437880277633,4.224268969616293,14.156055169326066
1684252796389176800,0.4341767578125,-8.498949445086717,3.014114304436743,13.03549514261484
1684252796399203000,0.444203125,-8.353672374624013,2.849970036418736,12.668641021341084
1684252796409229000,0.45422900390625,-8.255777233061194,3.229934691417217,13.77601774135232
1684252796419254000,0.46425390625,-8.404954818093776,3.2382799104362725,16.253514939832687
1684252796429280000,0.474280029296875,-8.554535723230241,1.708836300495267,19.66028153140545
1684252796439306000,0.484305908203125,-7.670382652193307,-1.1396639556318522,22.502124083209036
1684252796449332000,0.49433203125,-5.582829358673095,-4.211526392421126,24.58976973118782
1684252796459358000,0.50435791015625,-2.9103350732713937,-6.710178607133031,24.894104560184477
1684252796469384000,0.514384033203125,-0.06668751787245274,-8.111850408163667,23.199318412351605
1684252796479410000,0.524409912109375,2.537499539500475,-8.481496790504455,20.04310362166166
1684252796489435000,0.534434814453125,4.461069893044233,-8.495069973304867,16.204567076790333
1684252796499460900,0.5444609375,5.850348076447844,-8.328900921460985,12.208763748455047
1684252796509486800,0.55448681640625,6.831444102889299,-7.252137950900196,9.31136005294919
1684252796519512800,0.564512939453125,7.501287483769655,-5.849029395064711,6.548830691835284
1684252796529538800,0.574538818359375,8.124772433578968,-5.076965995159745,3.918055487266183
1684252796539564800,0.584564697265625,8.478474812334776,-5.13934091053009,1.3935527919828892
1684252796549590800,0.5945908203125,8.502368313619494,-4.99991256609559,-0.5229565371334552
1684252796559616800,0.60461669921875,8.36132376616001,-3.9413241346508263,-1.8461948529183863
1684252796569642800,0.614642822265625,7.581769133716821,-2.818777318036556,-3.180542007216811
1684252796579668700,0.624668701171875,6.122367612773179,-2.2938515266567467,-4.268336659401655
1684252796589694700,0.63469482421875,4.342202690601349,-1.8991779628261922,-4.936263977527618
1684252796599721000,0.644720947265625,2.27172678861022,-0.5408315087810158,-6.27044805021882
1684252796609747000,0.654746826171875,0.9007644524894655,1.9297072488635778,-8.019974673020839
1684252796619771600,0.664771728515625,-0.765931765282154,2.7786934371903538,-8.64463918800354
1684252796629798000,0.6747978515625,-1.3167974690824746,3.572194761921465,-8.865924562391639
1684252796639824000,0.684823974609375,2.0589187351882456,3.3464518236026164,-7.4191434535682195
1684252796649849900,0.694849853515625,3.3751579858660694,1.0825158349990844,-5.345657263845205
1684252796659875800,0.704875732421875,1.7310288430809975,-1.188202653351426,-3.3038685271561143
1684252796669901800,0.71490185546875,0.1983797516295686,-1.6675030041098593,-0.5152344184488058
1684252796679926800,0.7249267578125,-1.0922376030683516,1.0357856480062007,2.233814114323258
1684252796689952800,0.734952880859375,0.15488487502979115,2.3278715774193404,1.1043553263634442
1684252796699978800,0.744978759765625,7.842737699195742,-2.6974431409582493,-0.7352209851980209
1684252796710004700,0.755004638671875,7.9358724944889545,-1.456120307315886,-1.6907552848815917
1684252796720030700,0.76503076171875,9.829422972822188,-0.09871990194916724,3.5080203959137197
1684252796730056700,0.775056640625,-1.1741828958272933,5.988460662108659,6.811791892436147
1684252796740082700,0.785082763671875,-13.323296185439824,3.7342987562835215,2.2822475981026886
1684252796750107600,0.795107666015625,-19.99623899463415,2.26564600739181,2.1447171962440015
1684252796760133600,0.805133544921875,-10.626084222888945,1.669282873263955,4.361420601290464
1684252796770159600,0.81515966796875,-4.669971002155542,-0.16224632544219492,1.383530579662323
1684252796780185900,0.825185791015625,0.5489759810635819,-2.110172537085414,-0.5981815817266702
1684252796790211800,0.8352119140625,4.1815293135643,-2.872810229258239,-1.1945856323868036
1684252796800237800,0.84523779296875,6.274292450687289,-2.8399536693170666,-1.4373521862208842
1684252796810263000,0.855262939453125,6.346622942882776,-1.9181278702288864,-1.3291495856553315
1684252796820289000,0.8652890625,4.606867187988758,-0.1871744304716587,-1.539383404675126
1684252796830314800,0.875314697265625,1.6080781707167624,2.326934004308283,-1.2979723571032284
1684252796840340700,0.8853408203125,-0.30429862517211587,4.0369314575374124,1.0556664065182209
1684252796850366700,0.89536669921875,-1.189303381134942,4.672591121526062,3.1949200766593218
1684252796860392700,0.905392822265625,-1.8710791188061235,4.29563032451868,2.0548849496275183
1684252796870418700,0.915418701171875,-3.580947100436687,4.9955619696706535,1.954640030068159
1684252796880444000,0.92544384765625,-3.3454093288123605,3.554560028770566,1.0037567710608244
1684252796890470000,0.935469970703125,-0.19951138600800186,0.8651736452788114,-2.7243992446839806
1684252796900496000,0.945495849609375,1.0957423232536763,0.6989782899498939,-4.715346267408132
1684252796910521900,0.95552197265625,1.1579061531566082,1.566347983968258,2.0685943260282276
1684252796920547800,0.9655478515625,1.7778079837821423,0.1265887366056442,5.428987873482704
1684252796930573800,0.97557373046875,1.3931399733982979,-3.3259494260609146,2.2381682178795335
1684252796940598800,0.985598876953125,0.22356303699649868,-6.308835940802097,-0.1558423036187887
1684252796950625000,0.995625,-1.1413584845900535,-5.342773817363381,-0.4555126479357481
1684252796960651000,1.005651123046875,-2.150346142041683,-2.853587934654951,0.09615794250667095
1684252796970677000,1.015677001953125,-1.9047993098393081,0.1713011540353298,0.8100923940479755
1684252796980703000,1.025702880859375,-0.8845531762704253,2.7615374274671076,1.8901158277094363
1684252796990729000,1.03572900390625,-0.11691402254849671,4.467553994366527,2.828453493398428
1684252797000755000,1.0457548828125,0.39937458112835883,4.750976968237757,3.1706527736261485
1684252797010780000,1.05577978515625,0.3043076487287879,3.306607012209296,2.3650968539640305
1684252797020806000,1.065805908203125,0.17320085017681122,1.4926555557698011,0.3208516640335321
1684252797030831900,1.075831787109375,0.2825545204736292,0.6307552330732346,-2.2384444044724106
1684252797040857900,1.08585791015625,0.4406687145471573,-0.3707663262814283,-4.601150563907623
1684252797050883800,1.0958837890625,0.647978608944267,-2.0804764870017767,-5.569867001247406
1684252797060909800,1.105909912109375,0.6534919655382633,-3.4771401044815775,-5.910719835302233
1684252797070934800,1.115934814453125,0.5813046812057495,-4.596634547787905,-5.949621520626545
1684252797080960800,1.125960693359375,0.5018178875148296,-5.057397371336817,-5.771885949629545
1684252797090986800,1.13598681640625,0.23434520083889362,-4.970549693489074,-5.95677314594686
1684252797101013000,1.146012939453125,-0.05011719908267259,-4.277998221716285,-6.507960336786508
1684252797111039000,1.1560390625,-0.13265139764547348,-4.294885643631219,-6.420538658443093
1684252797121065000,1.16606494140625,-0.4143136454544961,-4.4280473288863895,-6.377002299055457
1684252797131091000,1.176091064453125,-0.4784361351445317,-3.6016216396749017,-6.373633699405193
1684252797141116000,1.186115966796875,-0.4431261907018721,-1.9593705657213925,-6.256357565546035
1684252797151142000,1.196141845703125,-0.5023964180551469,0.15288637642264366,-6.158676943516731
1684252797161168000,1.20616796875,-0.882794203773886,2.1055197428435086,-4.904418640455603
1684252797171193900,1.21619384765625,-1.9434229088746011,3.57243763076663,-2.4627874128654597
1684252797181219800,1.2262197265625,-2.4040393096901473,4.480389510542154,-0.280218917132914
1684252797191245800,1.236245849609375,-2.268365349353105,4.436483733320236,1.6852308223716914
1684252797201271800,1.246271728515625,-1.926794722417742,4.273626582503319,3.3406104040980336
1684252797211296800,1.256296875,-2.023411222346872,3.1653245643407106,3.727096862080693
1684252797221322800,1.26632275390625,-1.8088846745692193,1.6257605424016712,3.483790794542432
1684252797231348700,1.2763486328125,-0.7877180651545524,1.343106214815378,5.578341399604081
1684252797241374700,1.286374755859375,-0.5553588870337233,-0.04569032255113124,7.123452534276247
1684252797251401000,1.29640087890625,0.03657937985658646,2.4864006359040736,8.866504992628098
1684252797261427000,1.306427001953125,0.11286186108086257,5.249806779852509,9.681130938452482
1684252797271452000,1.316451904296875,0.7514690132308751,7.752072508886456,10.256574034148453
1684252797281478000,1.326477783203125,1.272308923536539,9.00870513986349,9.954641590118408
1684252797291503900,1.33650390625,2.38881119928956,8.666043795081972,8.480559801915287
1684252797301529900,1.34652978515625,3.1394843129023906,7.24508043360412,5.787018052309751
1684252797311555800,1.356555908203125,3.3578418171450495,5.744056277939677,2.2997853006199
1684252797321581800,1.366581787109375,3.493010750569403,3.953362947490811,-0.17722528338730334
1684252797331607800,1.37660791015625,3.2721254814147946,1.9537638317555188,-1.1462535631552337
1684252797341632800,1.3866328125,2.3639672654122115,0.07991758632361888,-1.0366726599738
1684252797351658800,1.39665869140625,1.4006845435589552,-1.5650994452118874,-0.5436870443426072
1684252797361684700,1.406684814453125,0.6017590018220246,-2.8762989481568333,0.22604849713668226
1684252797371710700,1.416710693359375,-0.035413843208551406,-3.9968870319187637,1.3361635560706258
1684252797381736700,1.42673681640625,-0.5264373649865388,-4.530198374328017,2.637170166303217
1684252797391762700,1.4367626953125,-0.9725930595774203,-4.178875584185123,3.4081124532237648
1684252797401787600,1.44678759765625,-1.305041564837098,-3.300657163894176,3.8124493329346176
1684252797411813600,1.456813720703125,-1.56960786254704,-1.905692751547694,3.950804495179653
1684252797421840000,1.46683984375,-1.6278233201503753,-0.09889993469119071,3.5110333139941092
1684252797431865900,1.476865966796875,-1.697002654838562,1.694751076519489,2.9964725570231674
1684252797441891800,1.486891845703125,-2.037958949267864,3.591359773379564,1.7680585970535874
1684252797451917800,1.496917724609375,-2.246909158217907,5.117492651337385,0.7142699671059847
1684252797461943800,1.50694384765625,-2.6140473571300507,6.3096121858716,0.3610677929572761
1684252797471968800,1.51696875,-2.679291690456867,6.732039141285419,-0.3966201678536832
1684252797481994800,1.526994873046875,-2.013790722694993,6.123284727618098,-1.3271890992373228
1684252797492020700,1.537020751953125,-1.0178928484410046,4.746382041662931,-1.501259133464098
1684252797502046700,1.547046630859375,0.14509243461079896,3.15982362883687,-1.4232219540596007
1684252797512072700,1.55707275390625,2.479648239034414,1.5480974570065735,-1.5136282011717557
1684252797522098700,1.5670986328125,7.136732871609926,0.19579028312563895,-1.9244073888897895
1684252797532124000,1.5771240234375,24.03862404140234,-1.026571829459071,-3.897670286363363
1684252797542150000,1.58714990234375,29.080744933152197,-2.012351045280695,-4.235125294673443
1684252797552175400,1.59717529296875,16.11879784182906,-1.7913731294065713,-3.528190492761135
1684252797562201300,1.607201416015625,6.914093160003423,-1.0200643472611903,-3.3178561359763146
1684252797572227600,1.6172275390625,1.6612731698095797,-0.4640507591784,-3.214949303731322
1684252797582253600,1.627253662109375,-0.19215039225332436,-0.5561737470805644,-2.7909692736566063
1684252797592279600,1.637279541015625,-1.3250146778076886,-0.19020985264480114,-2.5922470287322996
1684252797602304500,1.647304443359375,-2.2461972105562684,0.7344733817011118,-2.4809154824912545
1684252797612330500,1.65733056640625,-3.1620342906236645,2.0384400107830762,-2.61033681217432
1684252797622356500,1.6673564453125,-4.459780437755584,3.3980215595811605,-1.9969417330943047
1684252797632382500,1.677382568359375,-6.030448038488626,5.073507379138469,-1.3312455350212753
1684252797642408400,1.687408447265625,-8.608222305232285,7.4281287240564815,-0.24574615416675805
1684252797652434400,1.697434326171875,-9.733025960862635,9.18170374546647,1.0522414005056022
1684252797662459400,1.70745947265625,-3.7998552242994306,11.417575961363315,3.1761998863592744
1684252797672485400,1.7174853515625,6.428569404685497,12.34275603931546,8.28676332295537
1684252797682511400,1.727511474609375,5.571213739681244,9.11767580219209,10.450382788068055
1684252797692537300,1.737537353515625,0.9529334695354104,4.811850246873497,8.621279355204106
1684252797702563300,1.747563232421875,-2.1152610923960804,1.3902531659156083,6.803212864661217
1684252797712589300,1.75758935546875,-5.17326539196372,-0.7281698976427317,6.550322976219654
1684252797722615600,1.767615478515625,-7.842988459086418,-1.8118144444108009,6.825308961135149
1684252797732640300,1.77764013671875,-9.657274262046814,-1.9297826521873473,7.345807583722472
1684252797742666500,1.78766650390625,-10.400942757594585,-1.3665502187669276,8.559467918935418
1684252797752692500,1.7976923828125,-10.507633200031519,-0.09852934781312941,9.741517310354112
1684252797762718500,1.807718505859375,-10.057944143682718,1.4494757547348738,9.566672200101614
1684252797772744400,1.817744384765625,-9.611888475400209,2.5797277388989923,7.037980820956826
1684252797782770400,1.8277705078125,-7.817309243428706,3.268165345612168,1.877732731476426
1684252797792795400,1.83779541015625,-5.072504339575767,4.081638029748201,-2.483580317786336
1684252797802821400,1.8478212890625,-2.04545515024215,4.836080432766676,-3.9359856962323185
1684252797812847400,1.857847412109375,0.6564411707326769,5.35327592215538,-3.7308240659102796
1684252797822873300,1.867873291015625,1.284759532047808,5.057700153675675,-2.412561638841778
1684252797832899300,1.8778994140625,0.9046209817871451,3.977593133383989,-1.6821932082414626
1684252797842925300,1.88792529296875,1.073531149032712,2.367470305097103,-2.509997200068831
1684252797852951300,1.897951416015625,-0.2515773445382714,0.17162965533733368,-4.067663864931464
1684252797862976300,1.907976318359375,-2.1436726556271313,-1.949209237191081,-5.229844772797823
1684252797873002200,1.918002197265625,-3.095062695112824,-2.962850857928395,-5.118161344379186
1684252797883028200,1.9280283203125,-3.329620808050036,-3.502486727184057,-4.502859116503596
1684252797893054500,1.938054443359375,-2.729330271345377,-4.361940825772285,-4.327704501910508
1684252797903080400,1.94808056640625,-2.87383431160897,-5.038979086592793,-3.9313270567715164
1684252797913106400,1.9581064453125,-4.085419886374473,-5.309788662606477,-4.016184729845822
1684252797923131400,1.96813134765625,-5.245687069573998,-5.0552065832942725,-4.997740482753515
1684252797933157400,1.978157470703125,-5.414903818550705,-4.6999949690192935,-6.206015617796778
1684252797943183400,1.988183349609375,-5.132653980112075,-4.416860748961567,-6.327283451640605
1684252797953209300,1.998209228515625,-5.050822084599733,-4.044573496723175,-5.0793303862035275
1684252797963235300,2.0082353515625,-5.803311599984765,-3.472575573045015,-3.6064322548270225
1684252797973261300,2.01826123046875,-6.408319228339195,-3.636082712203264,-3.0515070465028282
1684252797983287300,2.028287353515625,-6.532027441072463,-4.301704091474414,-2.808056894318759
1684252797993312300,2.038312255859375,-6.0588172238826745,-5.241470328661799,-2.577518246155977
1684252798003338200,2.048338134765625,-5.516798843404651,-6.090682434698939,-2.480706223654747
1684252798013364200,2.0583642578125,-4.951323599493503,-6.662543580254912,-2.6252377364471555
1684252798023390200,2.06839013671875,-3.8264816576793788,-7.278087800192832,-2.7404057921111584
1684252798033416200,2.078416259765625,-2.121252149504423,-7.922170716872811,-2.238309379915893
1684252798043442400,2.0884423828125,-0.6140227094590663,-8.482118137273192,-0.8951106645114719
1684252798053467400,2.09846728515625,0.28533889049515127,-8.645553964760898,0.907655527177453
1684252798063493400,2.108493408203125,0.8834405388534069,-8.250825163611768,2.727878903493285
1684252798073519400,2.118519287109375,7.500914558804035,-6.167355340012907,6.136755619087815
1684252798083545300,2.12854541015625,47.468826262092584,11.86602583130598,18.10956015563607
1684252798093571300,2.1385712890625,9.562439092576502,35.10500756100416,17.89603314028978
1684252798103597300,2.148597412109375,-20.084698199331758,36.40503801968097,-2.3845661090657115
1684252798113623300,2.158623291015625,5.291097990661859,33.07666516586542,-21.017155574810502
1684252798123648500,2.1686484375,18.487364709991216,19.305728088778256,-19.921518392431736
1684252798133674500,2.178674560546875,26.5713410228014,-0.2336158636510372,-7.050290851953625
1684252798143700500,2.188700439453125,4.676750287032127,-7.268156188765167,-0.383262892826274
1684252798153726500,2.1987265625,-12.371837172371148,-3.9239287632137536,0.7357441322892904
1684252798163752200,2.208752197265625,-9.612802667635679,-4.146125991749763,-0.464951142084226
1684252798173778200,2.218778076171875,-7.374427529007196,-4.0899861713767045,-3.090105949488282
1684252798183803400,2.228803466796875,-4.2751217894971365,-4.005533279711008,-3.979346699053049
1684252798193829400,2.238829345703125,0.1704012825861573,-3.1858126410961147,-2.722196181681752
1684252798203855400,2.24885546875,2.520016489779949,-1.2896283071279524,-1.7122575071156023
1684252798213881600,2.258881591796875,3.647058279725909,1.2954191654890774,-2.207318906107545
1684252798223907600,2.268907470703125,-0.7145629587031901,1.4904881486028432,-1.6858802261911332
1684252798233933600,2.27893359375,-4.538442763321101,-0.6439853015244007,-1.2571208528853952
1684252798243959600,2.28895947265625,-5.0640977457582945,-2.0319459725886584,-1.3639949813261627
1684252798253984500,2.298984619140625,-1.9311537944100796,-2.021428085705638,-0.6610284985229372
1684252798264010500,2.309010498046875,4.079450748836994,-0.9992705655574798,1.1659469824016093
1684252798274036500,2.319036376953125,2.7385025888383385,1.088318383798003,2.4161034031018613
1684252798284062500,2.3290625,-3.185073805427551,3.3883097283840176,2.52484464058876
1684252798294088400,2.33908837890625,-5.210854825645685,5.334019433021545,2.2015847463697193
1684252798304114400,2.349114501953125,-4.051021942210197,6.235226514711976,1.516257088370621
1684252798314139400,2.359139404296875,-1.7215446831598877,5.9968777773201465,1.0291815735660492
1684252798324165400,2.369165283203125,0.06270064019337296,5.083320917144418,0.6322587695039809
1684252798334191400,2.37919140625,6.069803897321224,6.227635328930616,3.725933663520217
1684252798344217300,2.38921728515625,15.216040023565292,7.5815891009747975,7.987974437648058
1684252798354243300,2.399243408203125,11.922957094317674,4.454771085160971,4.030122946566343
1684252798364269600,2.40926953125,5.586368054193258,3.212972450700402,1.790488601657003
1684252798374295600,2.419295654296875,0.9459797048747539,1.847984074422717,-0.6643667030349374
1684252798384320500,2.429320556640625,-1.3679881426155567,1.0923106683045625,-1.4040966900900005
1684252798394346500,2.439346435546875,-1.0111633940555154,0.43211189860403537,-0.38291619828045365
1684252798404372500,2.44937255859375,-1.416942873790115,0.08857201742231845,0.9397352575272321
1684252798414398500,2.4593984375,-2.7479999005019664,-0.08064473155438899,2.856370258849859
1684252798424424400,2.469424560546875,-4.632383906561136,-1.0834300272345543,4.0673210428431625
1684252798434450400,2.479450439453125,-6.7180503634214395,-3.2252941721349955,3.6629710113897915
1684252798444475400,2.489475341796875,-6.746372787064313,-5.4205485464394085,1.5298141968190668
1684252798454501400,2.49950146484375,-5.734675870653986,-6.2864101739823814,1.3083020279377697
1684252798464527400,2.50952734375,-5.507394470721483,-6.975636300724744,1.4522946115478872
1684252798474553300,2.51955322265625,-5.661763194656372,-7.241188686862587,1.164990704590082
1684252798484579300,2.529579345703125,-5.452061875078082,-6.723828946822882,0.057143736718595024
1684252798494605300,2.539605224609375,-4.803218904389441,-5.717755130991339,-1.5050547263547778
1684252798504631300,2.54963134765625,-3.9014462977707383,-4.772916997367143,-2.6869737693920728
1684252798514656300,2.55965625,-3.054083618992567,-3.9732051275581117,-3.321666926436126
1684252798524682200,2.56968212890625,-2.355716738939285,-3.1787194679647683,-3.2768037023589014
1684252798534708200,2.579708251953125,-1.712246985721588,-2.333907642713189,-2.730730201271176
1684252798544734500,2.589734375,-1.0381810187101363,-1.1161281817436217,-2.10652453597188
1684252798554760400,2.599760498046875,-0.09660623426344245,0.2526619249045849,-1.486293911783397
1684252798564786400,2.609786376953125,0.814873856170848,1.352481945925951,-1.0813353930428624
1684252798574811400,2.619811279296875,1.6566168684363365,2.16853529420495,-0.8261372276589274
1684252798584837400,2.62983740234375,2.625706230741739,2.5933324858814477,-0.54163493411839
1684252798594863400,2.63986328125,3.2126328434824942,2.520748311185837,-0.23074966056495905
1684252798604889300,2.649889404296875,3.289594210349023,1.9893436791807413,-0.3182224845737219
1684252798614915300,2.659915283203125,3.1854160429939626,1.4689011706948278,-0.6707637105956673
1684252798624941300,2.66994140625,3.281591521157324,1.2895745311141014,-0.38528029706329103
1684252798634966300,2.67996630859375,3.746569332052767,1.427298409718275,0.21109511202424763
1684252798644992300,2.6899921875,5.174392350167036,1.9631144284248352,0.9866238499522209
1684252798655018200,2.700018310546875,15.148097537195682,3.8737306078493594,3.329469709141552
1684252798665044200,2.710044189453125,36.14485563614368,7.410442260718345,7.837989627885818
1684252798675070200,2.7200703125,27.706440446996687,8.444179744023085,6.159268479669094
1684252798685096200,2.73009619140625,11.51954346693158,7.0017948243319985,1.6148346592396496
1684252798695122400,2.740122314453125,3.607121406134963,4.848475803959369,-0.11344897678643465
1684252798705147400,2.7501474609375,2.3880182953462,3.347092167332768,-0.5825464979603886
1684252798715173400,2.76017333984375,1.4701511707559227,1.557106692892313,-1.0897820266097784
1684252798725199400,2.770199462890625,0.9172288266867399,0.5951660332977772,-1.187684474696219
1684252798735225300,2.780225341796875,0.020112083049863574,1.1447791066884994,-0.8722305780529975
1684252798745251300,2.790251220703125,-0.8043746009230613,3.3331787927925585,-0.5905661382868885
1684252798755277300,2.80027734375,-1.3051754203498362,6.25355302951932,-1.4161749581575394
1684252798765302500,2.810302490234375,-1.9052216269046067,9.195345317327975,-2.7054958067715167
1684252798775328500,2.82032861328125,-2.385900280278921,11.39595332762003,-4.088609914587438
1684252798785354500,2.8303544921875,-3.818882580852508,11.615083569800854,-4.62872070787847
1684252798795380500,2.84038037109375,-6.532832912236452,9.283657807031274,-4.9472635104477405
1684252798805406200,2.85040625,-7.649568996745348,5.44078294069469,-4.976475576406717
1684252798815432200,2.86043212890625,-6.118142688554525,1.3005308094143866,-4.319481740227341
1684252798825458200,2.870458251953125,-4.088967934244871,-1.8945611166805028,-2.391504676157236
1684252798835483400,2.8804833984375,-3.2678982191085812,-4.301553284826874,-0.5390642068475484
1684252798845509400,2.89050927734375,-2.5677298425912856,-5.6836623072534795,0.6805526986822485
1684252798855535400,2.900535400390625,-2.1875955301143226,-6.3577855574101205,1.4454232644736766
1684252798865561600,2.9105615234375,-2.137966991331428,-6.395410062405467,1.6102277499660849
1684252798875587600,2.920587646484375,-2.4398691863536834,-5.609187204244733,1.28188426887244
1684252798885613600,2.930613525390625,-2.9894191313803193,-4.186228285035491,0.3659203475549817
1684252798895638500,2.940638427734375,-3.739129245179891,-2.3967554362922905,-0.9097165513604879
1684252798905664500,2.95066455078125,-4.393028622475266,-0.5299596938937902,-2.0018089007392526
1684252798915690500,2.9606904296875,-2.2779636371731757,1.762730972290039,-3.132264590781927
1684252798925716500,2.970716552734375,13.833836308592558,6.624417555478215,-4.275149554286897
1684252798935742500,2.980742431640625,11.787390101486444,6.878796805694699,-2.422891163545847
1684252798945768400,2.9907685546875,4.750816516979039,4.365896285399795,-0.7447419699981809
1684252798955793400,3.00079345703125,1.2683256991192697,2.411331074133515,0.422377271053195
1684252798965819400,3.0108193359375,-1.7954279577553272,0.9061404464393854,1.0152382422789932
1684252798975845400,3.020845458984375,-4.273927026754618,-0.10072422750890254,1.2950336733028291
1684252798985871400,3.030871337890625,-5.692005188184976,-0.4051163396507501,1.4816104301422834
1684252798995897300,3.0408974609375,-5.920811605727672,-0.4326631027460098,1.2349316713005303
1684252799005923300,3.05092333984375,-5.503809013450145,-0.10765665712058543,0.7540849678829312
1684252799015949600,3.060949462890625,-4.992846865493059,0.36944063063561916,-0.013551263229548931
1684252799025974300,3.070974365234375,-4.821188276322186,0.5710644422203303,-0.8292068443626165
1684252799036000500,3.08100048828125,-5.024242120710015,0.329925197327137,-1.5030990622423588
1684252799046026500,3.091026611328125,-5.022580909499526,-0.2633306184351444,-1.8785032774575054
1684252799056052500,3.101052490234375,-4.663524310234188,-1.002792894464731,-1.7855907466128467
1684252799066078500,3.111078369140625,-4.3775522364020345,-1.6604530855983495,-1.6802943888828157
1684252799076104400,3.1211044921875,-4.174692745542526,-2.247106142094731,-1.809948942799866
1684252799086129400,3.13112939453125,-4.0051936724931,-2.764932330602407,-2.192937329533696
1684252799096155400,3.1411552734375,-4.196442805057764,-3.169359518945217,-2.475957275561988
1684252799106181400,3.151181396484375,-4.39665850341022,-3.7203888888746497,-2.8520579486086963
1684252799116207400,3.161207275390625,-4.5677606277421114,-4.327586720749736,-2.9218448938012123
1684252799126233300,3.1712333984375,-4.762064763963222,-4.914740127983689,-2.822259314933419
1684252799136259300,3.18125927734375,-4.8549464612782,-5.483097064810991,-2.596026547271013
1684252799146285300,3.191285400390625,-4.734220771487057,-5.980872398936748,-2.28009524237439
1684252799156310300,3.201310302734375,-4.386059367984533,-6.283231543946266,-1.9246603407375513
1684252799166336300,3.211336181640625,-4.087238041712343,-6.221663853305578,-1.6353062232516704
1684252799176362200,3.2213623046875,-3.7850028153434394,-5.918582823762297,-1.4234661380790172
1684252799186388500,3.231388427734375,-3.368622154356539,-5.457935151025652,-1.1894181666210293
1684252799196414500,3.24141455078125,-2.9673692121356723,-4.826287353026867,-0.996019454807043
1684252799206440400,3.2514404296875,-2.8172151832863688,-4.015528019502759,-1.0030720036670564
1684252799216465400,3.26146533203125,-2.764095295256376,-2.9604584098339077,-1.0838801090896129
1684252799226491400,3.271491455078125,-2.462263096730411,-1.7190683561742304,-1.1995236733108758
1684252799236517400,3.281517333984375,-1.5238834915958344,-0.006750058782100677,-1.4375208207860588
1684252799246543400,3.29154345703125,4.308029202842712,3.3065181648820636,-1.2508313973523675
1684252799256569300,3.3015693359375,23.57121228135824,11.980802549564837,-1.725201744362712
1684252799266595300,3.31159521484375,21.576634208655356,19.490334130066632,-8.08668674081266
1684252799276621300,3.321621337890625,-1.5026526336491106,16.14351259636879,-12.552923222839832
1684252799286646300,3.331646240234375,-9.31027518032193,13.003989412760733,-13.961073864495754
1684252799296672300,3.34167236328125,-6.479191338419914,9.703410574799776,-11.90213057938814
1684252799306698200,3.3516982421875,-4.084104712122678,3.9398780274957415,-6.097945119178295
1684252799316724200,3.36172412109375,-0.5280206886552274,-3.367538743034005,-0.8215405475184321
1684252799326750200,3.371750244140625,0.5932509934566915,-5.9068976466655725,0.16262041945159433
1684252799336776400,3.3817763671875,-0.03155943280272186,-5.908229187530279,-0.3706467915549874
1684252799346801400,3.391801513671875,-0.08673015241529793,-6.3077054754674435,-0.25270488726347684
1684252799356827400,3.401827392578125,2.7417373329758643,-6.961781962895393,-0.9991393403932451
1684252799366853400,3.411853271484375,6.104045189619064,-7.096224920132756,-2.6747385571971534
1684252799376879400,3.42187939453125,3.6592847240924833,-5.518483435490727,-3.109806090736389
1684252799386905300,3.4319052734375,-1.0949790107309818,-3.0203257262974974,-1.9322382286459205
1684252799396931300,3.441931396484375,-2.88611540877223,-1.2175573426514863,-0.6603805560082197
1684252799406956500,3.45195654296875,-2.3947639702141283,0.1854313861966133,0.4599655356913805
1684252799416982500,3.461982421875,-1.474214474672079,1.6393278799831865,1.6834145667299627
1684252799427008500,3.472008544921875,-0.8482312783062458,2.8416560893207787,2.6131998003900048
1684252799437034500,3.482034423828125,-0.5632978998720646,3.781730369544029,3.0750036574244497
1684252799447060200,3.492060302734375,-0.033245266997814174,4.711348137682676,3.6136490543380377
1684252799457086200,3.502086181640625,0.6268535494595766,5.356992312330007,4.03313995629996
1684252799467112200,3.5121123046875,1.0395499689757823,5.186548651906848,4.219355478611588
1684252799477137400,3.522137451171875,1.3362480194836854,4.2825177449673415,4.450858587892354
1684252799487163400,3.532163330078125,1.269026248604059,3.184564686861634,4.842669748029112
1684252799497189400,3.542189453125,0.673756243475154,2.0775790119946,5.262830512076616
1684252799507215400,3.55221533203125,0.29962825874090193,1.4411334583252668,5.036230664667487
1684252799517241600,3.56224169921875,0.1371591939261183,1.1363432867765426,4.779925414824485
1684252799527267600,3.572267578125,0.0184521870136261,1.0548913304924965,4.889613870033622
1684252799537292500,3.58229248046875,0.03244217045400292,1.3699842848688364,5.194868736484646
1684252799547318500,3.592318603515625,0.2982207300305366,1.626059817609191,5.813381743100285
1684252799557343700,3.60234375,0.6362649364054203,1.7366829233199357,6.513973313465714
1684252799567369700,3.61236962890625,1.186909179474786,1.7666729879140852,7.248664137309789
1684252799577395700,3.622395751953125,1.9831401483654976,1.2451479448884726,7.900721686130762
1684252799587421700,3.632421630859375,2.70528479436934,0.1724134991914034,8.310115556970239
1684252799597446700,3.64244677734375,3.2716052569329737,-0.9900736981451511,8.495949678748845
1684252799607472600,3.65247265625,4.092890076124668,-1.9501216758608817,8.771358272990584
1684252799617498600,3.66249853515625,4.843012862378359,-2.0865315492570398,9.308146351599692
1684252799627524600,3.672524658203125,4.690259172424674,-1.3001041084349154,9.839372704428433
1684252799637550800,3.68255078125,4.457068256187439,0.2412970658034086,9.234213100382686
1684252799647576800,3.692576904296875,6.931300315392017,2.701445654597878,7.279003161472081
1684252799657602800,3.702602783203125,10.764736322253942,6.97109281207621,4.627920789672434
1684252799667627800,3.712627685546875,9.5791926589787,11.604915227007865,2.0073110052868723
1684252799677653800,3.72265380859375,7.872997812902927,12.717954795086383,0.11739157693237065
1684252799687679700,3.7326796875,5.433496875339746,11.675070713251829,-1.2130264212235808
1684252799697705700,3.742705810546875,2.355587997993082,10.869570323169231,-2.9609388868272304
1684252799707731700,3.752731689453125,-1.4552160519525408,10.712041673898696,-5.208623705592752
1684252799717757700,3.7627578125,-5.072580327421426,10.57587145447731,-6.555210748261213
1684252799727782700,3.77278271484375,-7.091889521276951,11.295897208631038,-5.35208174393475
1684252799737808600,3.78280859375,-10.02439024912715,12.29833354474306,-3.3711411514401433
1684252799747834600,3.792834716796875,-12.804541191649436,12.891426863420008,-1.2710611154325306
1684252799757860600,3.802860595703125,-14.535267252391575,12.98747433128953,0.9759966574758291
1684252799767886600,3.812886474609375,-13.793912294483183,11.421311056238412,2.6543799520403146
1684252799777912600,3.82291259765625,-11.661798559224605,8.870049533367157,5.277226117175817
1684252799787938600,3.8329384765625,-7.299719786286354,5.9125680935174225,6.372399189174175
1684252799797963500,3.842963623046875,-2.6778213256433605,3.047123132330179,4.760244270537793
1684252799807989500,3.852989501953125,-1.1419126113414764,0.022403554987907408,1.6418994840368628
1684252799818015700,3.863015625,-1.3421581203103066,-2.336920853054523,-0.7134808625549077
1684252799828041700,3.873041748046875,-0.9298179668858647,-4.063974362763762,-2.8215815618023274
1684252799838067700,3.883067626953125,0.7594023635134101,-4.945211254093051,-4.783037409365177
1684252799848093700,3.89309375,4.128780889195204,-5.523391081276536,-6.256007436934113
1684252799858118700,3.90311865234375,7.360780696448684,-6.050968848469853,-7.155334111705422
1684252799868144600,3.91314453125,5.618599760234356,-6.245657307833433,-5.980556172594428
1684252799878170600,3.923170654296875,1.528499022567272,-6.0338937950283285,-3.6688784818679094
1684252799888196600,3.933196533203125,-1.377959063140303,-5.66206422342956,-1.7576026694908737
1684252799898222600,3.94322265625,-2.9378982029795644,-5.122547012117505,-0.4545557856023311
1684252799908248600,3.95324853515625,-3.1782185327053067,-3.9857109733879565,0.5663926510170102
1684252799918273800,3.963273681640625,-0.9810673848688601,-2.086981631112099,1.9119328149810433
1684252799928299800,3.9732998046875,0.6086845633015037,-0.31713410481512544,2.2108850741565225
1684252799938325800,3.98332568359375,-0.5604375420048833,0.28777123220860956,0.9288728680554776
1684252799948351700,3.993351806640625,-1.2485364182829857,-0.22463643838167188,-1.1360679769665003
1684252799958377500,4.00337744140625,-1.172352173268795,-1.175660567164421,-2.65566560793668
1684252799968403700,4.01340380859375,-1.254634150636196,-2.080025820624828,-3.0509006050422784
1684252799978429700,4.0234296875,-1.5100447897270322,-2.725890360024571,-3.0229911461144683
1684252799988455000,4.033454833984375,-2.106253317815065,-3.0467443621456622,-2.9183786789953707
1684252799998481000,4.04348095703125,-2.9121231257319447,-3.0810277400195596,-2.9096634576201437
1684252800008507000,4.0535068359375,-3.7062268002703784,-2.8770296005189415,-2.903500843337178
1684252800018532900,4.063532958984375,-4.183198708081245,-2.4556319881528617,-2.9662989525556562
1684252800028558800,4.073558837890625,-3.9817119668796654,-1.860488751208782,-3.2680098627895116
1684252800038584800,4.083584716796875,-3.4606592175409197,-1.335094173273444,-3.575846270166337
1684252800048609800,4.09360986328125,-3.143853614027798,-0.9939677829742432,-3.743661335651576
1684252800058635800,4.1036357421875,-3.0000214816763995,-0.9071440705239773,-3.6879268812090156
1684252800068661800,4.113661865234375,-2.8653920619562268,-1.2493746226727962,-3.4874776663616296
1684252800078687700,4.123687744140625,-2.813190457814932,-1.7844927222430704,-3.2598636734738946
1684252800088713700,4.133713623046875,-2.686993643136322,-2.4127099612712857,-3.0211873115628958
1684252800098739700,4.14373974609375,-2.4219762406580148,-2.9902976677805184,-2.724400705988705
1684252800108764700,4.1537646484375,-2.128001331503689,-3.4232004245012995,-2.340925412520766
1684252800118790700,4.163790771484375,-1.895763478207588,-3.656441609621048,-1.9400807588398457
1684252800128816600,4.173816650390625,-1.6727438273727893,-3.644873336902261,-1.588736925908923
1684252800138843000,4.1838427734375,-1.3125310438096522,-3.43211496784091,-1.2682821522384882
1684252800148868900,4.193868896484375,-0.867848709706962,-3.0400130080640313,-0.8581409701630472
1684252800158894800,4.203894775390625,-0.42880525827407834,-2.4412375520974394,-0.3273459944888949
1684252800168920800,4.2139208984375,0.08696531287804246,-1.6077660360276698,0.1690948761627078
1684252800178945800,4.22394580078125,0.46772871703878044,-0.44342298169136046,0.8097739757485687
1684252800188971800,4.2339716796875,0.5809878703415393,0.8609294318377971,1.5891317704454064
1684252800198997800,4.243997802734375,0.685801997512579,2.500723760288954,2.656676538544893
1684252800209023700,4.254023681640625,0.873038241174072,4.295172059357166,3.931941973799467
1684252800219049700,4.2640498046875,1.0594036933504045,6.114778180557489,5.110009602105618
1684252800229075700,4.27407568359375,1.041384198665619,7.914925568050146,6.032717152464389
1684252800239100700,4.2841005859375,0.575889670419693,9.939577291977406,6.381088691586256
1684252800249126700,4.294126708984375,-0.1517817031163722,12.843019098603724,5.54128621892929
1684252800259152600,4.304152587890625,-1.4457178635060786,17.577667447853088,2.8540947151333094
1684252800269178600,4.3141787109375,-1.4995686961591244,20.13348707242012,-0.9840341257199644
1684252800279204600,4.32420458984375,1.006485903763771,15.40006271200776,-3.5823733338475225
1684252800289230800,4.33423095703125,0.5812415528416633,7.613472431969642,-2.2952730838924644
1684252800299255600,4.344255615234375,1.0208826779067515,1.6509668798506258,-0.542593550017476
1684252800309281800,4.35428173828125,2.857174560970068,-3.1476199808239933,0.3278779094085097
1684252800319307800,4.364307861328125,7.354806882736087,-6.540946660587191,0.10392711520344018
1684252800329333800,4.374333740234375,14.056737886005639,-9.249052357596158,-1.675773404327035
1684252800339359700,4.38435986328125,17.31262885645628,-10.42448963739872,-3.3244024888798593
1684252800349385700,4.3943857421875,11.568983497405052,-9.63465618752539,-2.7827912278980014
1684252800359410700,4.40441064453125,2.9236814615786075,-7.8814348018586635,-0.7439289000496268
1684252800369436700,4.414436767578125,-0.29532500858902927,-6.816845668694376,0.34603812773823733
1684252800379462700,4.424462646484375,-0.5609387695252895,-5.666217251455784,0.5169926602929831
1684252800389488600,4.434488525390625,-1.1700701998114584,-3.8326819736242292,-0.24210896670818327
1684252800399514600,4.4445146484375,-1.872621087551117,-0.7563444372475147,-1.8063591016143559
1684252800409540600,4.45454052734375,-2.8049405158638954,2.513559860986471,-3.6516438539505
1684252800419566600,4.464566650390625,-4.543175344800948,4.837479193648695,-5.047206816712022
1684252800429591600,4.474591552734375,-7.559184376943111,5.837270568209886,-4.694928625540435
1684252800439617500,4.484617431640625,-9.83669442512989,6.03137275211811,-2.9048925899565217
1684252800449643500,4.4946435546875,-10.60026472197771,5.219284215816855,-0.7261787238255143
1684252800459669800,4.504669677734375,-9.329702349847555,3.398202761366963,1.6565961179092525
1684252800469695700,4.51469580078125,-6.788665283870697,1.2041887425124644,2.4357827938228844
1684252800479721700,4.5247216796875,-4.7059646910786626,-0.2650087807804346,1.7550985777154564
1684252800489746700,4.53474658203125,-3.1965678438663483,-0.9451268874377011,0.9479372686833143
1684252800499772700,4.544772705078125,-2.1163747527264056,-1.3598469217360019,0.44223903260380026
1684252800509798700,4.554798583984375,-1.3930629626393318,-1.6744634907722473,0.21561843466758726
1684252800519824600,4.56482470703125,-0.7077624849081039,-1.6764415128469465,0.026494039171934127
1684252800529850600,4.5748505859375,-0.1086544268531259,-1.395831842830777,0.004489420373737812
1684252800539876600,4.584876708984375,0.4498697101453319,-0.9653747256964444,0.19207330842912196
1684252800549901800,4.59490185546875,0.8667202171336859,-0.37639468755722044,0.28048867398500443
1684252800559928000,4.604927978515625,1.3748913461327552,0.2637900526404381,0.33400048394203186
1684252800569954000,4.6149541015625,2.9047926367133856,0.9775205060422419,0.32281448853909966
1684252800579980000,4.62497998046875,12.942151673007011,2.296246897360682,-0.27510698094666003
1684252800590006000,4.635006103515625,18.478429708385466,2.6426988665968176,-0.15285919615477322
1684252800600032000,4.645031982421875,12.162385443639755,2.044943985849619,0.7216039632558823
1684252800610057200,4.65505712890625,7.150790038534998,1.6078332560449837,1.1559765002682805
1684252800620083200,4.665083251953125,4.378164815342426,1.1188701739281415,1.530849385085702
1684252800630109200,4.675109130859375,2.803825248098373,0.6922755774408579,1.8298560047969221
1684252800640135200,4.68513525390625,2.1429636305749415,0.1412865395218134,2.009670427894592
1684252800650161200,4.6951611328125,1.6480787571936846,-0.4290776454746723,2.212271852339804
1684252800660187100,4.705187255859375,1.2538440231718122,-0.8422475277215242,2.2520567502394315
1684252800670213000,4.715213134765625,1.298376261729002,-1.008373324945569,2.3345316198304293
1684252800680238300,4.72523828125,1.3547317706793547,-0.92092125146389,2.482417996008694
1684252800690264300,4.735264404296875,1.552265098080039,-0.6131587861061096,2.714573431718349
1684252800700290300,4.745290283203125,1.8953782782822846,-0.12436989151239394,3.0829230522468682
1684252800710316300,4.75531640625,2.3902818563640116,0.4409913706302643,3.575442073279619
1684252800720342300,4.76534228515625,3.2192157290041443,0.8836673333466053,4.100926667585969
1684252800730368300,4.7753681640625,4.7705999525964256,1.1907079141706227,4.702299738830328
1684252800740393200,4.785393310546875,5.132782574927806,1.1374065320938824,4.77818237054944
1684252800750419200,4.795419189453125,3.292080474206805,0.4238625411748886,3.8906928485661743
1684252800760445200,4.805445068359375,1.885243253237009,-0.3643570437610149,2.562852299682796
1684252800770471200,4.81547119140625,4.086149954214692,-0.9348574223577976,0.5670274417892098
1684252800780497200,4.8254970703125,9.079498924010991,-1.6760124737799167,-2.3508558549046517
1684252800790523100,4.835523193359375,9.339760802525282,-1.6045844833821057,-4.062325426512956
1684252800800548000,4.845548095703125,5.035988088083267,-0.2676344531089067,-2.82721839864552
1684252800810574000,4.855573974609375,1.1206889137879013,1.4618407307893038,-1.0741776302427053
1684252800820600000,4.86560009765625,-0.011049801802635192,4.376522308832406,-1.1965735913336277
1684252800830626000,4.8756259765625,2.8501404245495796,9.498815053927897,-3.079430241695046
1684252800840652300,4.88565234375,3.62108592634052,16.016059936410187,-5.616470346990227
1684252800850678300,4.89567822265625,-3.8293151275396347,22.017564789009093,-6.658496935212612
1684252800860704300,4.905704345703125,-14.14586461470127,23.81580897322893,-6.259383050847053
1684252800870729200,4.915729248046875,-20.3380767480731,21.388418160176276,-3.778435127390921
1684252800880755200,4.925755126953125,-19.851333680093287,16.80718927131295,0.7618325132697821
1684252800890781200,4.93578125,-16.888534844613073,11.813352225738763,5.881218431007862
1684252800900807200,4.94580712890625,-8.909323559135197,5.422300943064689,9.418693469464777
1684252800910833200,4.955833251953125,-1.9151082301467657,0.566676436394453,10.570476317435503
1684252800920859100,4.965859130859375,-3.185572402599454,-0.4112397909671068,10.730228487974404
1684252800930884000,4.975884033203125,-3.4084009147763252,0.9931266559749841,12.037688219869136
1684252800940910000,4.98591015625,0.10157529138028622,2.490978026822209,11.068291399049759
1684252800950936000,4.99593603515625,0.44144437509477136,3.3626550626456737,4.258418491977453
1684252800960962000,5.005962158203125,-2.9892548807293173,2.747304903975129,-4.173136163750291
1684252800970988000,5.015988037109375,-4.669484095421433,1.9765543402343988,-8.420652737963199
1684252800981014000,5.026013916015625,-4.630112454497814,0.9543827915608882,-9.656372344771027
1684252800991039000,5.0360390625,-2.7901304847449064,-0.6379349154442548,-8.140345850285888
1684252801001065000,5.04606494140625,-1.7640005538344383,-2.0625538768202065,-6.794997409501671
1684252801011091200,5.05609130859375,-3.5210049651712176,-3.3436358893990517,-7.190743863260746
1684252801021117200,5.0661171875,-6.60094666351974,-4.392887168177962,-7.919457950782776
1684252801031143200,5.07614306640625,-8.30233732418418,-5.608468242320418,-7.482242591559887
1684252801041169200,5.086169189453125,-6.854147517606616,-7.456038475245237,-6.794138162323832
1684252801051194000,5.096194091796875,-6.171532917958498,-8.792096525114774,-6.283678703191876
1684252801061220000,5.10622021484375,-5.508446025601029,-9.227375947839022,-6.20146219227612
1684252801071246000,5.11624609375,-4.210142244586348,-9.647463646650314,-6.636777855357527
1684252801081272000,5.12627197265625,-3.9302848542422053,-10.153881721436976,-6.944734966504574
1684252801091298000,5.136298095703125,-4.9150522626727815,-10.32702178133726,-6.467364122503995
1684252801101324000,5.146323974609375,-6.312276436644792,-9.817284791260958,-4.468877936446667
1684252801111350000,5.15635009765625,-7.630925671073794,-8.381025660973787,-1.1195188470952213
1684252801121375000,5.166375,-8.304194350227712,-7.038426811158657,0.7130182134792208
1684252801131401000,5.17640087890625,-8.04425512779653,-6.508817830398678,0.9045023238435387
1684252801141427000,5.186427001953125,-7.5891761951029295,-6.255052328166365,0.8821304791681468
1684252801151453000,5.196452880859375,-7.187156067901849,-6.078566464969516,1.0136872134447097
1684252801161479200,5.206479248046875,-6.49900487691462,-5.93780599514842,1.159699904705584
1684252801171505200,5.216505126953125,-5.690055223160982,-5.735851928696036,1.687946072679758
1684252801181530000,5.226530029296875,-4.73221089296937,-5.244852372315526,2.3148723951146004
1684252801191556000,5.23655615234375,2.8423303353205323,-3.0642350106507537,3.852425661753118
1684252801201582000,5.24658203125,29.35270893989801,8.19903243253231,7.4097098547905675
1684252801211608000,5.256608154296875,17.12435318674445,27.138455850613116,5.892534190270304
1684252801221634000,5.266634033203125,9.080517161142826,53.358389327597614,5.305320577281713
1684252801231660000,5.276659912109375,3.859062615549564,55.23115070040225,-10.318868870019912
1684252801241685200,5.286685302734375,-11.02970360198021,30.947228540861605,-21.66508406100273
1684252801251711200,5.296711181640625,-2.0075145650349557,8.049890503334998,-13.29527069891691
1684252801261737200,5.3067373046875,17.530592392945287,-6.529132304152846,-5.52023174046278
1684252801271763200,5.31676318359375,14.490935943233966,-11.499656863200665,-0.36452334023863076
1684252801281789200,5.3267890625,0.48748994082435965,-8.908943035385013,1.1032450270339846
1684252801291815200,5.336815185546875,-5.468870971059799,-7.040674882346392,1.2096323948711156
1684252801301840100,5.346840087890625,-5.117112712109089,-6.801157101175189,1.1526172529682517
1684252801311866000,5.3568662109375,-5.615851338309049,-6.26172055388391,0.9588801029801368
1684252801321892000,5.36689208984375,-6.195398946714401,-5.463911887347698,0.6911725846350193
1684252801331918300,5.37691845703125,-6.463173685076832,-4.737970771670342,0.6463268962144851
1684252801341944300,5.3869443359375,-6.862581583952903,-4.029851728409528,0.9124006758779287
1684252801351970300,5.39697021484375,-6.532831743192673,-3.2520284498035905,1.2314549351006745
1684252801361996300,5.406996337890625,-5.108727745601534,-2.876528080737591,1.2873530556723474
1684252801372021200,5.417021240234375,-4.285340401172638,-2.8130566023021935,1.127142327710986
1684252801382047200,5.427047119140625,-4.143468755239248,-2.270224567353725,0.22609978893250227
1684252801392073200,5.4370732421875,-4.181122486329079,-1.2761948250591755,-1.034052832864225
1684252801402099200,5.44709912109375,-2.1177041016340254,0.22583061660230158,-1.8150576641157268
1684252801412125200,5.457125244140625,2.7196926744282246,2.428280455368757,-1.2314280470937489
1684252801422151200,5.467151123046875,1.6778056408070028,3.827038414779305,-0.781215551392734
1684252801432176000,5.477176025390625,-0.28676417405791577,4.464801480787992,-0.3291384308636188
1684252801442202000,5.4872021484375,-1.1825883206009864,4.677495552441478,-0.14294307455718516
1684252801452228000,5.49722802734375,-1.4688286899805068,4.870136431625485,0.30044249773323534
1684252801462254000,5.507254150390625,-1.4083587314486503,4.739197683116793,0.8062170139193534
1684252801472280000,5.517280029296875,-1.1992846769232302,3.8046915584146976,1.3451605169966816
1684252801482306300,5.527306396484375,-0.9121171827614307,2.3742969362467528,1.8867539500609039
1684252801492331000,5.5373310546875,-0.3962870999744162,0.8239461473554373,2.1073221160903572
1684252801502357200,5.547357177734375,0.21528991509927436,-0.5384469517320394,2.1008894526943562
1684252801512383200,5.55738330078125,0.8434995736092329,-1.5183458773434162,1.9116095743760466
1684252801522409200,5.5674091796875,1.5115847126454114,-2.115516820722818,1.5446382564634085
1684252801532435200,5.577435302734375,2.334403901797533,-2.4849755715370176,1.0880132633715867
1684252801542461200,5.587461181640625,2.931567246392369,-2.557480835777521,0.7034782317176461
1684252801552486100,5.597486083984375,3.065218760991096,-2.3101170172810552,0.4088087644279003
1684252801562512100,5.60751220703125,2.7504765197485685,-1.785991436368227,0.26910218757390975
1684252801572538000,5.6175380859375,2.263983042615652,-1.1748235318183897,0.22535627708882092
1684252801582564000,5.627564208984375,1.854589756298065,-0.5122048414945602,0.22554157052785156
1684252801592590300,5.63759033203125,1.4862046260647475,0.12519874355196953,0.26048867300748824
1684252801602616300,5.6476162109375,1.2990905474781989,0.6022106911122799,0.418885921806097
1684252801612642300,5.657642333984375,1.3994494488060474,0.9227291776686907,0.7411731716006994
1684252801622667300,5.667667236328125,1.7710855436593294,1.0447457840532064,1.0203381957665085
1684252801632693200,5.677693359375,2.3240040883362294,1.1046107624292374,1.502495397260785
1684252801642719200,5.68771923828125,3.1543232778549193,1.153202067118883,1.958737528514862
1684252801652745200,5.6977451171875,4.174094779649376,1.2416975121736527,2.5214254797950386
1684252801662771200,5.707771240234375,5.137619493564963,1.4365408698379993,3.261817145629227
1684252801672797200,5.717797119140625,5.729750689211487,1.7897446514219044,3.95652608769685
1684252801682822100,5.727822265625,5.825373794189095,2.2710820609658957,4.324256115022301
1684252801692848000,5.73784814453125,5.566272776147723,2.687570858502388,4.305005178846419
1684252801702874000,5.7478740234375,5.314943561151623,3.022068770572543,4.161235590337217
1684252801712900000,5.757900146484375,5.634533826947212,3.2126971408903597,4.023985758985579
1684252801722926000,5.767926025390625,6.702710755470394,3.058433046373725,4.132125815708935
1684252801732952000,5.7779521484375,8.170747418290377,2.586328160077333,4.440337193877995
1684252801742977000,5.78797705078125,8.94391673361063,2.124180019649863,4.633607603137195
1684252801753003000,5.7980029296875,8.055220758447051,1.944097008743882,4.573408278240263
1684252801763029000,5.808029052734375,5.727146059671044,1.8425544505894182,4.236016690555215
1684252801773055200,5.81805517578125,3.232001560819149,1.4725380658924578,3.892422448837757
1684252801783081200,5.828081298828125,1.9120780686706302,0.8969570230305194,3.8989246703386304
1684252801793107200,5.838107177734375,0.9185814834047108,0.41232174098491664,3.918278774628043
1684252801803132400,5.84813232421875,-0.1720429123133421,0.2485655955016613,3.970088456842303
1684252801813158400,5.858158447265625,-1.1450433105826376,0.7195674889922141,4.114598926846683
1684252801823184100,5.86818408203125,-2.318271097642183,2.0696616629987954,3.988481607145071
1684252801833210000,5.878210205078125,-3.9261446856975555,4.231187370702624,3.353590297180414
1684252801843236000,5.888236083984375,-5.616161134910583,6.567708995306491,2.057424697238207
1684252801853262000,5.898261962890625,-6.9228832001805305,8.713060982322693,0.18627631258815525
1684252801863288000,5.9082880859375,-7.529928471842408,10.097426259243488,-1.7333184153228998
1684252801873313300,5.918313232421875,-8.180575569343567,10.200108050560951,-2.9615768924698234
1684252801883339300,5.92833935546875,-7.574360903286934,8.700179288917779,-3.7634322040483354
1684252801893365200,5.938365234375,-6.050213061666488,6.258597453427314,-3.9129549492567777
1684252801903391200,5.94839111328125,-5.060252760767937,4.29443614629805,-3.1926997702613473
1684252801913417200,5.958417236328125,-4.772006604523956,2.848753938627243,-2.1732003634065387
1684252801923443200,5.968443115234375,-4.902090782029926,1.8374030591756105,-1.3880872200533747
1684252801933468200,5.97846826171875,-4.884909345604479,1.1673790610313415,-0.7232514382019639
1684252801943494400,5.988494384765625,-4.736195286430418,0.7982809602230787,-0.0517597055926919
1684252801953520400,5.998520263671875,-4.5300455218538636,0.8080839768350124,0.3712900578945875
1684252801963546400,6.00854638671875,-4.2078269533813,1.0281997229218482,0.16586919211447237
1684252801973572400,6.018572265625,-3.099460930071771,1.4812895276248454,-0.1237161037787795
1684252801983598300,6.028598388671875,-3.073321111164987,1.3872428781837225,-0.349662455715239
1684252801993623300,6.038623291015625,-3.4759321899965405,0.7688783401280641,-0.5017535901069641
1684252802003649300,6.048649169921875,-3.609964520606398,0.10107143351137637,-0.5065788183063268
1684252802013675300,6.05867529296875,-3.798547648832202,-0.5881178683519364,-0.3033297436073422
1684252802023701200,6.068701171875,-4.223047903388738,-1.197693535274267,-0.14432020812928675
1684252802033727200,6.078727294921875,-4.83305202485621,-1.6278864485144615,-0.047187867632508276
1684252802043753200,6.088753173828125,-5.558586313298345,-1.8129343883514404,0.10431231512874364
1684252802053778200,6.098778076171875,-6.123313953712582,-1.9000468546152114,0.1862529317125678
1684252802063804200,6.10880419921875,-6.520701744937896,-1.744534221342206,0.15571283202022312
1684252802073830100,6.118830078125,-6.614823797702789,-1.3504203372210264,-0.03082213150411844
1684252802083856100,6.128856201171875,-6.548562980809807,-0.8245002741068601,-0.28929420399218797
1684252802093882400,6.13888232421875,-6.467174737411737,-0.4078828817546367,-0.534753065650165
1684252802103908400,6.148908447265625,-6.232699042060971,-0.25772096185982224,-0.5541717596083879
1684252802113933300,6.158933349609375,-5.975239946007728,-0.36628128982186314,-0.38452100312858817
1684252802123959300,6.168959228515625,-5.8203848998606205,-0.5600175630271435,-0.11334639319479464
1684252802133985300,6.1789853515625,-5.668577550846338,-0.733178665715456,0.13907792356163262
1684252802144011300,6.18901123046875,-5.478021661242843,-0.866403479334712,0.32893472498506304
1684252802154037200,6.199037353515625,-5.331050061821937,-0.9766735338240862,0.4718155479609966
1684252802164063200,6.209063232421875,-5.181915731409192,-1.017761331015825,0.6337675666317343
1684252802174089200,6.219089111328125,-5.1358577445894475,-0.9022223962128162,0.7678110031574964
1684252802184114200,6.2291142578125,-5.163554145288467,-0.6881465148121119,0.8097145006462931
1684252802194140200,6.23914013671875,-5.090090265148878,-0.22967910872399805,0.7317232062101364
1684252802204166100,6.249166259765625,-4.817973698189855,0.6055979954630136,0.4326604723975062
1684252802214192000,6.259192138671875,-4.633053768646716,1.6570008993178604,-0.19143442600369454
1684252802224218000,6.269218017578125,-4.78319873740673,2.7958944550991056,-1.2046806176826357
1684252802234244000,6.279244140625,-4.945375504744052,3.851205472308397,-2.491793727119267
1684252802244269000,6.28926904296875,-5.000257434010505,4.581244086432457,-3.7944095261141655
1684252802254295000,6.299294921875,-5.148464128184318,4.609546636331081,-4.782657470136881
1684252802264321300,6.3093212890625,-5.2703112232208245,3.896883519899845,-5.407518968996405
1684252802274347300,6.31934716796875,-5.507264706861973,2.7853450040340424,-5.801411319321393
1684252802284373200,6.329373291015625,-5.641335323655605,1.3016501688331366,-6.392151352870464
1684252802294399200,6.339399169921875,-4.838104047548771,-0.6543097116619349,-6.9013979290813205
1684252802304424200,6.349424072265625,-3.243564572840929,-2.041344500052929,-6.846850930857658
1684252802314450200,6.3594501953125,-1.9253379477381705,-2.6033979528218505,-8.085310191762447
1684252802324476200,6.36947607421875,-1.164634073172137,-2.9809236902356147,-11.203080977767705
1684252802334502100,6.379502197265625,-0.2840110394248739,-2.483775548097491,-13.149360006725788
1684252802344528100,6.389528076171875,1.4742086294531822,-1.4989455958247184,-11.364424216890335
1684252802354554000,6.39955419921875,7.078879233056306,0.28332243610620494,-5.160456179273128
1684252802364579300,6.409579345703125,10.89334984268546,1.4276438621550798,0.9259189136207103
1684252802374605000,6.41960498046875,6.822704331594705,0.14126198960244654,-0.46429596611112356
1684252802384631000,6.429631103515625,3.5955437810659405,-0.6637479866147041,-2.034007581293583
1684252802394657000,6.439656982421875,1.3159580956488848,-0.9637561845839023,-2.021007522206008
1684252802404683000,6.44968310546875,3.1705034282833338,-0.9330570949375628,-0.1283992931589484
1684252802414709200,6.459709228515625,10.068325252443552,-0.16799802083671092,3.0420439293697474
1684252802424734200,6.469734130859375,11.560622496294975,1.1962941898703574,3.3329306632503863
1684252802434760400,6.479760498046875,10.440893659710884,2.7678134389966726,2.3816063824772833
1684252802444786400,6.489786376953125,6.762117468684911,3.2206179970175026,1.8157620129927992
1684252802454812400,6.4998125,3.179889680787921,2.682211961817741,1.4166273781001566
1684252802464838100,6.509838134765625,1.6116848169066011,1.697804618871212,1.3987091518327592
1684252802474864000,6.519864013671875,0.8153476842276751,0.9661913027763366,1.4134218600571156
1684252802484889300,6.529889404296875,0.5629957751203328,0.5587321993917227,1.5063865594804287
1684252802494915300,6.539915283203125,0.6179713009543717,0.20904431697428225,1.4552075763851404
1684252802504941300,6.54994140625,0.5495680652052164,-0.09105097475647926,1.140574056214094
1684252802514967300,6.55996728515625,0.4087778578329831,-0.23972587096393108,0.690475542281568
1684252802524993300,6.5699931640625,0.2122013197004795,-0.1298129593491554,0.26218261744379995
1684252802535019300,6.580019287109375,0.09878653744459151,0.06925824514329433,-0.1505070800706744
1684252802545044200,6.590044189453125,0.15228198078870772,0.21170213800668716,-0.4027271064266562
1684252802555070500,6.600070556640625,0.031103615326620638,0.16511925053000448,-0.5201496630191803
1684252802565096400,6.610096435546875,-0.22401448882473632,-0.037757775986194606,-0.5542100457921624
1684252802575122400,6.620122314453125,-0.4243663990437984,-0.3032663229823112,-0.5535892835453152
1684252802585148700,6.630148681640625,-0.4746563243448734,-0.4461147049933672,-0.46328211289346216
1684252802595174700,6.640174560546875,-0.6403168421447276,-0.45513972297012806,-0.2921095536738634
1684252802605200600,6.65020068359375,-0.9446949257612228,-0.38767771359384057,-0.07220657355487346
1684252802615225600,6.6602255859375,-1.2331225760519504,-0.20415596041083334,0.07911766811758279
1684252802625251600,6.67025146484375,-1.5473358249843119,0.022289573219418525,0.37600247336924075
1684252802635277600,6.680277587890625,-1.8135750243425368,0.21138298905491829,0.6159507549121975
1684252802645303600,6.690303466796875,-2.0185446392238138,0.4736082765966654,0.8193009518980979
1684252802655329500,6.70032958984375,-2.2775649932444093,0.6684060415536165,1.1120333136454223
1684252802665355500,6.71035546875,-2.289903081291914,0.7608850032866,1.3942229463294147
1684252802675380500,6.72038037109375,-2.193295641452074,0.8539251060336828,1.6393687965154646
1684252802685406500,6.730406494140625,-2.0563456698298452,0.8970061228692531,1.777783579993248
1684252802695432400,6.740432373046875,-1.8373568819463253,0.8839771299481392,1.932306325446069
1684252802705458400,6.75045849609375,-1.571536200261116,0.8031354145169257,2.12583626242429
1684252802715484400,6.760484375,-1.364938107395172,0.6240986977934837,2.3168480791017414
1684252802725510400,6.770510498046875,-1.1781155591011048,0.49355391703844065,2.3986244450345633
1684252802735535400,6.780535400390625,-0.9601146132111549,0.4731757303982973,2.551100779351592
1684252802745561300,6.790561279296875,-0.7041033778786658,0.4673398638516664,2.7330118824675678
1684252802755587600,6.800587646484375,-0.43014498244524,0.5103057298749685,2.8704060907259583
1684252802765613600,6.810613525390625,-0.042364356466196476,0.657964727038145,3.0329870549499987
1684252802775639600,6.8206396484375,0.40852008367963133,0.9195534702420234,3.1713164982318878
1684252802785665500,6.83066552734375,0.9147503808092325,1.2076011813044547,3.2221348313212395
1684252802795690500,6.8406904296875,1.403834532022476,1.4313316107571123,3.1102579261571166
1684252802805716500,6.850716552734375,1.9938420135132968,1.5511808099746702,2.8912971953243014
1684252802815742500,6.860742431640625,3.3043571874558926,1.556677653825283,2.374197567525506
1684252802825768400,6.8707685546875,7.291238958188891,1.602646208795905,1.0628139401853085
1684252802835794400,6.88079443359375,9.333782897159457,1.4465519762426613,-0.20965894174128769
1684252802845820400,6.8908203125,7.943053930425643,0.908319544044137,-0.801126412782073
1684252802855845400,6.900845458984375,6.2698144284904,0.2550456051707268,-0.7006161202847957
1684252802865871400,6.910871337890625,5.244381247672439,-0.3185235133469105,-0.5993503332450986
1684252802875897300,6.9208974609375,4.593537750816345,-0.8256050204783677,-0.6269885740160942
1684252802885923300,6.93092333984375,4.166356294351816,-1.243707098430395,-0.9124693571999668
1684252802895949300,6.94094921875,3.682215517824888,-1.4466039986908434,-1.4960513356879352
1684252802905975600,6.9509755859375,3.3292753556132313,-1.4936112490594387,-2.1409695341482755
1684252802916000300,6.961000244140625,2.962792990261316,-1.057560841962695,-2.883890133938193
1684252802926026200,6.971026123046875,1.6418134131886064,-0.14471592944860456,-3.210880446857214
1684252802936052500,6.981052490234375,-0.3562709140695631,1.0888497141957283,-3.130729344038665
1684252802946078500,6.991078369140625,-1.5794823369599877,2.3966934769719836,-2.6241502334713935
1684252802956104400,7.0011044921875,-2.1436802544116973,3.5445050832241773,-1.6232500208854674
1684252802966130400,7.01113037109375,-2.091011325019598,4.576980583769083,-1.0652087263673544
1684252802976155400,7.0211552734375,-1.0594400798380375,5.152197469493746,-0.8369482522696257
1684252802986181400,7.031181396484375,-0.15681144091188906,5.319123477184772,-0.41981268126219506
1684252802996207400,7.041207275390625,0.8131146644785999,4.920375503522157,-0.22476094154417514
1684252803006233300,7.0512333984375,1.1726254372522233,3.944658832031488,0.07571399715393781
1684252803016259300,7.06125927734375,0.12882891674786806,3.0000346334189176,0.8226713051140307
1684252803026285300,7.071285400390625,-1.316928986507654,2.1099679544240235,1.3644246049150823
1684252803036310500,7.081310546875,-2.4000401570513845,1.1904653375864027,1.4196549092277884
1684252803046336500,7.09133642578125,-3.294474968127906,0.5421224253743887,1.4899766919493673
1684252803056362500,7.101362548828125,-3.5854341827228664,0.2439507951825857,1.3514043798223137
1684252803066388500,7.111388427734375,-3.1567747626602647,0.19669220040142535,0.8758198347166181
1684252803076414500,7.12141455078125,-2.311016304208338,0.3448632387399673,0.2710138664141297
1684252803086440400,7.1314404296875,-1.5452902906313537,0.5662661020278931,-0.4429261380851269
1684252803096466400,7.141466552734375,-1.159475740560889,0.6958288860082626,-1.06106709651798
1684252803106491600,7.15149169921875,-1.264393620367348,0.7626619498312472,-1.4143819372609256
1684252803116517600,7.161517578125,-1.6654191835731267,0.6068570556133985,-1.4829571685761211
1684252803126543600,7.171543701171875,-2.1254887641608713,0.1413859082430601,-1.6128841096937656
1684252803136569600,7.181569580078125,-2.546624510720372,-0.5529623838186264,-1.7853394022002815
1684252803146595600,7.191595703125,-2.6053204453170298,-1.4752648605078458,-2.026742558726668
1684252803156621600,7.20162158203125,-2.510285077099502,-2.376283726149797,-2.1282091290354725
1684252803166646500,7.211646484375,-2.5809230861634016,-2.999459463879466,-2.0697730144187805
1684252803176672500,7.221672607421875,-2.927996109907329,-3.4631694467961784,-2.046747528140247
1684252803186698500,7.231698486328125,-3.1712630144789813,-3.805755972775817,-1.8918956968635319
1684252803196724500,7.241724365234375,-3.15202786039412,-3.877520647782087,-1.5467773143187165
1684252803206750500,7.25175048828125,-3.0732039145261045,-3.535107724803686,-0.8868649603441358
1684252803216776400,7.2617763671875,-3.1048940610364077,-3.023662177243829,-0.2683864405199885
1684252803226801400,7.271801513671875,-3.2836966767430305,-2.40334007537961,0.3326011385381222
1684252803236827400,7.281827392578125,-3.606349544979632,-1.8211609494268892,0.8636554958008229
1684252803246853400,7.291853271484375,-3.9127755010366436,-1.3287673083394764,1.0481228592708707
1684252803256879600,7.301879638671875,-4.121410652688145,-0.9648837273091078,1.054351524527371
1684252803266905600,7.311905517578125,-4.17590825881213,-0.8396580957502127,0.3737063252560794
1684252803276931600,7.321931640625,-4.154131603550911,-0.9602695115119219,-0.5991904665082692
1684252803286956500,7.33195654296875,-4.069371545632183,-1.0660182891845702,-1.4525420104376972
1684252803296982500,7.341982421875,-3.768973471562564,-1.2012146951377392,-2.0113819079875945
1684252803307008500,7.352008544921875,-3.161203977279365,-1.36794488799572,-2.274513935110718
1684252803317034500,7.362034423828125,-2.5024375784695145,-1.5082254653453826,-2.038014771108329
1684252803327060500,7.372060546875,-1.8348963370516895,-1.6169102964699267,-1.62796842770949
1684252803337086500,7.38208642578125,-1.14700642734915,-1.770416850617528,-1.3627125403001903
1684252803347111400,7.392111328125,-0.8730819341853261,-1.771362022513151,-1.0189446955814958
1684252803357137400,7.402137451171875,-0.8209034186586737,-1.6387334212213753,-0.7047405067384243
1684252803367163400,7.412163330078125,-0.6770869222678244,-1.4483856214106081,-0.592292231427133
1684252803377189400,7.422189453125,-0.27576018415838477,-1.1930226208537815,-0.6194435654640197
1684252803387215400,7.43221533203125,0.4613806631863117,-0.835737122914195,-0.8472139179572462
1684252803397241300,7.442241455078125,1.637788249325752,-0.30460546263158317,-1.0147039892718195
1684252803407266300,7.452266357421875,3.7621792813777923,0.6448182452172041,-0.6836787217482924
1684252803417292300,7.462292236328125,6.474794564765691,1.8160002056628464,0.0394812387779355
1684252803427318500,7.472318603515625,7.933145115351676,3.3360487952709197,0.5996390870586037
1684252803437344500,7.482344482421875,8.503245680975914,4.732926347762346,0.8297443122401833
1684252803447370500,7.49237060546875,9.333885773012042,5.8764423026472326,0.18629647859334944
1684252803457396500,7.502396484375,10.096198763275146,7.076681430751085,-2.1077616765514016
1684252803467421400,7.51242138671875,7.921784932425617,7.898753600928187,-4.678796990428864
1684252803477447400,7.522447509765625,3.8304900165379046,8.096278160500527,-6.213396375697851
1684252803487473400,7.532473388671875,0.06306291590081528,7.182353051534295,-6.271172272840142
1684252803497499400,7.54249951171875,-2.5585376513540745,5.0299534840941424,-4.756972116999328
1684252803507525400,7.552525390625,-3.2291268821656702,2.493018592739105,-3.206618113237619
1684252803517551400,7.56255126953125,-2.956086186099052,0.26340777532458304,-2.151444750933349
1684252803527576300,7.572576416015625,-2.3865830018460747,-1.643794211742282,-1.4357175707563756
1684252803537602300,7.582602294921875,-1.8851906462669372,-3.1437264805167913,-0.5705892259240151
1684252803547628300,7.592628173828125,-1.4624807822585104,-4.010890422829985,0.208865745536983
1684252803557654000,7.602654052734375,-0.923599530762434,-4.4771518437951805,0.6886874898210168
1684252803567680000,7.612679931640625,-0.48441550181508064,-4.751157000979781,1.1333110794737935
1684252803577706000,7.6227060546875,-0.3980366105228662,-4.876383801582455,1.5411369703441857
1684252803587731200,7.632731201171875,-0.619390958493948,-4.703342525881529,1.6175728520318864
1684252803597757200,7.642757080078125,-1.1989186931550502,-3.8713188705325123,1.1578726892784237
1684252803607783200,7.652783203125,-2.079762785774469,-2.5303683724462984,0.7067237895101308
1684252803617809200,7.66280908203125,-2.8833249012708664,-1.243882454997301,0.2048036106646061
1684252803627835100,7.672835205078125,-3.5115105761170384,0.03383797219395637,-0.49154316173791884
1684252803637861000,7.682861083984375,-3.9897780766963957,1.343565064498782,-1.4531766550794243
1684252803647886000,7.692885986328125,-4.25359384829998,2.4039713590204714,-2.5621342145413157
1684252803657912000,7.702912109375,-4.292416623169183,3.018394465973973,-3.5256282410576936
1684252803667938300,7.712938232421875,-5.559020613062382,2.801349213373661,-4.125767094331979
1684252803677964300,7.72296435546875,-5.363153173047304,2.1112124015271663,-4.518180312015116
1684252803687990300,7.732990234375,-2.5829806032150984,2.014319715005159,-4.197771423313021
1684252803698016300,7.743016357421875,-0.5303582647573203,1.9765788901537655,-3.0885423534333705
1684252803708041200,7.753041259765625,2.2237071463286875,1.318141284906864,-1.571735814486444
1684252803718067200,7.763067138671875,10.543022493320702,-0.0896463686555624,1.053155885002017
1684252803728093200,7.77309326171875,10.070876105970143,-0.9049439301311969,2.6222777175977825
1684252803738119200,7.783119140625,4.197371025818586,-1.006153895330429,2.2525439492344854
1684252803748145200,7.793145263671875,2.292087585724145,-1.3680091854035854,2.0011597891807553
1684252803758171100,7.803171142578125,1.9659055204480886,-1.6322826376467943,1.9284744921982286
1684252803768196000,7.813196044921875,1.7933961596667765,-1.5865665961325168,1.7524132841542361
1684252803778222000,7.82322216796875,1.380443719562888,-1.087768348699808,1.225221593669057
1684252803788248000,7.833248046875,0.8993127193111926,-0.3489157290011644,0.4020174968525767
1684252803798274000,7.843274169921875,0.61649640609622,0.23235914158821105,-0.3084825963258743
1684252803808300000,7.853300048828125,0.3872307004787028,0.43589492427408694,-0.5828577558666468
1684252803818326300,7.863326171875,0.03353643196411431,0.3498626544624567,-0.38497313081026074
1684252803828352300,7.873352294921875,-0.35276823971085247,0.033090368697047234,-0.08448679393529891
1684252803838377200,7.883377197265625,-0.5276725328046828,-0.2532534610569477,-0.09965776732116938
1684252803848403200,7.8934033203125,-0.553597174590826,-0.41304596360623835,-0.3583770925685763
1684252803858429200,7.90342919921875,-0.45176520503573114,-0.44454234111011026,-0.45993221794366834
1684252803868455200,7.913455078125,-0.2864711824607104,-0.4275187255948782,-0.34956045664548874
1684252803878481200,7.923481201171875,-0.13977080119661986,-0.4511240575879812,0.025226503454148768
1684252803888506000,7.933506103515625,0.02834770421460271,-0.371460738286376,0.5551350516825914
1684252803898532000,7.943531982421875,0.2592420339472592,-0.2177390800833702,1.115734213989973
1684252803908558000,7.95355810546875,0.6819083510749042,-0.08877776912748814,1.632404218199849
1684252803918584000,7.963583984375,1.33827704109326,0.08327040388286114,2.1423744325101373
1684252803928610000,7.973610107421875,2.072857244169712,0.21961013465225696,2.5707740325927735
1684252803938636000,7.983635986328125,2.6891385462105273,0.2537497201412916,2.85737563650012
1684252803948662000,7.993662109375,3.1279908589854837,0.14286124149262905,2.9150255691751834
1684252803958687000,8.00368701171875,3.422696274371445,-0.12686053928434848,2.6746973484039307
1684252803968713000,8.013712890625,3.5940690323382616,-0.3874199394404888,2.388601063670218
1684252803978739000,8.023739013671875,3.6550597998738286,-0.5754331588238477,2.041400614154339
1684252803988765200,8.03376513671875,3.6714515472263094,-0.5062935716241598,1.4881711038321255
1684252803998791200,8.043791259765625,3.621784137737751,-0.1408282743602991,0.6970040672674774
1684252804008817200,8.053817138671874,3.593189326894283,0.23689503145217894,-0.10473901610821484
1684252804018842000,8.063842041015626,3.5825039744898675,0.46205520144701,-0.7720914569556713
1684252804028868000,8.0738681640625,3.5640742915689945,0.5991758534610271,-1.3521204191371798
1684252804038894000,8.08389404296875,3.529736260898411,0.6295762524217366,-1.8031357556536793
1684252804048920000,8.093920166015625,3.5684061832934617,0.5029857622504234,-2.0295827505886552
1684252804058946000,8.103946044921875,3.5411826608031984,0.2968102787107229,-2.1611513214334845
1684252804068972000,8.113971923828124,3.5466929486572742,-0.11365677431821822,-2.2084426494404674
1684252804078997200,8.123997314453124,3.475690490195155,-0.5435118339061736,-1.880613839870691
1684252804089023200,8.134023193359376,2.95322758179754,0.08722235637903213,-1.5255293591067194
1684252804099049200,8.14404931640625,1.7541867235675452,1.9449971724539994,-2.1572852936550975
1684252804109075000,8.154074951171875,0.6505543046511709,3.6611850047558545,-3.8796570752888915
1684252804119101000,8.164100830078125,-0.4374021139666438,5.341865470346808,-5.260804559206962
1684252804129127000,8.174126953125,-1.5413491517901419,6.922280558112263,-5.376548661193251
1684252804139152100,8.184152099609374,-2.3854653959929943,7.271793668484688,-4.501190306508541
1684252804149178000,8.19417822265625,-2.677729263445735,5.625016641539335,-3.468210071311891
1684252804159204400,8.204204345703126,-3.097355189964175,2.812359852209687,-2.139266529622674
1684252804169230300,8.214230224609375,-5.160032985424995,0.6961293302595615,-0.2118219649940729
1684252804179256300,8.22425634765625,-6.843626708114146,-0.23295535391569136,1.5910148077130317
1684252804189282300,8.2342822265625,-7.882234427803755,-0.2491448566943407,2.5917323572084308
1684252804199307300,8.244307373046874,-7.588985640966892,-0.09027940586209296,2.6398905311778185
1684252804209333200,8.254333251953126,-6.305326471376419,0.006822539496421813,1.9783526218280194
1684252804219359200,8.264359130859376,-5.08917373482585,0.3450461940914392,0.7365805831134319
1684252804229385200,8.27438525390625,-1.0064743594564496,1.3784803105354309,0.040567280448973175
1684252804239411200,8.2844111328125,6.151099201738834,2.5595886217117307,-1.2653086893856524
1684252804249437200,8.294437255859375,3.7550782172009347,3.0749516349762676,-1.2719094028249383
1684252804259462100,8.304462158203124,3.406304527018964,3.837647487077117,-2.1150094557225705
1684252804269488000,8.314488037109374,3.509079257316887,5.430110155510902,-2.8580756014630198
1684252804279514000,8.32451416015625,3.612669395650923,6.861753900957107,-3.466007300570607
1684252804289540000,8.3345400390625,2.8735739071071147,7.796714199167489,-2.189318846775591
1684252804299566000,8.344566162109375,0.7109726791262626,8.152951649358869,1.4408075873717665
1684252804309592300,8.35459228515625,-2.8976825124472376,7.82228410923183,4.395158327980339
1684252804319617000,8.364616943359374,-7.031454634058475,7.051041378059983,6.169730252450704
1684252804329643000,8.37464306640625,-10.307250912940502,5.5867509160310025,7.1769468085765835
1684252804339669200,8.384669189453126,-11.118229442173241,3.412151207220554,7.987510327267646
1684252804349695200,8.3946953125,-9.949848510622978,0.9385691363573074,8.675660933732987
1684252804359721200,8.40472119140625,-8.057325621771811,-1.3895570003449915,8.695470380574465
1684252804369747200,8.414747314453125,-5.949487080591917,-3.2860634058743714,7.766694908478856
1684252804379772200,8.424772216796875,-3.729280928121507,-4.3994004955947394,6.324867038148641
1684252804389798100,8.434798095703124,-1.9723218172311783,-4.655158632948995,4.866382632049918
1684252804399824100,8.44482421875,0.12273293796032667,-3.9992894168853756,2.943093725796044
1684252804409850000,8.45485009765625,1.7047732888400553,-2.4019196871876716,1.3212874739781022
1684252804419876000,8.4648759765625,2.706263868534565,-0.7737766335636377,0.3239940537124872
1684252804429902000,8.474902099609375,3.308869696444273,0.174534729129076,-0.23986615621745586
1684252804439927000,8.484927001953125,2.6560624982997774,0.6137924078345298,-0.05610138805881142
1684252804449953000,8.494953125,0.585936432659626,0.6112549983114004,0.6352085592202842
1684252804459979000,8.50497900390625,-2.6097525825455783,0.5680740282326936,1.1801109707020223
1684252804470005000,8.5150048828125,-5.268550643289089,0.7366980720132589,1.1718215735234319
1684252804480031000,8.525031005859375,-5.582303288972377,0.7321814713716507,1.1437675915583967
1684252804490057200,8.53505712890625,-5.441215486893057,0.3329039208769798,0.7843048957102
1684252804500082000,8.54508203125,-4.554709715250135,-0.4781961889088154,0.6052035893179476
1684252804510108200,8.555108154296875,-3.460788689139485,-1.1444576196491718,0.6297725056461989
1684252804520134100,8.565134033203124,-2.6235908460229633,-1.4766051692008972,0.619441227376461
1684252804530160000,8.57516015625,-2.462130410261452,-1.6070891596794128,0.43918972803577777
1684252804540186000,8.58518603515625,-2.7459721940666437,-1.6607535298496483,0.2286202473208308
1684252804550212000,8.595212158203125,-3.2782951099604367,-1.7005203075706958,0.13380612063854933
1684252804560237600,8.605237548828125,-3.6966315811902284,-1.7742682653486728,0.0869676509656012
1684252804570263600,8.615263671875,-3.9781314780443906,-1.8523738338142632,0.0032506723590195177
1684252804580289500,8.62528955078125,-4.094878035071492,-1.9674106643140314,-0.2423041239541024
1684252804590315500,8.6353154296875,-4.210547318255901,-2.1312474738180636,-0.5669532075092196
1684252804600341500,8.645341552734376,-4.364572635580599,-2.3553227711856364,-0.8714710649225861
1684252804610367500,8.655367431640625,-4.523970878115296,-2.578720607683062,-1.1055071267470717
1684252804620392400,8.665392333984375,-4.728902791334688,-2.81903158505857,-1.2063192517351358
1684252804630418400,8.67541845703125,-4.925749597775936,-3.041504123404622,-1.2175975285314022
1684252804640444400,8.6854443359375,-4.868192896342277,-3.336702290743589,-1.0612262326024473
1684252804650470400,8.695470458984374,-4.588165994650125,-3.8083927510201927,-0.8595330090433358
1684252804660496400,8.705496337890626,-4.044438179905712,-4.446334096205234,-0.7759105037871747
1684252804670522600,8.715522705078126,-3.3151328484922646,-5.099754750072956,-0.8064302182786166
1684252804680547600,8.725547607421875,-2.7259216319456696,-5.6133934237629175,-0.9422819463353603
1684252804690573600,8.735573486328125,-2.2267127578854558,-5.8782315241515635,-1.0272111502759158
1684252804700599600,8.745599609375,-1.8561837474912404,-5.876621166345477,-1.2127500154349953
1684252804710625500,8.75562548828125,-1.6157814385704696,-5.800450949856638,-1.629751950125396
1684252804720651500,8.765651611328124,-1.410961022901535,-5.7616176535934205,-1.9253473000884056
1684252804730677500,8.775677490234376,-1.2823926567859947,-5.662360576027631,-1.7659348828978836
1684252804740702700,8.78570263671875,-1.4589340495623648,-5.399976883053779,-1.070539566001296
1684252804750728700,8.795728759765625,-1.9171743688963352,-4.729128124523163,-0.4651901384718716
1684252804760754700,8.805754638671875,0.9005775516152381,-1.0884159989535809,-1.2090835288167
1684252804770780700,8.81578076171875,28.487296225166318,20.210054763793945,-4.515619229355454
1684252804780806700,8.825806640625,2.289378180634975,38.83162219252586,-4.676920382902026
1684252804790832600,8.83583251953125,-11.25380111117959,32.33201233545542,-12.826935394287108
1684252804800857600,8.845857666015625,-7.674903344488143,21.986830628049372,-17.216070516455172
1684252804810883600,8.855883544921875,5.866006833350658,9.862781637066602,-11.222681165772675
1684252804820909600,8.86590966796875,22.714326571953297,-4.886052378159762,-3.3291154888764023
1684252804830935600,8.875935546875,9.735887780034542,-7.080740350753069,1.2491764697521923
1684252804840961800,8.8859619140625,-1.2178222041327507,-2.451145198127627,-0.08815145392268896
1684252804850987800,8.89598779296875,-2.6133003381550313,-2.868664507755637,-1.4477952543020247
1684252804861012700,8.9060126953125,-3.6314275798738,-3.316058731165528,-2.6631322905555366
1684252804871038700,8.916038818359375,-3.3791251359313725,-4.010103071844577,-3.2993776454776524
1684252804881064700,8.926064697265625,-1.3169070669367908,-4.717930438682437,-3.8867818126022815
1684252804891090700,8.936090576171875,-0.009495704228430987,-4.148584490817785,-3.3803988091289994
1684252804901116700,8.94611669921875,-0.3360521557748318,-3.453867949965596,-2.2527301194563507
1684252804911142700,8.956142578125,-1.4182825979612768,-2.6044576910078523,-1.778232785065472
1684252804921167600,8.966167724609376,-2.000079738859087,-1.6213596770942211,-1.9414701673716306
1684252804931193600,8.976193603515625,-1.9203496379315852,-0.850634832316637,-2.0939085077658293
1684252804941219600,8.986219482421875,-1.6357215260542928,-0.3586298982858658,-1.7438117522865533
1684252804951245600,8.99624560546875,-1.298793610358238,0.17042437120079992,-0.9674529932752252
1684252804961271600,9.006271484375,-1.1728466787874698,0.9658025957196951,-0.10060732313096522
1684252804971297500,9.016297607421874,-1.079716048212722,1.9877017571926117,0.6963631390154361
1684252804981322500,9.026322509765626,0.6084275928657502,7.402057294210791,7.870174572175741
1684252804991348500,9.036348388671875,-0.757394311626628,3.9393893671959637,3.3960385690703987
1684252805001374500,9.04637451171875,-1.349324358677864,1.844725949409604,0.35106939990371466
1684252805011400700,9.056400634765625,-0.9752795221824199,1.7904694585651157,1.8413655330657959
1684252805021426700,9.0664267578125,-0.8191092287182807,0.965205798870325,2.369246374858916
1684252805031452700,9.07645263671875,-0.5342530071735382,0.13723229569494724,2.9550451526135206
1684252805041477600,9.0864775390625,-0.010181211407715454,-0.7988608059376477,3.2891733545884487
1684252805051503600,9.096503662109376,0.4441664935350418,-1.4421458502382039,3.3496129179820415
1684252805061529600,9.106529541015625,0.8652636616498232,-1.8954215329021213,3.1429107802197334
1684252805071555600,9.1165556640625,1.3236217621445654,-2.092526990279555,2.718253581535816
1684252805081581600,9.12658154296875,1.7919664191246032,-2.018281604373455,1.9572037430763243
1684252805091607600,9.136607666015625,2.172647990220785,-1.7121031933367252,1.1332558421552181
1684252805101632500,9.146632568359376,2.397844400572777,-1.2677034755676984,0.6005038871943951
1684252805111658500,9.156658447265626,2.3594646932959553,-0.8691109847277403,0.17484890964478253
1684252805121684500,9.1666845703125,2.0937581395097076,-0.6478513293027878,-0.1828793636262417
1684252805131710500,9.17671044921875,1.7566332399368285,-0.5935872396737337,-0.4226318303361535
1684252805141736400,9.186736328125,1.490130421206355,-0.6765420017361641,-0.57247284771353
1684252805151762400,9.196762451171875,1.3855302290469407,-0.7243827803194522,-0.5541545162126421
1684252805161787400,9.206787353515624,1.2870790610365568,-0.7074982810139656,-0.415609092092514
1684252805171813400,9.2168134765625,1.0630008410595357,-0.7224649639993905,-0.2637333540171385
1684252805181839600,9.226839599609375,1.0195476299107074,-0.7254787588626146,-0.04015606929957866
1684252805191865600,9.236865478515625,1.1620587427914142,-0.6229325766235589,0.10447218186557293
1684252805201891600,9.2468916015625,1.3955707076765596,-0.5299439118027687,0.12025924132317303
1684252805211917600,9.25691748046875,1.5414667868204415,-0.456370726069808,0.020919161649048328
1684252805221942800,9.26694287109375,1.612842316378653,-0.35447394765019413,-0.1621557245492935
1684252805231968800,9.27696875,1.9416899476021527,-0.32528233995735645,-0.33396541262865065
1684252805241994500,9.286994384765626,2.4344537371762094,-0.1825947014659643,-0.3760723237350583
1684252805252020500,9.2970205078125,3.553703704202175,0.3199666978925466,-0.25714228518903254
1684252805262046500,9.30704638671875,6.163291159313917,1.0789175182461739,0.22668255725651978
1684252805272072400,9.317072509765625,8.096517814475298,1.7699182534456253,0.9614248190268874
1684252805282097700,9.32709765625,7.419741419461369,2.1409774251937863,1.3939625418275594
1684252805292123600,9.33712353515625,5.833872742465138,2.254113390508294,1.4399436640188097
1684252805302149600,9.347149658203126,4.595680608063936,2.075512727114558,1.4572569101303814
1684252805312175600,9.357175537109375,3.9443665710866447,1.7940379647016524,1.6897528298407791
1684252805322201600,9.36720166015625,3.5839731702595947,1.5518787291109561,1.990696555094421
1684252805332227600,9.3772275390625,3.272751796619594,1.1744418390244244,2.380331540235877
1684252805342252500,9.38725244140625,3.0000849023014307,0.6534206538677215,2.7965461970061063
1684252805352278500,9.397278564453124,2.495816699025035,0.003170446729660034,3.0369039361327883
1684252805362304800,9.4073046875,2.008957457319647,-0.458190927234292,3.2117598600402473
1684252805372330800,9.417330810546876,1.5302929202467201,-0.6259153918266296,3.348760392805934
1684252805382356700,9.427356689453125,1.0020482135772704,-0.6194640237301587,3.517365731886029
1684252805392382700,9.4373828125,0.5005297474004328,-0.3618699031203985,3.6836727308958768
1684252805402407700,9.44740771484375,-0.10534779565632342,0.3778144912272692,3.601343407255411
1684252805412433700,9.45743359375,-0.6937573404312133,1.5876339331030844,3.0937630106911063
1684252805422459600,9.467459716796874,-1.2768494895756244,3.0568226885676384,2.1076167151227594
1684252805432485600,9.477485595703126,-2.199633027780056,4.760197216525674,0.2978133182734251
1684252805442511600,9.48751171875,-3.228452343904972,6.296639891573786,-2.142889980816841
1684252805452537600,9.49753759765625,-3.7090555939555165,7.186857961738109,-4.723075692616403
1684252805462562600,9.5075625,-3.8643545844778417,7.50241561101675,-6.662388681954145
1684252805472588500,9.517588623046874,-4.464178380453586,6.863384132507443,-7.364802207049727
1684252805482614500,9.527614501953124,-5.123925899255275,4.789295300716161,-6.606268150803446
1684252805492640500,9.537640625,-3.8384348380625246,2.6529554721951483,-5.977608428704738
1684252805502666500,9.54766650390625,0.32874782411083575,0.8922329171180725,-5.8801569392561905
1684252805512692700,9.557692626953125,14.682496625965832,-0.8585843300163746,-6.538357813137769
1684252805522717400,9.567717529296875,12.840552416229247,-1.753633473598957,-5.854768815499543
1684252805532743700,9.57774365234375,2.262053243596852,-2.010558901166916,-5.496944388377666
1684252805542769700,9.587769775390624,-2.371965278428793,-2.3113228859394788,-5.666790082907676
1684252805552795600,9.597795654296876,-3.9555017130851744,-2.1790233704715964,-5.71568475445807
1684252805562821000,9.607821044921875,-4.15982192414701,-1.3853963735342025,-6.419996806651353
1684252805572846000,9.61784619140625,-4.343558781385421,0.11355156037807464,-7.022525477671623
1684252805582872000,9.6278720703125,-4.913315648138523,1.3417138836741447,-6.476421289184689
1684252805592898300,9.637898193359375,-4.4995922236621375,1.616242187950015,-4.454402836370468
1684252805602924300,9.64792431640625,2.357318621177971,2.1445026767104864,-1.3570007385246454
1684252805612950300,9.6579501953125,7.350110249352455,2.9199118799120187,0.1072094978749752
1684252805622976300,9.667976318359376,2.5371403507992625,3.103718295255303,-1.0426939660899341
1684252805633001200,9.678001220703125,-2.800731665997207,3.0099118843108412,-1.6985139361843467
1684252805643027200,9.688027099609375,-4.450797213093936,1.7346604775816201,-1.234317777185887
1684252805653053200,9.69805322265625,-4.039942037530243,-0.21351415586471556,-1.1464213209375738
1684252805663079200,9.7080791015625,-3.6783521203950045,-1.7611708833664654,-1.2278104411184787
1684252805673105200,9.718105224609374,-3.9183731749132273,-3.0054297704607245,-1.15660917214863
1684252805683131100,9.728131103515626,-4.251669602239132,-3.920126448321342,-1.1400444063168018
1684252805693156400,9.73815625,-4.505866773886979,-4.583086499428749,-1.3189260055437684
1684252805703182300,9.748182373046875,-4.830185237248242,-5.057664497840404,-1.5048857995286582
1684252805713208300,9.758208251953125,-5.104769947886466,-5.36521185914278,-1.555166957001388
1684252805723234300,9.768234375,-5.334554270550608,-5.531626994702219,-1.4134472867593169
1684252805733260000,9.778260009765624,-5.176465064787864,-5.775584219625592,-1.2679780547253787
1684252805743286300,9.788286376953126,-4.79473515368253,-6.07764408942759,-1.4004749924615025
1684252805753311200,9.798311279296875,-4.461371798600256,-6.306967808842659,-1.6554282431736587
1684252805763337500,9.80833740234375,-4.139885636055469,-6.5423150263309475,-1.7258805204071104
1684252805773363500,9.818363525390625,-3.733656074465811,-6.877406228119135,-1.7693058206357062
1684252805783389400,9.828389404296875,-3.268585324589908,-7.304396545925736,-1.654661642715335
1684252805793415400,9.83841552734375,-2.8653441311612724,-7.726880784484743,-1.377333916979283
1684252805803441400,9.84844140625,-2.625922796101868,-7.906745184203982,-1.0327204152166842
1684252805813466400,9.85846630859375,-2.5892086839497086,-7.773015343672037,-0.7038749759502708
1684252805823492400,9.868492431640625,-2.46022223855257,-7.393861128273606,-0.5198921811267734
1684252805833518300,9.878518310546875,-2.2395970816388724,-6.7844847833156585,-0.3185734899684787
1684252805843544300,9.88854443359375,-1.8916509283222256,-6.001929215490818,-0.016316051767766473
1684252805853570300,9.8985703125,-1.454231132568419,-4.914798580172658,0.28476474386900663
1684252805863596300,9.90859619140625,-0.8791478831607847,-2.8107272825717926,0.5461623484149575
1684252805873621200,9.918621337890626,2.1870167073130604,1.2866180193960666,0.3415165586605668
1684252805883647200,9.928647216796875,9.322361923956871,7.655528781932592,-1.7158727750033138
1684252805893673200,9.938673095703125,6.527551172441243,13.979752846002578,-6.32716304013133
1684252805903699200,9.94869921875,2.5830115828752516,23.113459161019325,-13.038581418192386
1684252805913725200,9.95872509765625,-0.4790262099921703,29.315713380455968,-17.22428421804905
1684252805923751400,9.96875146484375,-2.9332535920441147,24.85613401823044,-12.000664603376388
1684252805933776100,9.978776123046876,-3.35398894110918,16.101016685944796,-6.098820732969045
1684252805943802400,9.98880224609375,-2.1610171736598014,8.972123421919346,-3.6473204377934336
1684252805953828400,9.998828369140625,-0.8680454013228416,3.5102082613468166,-1.6151403641879558
1684252805963854300,10.008854248046875,-0.042457331979274746,-0.6439782872617245,0.004048983129858971
1684252805973880300,10.01888037109375,0.4843933265158906,-3.789413909783959,1.325884738640487
1684252805983906300,10.02890625,0.6584340981155633,-6.012188159176707,2.5195742989704013
1684252805993931300,10.03893115234375,0.6251525907605886,-7.54810885617733,3.4254438195139167
1684252806003957200,10.048957275390626,0.667362669980526,-8.642629017224907,4.050936017492413
1684252806013983200,10.058983154296875,0.8413876960217952,-9.275411372211575,4.708172722516954
1684252806024009200,10.06900927734375,0.6270628082960844,-9.444424707570672,4.927506670576333
1684252806034035200,10.07903515625,0.09961484149489551,-9.09190364755392,4.912735802423954
1684252806044061200,10.089061279296875,-0.1260234674056992,-8.465768475496768,4.894641342806816
1684252806054086100,10.099086181640626,-0.12538926115538923,-7.40694623529613,4.548389280056953
1684252806064112000,10.109112060546876,-0.17214984328653662,-5.243665792879462,3.6499531243845817
1684252806074138000,10.11913818359375,-0.041702714219689366,-2.0854805788993835,2.4560616117417813
1684252806084164000,10.1291640625,0.034525443001464005,2.295432658368349,0.8351938098177313
1684252806094190300,10.1391904296875,0.03189918615110218,6.394820864340662,-0.5701932123437523
1684252806104216300,10.14921630859375,-0.04149805849306285,8.873208874180913,-1.1841449023932218
1684252806114241300,10.1592412109375,-0.030563553633168337,9.72451298406124,-0.9010133126839995
1684252806124267300,10.169267333984376,0.3959931219965219,8.812907257953286,0.10087620320022106
1684252806134293200,10.179293212890625,0.6850741946946829,6.473728396838903,1.1189090446338057
1684252806144319200,10.1893193359375,0.7619231141626834,3.802499016806483,1.579540643018484
1684252806154345200,10.19934521484375,1.0440034412533044,1.4503642280071973,1.9188181905806063
1684252806164371200,10.20937109375,1.6418460002839563,-0.12129998254776,2.229106959545612
1684252806174396200,10.219396240234374,2.0492929748393593,-0.9436310959219932,2.2421210471585393
1684252806184422100,10.229422119140626,2.173237188285589,-1.4555723180443048,2.0638912629038093
1684252806194448100,10.2394482421875,2.143619610265642,-2.010832457411289,1.9342621356889604
1684252806204474000,10.24947412109375,1.9801333677649497,-2.4907635072886944,1.7128925901487468
1684252806214500000,10.2595,1.7197307656057177,-2.6967940293997525,1.3003504844114184
1684252806224526000,10.269526123046875,1.4601638836182653,-2.67882056581378,0.6874804521188139
1684252806234551300,10.27955126953125,1.2783483498312531,-2.3995792615413665,-0.05921060612052679
1684252806244577300,10.289577392578124,1.373841544818878,-1.5820973417639732,-0.7846347121864556
1684252806254603300,10.299603271484376,1.659061485109478,-0.37339609026312826,-1.1547916743978857
1684252806264629200,10.309629150390625,2.00290400249958,0.6222410872280597,-0.9543810379952192
1684252806274655200,10.3196552734375,2.399733575320244,1.1918635139465332,-0.3725929571866989
1684252806284680400,10.329680419921875,2.661644974607229,1.2625947542518376,0.41490532773733135
1684252806294706400,10.33970654296875,2.7901132413491605,0.9771651167333125,1.3640645394310353
1684252806304732400,10.349732421875,2.849639489290118,0.5616834504127503,2.1681544781938196
1684252806314758400,10.35975830078125,2.9749571830466386,0.11679273425638675,2.6461066292136906
1684252806324784400,10.369784423828126,3.1004338667571543,-0.32426760995686055,2.8868168350398538
1684252806334810400,10.379810302734375,3.188521900054812,-0.7061316688358783,2.9008775090962646
1684252806344835300,10.38983544921875,3.256513486263156,-1.0112871665656566,2.608289231994748
1684252806354861300,10.399861328125,3.2965219637855885,-1.1623089181602,1.9243813776656984
1684252806364887300,10.40988720703125,3.322885070054233,-1.2112982822567224,1.1182932508230208
1684252806374913300,10.419913330078124,3.3034932641029355,-1.2379074722409247,0.27137071702778337
1684252806384939300,10.429939208984376,3.3614486094653606,-1.1570412068903446,-0.4181272123932838
1684252806394965200,10.43996533203125,3.5575761617213484,-1.04458971670866,-0.8414359190776943
1684252806404990200,10.449990234375,3.812741593879461,-1.0746078383535147,-1.1134843892365693
1684252806415016200,10.46001611328125,3.5055274100542064,-0.9064970047920942,-1.0967974583297968
1684252806425042200,10.470042236328124,2.639067232096195,-0.6563356645315885,-0.5140653746694326
1684252806435068400,10.480068359375,1.965115831375122,-0.6682879681318998,0.0753945559412241
1684252806445094400,10.490094482421876,1.550983826097846,-0.05570961226224899,-0.004808277064561843
1684252806455120400,10.500120361328126,1.3630781587421894,2.044809545814991,-0.5769254432082176
1684252806465145300,10.510145263671875,0.46269466839432716,5.099713833540678,-1.758049536475539
1684252806475171300,10.52017138671875,-0.9222668208539485,8.818104242074488,-3.9712124924361705
1684252806485197300,10.530197265625,-1.8635089758127927,12.225269477576017,-5.93586655151844
1684252806495223300,10.540223388671874,-3.197804692184925,13.87167124146819,-6.430099682992696
1684252806505249300,10.550249267578126,-5.661667333066463,13.025011158001423,-6.013688042345643
1684252806515275300,10.560275146484376,-10.326455964148044,9.824994634985924,-4.985874688392878
1684252806525300200,10.57030029296875,-12.084449971044062,5.550950119331478,-2.993103372851014
1684252806535326200,10.580326171875,-8.791011652487516,1.2328805839896202,-1.761852728150785
1684252806545352200,10.590352294921875,-5.437678544938564,-1.9094103107661007,-0.66229165032655
1684252806555378200,10.600378173828124,-4.100191923570633,-4.084513877445459,1.1333879441022872
1684252806565404200,10.610404052734374,-3.001053455072641,-5.607984842717647,2.6749080685451627
1684252806575430100,10.62043017578125,-2.3669664472281933,-6.453328582888841,3.4503795233279466
1684252806585455000,10.630455078125,-2.36302340869084,-6.864588247600198,3.7803099813520906
1684252806595481000,10.640481201171875,-2.296163602991402,-6.723242671367526,3.937804728353023
1684252806605507000,10.650507080078125,-1.9188580841995775,-6.023469431647658,3.554039804288745
1684252806615533000,10.660532958984374,10.739527062195538,-2.6391449735075234,0.43900136585682625
1684252806625559000,10.67055908203125,19.419833775907755,2.5367799930542705,-0.8495718792602419
1684252806635585000,10.6805849609375,8.76209769269228,3.663973758691549,0.8474933194205164
1684252806645610000,10.69060986328125,2.300406939649582,3.7689410305976865,1.3477657310590148
1684252806655636000,10.700635986328125,-2.5765207595512267,4.6706081310153005,1.3560396384075284
1684252806665662000,10.710661865234375,-5.654540842187404,6.28018326229155,0.8014113672032952
1684252806675688000,10.72068798828125,-7.197334932088851,7.8700810486733905,0.4134574670165777
1684252806685714000,10.7307138671875,-6.554761835449933,8.588006615677475,0.14239362398087976
1684252806695739100,10.7407392578125,-1.5068597299501298,8.151633552497625,0.9862328048080206
1684252806705765000,10.75076513671875,3.0795813406035304,6.489975767284632,3.0988366606935855
1684252806715791000,10.760791015625,2.74755478708297,3.78639134709239,4.426540431454778
1684252806725817000,10.770817138671875,0.700054102487862,1.665996691200137,4.360339235794544
1684252806735843000,10.780843017578125,-1.5544129237636923,0.32814123651981353,3.831072784861922
1684252806745869000,10.790869140625,-2.614282919451594,-0.24512977583408355,2.9050778833955526
1684252806755894300,10.800894287109376,-2.678389480920136,-0.07608487629294396,1.5630135788485406
1684252806765920300,10.810920166015626,-3.4465821768715976,0.48135026902556416,0.4731859595313668
1684252806775946200,10.8209462890625,-4.864357848224044,0.9194780669182538,-0.12346534388810396
1684252806785972200,10.83097216796875,-5.783799674785137,1.5761270351827144,-0.35657355027794835
1684252806795998200,10.840998291015625,-5.215679469323158,2.6015485255628823,-0.051073476894199846
1684252806806024200,10.851024169921875,-3.1656033812820907,3.586161620214581,0.3616065760090947
1684252806816049200,10.861049072265626,-1.4285861114412546,3.825658943119645,0.6032862113893032
1684252806826075100,10.8710751953125,-1.0324684862822293,2.9253017562568187,0.47491745949909087
1684252806836101000,10.88110107421875,-1.4288289802864194,1.5042553926706312,-0.04001081560999155
1684252806846127000,10.891127197265625,-2.271169154727459,0.4045090214073658,-0.37387247560322284
1684252806856153000,10.901153076171875,-3.573588262106478,-0.5020084416508674,-0.41965661391764875
1684252806866179000,10.911178955078125,-4.59909509268254,-1.4813421345949171,-0.5214325424365699
1684252806876204000,10.9212041015625,-5.218052628195285,-2.425167876306176,-0.7221046062543988
1684252806886230000,10.93122998046875,-5.358167785850167,-3.3325989470779893,-0.9159279732212424
1684252806896256000,10.941256103515625,-5.069597512218356,-4.098633588212728,-1.1347328559052199
1684252806906282200,10.9512822265625,-4.654135135120153,-4.597755660772323,-1.4238384785227476
1684252806916308200,10.96130810546875,-4.402237764847278,-4.926937930777669,-1.8148387606680392
1684252806926334200,10.971334228515625,-4.484195332565903,-5.155415262496471,-2.2098570462830365
1684252806936359200,10.981359130859374,-4.655961766025424,-5.411055910950899,-2.4817998641103505
1684252806946385200,10.99138525390625,-4.60429850654453,-5.720835561349988,-2.565281572656333
1684252806956411100,11.0014111328125,-4.425573339988291,-6.012810090467333,-2.4638114952161905
1684252806966437000,11.01143701171875,-4.296570527978242,-6.218475286397338,-2.1315444109380244
1684252806976463000,11.021463134765625,-4.2929929617524145,-6.254881647774576,-1.6633163660749792
1684252806986489000,11.031489013671875,-4.538244902661442,-6.057368778640032,-1.209152867725864
1684252806996514000,11.04151416015625,-4.744644842606783,-5.724284825021028,-0.9630375149205327
1684252807006540000,11.0515400390625,-4.676728659722209,-5.548745302763581,-0.7945153971444815
1684252807016566000,11.06156591796875,-4.427767342901229,-5.495871206188202,-0.7942262780047953
1684252807026592000,11.071592041015625,-4.245399143667519,-5.4908110001891846,-0.8818152026738971
1684252807036618000,11.081617919921875,-4.264855247026682,-5.358035099381208,-1.089501163841784
1684252807046643000,11.091642822265625,-4.530439781868457,-4.886078097122907,-1.508360782162845
1684252807056669000,11.1016689453125,-4.833213937419653,-4.020288365772366,-2.141391120561212
1684252807066695000,11.11169482421875,-4.783383738584816,-2.640221662828326,-2.8329280084639787
1684252807076721200,11.12172119140625,-4.289882136255502,-0.3277203807592392,-3.1208105920925733
1684252807086747100,11.1317470703125,-3.293243088245392,2.740392932629585,-2.8641759641647337
1684252807096773000,11.141773193359375,-2.1839690101802347,5.226099741050601,-2.7363226144507524
1684252807106798000,11.151798095703125,-1.352894764510542,7.831391544795036,-2.817802043263614
1684252807116824000,11.161823974609375,4.780665419536828,13.551920232152938,-4.780003740757704
1684252807126850000,11.17185009765625,35.870083586239815,32.258682895350454,-8.89173178834319
1684252807136876000,11.1818759765625,18.789140502154826,38.07523216257095,-9.773981656107306
1684252807146902000,11.191902099609376,-0.7564518431447446,27.89660646049976,-5.66827476850748
1684252807156928000,11.201927978515625,-6.632413230407238,16.08549061551094,-2.644815712620318
1684252807166953000,11.211952880859375,-4.233483957207203,6.647217416307329,-2.1358973454505206
1684252807176979000,11.22197900390625,-1.5416038572035728,-0.6269932501912117,-0.7131392095103859
1684252807187005000,11.2320048828125,0.2889852841734886,-6.976641678375005,1.571530355042219
1684252807197031000,11.242031005859374,-0.6378349622011185,-8.305787172377109,2.0337588672295213
1684252807207057000,11.252056884765626,-0.7318481477640569,-8.402771628835797,2.13415400891453
1684252807217083000,11.262082763671875,-0.8049694980762898,-8.806509081348777,2.340830427713692
1684252807227108000,11.272108154296875,-0.9220129922233521,-9.237675808057189,2.4368635747969147
1684252807237134000,11.282134033203125,-1.0349309308730066,-9.560907060703634,2.543707746490836
1684252807247160300,11.292160400390625,-1.1835329810399562,-9.577946458309889,2.4817642082750795
1684252807257186000,11.30218603515625,-1.331239251410961,-9.261447144266963,2.270497246815264
1684252807267212000,11.3122119140625,-1.4361900105737149,-8.69150615311861,1.9599054032504557
1684252807277238000,11.322238037109376,-1.3246154493570328,-7.588238621991873,1.660681341396272
1684252807287263200,11.33226318359375,-1.08492991040349,-5.7905193384289735,1.0761407470092177
1684252807297289200,11.342289306640625,-0.9597299247425048,-3.0963036350846287,0.3680740184575319
1684252807307315200,11.352315185546875,-0.9292015154879539,0.1822200229346752,-0.22571546579003332
1684252807317341200,11.362341064453124,-0.9543032235186546,3.296303060337901,-0.46592970479279755
1684252807327367200,11.3723671875,-1.0583856023490428,5.855674239906668,-0.14547756147086618
1684252807337393200,11.38239306640625,-1.0741209316194056,7.631836940699816,-0.12653408380895853
1684252807347418000,11.392418212890625,-1.2977180900812149,8.71420430713892,-0.15654051501601934
1684252807357444000,11.402444091796875,-1.7389140433728694,8.307024605217576,0.5117535905957221
1684252807367470000,11.412469970703125,-1.9402280583560465,5.415290187519789,1.4432918054029344
1684252807377496000,11.42249609375,-1.7970505905210972,2.2116946369737387,1.962765761117637
1684252807387522000,11.43252197265625,-1.1210498560547828,-0.2632382639765739,2.332449552859366
1684252807397547000,11.442547119140626,-0.43273090728521346,-1.889030955082178,2.4898811714962124
1684252807407573000,11.452572998046875,-0.041845328427618365,-2.7067531133562324,2.469435764838755
1684252807417599200,11.46259912109375,0.06435355849955231,-3.1729414690852162,2.295268407717347
1684252807427625200,11.472625244140625,-0.13030101686073467,-3.311217136353254,1.7956550445094703
1684252807437651200,11.482651123046875,-0.3652811728686094,-3.000087824910879,1.0179340572342277
1684252807447677200,11.49267724609375,-0.36994974920153617,-2.4131477681666613,0.08645371009409428
1684252807457702100,11.5027021484375,-0.2253513451853767,-1.6523849299550055,-0.9327730172991752
1684252807467728100,11.51272802734375,-0.06533091563172638,-0.8149778280019759,-1.8571575609594582
1684252807477754000,11.522754150390625,0.08069273541457951,-0.0719219113945961,-2.5888304982870816
1684252807487780000,11.532780029296875,0.16952946818768977,0.33255262322127815,-2.7585537354812026
1684252807497806000,11.54280615234375,0.3711760030608624,0.2367179213196039,-2.35267693285197
1684252807507832000,11.55283203125,0.7446360254056751,-0.10985913560092449,-1.66118870639652
1684252807517857000,11.56285693359375,1.1899435056693852,-0.3285819660246372,-1.1194897671312094
1684252807527883000,11.572883056640626,1.5886638606727121,-0.36083354580998417,-1.0621446626216173
1684252807537909000,11.582908935546875,1.9652498330183326,-0.18008242638409136,-1.236689036361873
1684252807547935000,11.59293505859375,2.2494519745685158,0.07569792280197143,-1.409759830418229
1684252807557961200,11.602961181640625,2.364401126784831,0.4001870665550232,-1.4278157115906476
1684252807567986200,11.612986083984374,2.357661589396745,0.6709533879488706,-1.156594339905679
1684252807578012200,11.62301220703125,2.213770420334488,0.7684960628122091,-0.8000874251231551
1684252807588038400,11.633038330078126,2.1509916003383696,0.6575351034492254,-0.45262452527880664
1684252807598064400,11.643064453125,2.3650433702111244,0.2817220151722431,0.007611059525609016
1684252807608090400,11.65309033203125,2.843641710180044,-0.26661387788951396,0.4224585195958614
1684252807618116400,11.663116455078125,3.33666371229887,-0.6494973429441452,0.7745651535928249
1684252807628141300,11.673141357421875,3.4122792175143957,-0.7307476391762494,1.0034954897761343
1684252807638167300,11.683167236328124,3.045636985425651,-0.6641226651459932,1.132616082946956
1684252807648193300,11.693193359375,2.6231343344271183,-0.472736169937253,1.163757947924733
1684252807658219300,11.70321923828125,2.2857513684399424,-0.1312818628579378,1.0710063067302107
1684252807668245200,11.713245361328125,1.9360605634130537,0.24466741901934144,0.9432280680790543
1684252807678271200,11.723271240234375,1.6563140860974788,0.3760603410363197,0.7105570840626955
1684252807688296200,11.733296142578125,1.446407599335909,0.24829671543240545,0.44296062487661836
1684252807698322200,11.743322265625,1.3154887245714664,0.2466530398786068,0.36847266238629817
1684252807708348200,11.75334814453125,1.077425233861804,0.277328164127469,0.4962438867747783
1684252807718374100,11.7633740234375,0.8233955277353525,-0.03455518055260181,1.0281108755946158
1684252807728400100,11.773400146484375,0.6895522899568081,-0.14464578682184218,1.4951871200740336
1684252807738426400,11.78342626953125,0.6625397798687219,0.3020867578089237,1.5316636240780352
1684252807748451300,11.793451416015625,0.5641397575236856,1.561381301471591,1.0541437269955873
1684252807758477600,11.8034775390625,0.49659642653949554,3.260373084300756,0.5873787404224277
1684252807768503600,11.813503662109374,0.2888900801707059,5.012351776430011,-0.18247428995668888
1684252807778529300,11.823529296875,-0.045267128702998156,6.54622664681673,-1.3117875319659709
1684252807788555300,11.83355517578125,-0.033738018950819966,7.910494892126321,-2.8971850843191147
1684252807798581200,11.843581298828125,0.073180971544981,7.744886396774649,-3.3971526677921413
1684252807808606500,11.8536064453125,0.19834230569601058,5.451414224824309,-2.7994164917454123
1684252807818632400,11.863632568359375,0.23985273048030212,3.146455028697848,-2.1898069225534798
1684252807828658400,11.873658447265624,0.19589082089066504,1.1904168222695588,-1.2351102427378295
1684252807838684400,11.883684326171876,9.450631160995364,-0.6540244649797677,-2.4193460382848975
1684252807848710400,11.89371044921875,14.175302306109666,-1.632163979703188,-4.095396505987644
1684252807858736400,11.903736328125,1.859116293811798,-0.33733342775702474,-0.7238263154804706
1684252807868761300,11.91376123046875,-2.806750195634365,-0.09743804544508457,1.7140116573065518
1684252807878787300,11.923787353515625,-3.617593115788698,-0.5672305631458759,2.2448504721224305
1684252807888813300,11.933813232421874,-4.60645334649086,-0.8101403248429297,2.6902345247536896
1684252807898839300,11.94383935546875,-5.769941829824448,-0.7797305735319853,3.277566795685887
1684252807908865500,11.953865478515626,-6.883654767119884,-0.33634266315400596,3.424734794461727
1684252807918890200,11.96389013671875,-7.183839490699768,1.1500865654468535,2.551749598649144
1684252807928916500,11.97391650390625,-6.905405995678901,2.7615175537228582,0.7625327704936266
1684252807938942500,11.9839423828125,-6.100699386322498,3.732290923592448,-1.654642353492975
1684252807948968400,11.993968505859375,-5.384847118461132,3.8403988316118713,-1.9333464821487665
1684252807958994400,12.003994384765624,-4.742990937919915,3.6666327487677335,-2.5521590562328695
1684252807969020400,12.0140205078125,-4.121695607109368,3.0071476802945134,-2.440958442895114
1684252807979045400,12.02404541015625,-3.4654283316388725,1.7172727049291132,-1.9023986784383653
1684252807989071400,12.0340712890625,-2.5624814205437896,0.7085463287621736,-1.4400804421409963
1684252807999097300,12.044097412109375,-1.6594968077868222,-0.06580430529713631,-0.9666913612529635
1684252808009123300,12.054123291015625,-0.868995833915472,-0.6912351284772157,-0.23559505476951598
1684252808019149300,12.0641494140625,-0.3161331110790372,-1.088167577150464,0.30108459502905605
1684252808029175300,12.07417529296875,-0.0600727759078145,-1.413476805114746,0.8909148202568292
1684252808039200300,12.0842001953125,-0.03698737613558769,-1.8518197070628404,1.8935414182439445
1684252808049226200,12.094226318359375,0.053176002131402486,-1.8014719140946864,2.6888094603866337
1684252808059252200,12.104252197265625,0.057171501508355135,-1.4324427868694065,3.594750584861636
1684252808069278200,12.1142783203125,-0.36147009014785286,-1.0506962168902159,4.632456095014512
1684252808079304400,12.124304443359375,-1.2380424967974424,-0.48918636947870253,5.6248886312454935
1684252808089330400,12.134330322265624,-2.1085621792793274,0.34724984161555766,5.853206973010301
1684252808099355100,12.144355224609376,-2.8291677791476246,1.1265677426934242,5.769809727877378
1684252808109381400,12.15438134765625,-3.711119248487055,1.6959791570097207,5.382155395159125
1684252808119407400,12.164407470703125,-4.482233092582225,2.2175334261298176,4.999955820715427
1684252808129433300,12.174433349609375,-4.7771994969919325,2.475980364176631,4.595371395984292
1684252808139459300,12.184459228515625,-4.541273602832853,2.472529931461811,3.790286600965261
1684252808149484300,12.194484375,-3.730125562252104,2.678906490531564,2.6490648944973945
1684252808159510300,12.20451025390625,-2.570226335582137,2.9125714540213345,1.7594658330142496
1684252808169536300,12.214536376953125,-1.7269325136780738,2.577160518759489,1.0173869447454809
1684252808179562200,12.224562255859375,-1.160607959461212,1.8930267467200754,0.1584425492450595
1684252808189588200,12.234588134765625,-0.7679539187595248,1.2466378911852836,-0.6321633463054895
1684252808199614200,12.2446142578125,-0.40544864034503697,0.7026438267201185,-1.0759680207908153
1684252808209639400,12.254639404296874,0.02598638191074133,0.37141456105709075,-1.136512213602662
1684252808219665400,12.26466552734375,0.2752548649847507,0.19976737006306647,-1.3873510147333143
1684252808229691400,12.27469140625,0.13538257617503405,-0.33827100086808204,-1.4075056217506527
1684252808239717000,12.284717041015625,-0.8000441705033182,-1.697201976802945,-0.7849228814780712
1684252808249743000,12.2947431640625,-1.3236615096330642,-2.3479402597188948,0.14379881460368632
1684252808259769300,12.304769287109375,-1.2336115286126732,-2.0333874035686255,1.0731909572929144
1684252808269794300,12.314794189453124,-0.5487082335054874,-1.0971616154670714,1.9620657961547374
1684252808279820500,12.324820556640624,-0.346829570376873,-0.23385317953824997,0.6478273639053106
1684252808289846500,12.334846435546876,-0.7758186607852577,-0.16946575530171393,-0.8473813834786414
1684252808299872500,12.34487255859375,-1.710466239784658,-0.5884475386977195,-1.9700930352658033
1684252808309898500,12.3548984375,-2.2119132481604815,-0.8222001804709435,-3.6381133412480353
1684252808319923500,12.36492333984375,-1.936323744393885,-0.6659288377851248,-4.732727025797963
1684252808329949400,12.374949462890624,-1.5151792300060392,-0.1921674164533615,-4.4312423255354165
1684252808339975400,12.384975341796874,-1.5473045530632137,0.2395890928417444,-2.478791914466023
1684252808350001400,12.39500146484375,-2.2430209186077117,0.41978140934109687,0.7883794516727328
1684252808360027400,12.40502734375,-3.232523246605694,1.0981330908477305,3.3678099611908197
1684252808370053400,12.415053466796875,-3.7964521378576754,1.9713088407963513,3.5656776351124044
1684252808380078300,12.425078369140625,-3.8606621597006914,1.8963491691410541,2.034712514692545
1684252808390104300,12.435104248046875,-3.6746047505602237,1.1607903302907943,-0.16207973670363426
1684252808400130300,12.44513037109375,-3.5166575836166736,0.6469663631618022,-1.9041624732404947
1684252808410156300,12.45515625,-3.6931656586453316,0.3633738779425621,-2.342020222020149
1684252808420182300,12.465182373046876,-3.660603697736561,0.2021101337969303,-1.5392816978663204
1684252808430208500,12.47520849609375,-3.7737504767060277,0.21473346852660177,-0.5980652618706226
1684252808440233200,12.485233154296875,-5.42668251914978,0.49624447129666804,0.021541969722509383
1684252808450259500,12.495259521484375,-9.184980575180052,0.35208383764326573,0.05240472549796104
1684252808460285400,12.505285400390624,-10.402256762802601,0.9885019187837839,-1.567535732448101
1684252808470311400,12.5153115234375,-9.906107568573951,1.812142361190915,-3.2978029435068366
1684252808480337400,12.52533740234375,-8.346811256682873,1.236840135270357,-4.112121430817246
1684252808490363400,12.53536328125,-5.333266568827629,-0.32733342726826664,-2.887988216906786
1684252808500388400,12.545388427734375,-2.4441642531991,-1.2825193519055842,-0.9979010307699442
1684252808510414300,12.555414306640625,-0.4344352269850671,-0.3837497264951467,-0.18208499837815761
1684252808520440300,12.5654404296875,-0.11397482729144394,0.7558902637392282,-1.5762252348601817
1684252808530466300,12.57546630859375,-0.36252979180123657,1.5215274299889803,-2.9838270104616877
1684252808540492300,12.5854921875,0.16083704316616057,1.692332324939966,-2.3064088104128837
1684252808550518300,12.595518310546876,5.007836344832182,1.4253238947749136,-0.38766543863415714
1684252808560543500,12.60554345703125,12.563655044734478,0.23692425754666327,1.6829378891289233
1684252808570569500,12.615569580078125,10.137906738191843,-0.28469138637185093,1.9812398677021263
1684252808580595500,12.625595458984375,4.372881321981549,0.13161679390072822,0.18096271634995936
1684252808590621400,12.635621337890624,1.5335972224891186,0.8373492342859506,-1.132732110542059
1684252808600647700,12.645647705078124,0.1761030744243413,1.1770365316927431,-0.23829262329041956
1684252808610672400,12.65567236328125,-0.6745358495455235,1.6667133150368927,1.4536176768451927
1684252808620698600,12.66569873046875,-1.3138111467480658,1.6566168684363365,0.6898474735110998
1684252808630724600,12.675724609375,-1.13089773472175,1.4224901326537132,-1.860738926577568
1684252808640750600,12.68575048828125,-0.45694005039036273,1.9172551790475845,-2.6516742002129554
1684252808650776600,12.695776611328125,0.42851372798159715,2.3848738598406314,-1.1848247013509272
1684252808660802600,12.705802490234374,1.4066016586482524,2.3736890334814786,0.135377023217082
1684252808670827500,12.71582763671875,1.884131492602825,1.8464461973309516,-0.10945932262837886
