time,seconds_elapsed,z,y,x
1684253166881895400,0.0128955078125,-2.762155851626396,3.2511186414822935,0.729135235543549
1684253166891921400,0.02292138671875,-3.440548449665308,3.4431048561498523,1.3396633808851242
1684253166901947100,0.032947021484375,-3.6033676065593956,3.0678873956784605,1.5250158566266296
1684253166911972400,0.042972412109375,-3.203815330776572,3.687491412401199,2.014782656341791
1684253166921998300,0.052998291015625,-2.572786541458964,5.168550638401508,2.1168469002828
1684253166932024300,0.0630244140625,-2.5459260070621967,4.150291586996615,1.8031544603541492
1684253166942049300,0.07304931640625,-2.9265327593564985,1.3479320275366307,1.2289862068995834
1684253166952075300,0.0830751953125,-2.6376024202406403,-0.8729594768494368,0.7135538547258824
1684253166962101200,0.093101318359375,-2.2206442516267297,-1.6071254000365733,0.38123387121669944
1684253166972127200,0.103127197265625,-1.0743787057727574,-2.120558322021365,-0.8587547181472182
1684253166982152200,0.113152099609375,0.6914893954992294,-2.06521403594017,-2.803268198737502
1684253166992178200,0.12317822265625,3.9731928525984284,-1.5582874271094798,-3.589528466299176
1684253167002204200,0.1332041015625,4.634288863399624,-0.8079606427162885,-2.3358732436977325
1684253167012229000,0.14322900390625,4.128120963981748,-1.4714853419691323,-0.8696911957684904
1684253167022255000,0.153255126953125,-0.6983797395348549,-3.5425136171460148,-0.760472184702009
1684253167032281000,0.163281005859375,-8.984978227317333,-7.697747628980874,-6.964160966986418
1684253167042306300,0.173306396484375,-8.49873843268454,-6.5789680559456345,-7.361554603430628
1684253167052332300,0.183332275390625,-1.7691963689118622,0.7856541183620691,2.682397547517717
1684253167062358000,0.19335791015625,-1.4226456154763698,4.751687746855616,6.03691285058856
1684253167072383200,0.20338330078125,-2.075233325651288,5.893796173030138,2.322956332848966
1684253167082409200,0.2134091796875,-1.4020634306967257,5.907211534920335,0.20872012652121483
1684253167092435200,0.223435302734375,-0.141930682644248,5.813181836614012,-0.6640647974789142
1684253167102460200,0.233460205078125,1.2349743413984775,6.113130997872352,-1.1384943273305892
1684253167112486100,0.243486083984375,3.1449031230807303,6.822236129561066,-1.7878183595344423
1684253167122512100,0.25351220703125,4.7683384374052284,7.420887666887045,-2.912386160582304
1684253167132537000,0.263537109375,5.950621637579799,7.719100213611125,-4.479657104614377
1684253167142563000,0.27356298828125,6.965888229170441,8.091412600290775,-5.297994179916381
1684253167152589000,0.283589111328125,7.895256990984082,8.624149357682466,-4.940979315611719
1684253167162614000,0.293614013671875,8.176286347717046,9.13575155710876,-4.340473674851656
1684253167172640000,0.303639892578125,8.273774077522754,9.886633637297153,-4.157074086743593
1684253167182666200,0.313666259765625,8.147949311026931,10.208780017316341,-4.4583395912975075
1684253167192691200,0.323691162109375,7.755574379527569,9.647102412122488,-4.259145637208223
1684253167202717200,0.33371728515625,7.459358559578657,8.840990612143278,-3.6157086172163484
1684253167212743200,0.3437431640625,6.9269888819336884,8.32732563496828,-3.9906244643926616
1684253167222768000,0.35376806640625,6.071755031388998,7.691924621915817,-4.347612440690398
1684253167232794400,0.36379443359375,5.132621246886253,7.121925178578495,-4.204533757054805
1684253167242820400,0.3738203125,3.8200539627194403,6.929509924843907,-3.623388065803051
1684253167252845300,0.38384521484375,2.3544740454018114,7.11967886095643,-3.316840236932039
1684253167262871300,0.393871337890625,0.7223981823734938,6.997164241921901,-3.3958559059798716
1684253167272897300,0.403897216796875,-0.9710616852916777,6.987120402291417,-2.340382976207137
1684253167282922200,0.413922119140625,-2.583137839603424,7.067195809525251,-0.17456804687678812
1684253167292948200,0.4239482421875,-3.241124778473377,6.899734964305162,2.705702142998576
1684253167302974200,0.43397412109375,-3.236411778476834,7.0535022152155635,5.285884639927745
1684253167312999200,0.443999267578125,-3.0069816760778427,6.764595841497182,6.902534824156761
1684253167323025200,0.454025146484375,-3.004311580085754,5.676675517106056,7.743755346918106
1684253167333051100,0.464051025390625,-2.6448516607165335,3.7975446092694995,8.773298885664344
1684253167343077000,0.4740771484375,-1.879513769674301,2.208422191174328,10.279570294332503
1684253167353102000,0.48410205078125,-0.9080863928753882,1.2555883826211094,11.861080776119232
1684253167363128000,0.494128173828125,0.04575630045942962,-0.0183212541103363,12.643652710556983
1684253167373154000,0.504154052734375,0.9952046312928199,-1.713243011021614,12.881043416571616
1684253167383179300,0.51417919921875,1.2498176902651785,-2.578357035067677,14.214423187142609
1684253167393205200,0.524205322265625,0.8539245215117931,-2.4367355645030737,15.394047981762885
1684253167403231200,0.534231201171875,0.15691373224258423,-2.668811797496676,16.194432636266946
1684253167413256200,0.544256103515625,-0.37199444330427794,-3.354658803194761,16.752580898290873
1684253167423282200,0.5542822265625,-0.5000047006130218,-4.073121545815468,16.23077353119254
1684253167433308200,0.56430810546875,-0.11656418619751929,-4.814812603810429,15.266335794085263
1684253167443333000,0.5743330078125,0.49801206549108024,-5.52427838550508,14.381133506256342
1684253167453359000,0.584359130859375,1.006528573861718,-5.6982227475255725,12.956424528509377
1684253167463385000,0.594385009765625,1.395436706033349,-5.585263307821751,11.321295853781699
1684253167473410000,0.60441015625,1.6892507255375384,-5.396904636001587,9.35884076604843
1684253167483436000,0.61443603515625,1.9401567466855048,-5.3980573131680485,7.606957935509085
1684253167493462000,0.6244619140625,2.326268526136875,-5.59100798895359,5.998958090725541
1684253167503487200,0.6344873046875,2.5511644922375676,-5.954285420784354,5.112151874831318
1684253167513513200,0.64451318359375,2.0675953781187535,-5.914928977429867,4.363578071585297
1684253167523539000,0.6545390625,1.4877658840321004,-5.059522692927718,3.2860160596013066
1684253167533564200,0.664564208984375,0.8616076233603059,-3.749759944787621,1.4458657475441694
1684253167543590100,0.674590087890625,1.4243207090817391,-2.515657710048556,-0.10167992079854012
1684253167553616400,0.684616455078125,11.03798160098195,0.8434984045654534,-4.168832913598418
1684253167563641000,0.69464111328125,12.469917607372999,1.483158828628063,-5.675598827785254
1684253167573667300,0.704667236328125,2.2421068725027142,0.5230623355954885,-6.111789520135521
1684253167583693300,0.714693359375,1.6080407613158225,0.47200844018459315,-2.882286205872893
1684253167593718300,0.72471826171875,-0.3144247727911919,-0.9371592695593833,-2.347658520168066
1684253167603744300,0.734744140625,1.763044276022911,-2.060661779463291,-1.873207947528362
1684253167613770200,0.744770263671875,2.9793875667095184,-4.1847570434391494,-0.4679010048657655
1684253167623795200,0.754795166015625,1.640207585427165,-2.8752766193717716,-0.4855974050760269
1684253167633821200,0.7648212890625,2.1947008320748806,-0.8352414483517407,-0.5355132363677024
1684253167643847200,0.77484716796875,3.219136234027147,1.4808257095053792,-1.9614701683491467
1684253167653872000,0.7848720703125,3.2021640564382072,3.710153326064348,-4.054489910581708
1684253167663898000,0.794898193359375,1.6305992146044967,5.24428597060442,-4.179656505429745
1684253167673924000,0.804924072265625,0.3299374722868204,6.572344253891706,-5.650950708740949
1684253167683949300,0.81494921875,-0.9771984344810247,8.16740453760326,-6.792017516908049
1684253167693975300,0.824975341796875,-2.650981541773677,10.250592037129401,-6.48865357877016
1684253167704001300,0.835001220703125,-3.662849138575792,10.785332535558938,-5.110481895792484
1684253167714027300,0.84502734375,-4.347061236548424,9.01594327442348,-2.5917811647862194
1684253167724052200,0.85505224609375,-4.51928242803812,6.329526262131333,-1.1897013674765824
1684253167734078200,0.865078125,-3.130221102255583,2.2103630961090324,-1.0245645812898874
1684253167744104200,0.875104248046875,-1.7219640776157379,-2.419361820375919,-1.2232646143823862
1684253167754129200,0.885129150390625,-1.4897487284123896,-5.1646857796669,-1.6528502093791961
1684253167764155100,0.895155029296875,-2.032957926110178,-4.632143668064475,-0.88087974845469
1684253167774181000,0.90518115234375,-2.049731220126152,-3.340587607744336,0.2492921562105417
1684253167784206000,0.9152060546875,-1.8073557114362715,-2.8300784642517565,1.1392039369046687
1684253167794232000,0.925232177734375,-1.0644415413871406,-1.7167010425209999,2.344057280805707
1684253167804258000,0.935258056640625,0.037503655094653365,1.6722832241237162,4.170794569060206
1684253167814283000,0.945282958984375,0.8149097312018275,5.160640888190269,4.521583690717816
1684253167824309000,0.95530908203125,0.9766400699459016,3.1408927183955906,1.6432400849908588
1684253167834335000,0.9653349609375,1.7643372384428977,2.1983114237874744,-0.04300824386030435
1684253167844360200,0.975360107421875,2.4046821376383303,2.6998019790440795,-0.5057204479113221
1684253167854386200,0.98538623046875,2.949676319056749,3.3210844503730534,-0.7546843950808048
1684253167864412200,0.995412109375,3.28425606419146,3.158995945841074,-0.2963338933706283
1684253167874437000,1.00543701171875,3.2619454481840133,1.9151070611029861,0.21600129650533198
1684253167884463000,1.015463134765625,2.691431041061878,0.4726829784452915,0.7329223528668284
1684253167894489300,1.0254892578125,2.4016683427751064,0.26691958283782,1.5649635438725351
1684253167904514000,1.03551416015625,1.7437112145215272,0.6491916379958391,1.8698142134368418
1684253167914540000,1.0455400390625,1.0578092637658119,1.5277414821982382,2.1273039968892933
1684253167924566000,1.05556591796875,0.466616079621762,1.7618834155499934,1.8617960344150661
1684253167934591000,1.065591064453125,0.19585092727169393,1.3519471083968877,1.6013859796017407
1684253167944617000,1.075616943359375,-0.5606763191968203,0.13218845630884168,1.933999977621436
1684253167954643000,1.085642822265625,-1.2013058805525303,-0.3215805628299713,1.6155927841305733
1684253167964668200,1.095668212890625,-1.220563392599672,0.28957155962884423,0.3772159408122301
1684253167974694000,1.10569384765625,-1.1239419242344797,0.48834407343566416,-0.2870414566293359
1684253167984720000,1.115719970703125,-1.279880820095539,0.23132219975590704,-0.4342474493280053
1684253167994745000,1.1257451171875,-1.62805712890625,-0.6592448299765586,-0.4107558068424463
1684253168004771000,1.13577099609375,-2.0884873594999314,-0.7568611545979976,0.5562716544970869
1684253168014797000,1.145797119140625,-1.9242910690337418,-0.29956746846437454,1.4763216760843991
1684253168024822000,1.155822021484375,-1.4410457800418137,-0.33814357509613036,1.8585756110638378
1684253168034848000,1.165847900390625,-0.9402268404364585,-0.39856735639870167,1.9766765053093431
1684253168044874000,1.1758740234375,-0.5240303038448095,-0.41470074507594107,1.848601329538226
1684253168054900200,1.185900146484375,-0.2993020224612206,-0.850832400715351,1.6003129435427486
1684253168064925000,1.195925048828125,-0.2148895358711481,-0.9837854116559028,1.7237125287182629
1684253168074951200,1.205951171875,0.21461656414866445,-0.5200619847357273,2.1044085667312142
1684253168084977200,1.21597705078125,0.18321082407031208,-1.050056165421009,2.3172519837275147
1684253168095002000,1.226002197265625,0.08108323256950825,-1.9612427893340587,2.656190216332674
1684253168105028000,1.236028076171875,0.02676003316435963,-3.127926269316673,2.943566896265745
1684253168115054000,1.24605419921875,0.09189977360554039,-3.504436107686162,3.1640079287841916
1684253168125079000,1.2560791015625,0.13598788512442261,-3.8337557403355835,3.2977263711392877
1684253168135105000,1.26610498046875,0.4376128341078758,-4.7294034343332045,3.679456866766512
1684253168145131000,1.276131103515625,0.7367927645593881,-5.302955017194152,3.7987697671502825
1684253168155156200,1.28615625,0.8937667025566101,-5.217571566680073,3.6874586791753767
1684253168165182200,1.29618212890625,1.1353256341665983,-4.582064170643687,3.567987665620446
1684253168175208200,1.306208251953125,1.338818746754527,-3.4673826805770394,3.590203589081764
1684253168185233200,1.316233154296875,2.1746020468980074,-1.3253893563389778,2.3686270739167927
1684253168195259100,1.326259033203125,3.9588510235130783,1.7884715627461671,0.2903763001404702
1684253168205285000,1.33628515625,4.449836551368236,4.2191088103741405,0.02412058803886175
1684253168215310000,1.34631005859375,2.965662992739677,5.073156081482768,0.0388081618219614
1684253168225336000,1.356336181640625,1.195977963528037,4.741056462725997,-1.2109721190422773
1684253168235362000,1.366362060546875,0.5191834483355283,4.59722082324326,-2.4113848501473663
1684253168245387000,1.376386962890625,0.31941900088191033,4.485532134127617,-3.530303247131407
1684253168255413000,1.3864130859375,1.6078098751693963,4.40574138905406,-4.067397030688822
1684253168265439000,1.39643896484375,3.6150720728784798,4.053917079129815,-4.048941921065747
1684253168275464000,1.4064638671875,5.941752686947583,3.5585371157079932,-3.421822121885419
1684253168285490000,1.416489990234375,9.131520787671208,3.3677859957933425,-2.6654823608130216
1684253168295516000,1.426515869140625,9.582139233824611,3.0217987214595077,-1.6319295864254235
1684253168305541000,1.436541015625,7.139241639560461,2.025555394768715,-0.9744698862999677
1684253168315567000,1.446567138671875,4.372849173277617,0.8236340126663446,-0.9181810128450393
1684253168325593000,1.456593017578125,2.544983173254132,-0.18583587534427642,-0.8743889251306652
1684253168335618000,1.4666181640625,1.5765367850273846,-1.1358698240458964,-0.7888225192651153
1684253168345644000,1.47664404296875,1.0323748897146432,-1.8118039230167864,-0.8226558152839542
1684253168355670000,1.486669921875,0.5942664906421676,-2.1200515415430066,-1.0942656017646193
1684253168365695000,1.496695068359375,-0.2450145884891972,-2.3547686444342135,-1.3380387022927402
1684253168375721000,1.506720947265625,-1.381467801913619,-2.264760456728935,-1.3868115010291338
1684253168385747000,1.516746826171875,-2.2218927903831003,-1.5881927360296249,-0.8924801698774099
1684253168395772000,1.52677197265625,-2.795973950076103,-0.4612888932496309,-0.16055734944194555
1684253168405798000,1.5367978515625,-3.689686876618862,0.8067559431016444,0.6798173701450229
1684253168415824100,1.54682421875,-4.684935931575298,2.178075275966525,1.7409820818185806
1684253168425849000,1.55684912109375,-4.509836554300785,3.5051702671796083,3.177462745901942
1684253168435875000,1.566875,-0.5883119296193122,5.020169756704568,6.294232245910167
1684253168445901000,1.576901123046875,13.690827183061838,7.479820917370915,13.257753745949268
1684253168455927000,1.586927001953125,9.795258837413787,7.840247051423788,14.973233137720822
1684253168465952300,1.5969521484375,-1.6773207798995076,5.657369343611598,13.293978905540705
1684253168475978200,1.606978271484375,-7.111203293555975,2.945693386900425,11.39595098953247
1684253168486004200,1.617004150390625,-8.129722749462724,-0.32277649461627006,9.015185149532556
1684253168496029200,1.627029296875,-7.867067253810167,-2.9551772545605894,7.001075862407684
1684253168506055200,1.63705517578125,-7.193666472709179,-4.205969342815876,6.167762751770019
1684253168516081200,1.6470810546875,-7.247007602274418,-3.8911943683475254,5.19368741774559
1684253168526106000,1.657106201171875,-8.042894360837339,-3.0827327903717756,3.9795501126706596
1684253168536132000,1.667132080078125,-8.754405384624004,-2.438777299463749,3.2457308109641074
1684253168546158000,1.677157958984375,-8.520452836364507,-1.808983020377159,2.973375174552202
1684253168556183000,1.68718310546875,-7.04892014812231,-1.2485644753336906,2.7423639404416082
1684253168566209000,1.697208984375,-4.406485777680576,-0.651215252777934,2.7333289855927227
1684253168576235000,1.707235107421875,-1.8846411956906317,-0.06926467488408088,3.1474037077248096
1684253168586260000,1.717260009765625,-1.4706976987227796,0.26882278611063953,3.1984470817416906
1684253168596286000,1.727285888671875,-2.671680046409368,0.38726854827105994,2.4870091231912372
1684253168606312000,1.73731201171875,-4.06497652554363,0.3718517834305763,1.2862135302484035
1684253168616337200,1.747337158203125,-5.563911892235279,0.1099409686654806,0.040215106010437006
1684253168626363100,1.757363037109375,-6.44975013988018,-0.32359599430561065,-1.0450737008333206
1684253168636389000,1.76738916015625,-6.440958930659294,-0.8547311617195605,-1.6131097351431847
1684253168646414000,1.7774140625,-5.2702995327830315,-1.501770005595684,-2.010841809761524
1684253168656440000,1.787440185546875,-2.8613419097825883,-2.1335288627535105,-2.2187059770405293
1684253168666466000,1.797466064453125,-0.7027987250208855,-2.3899907644629477,-2.0021260038644075
1684253168676491000,1.807490966796875,0.04737812950760126,-1.8891162952780722,-1.6457459303319453
1684253168686517000,1.81751708984375,-0.43379970556050534,-0.25365327402949334,-1.7195681223899124
1684253168696543000,1.82754296875,-0.6982239644512533,2.2166204029381276,-2.0365145956784487
1684253168706568000,1.83756787109375,-0.13340075470805168,4.613509694743156,-2.431415246263146
1684253168716594000,1.847593994140625,0.40483547688275573,6.0054497908324,-2.6889848169535395
1684253168726620000,1.857619873046875,1.2694222621843219,6.151533501502871,-2.8582085801929233
1684253168736644900,1.867644775390625,1.9482909533023833,5.276510662382841,-2.3733798214018345
1684253168746670800,1.8776708984375,1.2776853558778762,3.769020525574684,-1.8505296672523022
1684253168756697000,1.887697021484375,-0.6421908193230629,2.3952549686014653,-1.6086708759129047
1684253168766722000,1.89772216796875,-2.1376877359986306,1.3416694600105286,-2.0344635083675384
1684253168776748000,1.907748046875,-2.704383461615443,0.5312719455361365,-3.1061160040467977
1684253168786774300,1.917774169921875,-2.628227565912902,-0.08140870166420935,-4.292209117898345
1684253168796799000,1.927799072265625,-2.2575408807389437,-0.3706751408666372,-5.361870732021331
1684253168806825200,1.9378251953125,-2.080719940368831,-0.3981739731669426,-6.258372412499785
1684253168816851200,1.947851318359375,-2.353843930804729,-0.27932898255586625,-6.7568246229738
1684253168826877200,1.957877197265625,-2.868840448844433,-0.16271920365095138,-6.915575507515668
1684253168836902100,1.967902099609375,-3.495973984289169,-0.226801507461071,-7.063873387104272
1684253168846928100,1.97792822265625,-3.6607974667429923,-0.6267290462970734,-7.455218975555896
1684253168856954000,1.9879541015625,-3.3859307242929932,-1.3041489999115465,-7.863090751394629
1684253168866979000,1.99797900390625,-3.1491373996496197,-2.0895412524670363,-7.953440299883485
1684253168877005000,2.008005126953125,-2.868328115408122,-2.8662656299203633,-7.737892007842659
1684253168887031000,2.018031005859375,-2.4973367481991646,-3.535378358438611,-7.2533841515690085
1684253168897056000,2.028055908203125,-2.223708315372467,-3.9942262882769106,-6.534030597588419
1684253168907082800,2.038082763671875,-1.6722085514523088,-4.403603207981586,-5.576430013024806
1684253168917108700,2.048108642578125,-1.0219162587381898,-4.953021635583043,-4.156192627733946
1684253168927133700,2.0581337890625,-0.3844306944966316,-5.473757574057578,-2.4625866295963523
1684253168937159700,2.06815966796875,-1.4677753815352916,-5.543090638002753,0.10891688631474972
1684253168947185700,2.078185546875,-3.4333868874728677,-5.092321969723701,2.804420875903964
1684253168957211000,2.0882109375,-4.786327098560333,-4.274384122872353,4.115940696844459
1684253168967236900,2.09823681640625,-4.889465985995531,-3.126559072616696,4.499516820338368
1684253168977262800,2.108262939453125,-4.011197881343961,-0.6143699154615402,4.773045592182874
1684253168987287800,2.118287841796875,-4.170997398155928,4.576927976799011,4.156945199666917
1684253168997313800,2.128313720703125,1.8135281164608894,17.565007872766255,5.292110382574796
1684253169007339800,2.13833984375,13.261867611008881,35.17080835916996,20.46291893327236
1684253169017364700,2.14836474609375,-17.43495292135477,31.64403942364454,23.004317233777044
1684253169027390700,2.158390625,-19.597600911086797,22.517172014737127,16.98065315634012
1684253169037416700,2.168416748046875,11.582466079312562,8.273468372574449,0.5310886979237198
1684253169047441700,2.178441650390625,58.17470006101131,-4.066417079740763,-17.762343631768225
1684253169057467600,2.188467529296875,30.23448592945337,-5.372771480742097,-13.208462184035778
1684253169067493600,2.19849365234375,6.910362156781554,-2.3154040177732704,-5.355018966430426
1684253169077518600,2.2085185546875,-2.5841321113377806,-0.8845189817398786,-2.1315625311166047
1684253169087544600,2.218544677734375,-4.167801816985011,-1.1885428450912237,-1.6712191020235418
1684253169097570600,2.228570556640625,-3.3601574006110426,-1.335920687225461,-2.0173665353551504
1684253169107595800,2.238595703125,-3.5222809764564036,-1.1661509805411099,-1.9748720862358808
1684253169117621800,2.248621826171875,-4.054153810495138,-0.6390589510381222,-1.506698986430466
1684253169127647700,2.258647705078125,-4.848103463515639,0.05189151527881622,-0.1740250260412693
1684253169137672700,2.268672607421875,-5.390062222760916,0.40918811913430686,1.6768115152031182
1684253169147698700,2.27869873046875,-5.4394449700891965,0.09482464807629584,2.9429598702833055
1684253169157724700,2.288724609375,-4.763872105646133,-0.8407359541147947,3.378013083036244
1684253169167749600,2.29874951171875,-3.164741796016693,-2.445911973649263,3.0603508626937863
1684253169177775600,2.308775634765625,-1.7749603392660618,-3.272231279876828,3.137206138837337
1684253169187801600,2.318801513671875,-1.0152490559339522,-2.6768828757494685,3.711424661174416
1684253169197827600,2.32882763671875,-0.21082714527044444,-1.9181833998084068,3.7452015508309002
1684253169207852500,2.3388525390625,0.5754957391986623,-1.2783727536201477,3.6715883253484964
1684253169217878500,2.34887841796875,1.5490934823065996,-0.6645300769031047,3.4383637991026044
1684253169227903500,2.358903564453125,3.117531132030487,0.07486030293405055,2.94481572728306
1684253169237929500,2.368929443359375,3.9877643987864255,0.5817962641149759,2.285446101883054
1684253169247955700,2.378955810546875,2.849047953137755,0.9006927024275064,2.2246137397795915
1684253169257981700,2.388981689453125,1.5014030719794331,1.1072475406736135,2.066357653017342
1684253169268007000,2.3990068359375,0.9195875186420976,1.1032692846924066,1.4809239091828466
1684253169278033000,2.409032958984375,0.8460979195393622,0.9005974253594875,0.6609519261553883
1684253169288059000,2.419058837890625,0.9190754774667322,0.6140536891192198,-0.3233981336459517
1684253169298083800,2.429083740234375,0.9524404253214597,0.32240123156309125,-1.1343927372306584
1684253169308109800,2.43910986328125,0.9170413412906229,0.03474047399163246,-1.7270649078860878
1684253169318135800,2.4491357421875,0.7629631247349083,-0.14840660066008568,-2.2450500863477587
1684253169328160800,2.459160888671875,0.7042609065279364,-0.08110124315023422,-2.397925941376388
1684253169338186800,2.469186767578125,0.7193640753746032,0.12279226693212986,-2.33961257635653
1684253169348212700,2.479212646484375,0.7178437339395284,0.4044517382621765,-2.253382153624296
1684253169358237700,2.48923779296875,0.6689310883410274,0.6651666212409735,-2.300337673805654
1684253169368263700,2.499263671875,0.7244079147607088,0.8149123615503311,-2.4584224956542253
1684253169378289700,2.50928955078125,0.867762054336816,0.87250588786304,-2.5052204871863126
1684253169388314600,2.519314697265625,0.9771674548208713,0.762076843419671,-2.487952833782136
1684253169398340600,2.529340576171875,1.0375935742110014,0.472187888404727,-2.400969254595041
1684253169408366600,2.53936669921875,0.9079524642974137,0.10032733714580536,-2.1419272732645274
1684253169418391800,2.549391845703125,0.7473252644896506,-0.2643015092939138,-1.9442296952128408
1684253169428417800,2.559417724609375,0.6771428902387618,-0.6625485476970672,-1.8504940114170312
1684253169438443800,2.56944384765625,0.6218345522537827,-1.0205506694734097,-1.802761369383335
1684253169448468700,2.57946875,0.5934482695944607,-1.376007198420167,-1.8586662119567394
1684253169458494700,2.58949462890625,0.6761123781472445,-1.7880220654129981,-1.9078677574992178
1684253169468520700,2.599520751953125,0.7553760306067764,-2.233584981742501,-1.9077815405204892
1684253169478545700,2.609545654296875,0.7990392312444746,-2.6434453010499475,-1.934009329971671
1684253169488571600,2.619571533203125,0.8804204603798687,-2.9455846658289433,-1.944699358551204
1684253169498597600,2.62959765625,0.9683476040273904,-3.0402666905641555,-1.8910437562093139
1684253169508622600,2.63962255859375,1.1005372293800115,-2.6125018812537193,-1.5813839327976107
1684253169518648600,2.649648681640625,1.2940579601384699,-1.6656097377091645,-0.9121002316266298
1684253169528674600,2.659674560546875,1.6410973738737404,-0.35391163759231564,-0.039202421836555
1684253169538699500,2.669699462890625,2.210151645315438,1.0051718985557556,0.9691349550127982
1684253169548725500,2.6797255859375,3.0884476608872413,2.096694046831131,1.9887652947708963
1684253169558751500,2.68975146484375,4.245329877823591,2.626605225408077,2.8948496271088717
1684253169568776700,2.699776611328125,5.429827831438184,2.4899931074380874,3.546477844601869
1684253169578802700,2.709802734375,6.488584020665288,1.8099989194214343,3.8703269368857143
1684253169588829000,2.719828857421875,10.670638819408417,0.5604647222727537,4.2791260567024345
1684253169598853600,2.729853515625,13.028106785929202,-0.810186502072215,4.144178949335217
1684253169608879600,2.739879638671875,8.526548230630159,-1.2893641032338141,2.9812033839598295
1684253169618905900,2.74990576171875,4.767670621146261,-1.3370476454287767,1.756537086085975
1684253169628931800,2.759931884765625,3.4868238786280155,-1.6193980216324328,1.4747937358647585
1684253169638956800,2.769956787109375,1.985231859947741,-1.3832090926229952,2.137065220186114
1684253169648982800,2.779982666015625,0.7472577522113919,-0.7725947303026914,2.858274631166458
1684253169659008800,2.7900087890625,0.0029877836391329765,0.5664952346086501,3.5427439187705514
1684253169669033700,2.80003369140625,-0.7747882948242127,2.817960740956664,3.7462531057104465
1684253169679059700,2.810059814453125,-1.4841040005236863,5.6982811997145415,3.8101936629623174
1684253169689085700,2.820085693359375,-2.0573760357908903,8.471806002095342,4.1579590528845785
1684253169699110700,2.830110595703125,-2.5804981387495993,10.307882196581364,4.064592202401161
1684253169709136600,2.84013671875,-3.0296295612156388,10.830261226087808,2.9430232909083363
1684253169719162600,2.85016259765625,-3.3324341119050978,9.836404502272606,1.1250465244755148
1684253169729187800,2.860187744140625,-3.9970203029096125,7.85437903715074,-0.7918415748253465
1684253169739213800,2.8702138671875,-4.50868855330944,5.398741788300872,-2.219470531672239
1684253169749239800,2.88023974609375,-4.244960459989309,3.1925878343194722,-3.1147794952347874
1684253169759264800,2.8902646484375,-4.2690462689757345,1.5589450142353771,-4.13370110220164
1684253169769290800,2.900290771484375,-4.462192175072431,0.3907400237739086,-4.380574214571714
1684253169779316700,2.910316650390625,-4.635730878901481,-0.24207681800425052,-4.013249260915815
1684253169789341700,2.920341796875,-4.985619836848974,-0.3810387139707804,-4.07206443797797
1684253169799367700,2.93036767578125,-4.759187747222185,-0.3176186734616756,-4.157304972890019
1684253169809393700,2.9403935546875,-3.742476217520237,-0.37717385523617264,-4.131466475017368
1684253169819418600,2.950418701171875,-2.660651287394762,-0.6747562873631715,-4.034332380954921
1684253169829444600,2.960444580078125,-0.3899181859970093,-0.9500947389781474,-4.169623479454219
1684253169839470600,2.970470703125,1.941096657884121,-1.0630062478870153,-3.8395489367842672
1684253169849495600,2.98049560546875,1.9801649319469927,-1.0828016662031412,-3.985516327598691
1684253169859521500,2.990521484375,3.71199573906064,-0.8016144885599613,-3.730834295043349
1684253169869547500,3.000547607421875,9.43376010569334,-0.42546880732774733,-1.7094180459059773
1684253169879572700,3.01057275390625,12.25521570302844,-0.16678513791561125,-0.07095832705944777
1684253169889598700,3.0205986328125,10.558297219341993,0.4172439998179674,-0.198709823834151
1684253169899624700,3.030624755859375,6.240432851183414,1.0767343289881943,-0.14620909061580895
1684253169909650000,3.04064990234375,0.850731862950325,1.5779279471248386,0.4084731027327478
1684253169919676000,3.050676025390625,-3.6454549361824986,2.114414996960759,2.0465373925209045
1684253169929702000,3.060701904296875,-6.572795504790544,2.642823954281211,4.381220695781708
1684253169939726800,3.070726806640625,-5.572537097239494,2.636920867717266,5.661667917588352
1684253169949752800,3.0807529296875,-0.48267274980098007,2.3357418724030254,5.7690556946396825
1684253169959778800,3.09077880859375,4.142058888441324,2.644964473441243,4.613493912652134
1684253169969803800,3.1008037109375,3.056690586620569,2.7569641282022,1.755482462466508
1684253169979829800,3.110829833984375,-0.16152093377709387,2.071003725257516,-0.8510536422505974
1684253169989855700,3.120855712890625,-1.0758955400764942,1.1590940477669238,-3.2889562047064302
1684253169999880700,3.130880615234375,-0.8714975876033305,0.4065338052332401,-4.49888758252412
1684253170009906700,3.14090673828125,-1.945874539810419,-0.2481727967917919,-3.6557618106633423
1684253170019932700,3.1509326171875,-3.5382030604705212,-0.8876391595870256,-2.3803065519250928
1684253170029959000,3.160958984375,-5.101524682354927,-1.5121365013092756,-1.7317982200182973
1684253170039983900,3.17098388671875,-6.034604573646187,-2.36229085663259,-1.6098429884321988
1684253170050009900,3.181009765625,-6.1321817353010175,-3.20769772516787,-1.7119865812197326
1684253170060035800,3.191035888671875,-5.308400423118472,-4.1732057218551635,-2.065897342029214
1684253170070061000,3.20106103515625,-4.490978124573827,-5.14599861485362,-2.5863556326061485
1684253170080087000,3.211087158203125,-3.820964647823572,-6.086497842490672,-2.9722239586904644
1684253170090113000,3.221113037109375,-3.3438542083248493,-7.051477431389689,-2.811943380363285
1684253170100138000,3.231137939453125,-3.1674305967092513,-7.961084677156806,-2.270088958275318
1684253170110164000,3.2411640625,-3.1073604511499404,-8.612272457405924,-1.5987757971033454
1684253170120190000,3.25118994140625,-3.182330936460197,-8.835323672422765,-0.9503843695744871
1684253170130215000,3.26121484375,-3.2777208172038197,-8.771052568042277,-0.29580811593085526
1684253170140241000,3.271240966796875,-3.414432011634111,-8.464595924586057,0.4504895590767264
1684253170150267000,3.281266845703125,-3.211407393340766,-8.003827255818248,0.9575963467799127
1684253170160291800,3.291291748046875,-2.3459845956064758,-7.454156899282336,0.8745444079533219
1684253170170317800,3.30131787109375,-0.3125532067656517,-6.74322630573213,0.6906881621189415
1684253170180343800,3.31134375,3.417093924319744,-5.2587563945055,1.164016160469502
1684253170190368800,3.32136865234375,7.499168007397651,-1.254818859553337,2.3324074672833084
1684253170200394800,3.331394775390625,4.136016101145744,6.616454613775015,1.034768579918146
1684253170210420700,3.341420654296875,1.2237222950220108,16.61603073964119,0.169066526851058
1684253170220446000,3.351446044921875,4.2504350920081135,32.720237746059894,1.8066084002003073
1684253170230472000,3.361471923828125,-4.629172543299198,40.49671930453777,5.654018864139914
1684253170240498000,3.371497802734375,-8.088645473664998,29.54877862448692,7.348865802249312
1684253170250523000,3.38152294921875,-2.674468215823173,12.379134343641995,3.2614947818070648
1684253170260548900,3.391548828125,0.9572305822074413,2.358184590357542,-0.6900888810515403
1684253170270574800,3.401574951171875,1.7258125697374342,-2.741142289692163,-2.462960431344807
1684253170280599800,3.411599853515625,3.201072169548273,-6.445376162579655,-2.865385924476385
1684253170290625800,3.421625732421875,3.8773055437266826,-9.134554456278682,-2.945938886094093
1684253170300651800,3.43165185546875,3.0000328798532485,-10.398417623031138,-3.138478642991185
1684253170310676700,3.4416767578125,1.7488672821104525,-10.582628527522086,-3.2417598615065213
1684253170320702700,3.45170263671875,0.24683895437214523,-10.413573106586933,-2.7746842015489936
1684253170330728700,3.461728759765625,-1.1371253770649432,-10.007240376883745,-1.944542706684768
1684253170340754000,3.47175390625,-1.9084803364396095,-9.454731582051515,-1.2707862440139055
1684253170350779600,3.481779541015625,-2.023444101703167,-8.52000041642189,-0.5868704986393452
1684253170360805600,3.4918056640625,-2.434015784150362,-7.132979656556248,-0.07594620304119307
1684253170370830800,3.501830810546875,-2.8683681551575657,-4.9595139202117915,0.3955814724557101
1684253170380856800,3.51185693359375,-2.885300585258007,-2.0345956103146077,1.1418620501980186
1684253170390883000,3.521883056640625,-2.7233424291074275,1.6658628356873988,1.3011961414553224
1684253170400907800,3.53190771484375,-2.8275311178565024,5.443365942925214,0.7807295214414596
1684253170410933800,3.541933837890625,-3.192049489659071,8.770999376550316,0.38359395141154523
1684253170420960000,3.5519599609375,-3.213883135804534,10.881798521101475,0.8301729859810322
1684253170430986000,3.561986083984375,2.3320640606731176,10.918889942133426,1.9602789127379654
1684253170441011000,3.572010986328125,11.771847664439678,6.781712395992875,1.7172084075212477
1684253170451037000,3.582036865234375,8.979843787038325,2.590928931871056,1.3458654503956435
1684253170461063000,3.59206298828125,5.566285051107406,1.3109060729563236,1.4545758543528615
1684253170471087900,3.602087890625,3.531224745890498,0.5692126768738031,1.2544129091009497
1684253170481113900,3.61211376953125,2.626176186341047,-0.32374212477803227,0.9018075318016111
1684253170491139800,3.622139892578125,1.5674135673731564,-1.1356716711252928,0.6615195699755102
1684253170501164800,3.632164794921875,0.45184652664363384,-1.7954501695871352,0.09735971951186656
1684253170511190800,3.642190673828125,-0.358690615497157,-2.2412153304904696,-0.38430703158434476
1684253170521216800,3.652216796875,-0.8608405845105648,-2.522348147597909,-0.6158499248862266
1684253170531242000,3.662241943359375,-1.2073486678481102,-2.5924025115549565,-0.40750484222248196
1684253170541268000,3.67226806640625,-1.5016922641843558,-2.569370011013746,0.11453447046820074
1684253170551294000,3.6822939453125,-1.844834085959196,-2.3580028040498493,0.3722940107727423
1684253170561319000,3.69231884765625,-2.048798323190212,-1.9244336923748253,0.3791127143442631
1684253170571345000,3.702344970703125,-2.180413948047161,-1.4668758023470638,0.30889307682290673
1684253170581371000,3.712370849609375,-2.140986193022132,-1.0032821392863989,0.20656046426929534
1684253170591395800,3.722395751953125,-2.0545751530259846,-0.5294669419407845,0.015383666288480162
1684253170601421800,3.732421875,-1.924214496666193,-0.09902209976613521,0.03870017140284181
1684253170611447800,3.74244775390625,-1.645595708206296,0.17550561998784542,0.3466837321653962
1684253170621472800,3.75247265625,-1.3380103529810905,0.30261633464097976,0.771591252348572
1684253170631498800,3.762498779296875,-1.0370721806854009,0.3095364892929792,0.999475440479815
1684253170641524700,3.772524658203125,-0.667630965527892,0.16483049671649933,1.1023235282748938
1684253170651549700,3.7825498046875,-0.23062479207627473,-0.09786416190266609,1.0483691621821374
1684253170661575700,3.79257568359375,0.12319207990467548,-0.4618085332095623,0.810511934634298
1684253170671601700,3.8026015625,0.6258546746153384,-0.8751099328815937,0.6168469730995595
1684253170681627000,3.812626953125,1.299219872946292,-1.0720043778568507,0.6515533256258815
1684253170691652900,3.82265283203125,2.1415607780396937,-0.9014128333956003,0.9051320000492036
1684253170701678800,3.832678955078125,2.871068646287918,-0.4243681526094675,1.318054921797663
1684253170711703800,3.842703857421875,3.4365544115930793,0.09088146340847014,1.7933102349489927
1684253170721729800,3.852729736328125,3.9430823764950036,0.5144231020659208,2.275034159592539
1684253170731755800,3.862755859375,4.454234494066238,0.8669652048707008,2.677944952023029
1684253170741780700,3.87278076171875,5.064489375424385,1.0347621501773596,2.9974367258802053
1684253170751806700,3.882806640625,6.6818392323553555,0.8786427831828594,3.3331898987084627
1684253170761833000,3.8928330078125,9.398724448147416,0.4511526991605758,3.465177279487252
1684253170771857700,3.902857666015625,10.201052637934684,0.274881355497241,2.77016847769022
1684253170781884000,3.9128837890625,8.600833948546647,0.43536651648581026,1.6079270718082785
1684253170791910000,3.922909912109375,6.364377795282006,0.6881810016036033,0.6329490167904644
1684253170801936000,3.932935791015625,4.89218985800147,0.7001309671163558,0.14539897980932145
1684253170811960800,3.9429609375,4.0286636876687405,0.2537631641447544,-0.3367364117119461
1684253170821986800,3.95298681640625,3.221281137101352,-0.42075872994065283,-0.7859869305130094
1684253170832012800,3.9630126953125,2.2371394593536853,-0.8463625618249178,-0.9523352113813162
1684253170842038000,3.9730380859375,1.247043549376726,-1.0547644892424344,-0.5043472598619759
1684253170852064000,3.98306396484375,0.424294502851367,-0.7347744104743004,0.1940663819424808
1684253170862090000,3.993090087890625,-0.3094336134403944,1.2073615273296832,0.7550478215657174
1684253170872115000,4.003114990234375,-1.0216600189547984,4.521358065268397,1.254950523108989
1684253170882141000,4.013140869140625,-2.658083482733369,8.379979951313137,1.2403417136505246
1684253170892167000,4.0231669921875,-4.181656739336252,11.750111633449793,1.2059240418724715
1684253170902191000,4.033191162109375,-5.0815983311355115,13.393631704425811,0.9743427527889609
1684253170912217000,4.043217041015625,-1.2062088501632213,14.582974759984015,2.1710782566860316
1684253170922243000,4.0532431640625,6.048001230835914,14.180319842010736,5.287713608920574
1684253170932268000,4.06326806640625,2.8438404476225374,9.690076461452245,6.04496931579411
1684253170942294000,4.0732939453125,-2.1835203896299005,5.240605820786953,5.386944967523217
1684253170952320000,4.083320068359375,-7.11022363486886,1.972790603786707,3.7200872755795715
1684253170962345200,4.09334521484375,-9.502828965744376,-0.6622358284860849,2.1350160325713454
1684253170972371200,4.10337109375,-9.936415028554201,-2.4655799661934372,1.3088552779063582
1684253170982397200,4.113397216796875,-9.295139570510386,-3.2376246613979336,2.0994113429658112
1684253170992422100,4.123422119140625,-5.356936198228597,-2.432454526183009,5.234580569148063
1684253171002448100,4.1334482421875,-2.3729803006902337,-0.23201602723896503,8.933196017631888
1684253171012474400,4.143474365234375,-3.6384649311646817,2.1652707394510506,10.728388413065671
1684253171022499000,4.1534990234375,-4.86365466839075,3.6724680307924746,8.629059341555834
1684253171032525300,4.163525390625,-4.863607906639576,3.8899084201902148,4.154331802298128
1684253171042551300,4.17355126953125,-4.013006099809706,3.320010683661699,0.45674394329637286
1684253171052576300,4.183576171875,-3.872528538583219,2.5104934591531753,-1.279352996829152
1684253171062602200,4.193602294921875,-3.8519694424182176,1.5099375299602746,-1.74099231095165
1684253171072628200,4.203628173828125,-3.585530044312775,0.3888970262557268,-1.7752923476994036
1684253171082653200,4.213653076171875,-3.4577149807825682,-0.9042565323889254,-2.1895000485613942
1684253171092679200,4.22367919921875,-3.3383950661361217,-1.6245640260934828,-3.5133269778892395
1684253171102705200,4.233705078125,-3.4041993714332577,-1.8436042519032954,-4.731468842430412
1684253171112730400,4.24373046875,-3.606671908801794,-1.761880492940545,-5.265281996881962
1684253171122756400,4.25375634765625,-3.607727555334568,-1.6439906110972164,-5.266785387182235
1684253171132782300,4.2637822265625,-3.4494022027283906,-1.3973966079294682,-4.73328378289789
1684253171142807300,4.273807373046875,-3.4213340461075306,-0.9077455435484647,-3.9090620334714647
1684253171152833300,4.283833251953125,-3.1693083732798693,-0.2428320202857256,-3.018960867685079
1684253171162859300,4.293859375,-3.5655884955242274,0.5648918910652398,-2.2896318631350994
1684253171172885200,4.30388525390625,-4.408534234642982,1.320737731140852,-1.9908561295703053
1684253171182910200,4.31391015625,-5.066178059163689,1.6660183185100554,-1.9655884173229337
1684253171192936200,4.323936279296875,-5.4397810701757665,1.1562561939924956,-2.2553087377727032
1684253171202962200,4.333962158203125,-5.223869790041446,0.06639174979627133,-2.955366055130958
1684253171212987100,4.343987060546875,-4.555968190878629,-1.1373346359014511,-3.521524605131149
1684253171223013000,4.35401318359375,-3.847776082381606,-2.23588098372519,-3.6780911313712594
1684253171233038000,4.3640380859375,-4.00452264136374,-3.1597149077653883,-3.565559269429743
1684253171243064000,4.37406396484375,-4.36284449661374,-3.9727784265786408,-3.5062177304059263
1684253171253090000,4.384090087890625,-4.488952171704173,-4.422959065836667,-3.529620525564253
1684253171263116000,4.394115966796875,-4.668506190299987,-4.612481520739197,-3.5610733561873436
1684253171273141200,4.404141357421875,-4.814539047566056,-4.704527351751923,-3.6793662658736106
1684253171283167200,4.414167236328125,-4.988161338025331,-4.75404863076806,-3.9738752819046375
1684253171293193200,4.424193115234375,-4.918721306574344,-4.865329908126593,-4.434686620770394
1684253171303218200,4.43421826171875,-4.570443290954828,-5.0543420754194255,-4.684804121889174
1684253171313244200,4.444244140625,-4.583465854135156,-5.204240960463881,-4.5395115615963935
1684253171323270100,4.454270263671875,-4.781966857524216,-5.2733226799964905,-4.266736530728638
1684253171333295000,4.464295166015625,-4.694303479379415,-5.259644283255934,-3.987304380059242
1684253171343321000,4.474321044921875,-3.8478324887439608,-5.12304151763618,-3.5921366029709576
1684253171353347300,4.484347412109375,-2.5610440812170503,-4.7280561113774775,-2.7294787399053573
1684253171363372000,4.4943720703125,-2.0834312451541424,-4.13130602375865,-1.588954952573776
1684253171373398300,4.504398193359375,-2.1294702350124717,-3.5499528272360563,-1.0516633083567022
1684253171383424300,4.51442431640625,-1.9891654000043868,-2.7717057702600956,-1.1686626711010932
1684253171393449000,4.524448974609375,-1.7853168981075285,-1.546921398964524,-1.3317287884935736
1684253171403475200,4.53447509765625,-1.0646868213851004,0.5062795430988073,-1.2177154558226466
1684253171413501200,4.544501220703125,0.3204431562978774,3.779294666829705,-0.34612317567318673
1684253171423526400,4.5545263671875,1.7268354830443857,7.897275345069169,1.7375699352875351
1684253171433552400,4.564552490234375,1.8998060315966605,13.193750937116146,4.2351355238065125
1684253171443578400,4.574578369140625,2.083083454629779,19.814955375766754,5.211915732875466
1684253171453603300,4.584603271484375,12.409690809947252,29.400293697893616,6.032710138201713
1684253171463629300,4.59462939453125,17.95956365543604,37.78039698332548,7.012747010979056
1684253171473655300,4.6046552734375,12.379887207835912,37.22992232466936,9.54694867797792
1684253171483680300,4.61468017578125,9.631867433589695,28.550784654736518,10.998991652852297
1684253171493706200,4.624706298828125,2.881450924092531,13.478588453960418,7.804373774009942
1684253171503732200,4.634732177734375,0.5259340551069006,3.6141491128146646,3.1260482004851102
1684253171513757200,4.644757080078125,-0.6646481503248214,-2.1179536924809215,-0.234832253703475
1684253171523783200,4.654783203125,-2.2899802381813523,-4.552440601274371,-1.9312008484221994
1684253171533809200,4.66480908203125,-2.3685703752934932,-6.509949464777112,-2.1240547858349976
1684253171543834000,4.674834228515625,-1.9603274280548095,-8.31809661885202,-1.6853712537556886
1684253171553860000,4.684860107421875,-2.4056734867632388,-9.779899355718493,-1.1103029096562416
1684253171563886000,4.694885986328125,-3.5252211215615272,-10.60166289833784,-0.29669505483321845
1684253171573911300,4.704911376953125,-5.014167885941267,-10.717931316459179,0.7930396255034953
1684253171583937300,4.714937255859375,-5.592191061258315,-10.301552993559836,1.6706632217064499
1684253171593963300,4.72496337890625,-5.4453930648386475,-9.825035551518202,2.463980129781365
1684253171603989200,4.7349892578125,-4.603251335579157,-9.045068831142782,2.513667705275118
1684253171614014200,4.74501416015625,-3.9621944887220857,-8.357403377845882,2.2461244375810026
1684253171624040200,4.755040283203125,-3.825626794415712,-7.313610948994755,2.2309340288423
1684253171634065200,4.765065185546875,-3.921901056778431,-5.529599288266897,2.491146369126439
1684253171644091100,4.775091064453125,-3.8610628494560717,-3.0115432849049566,2.7774726632237434
1684253171654117000,4.7851171875,-4.09491836708188,-0.371529711869359,3.3117078424796462
1684253171664143000,4.79514306640625,-4.045050466585159,1.929246061092615,3.820858557100594
1684253171674168000,4.80516796875,-3.2016812413573263,4.013958578228951,4.189755290117859
1684253171684194000,4.815194091796875,-2.797607104235887,5.747610171028971,4.464132203224301
1684253171694220300,4.82522021484375,-2.870648959571123,6.915384368857741,4.338805157117545
1684253171704245000,4.835244873046875,-2.8162042526781557,7.02808778797388,3.780445005908608
1684253171714271000,4.84527099609375,-2.783527140957117,5.961697158345579,3.0683167270064353
1684253171724297200,4.855297119140625,-2.7808570449650287,4.1502942173451185,2.102258402960002
1684253171734322200,4.865322265625,-2.6972680766522883,2.229972636464238,1.1568123665705323
1684253171744348200,4.87534814453125,-2.4333669648528096,0.5691460413783789,0.3245401432879269
1684253171754374100,4.8853740234375,-2.0884148787856103,-0.7953869923472404,-0.7001045175008476
1684253171764399400,4.8953994140625,-1.7477309715569018,-1.7545277920901774,-1.6016387853190301
1684253171774425300,4.90542529296875,-1.3687657028593123,-2.1998481318354606,-2.2730470774285494
1684253171784451300,4.915451416015625,-0.9369687884885817,-2.1922890947580336,-2.8585546171516176
1684253171794476300,4.925476318359375,-0.4225637700686231,-1.6627245376616715,-3.432619994753599
1684253171804502300,4.935502197265625,2.2897236330717803,-0.4067939174741506,-4.529068201254308
1684253171814528300,4.9455283203125,10.728957737386226,1.4298118538439273,-7.304885790747404
1684253171824553200,4.95555322265625,10.228956543904543,1.728903521490097,-8.201981345465779
1684253171834579200,4.9655791015625,6.7807537800937885,1.2645301062285899,-7.172324409472942
1684253171844605200,4.975605224609375,3.642168169596791,0.8186953872203826,-5.308816602703929
1684253171854630100,4.985630126953125,1.1396452509313821,0.6772066031247377,-3.75647668582201
1684253171864656100,4.99565625,0.28237437813375144,0.6149924312740565,-3.0177447698935866
1684253171874682000,5.00568212890625,0.7344611067414283,0.5700023659467697,-2.4650059656977654
1684253171884707300,5.015707275390625,0.7383183666914701,0.2752344067186117,-1.7293600330859422
1684253171894733300,5.0257333984375,0.4145820871323347,0.02932370963990688,-1.1789746601484716
1684253171904759300,5.03575927734375,-0.053916317370999604,0.03981821564733982,-0.9807513777222484
1684253171914784300,5.0457841796875,-0.5240262121915817,0.09311842868030071,-0.7664177952334285
1684253171924810500,5.055810546875,-0.8723404681682586,0.14848492659330367,-0.7159091126151382
1684253171934836500,5.06583642578125,-1.2573708821237086,0.1609632998943329,-0.7996850548673421
1684253171944861400,5.075861328125,-1.5993874992609023,0.17355331687629222,-0.8861112193673849
1684253171954887400,5.085887451171875,-1.8693185388743876,0.09195055394470691,-0.9653617200843989
1684253171964913400,5.095913330078125,-2.0491244864046574,-0.09583996259868144,-1.0620102956522255
1684253171974938400,5.1059384765625,-2.212348716968298,-0.35423546271920203,-1.136494531815499
1684253171984964400,5.11596435546875,-2.3271347875773905,-0.6311772578775883,-1.2228146786577998
1684253171994990300,5.125990234375,-2.337835045289993,-0.8385340601563454,-1.2633163465246557
1684253172005015300,5.136015380859375,-2.311466093802452,-0.9563187280595302,-1.1915088552899658
1684253172015041300,5.146041259765625,-2.350371870779991,-0.9004057021796703,-1.1046820740997791
1684253172025067300,5.1560673828125,-2.397418868637085,-0.6670967125207186,-0.971922686035186
1684253172035093200,5.16609326171875,-2.5197452716231346,-0.40694706220924853,-0.758463475228101
1684253172045118200,5.1761181640625,-2.810308764898777,-0.2621224116891622,-0.425442357712239
1684253172055144200,5.186144287109375,-3.224066091644764,-0.26623335413932797,0.14176729050977155
1684253172065170200,5.196170166015625,-3.5530747586488722,-0.5146797071754932,0.7424076818317175
1684253172075195400,5.2061953125,-3.8965596947729586,-0.8250076391071081,1.2229288065567612
1684253172085221400,5.216221435546875,-4.1713235613703725,-1.1454799484342335,1.736561342766881
1684253172095247400,5.226247314453125,-4.239932402694225,-1.4399755204617977,2.075519741377234
1684253172105272300,5.236272216796875,-4.353569303268194,-1.4481985744059085,2.154887292602658
1684253172115298300,5.24629833984375,-4.134166673886776,-1.1510773300498722,2.3954523908697065
1684253172125324300,5.25632421875,-3.775643158584833,-0.816318721216917,2.8995275557920337
1684253172135349200,5.266349365234375,-3.183814745277166,-0.501421581673622,3.5871395253360268
1684253172145375200,5.276375244140625,-2.2128597352303565,-0.11946984451115131,4.460252439181506
1684253172155401200,5.286401123046875,-1.5167173993587493,0.5422136107891797,5.065290170413255
1684253172165426200,5.29642626953125,-0.8712428091246635,1.244447687664628,5.1677048352271315
1684253172175452200,5.3064521484375,-0.15161913296580315,1.9353718504965305,4.876314535738527
1684253172185478100,5.31647802734375,1.1064601896882056,2.8670523963838814,4.2248806717738505
1684253172195503400,5.32650341796875,2.3918694178164004,3.4871138014853,2.9399986823901534
1684253172205529000,5.336529052734375,3.251449773132801,3.5211066719800233,1.4125623206183313
1684253172215555300,5.346555419921875,4.146232374733686,3.139994892773032,-0.21857640769034622
1684253172225580300,5.356580322265625,4.845705170202255,2.5160768122434614,-1.8700129508793353
1684253172235606300,5.366606201171875,5.150670113795996,1.8048381756573915,-3.3704511233493686
1684253172245632500,5.376632568359375,4.895549689823389,1.0152432107150553,-4.481967719644308
1684253172255657200,5.3866572265625,3.87579981533885,0.19693886863887308,-4.571802012087405
1684253172265683500,5.396683349609375,2.1225322524428365,-0.596471855199337,-4.0707320203304285
1684253172275709400,5.40670947265625,0.6167851599097252,-1.175168399733305,-3.5166835948407646
1684253172285734400,5.416734375,-0.45922290063053367,-1.481640825280547,-3.0626503718078135
1684253172295760400,5.426760498046875,-1.5005485009767114,-1.3675930058181285,-2.840288308098912
1684253172305786400,5.436786376953125,-1.9332826231323181,-0.7128139230787753,-2.8715836100727317
1684253172315811300,5.446811279296875,-1.0395346252761781,0.49210664083957667,-2.455852352905273
1684253172325837300,5.45683740234375,-0.03891761354580521,1.7512994776934385,-2.0249775948807596
1684253172335863300,5.46686328125,-0.30670111973658204,2.645197697675228,-1.3018538747116923
1684253172345888300,5.47688818359375,-0.5575963272295892,2.736828518146276,-0.0453173610528931
1684253172355914200,5.486914306640625,-1.305118137204647,1.9140490764826534,0.23587679432034492
1684253172365940200,5.496940185546875,-2.216708227352053,0.7822042701691388,0.11204608771856873
1684253172375965400,5.50696533203125,-2.893439468050003,-0.3616121289670467,0.23602701644599436
1684253172385991400,5.516991455078125,-3.4024387915015217,-1.459003461536765,0.5721379166707397
1684253172396017400,5.527017333984375,-3.544984098912775,-2.3076620253443716,0.6147448131885379
1684253172406042400,5.53704248046875,-3.068539137585461,-2.836832614687085,-0.0009274901084601879
1684253172416068400,5.547068359375,-2.274477987014502,-2.8830805711209773,-0.9395767790298908
1684253172426094300,5.55709423828125,-1.356383337278664,-2.5599223837107417,-1.8315360668383538
1684253172436120300,5.567120361328125,-0.5314277206197381,-2.00020000423789,-2.311323616591841
1684253172446145300,5.577145263671875,0.00957242272645235,-1.2821511031150816,-2.5311516317784784
1684253172456171300,5.587171142578125,-0.10148936666250229,-0.6013607962846755,-2.4720965084806084
1684253172466196200,5.5971962890625,-0.6013071664012968,-0.15320961702764033,-2.350021157646179
1684253172476222200,5.60722216796875,-1.0024624934665858,0.09999532871246337,-2.403594926923513
1684253172486248200,5.617248291015625,-0.9452560667753219,0.05338321514129638,-2.8582494967252012
1684253172496274200,5.627274169921875,-0.6756687260329723,-0.19318799167275427,-3.288390972039103
1684253172506299100,5.637299072265625,-0.5847510222673415,-0.383366864657402,-3.3404096208289262
1684253172516325000,5.6473251953125,-0.8423474809646606,-0.3341799321621656,-3.1723426264092325
1684253172526351000,5.65735107421875,-1.3972706434622406,-0.09226385767757891,-2.923881660325825
1684253172536376300,5.667376220703125,-2.0103636708557606,0.2629869195640087,-2.638608966934681
1684253172546402300,5.67740234375,-2.3699650445222855,0.7485457461953162,-2.489749361810088
1684253172556428300,5.68742822265625,-2.510837158024311,1.2261024681568145,-2.342404545162618
1684253172566453200,5.697453369140625,-2.4903040730834007,1.5735340960800648,-2.196108360785246
1684253172576479200,5.707479248046875,-2.5442773630723354,1.7644103036791086,-2.0396701370999217
1684253172586505500,5.71750537109375,-2.7054791478976608,1.7830676578760145,-1.796813859155774
1684253172596530200,5.7275302734375,-2.950073793941736,1.7384797436088322,-1.3981678845629095
1684253172606556400,5.737556396484375,-3.151030081528425,1.745154983589053,-0.9066481037005781
1684253172616582400,5.74758251953125,-3.2760464542508125,1.735339692017436,-0.441325717151165
1684253172626607400,5.757607421875,-3.420584689044952,1.780127512770891,-0.030354513992369173
1684253172636633300,5.76763330078125,-3.7993691943481562,1.832114889639616,0.48605888510793444
1684253172646659300,5.777659423828125,-4.3179152215629815,1.7430489512205123,0.9841136206969618
1684253172656684300,5.787684326171875,-4.78193996951729,1.4800298829525709,1.3561217637330294
1684253172666710300,5.797710205078125,-5.043382289987802,1.1010931096971035,1.6458946911528705
1684253172676736300,5.807736328125,-5.018754044687747,0.6529261483490467,1.7492293934211134
1684253172686761500,5.817761474609375,-4.8118633986160155,0.322265622484684,1.7638915405020117
1684253172696787500,5.827787353515625,-4.439226310026646,0.12727554982602596,1.7730621044293045
1684253172706813400,5.8378134765625,-4.0338089416027065,0.11373451572954654,1.8753537273854015
1684253172716838400,5.84783837890625,-3.6727439251244065,0.267779414537549,2.1324828608319164
1684253172726864400,5.857864501953125,-3.508406764882803,0.4871183310329914,2.4540324440017343
1684253172736890400,5.867890380859375,-3.4541689787387844,0.6684855365306138,2.693308525371551
1684253172746915300,5.877915283203125,-3.4529274542450903,0.8311199845075606,2.8690786415144798
1684253172756941300,5.88794140625,-3.4191911888599393,0.9418021269291639,2.9765728015497324
1684253172766967300,5.89796728515625,-3.3439304884314534,0.9384726902455091,2.89475961073786
1684253172776992300,5.9079921875,-3.344183001887798,0.8382096505075692,2.8362887170687316
1684253172787018200,5.918018310546875,-3.3124773655474185,0.6735211926102638,2.8584286526843905
1684253172797044200,5.928044189453125,-3.2145641038060186,0.43927930601537224,2.891718051084876
1684253172807069200,5.938069091796875,-3.088541184389591,0.18542437193393707,2.9197438298687337
1684253172817095200,5.94809521484375,-2.9289795679867265,0.015869769304990768,2.9611794175848365
1684253172827121200,5.95812109375,-2.7547639878094197,-0.07352057876288891,2.9944565410256385
1684253172837146400,5.968146484375,-2.5841385410785676,-0.08689794673025608,3.046147273035347
1684253172847172400,5.97817236328125,-2.480480598205328,-0.010265957948565482,3.1690804097428917
1684253172857198300,5.9881982421875,-2.427512539736181,0.0582709871828556,3.338587958359718
1684253172867223300,5.998223388671875,-2.3604887756466866,0.11511574095487594,3.533673892608285
1684253172877249300,6.008249267578125,-2.2734920447170732,0.12561843026876449,3.7383544614151116
1684253172887275300,6.018275146484375,-2.146387613674253,0.1940069068402052,3.8673295086354016
1684253172897301200,6.02830126953125,-2.044261264282465,0.41091012062132354,3.9567467447102067
1684253172907326700,6.03832666015625,-1.956134068018198,0.7977747642666101,4.0425586497694255
1684253172917353000,6.04835302734375,-1.88499892308712,1.3911410546660423,4.094671698844433
1684253172927379000,6.05837890625,-1.827745003992319,2.111915581360459,4.10949371266216
1684253172937404000,6.06840380859375,-1.666912637001276,2.5898282771527765,4.164981791128218
1684253172947430000,6.078429931640625,-1.3785796792566776,2.3719366368561983,4.052279833316803
1684253172957456000,6.088455810546875,-1.0797335838694124,1.5731600020706653,3.75780062790215
1684253172967480800,6.098480712890625,-0.770292298579216,0.817141143515706,3.4675939852401614
1684253172977506800,6.1085068359375,-0.4411819247663021,0.3887918123155832,3.193669784337282
1684253172987532800,6.11853271484375,-0.1763777266472578,0.24037644382715223,2.8851299048662185
1684253172997557800,6.128557861328125,0.07912263655364513,0.3226058142244816,2.539965052831173
1684253173007583700,6.138583740234375,0.32925533524155615,0.623227175655961,2.1802539351798593
1684253173017609700,6.148609619140625,0.6635124242931604,0.9778858322232961,1.8975126599624752
1684253173027635000,6.158635009765625,1.1364029810745269,1.0969184543609618,1.7442340693518519
1684253173037661000,6.168660888671875,1.753797724249959,0.874680309292674,1.664439524886012
1684253173047687000,6.17868701171875,2.4197978737056256,0.44432840609848495,1.7521011494651435
1684253173057711900,6.1887119140625,3.0899224096149203,0.0685626640945673,2.038365776503086
1684253173067737900,6.19873779296875,5.406375059658289,-0.3050333326548338,2.6663679114758967
1684253173077763800,6.208763916015625,10.033493593037129,-0.7910738053232431,3.6624493256032467
1684253173087788800,6.218788818359375,9.99324458475709,-0.8437818976819514,4.415554634799063
1684253173097814800,6.228814697265625,6.044553720730542,-0.36094460496902464,4.559758230811357
1684253173107840800,6.2388408203125,2.8193811291486024,0.3385468952000141,4.15842140969932
1684253173117865700,6.24886572265625,1.6201596536546945,0.8897545443058014,3.805964062568545
1684253173127891700,6.2588916015625,1.239363516268134,1.417370889943838,3.8542894097983833
1684253173137917700,6.268917724609375,0.9792775788426399,1.8341221378087997,3.8346073887288568
1684253173147942700,6.278942626953125,0.8481336631506681,1.932349287804961,3.7367230608209967
1684253173157968600,6.28896875,0.8224106814164668,1.6570044064491987,3.4921287070378657
1684253173167994600,6.29899462890625,0.8288374995935708,1.0240934566468,3.2047698550224304
1684253173178019800,6.309019775390625,0.8979828589469194,0.25461598158180715,2.990112374341488
1684253173188045800,6.3190458984375,0.7320511960554867,-0.3036725656956434,2.8681042435243724
1684253173198071800,6.32907177734375,0.5499895054876804,-0.5536246471196413,2.700468918520212
1684253173208096800,6.3390966796875,0.3317857670346275,-0.6882604965806007,2.418609540703893
1684253173218122800,6.349122802734375,0.124811790060997,-0.9212386468499898,2.0368863516002893
1684253173228148700,6.359148681640625,-0.09563826601412147,-1.0718845508694648,1.6288145231448112
1684253173238173700,6.369173583984375,-0.3202215859690681,-1.09638069422245,1.3419430162549018
1684253173248199700,6.37919970703125,-0.5437392494538799,-1.0469406637489795,1.222177695928514
1684253173258226000,6.389225830078125,-0.738676678609848,-0.984249522036314,1.1623645938701928
1684253173268250600,6.399250732421875,-0.8755027315914631,-0.8969733896434307,1.041599887242913
1684253173278276900,6.40927685546875,-0.9444406587392091,-0.7948217596799134,0.897959185810387
1684253173288302800,6.419302734375,-0.9587667057335376,-0.6203612648308277,0.81261562891528
1684253173298327800,6.429327880859375,-0.9162859928786754,-0.3489133909136057,0.7283022918507457
1684253173308353800,6.439353759765625,-0.8877303450018167,-0.06558803219795227,0.7286274321518837
1684253173318379800,6.4493798828125,-0.8781190515697002,0.17554829008579254,0.7296043143600225
1684253173328405800,6.45940576171875,-0.8468652506500483,0.2398328384697437,0.7221862931884825
1684253173338431000,6.469430908203125,-0.8046265298575163,0.09797580558359623,0.7119378708966076
1684253173348457000,6.47945703125,-0.7621312039554119,-0.10137596941590309,0.7138217849470675
1684253173358483000,6.48948291015625,-0.6991998237460851,-0.3113315560162067,0.7091403491325676
1684253173368508000,6.4995078125,-0.6252173996251076,-0.5244990904003382,0.6712946026019752
1684253173378534000,6.509533935546875,-0.5583692112982273,-0.6617980215907097,0.613022738636285
1684253173388560000,6.519559814453125,-0.48362928334083405,-0.7183534370273351,0.5547345080576837
1684253173398584800,6.529584716796875,-0.4080921405911445,-0.7046469832360744,0.4939940620213747
1684253173408610800,6.53961083984375,-0.3104740624040365,-0.6607067192226648,0.46518940781950946
1684253173418636800,6.54963671875,-0.22147417495846747,-0.612398907649517,0.42638636056408286
1684253173428661800,6.559661865234375,-0.0778991591732949,-0.4677765017032623,0.3178513131737709
1684253173438687700,6.569687744140625,0.22871515906266868,-0.21329963633120058,0.13751226341379805
1684253173448713700,6.579713623046875,0.7948206637013703,0.1279348905175924,-0.01297476938269101
1684253173458738700,6.58973876953125,1.6306524060964582,0.46617958790063857,-0.021327304058521984
1684253173468764700,6.5997646484375,2.635068517848849,0.7150105563402176,0.148001234729588
1684253173478790700,6.609790771484375,3.5969764442175625,0.9704057056009769,0.46703430503383275
1684253173488815900,6.61981591796875,5.340465540421008,1.157810437697172,0.9150199184656143
1684253173498841900,6.629841796875,10.927440328335761,1.083314876422286,1.8155111069716512
1684253173508867800,6.639867919921875,13.324559921765326,0.5721218423187733,2.722343481197953
1684253173518892800,6.649892822265625,10.398467891913652,0.15462532904446125,2.6823808886438605
1684253173528918800,6.659918701171875,7.115636307567358,0.022397125247120855,2.059523569213599
1684253173538944800,6.66994482421875,5.084215820157528,-0.016935352709889412,1.4728665671944616
1684253173548969700,6.6799697265625,3.9013247172176837,-0.10304068775773048,0.9964506858311593
1684253173558995700,6.68999560546875,3.350847135952115,-0.3718208037704229,0.8775929818689823
1684253173569021700,6.700021728515625,3.117008569461107,-0.4675795178264379,1.096091648148
1684253173579046700,6.710046630859375,2.7417075223594902,0.20630700096487997,1.5535029693119227
1684253173589072600,6.72007275390625,2.0823427192650734,1.2538199116438626,2.1415014490678903
1684253173599099000,6.730098876953125,1.2210590671621262,2.402765490362048,2.480403441315889
1684253173609123600,6.74012353515625,0.5318487225107849,3.4406367124706505,2.654654385067522
1684253173619149800,6.75014990234375,-0.4710458056975156,4.482362856441736,2.7683205117359755
1684253173629175800,6.76017578125,-1.8081003923237322,5.661787744575738,3.14273016295582
1684253173639201000,6.770200927734375,-3.134222739112377,6.68584086921215,3.5074510715931653
1684253173649227000,6.78022705078125,-4.081497744494676,7.145916295018791,3.6395530186623333
1684253173659253000,6.7902529296875,-4.2766053060531615,6.781865540727972,3.41376273407042
1684253173669278000,6.80027783203125,-3.510322827637195,5.65714138007462,2.939928247502446
1684253173679304000,6.810303955078125,2.519636550551653,4.262612436535954,3.8648078812032938
1684253173689330000,6.820329833984375,11.834267587995528,2.1785183435589075,4.488922361087798
1684253173699355000,6.83035498046875,12.114137837821245,-0.29177579167485235,3.549177166688442
1684253173709380900,6.840380859375,6.16748218126297,-1.9321967275917529,2.991174742875993
1684253173719406800,6.85040673828125,-0.3536206918217242,-2.4131547824293373,1.7754978071436285
1684253173729432800,6.860432861328125,-7.993765880531072,-1.8961866720557212,1.9465268662393092
1684253173739457800,6.870457763671875,-11.959413724577427,-1.4917887098073959,1.8474232256695626
1684253173749483800,6.88048388671875,-11.52485793995261,-1.2114876673489807,0.5636513894848525
1684253173759509800,6.890509765625,-11.194902347487211,-0.43381987156569957,-0.6645620794765651
1684253173769534700,6.90053466796875,-10.882926648348569,0.5195364995568991,-1.5215730226963757
1684253173779560700,6.910560791015625,-7.849364423859119,1.7052619491398333,-1.3428180455237626
1684253173789586700,6.920586669921875,-1.0412637871563435,3.7578982430577277,0.8301973167046904
1684253173799612000,6.93061181640625,2.0779495988726615,5.303967993628978,4.578734149438143
1684253173809638000,6.940637939453125,-0.28672815289646386,5.432828766819834,7.0585858020901675
1684253173819664000,6.950663818359375,-2.5125728957757354,4.948049692389369,7.590444607603549
1684253173829688800,6.960688720703125,-2.869767500561476,4.262991791242361,6.366158833479881
1684253173839714800,6.97071484375,-2.705216113047302,2.998381020992994,3.543434823644161
1684253173849740800,6.98074072265625,-2.7453628299966453,1.5955787546277045,0.4890411157891154
1684253173859765800,6.990765869140625,-3.1774227061524987,0.7344774733543395,-1.594891356885433
1684253173869791700,7.000791748046875,-3.6164652808025477,0.2468622987151146,-3.078087302653491
1684253173879817700,7.010817626953125,-3.7824610219061374,0.08011340115666389,-3.744337335216999
1684253173889842700,7.0208427734375,-3.805395615030825,0.3567605972826481,-3.7569755752548573
1684253173899868700,7.03086865234375,-3.7221050451427695,0.7510749724119902,-3.4982705707937476
1684253173909895000,7.04089501953125,-3.508173540648818,1.0457248582184313,-3.371076561771333
1684253173919919900,7.050919921875,-2.990516863489151,1.2821435043305158,-3.631764849004149
1684253173929945900,7.06094580078125,-2.29988788421154,1.4489789111286402,-4.034960157464444
1684253173939971800,7.070971923828125,-2.1720751587688922,1.4641595291256904,-4.690579490420222
1684253173949997000,7.0809970703125,-2.4495003535300492,1.233634032705426,-5.3507648161172865
1684253173960023000,7.09102294921875,-2.647595698727667,0.6507108103871345,-5.663176568585634
1684253173970049000,7.101049072265625,-2.8768752867400647,-0.1729956829935312,-5.525574270534515
1684253173980074000,7.111073974609375,-3.321671894872188,-0.926525647342205,-5.16714778586626
1684253173990100000,7.121099853515625,-3.621601182386279,-1.4719196417331695,-4.958906601968407
1684253174000126000,7.1311259765625,-3.95430665808171,-2.0121523078382015,-4.84861462790817
1684253174010151000,7.14115087890625,-4.437173469150066,-2.6742460975050926,-4.761572304271161
1684253174020177000,7.151177001953125,-4.655376367352902,-3.2726854533851144,-4.49921637608707
1684253174030203000,7.161202880859375,-4.77224099780172,-3.7923616536736486,-3.740494980575144
1684253174040227800,7.171227783203125,-4.579310488021373,-4.425180249017477,-3.1860429427206514
1684253174050253800,7.18125390625,-4.388331404569745,-4.9316398248583075,-2.7323712464764713
1684253174060280000,7.191280029296875,-4.536596550932527,-5.430751376023888,-2.351800442278385
1684253174070304800,7.2013046875,-4.637580890682339,-5.958576395976543,-2.2981828338593244
1684253174080331000,7.2113310546875,-4.435914993521571,-6.558235064518452,-2.5210244977787135
1684253174090357000,7.22135693359375,-4.4057700306266545,-7.091953818684816,-2.645711784677207
1684253174100382200,7.23138232421875,-4.5540094580262895,-7.376872584071755,-2.8906854931667447
1684253174110408200,7.241408203125,-4.902325467568636,-7.362655842670798,-3.0511224310994147
1684253174120434000,7.251433837890625,-4.773822714035212,-7.148152091246843,-3.1884806912615895
1684253174130459100,7.261459228515625,-3.8975069124951958,-6.883881561613083,-3.271274417543411
1684253174140485000,7.271485107421875,-2.9955896367087957,-6.359151000544428,-2.9323402765914794
1684253174150511000,7.281510986328125,-2.289906880684197,-5.46545502513647,-1.8942910675674676
1684253174160536000,7.2915361328125,-1.6296937901973723,-4.255763593554496,-0.4593330830067396
1684253174170562000,7.30156201171875,0.14635134863071142,-2.253126717558503,1.1438950173303484
1684253174180588000,7.311588134765625,23.92933481464386,11.643895822787284,10.39272671791315
1684253174190614000,7.321614013671875,18.657600865143536,34.25449781637192,20.280655655717847
1684253174200639000,7.331638916015625,-16.01629842134118,46.6468949616909,12.212682383203505
1684253174210665000,7.3416650390625,-10.268567254281043,44.33981044397354,-1.4071280206099153
1684253174220691000,7.35169091796875,21.040966658508776,26.248776125109195,-6.797552939203381
1684253174230716000,7.3617158203125,22.31421432420015,2.325761161136627,-4.821348727580904
1684253174240742000,7.371741943359375,7.4474822438240045,-6.961071768799424,-2.4621271953910586
1684253174250768000,7.381767822265625,1.3373334766328333,-5.828187682566046,-2.776027725112438
1684253174260793000,7.39179296875,-4.647099829655885,-5.347708935678005,-2.1787598972298206
1684253174270819000,7.401819091796875,-4.122374529284238,-6.825518219971657,-1.3562282928474247
1684253174280844800,7.4118447265625,-3.0150071616232395,-6.71902008523643,-0.9712393799461424
1684253174290870000,7.4218701171875,-2.786180870336294,-5.86234714179933,-0.9475132711175829
1684253174300896000,7.43189599609375,-0.9412426664154976,-4.501389628472924,0.2567459428152069
1684253174310922000,7.441921875,1.578393811070919,-2.8572791903883217,1.850325522982329
1684253174320947000,7.451947021484375,-0.674496175122261,-2.0913667143285273,1.7100895154267548
1684253174330973000,7.461972900390625,-1.9847323859930037,-1.440890297219157,1.71654234482795
1684253174340999000,7.4719990234375,-1.812679536807537,-0.7880144177526235,1.762543194632977
1684253174351023900,7.48202392578125,-0.9848890620488673,-0.8802280065476894,1.0380956785142421
1684253174361049900,7.4920498046875,-0.8739514104962348,-1.2964052539169788,0.0418771209385246
1684253174371075800,7.502075927734375,-1.5423334866523741,-1.1347843668967486,-0.5125940965404734
1684253174381100800,7.512100830078125,-1.771100302837044,-0.29514497584700583,-0.9092477648049593
1684253174391126800,7.522126708984375,-1.4197323583781718,1.006728480347991,-1.1699885128773748
1684253174401153000,7.532153076171875,-1.0135212092280388,2.070522079220414,-1.1822108655907213
1684253174411178000,7.542177978515625,-0.3980944781899452,2.424959201991558,-0.9783758076973259
1684253174421204000,7.552203857421875,0.5071405438423157,2.014538326191902,-0.645750849892199
1684253174431230000,7.56222998046875,1.5125357297599316,1.3750252016454934,-0.14691464506927876
1684253174441255200,7.572255126953125,2.0653005451798436,1.142965335264802,0.5515301590584218
1684253174451281200,7.58228125,1.9773013592094182,1.2186106510967016,1.1928956334732472
1684253174461307100,7.59230712890625,1.339870886155963,1.1657412306964396,1.5296167745508253
1684253174471332000,7.60233203125,0.551492822722718,0.7954664873242377,1.56826945355013
1684253174481358000,7.612358154296875,-0.16160634703822432,0.28681846152842044,1.5441050263695417
1684253174491384000,7.622384033203125,-0.5102619637984782,-0.33354806399941445,1.383688985094428
1684253174501409000,7.632408935546875,-0.47116789770722384,-0.9559206686526537,1.0310568659186363
1684253174511435000,7.64243505859375,-0.33072774588167664,-1.4617290871083735,0.7061351759672164
1684253174521461000,7.6524609375,-0.22344401372671127,-1.86798992061913,0.3116441290967166
1684253174531486000,7.66248583984375,-0.14843166203610597,-2.1459324172526597,-0.12304099926250055
1684253174541512000,7.672511962890625,-0.12095211895816027,-2.193747476872802,-0.5940481351837515
1684253174551538000,7.682537841796875,-0.13266644908413291,-2.004101687851548,-1.0195614392403514
1684253174561563100,7.692563232421875,-0.25273681677170096,-1.6134873362839222,-1.407256469295174
1684253174571589000,7.702589111328125,-0.3534299184899777,-1.1682827318727969,-1.5883724765107035
1684253174581614800,7.71261474609375,-0.4054043628118932,-0.7632990786910057,-1.5007687195986508
1684253174591640000,7.72264013671875,-0.4485363791823387,-0.4612058911412954,-1.4382643326297402
1684253174601666000,7.732666015625,-0.4798889643013477,-0.19738485884070395,-1.381241884203255
1684253174611692000,7.742692138671875,-0.5514385352522134,-0.0603407791942358,-1.3706810349613427
1684253174621718000,7.752718017578125,-0.6794833158850669,0.07714286091327667,-1.519798706500232
1684253174631743000,7.762742919921875,-0.835578059894964,0.16307050130665302,-1.5971670467324555
1684253174641769000,7.77276904296875,-0.9855144274055957,0.17467150725126265,-1.7366659721851347
1684253174651795000,7.782794921875,-1.013646808369085,0.14796762472093106,-1.703858512082696
1684253174661820000,7.79281982421875,-0.8980391191788017,0.1320540162742138,-1.7080878202155232
1684253174671846000,7.802845947265625,-0.7428554255992174,0.03879822494983673,-1.7365556436784564
1684253174681872000,7.812871826171875,-0.5407030600957572,-0.09020984775722027,-1.6869919868253171
1684253174691896800,7.822896728515625,-0.295063581173867,-0.12794248930215835,-1.6195682636328042
1684253174701922800,7.8329228515625,-0.04782499649226665,-0.1621820280343294,-1.6234136870145797
1684253174711948800,7.84294873046875,0.24322540351748465,-0.18070961837172508,-1.5015576780192552
1684253174721974000,7.85297412109375,0.3686135321617126,-0.1876227587610483,-1.2754014827243982
1684253174732000000,7.863,0.40807752754390236,-0.15878887846469877,-1.0544584920331834
1684253174742026000,7.87302587890625,0.6757784700177609,-0.09830722949504851,-0.7030632211759686
1684253174752051000,7.883051025390625,1.301807405221462,-0.0589724134504795,-0.08677008256688713
1684253174762077200,7.8930771484375,2.1729452196016905,0.09450959077775478,0.432800757651031
1684253174772103200,7.903103271484375,2.8884990890383717,0.22165420770049094,0.6982995139054954
1684253174782128000,7.913128173828125,3.4283296040832996,0.2603518948853016,0.7807954262845218
1684253174792154000,7.923154052734375,3.908942791005969,0.20914485473930836,0.7476580035753547
1684253174802180000,7.93318017578125,4.414180716097355,0.07390344060063361,0.6573427957475185
1684253174812205000,7.943205078125,5.045346283537149,-0.1328986504048109,0.6545049419730902
1684253174822231000,7.95323095703125,5.752866776382922,-0.3047194444000721,0.7227984337374568
1684253174832257000,7.963257080078125,6.563654166957735,-0.31204525724351406,0.8610349380388855
1684253174842282000,7.973281982421875,7.877669896367192,-0.05547989515960216,0.9482130168847739
1684253174852308000,7.983307861328125,8.674659063214063,0.3874462429255247,0.677524875293672
1684253174862334000,7.993333984375,7.270654435321688,0.8845458697468042,0.0806096602410078
1684253174872359000,8.00335888671875,5.530055799862742,1.1108996334403753,-0.2063144536189735
1684253174882385000,8.013385009765624,4.698254847353697,0.7905401368379592,-0.7988537916749715
1684253174892411000,8.023410888671876,4.140588523627818,0.2759492769896984,-1.5851153744108974
1684253174902436000,8.03343603515625,3.716815414302051,-0.2749509136021137,-2.308482401816547
1684253174912461600,8.043461669921875,3.4020611903607842,-0.9656120415836572,-2.6919208704054354
1684253174922487600,8.053487548828125,3.1211031452983615,-1.6535411142528056,-2.1198358529657124
1684253174932512500,8.063512451171874,2.829994877621531,-1.9138439092993735,-1.172989886650443
1684253174942538500,8.07353857421875,2.377789746798575,-1.4569728324919937,-0.082137591327494
1684253174952564700,8.083564697265626,2.0544541569948196,-0.08071078252792357,0.9270864960953593
1684253174962589400,8.09358935546875,1.7864328965254126,2.364189968252182,1.5453408517748117
1684253174972615700,8.10361572265625,1.092243594417721,5.561004480355978,1.947275054258108
1684253174982641700,8.1136416015625,-0.1341604870341718,8.881151942139864,2.182098247872293
1684253174992666400,8.123666259765624,-1.8050223000526426,11.404524756610392,2.286931372004747
1684253175002692600,8.133692626953126,-3.226715729370713,12.309364641845226,2.0195240056499837
1684253175012718600,8.143718505859376,-3.8624271235466,11.30808799716234,1.123570898965001
1684253175022743800,8.153743896484375,-3.4452526818335056,8.8468609654814,0.10070753210242837
1684253175032769800,8.163769775390625,-1.1573954271554947,5.6221010463535785,-0.35208741783984004
1684253175042795800,8.173795654296875,1.1484499041557312,2.5378876620352266,-0.4235138738676905
1684253175052820700,8.18382080078125,1.6004057363927364,0.43130058222115036,-0.1039049399042502
1684253175062846700,8.1938466796875,0.3928477731755003,-0.9416565809786319,-0.42239078812189396
1684253175072872700,8.203872802734375,-1.3118740412056444,-2.179824749982357,-0.9028575523111969
1684253175082897700,8.213897705078125,-2.852791815841198,-2.3395693217366933,-1.013162897309661
1684253175092923600,8.223923583984375,-3.7082185586094853,-1.5260031140983104,-0.9063795158922672
1684253175102949600,8.23394970703125,-5.502102209532261,0.04225684097111225,-0.3500094425220042
1684253175112975600,8.2439755859375,-6.562860970753431,1.8538111731410025,0.917399360948056
1684253175123000600,8.25400048828125,-4.254848232275247,3.247868992036581,3.061343673123419
1684253175133026600,8.264026611328125,0.4776582826398313,4.508394538798928,4.793167758235335
1684253175143052500,8.274052490234375,2.007958655540645,5.025270879235864,4.612138406389952
1684253175153077500,8.284077392578125,0.1356584705069661,4.890839612436294,3.689446053600311
1684253175163103500,8.294103515625,-2.12404645639807,4.1406238872021435,2.372286911598593
1684253175173129500,8.30412939453125,-4.22845356182456,2.745035205477476,1.1692889863058924
1684253175183154700,8.31415478515625,-5.447359396475553,1.2138012049883604,0.4495525704875588
1684253175193180700,8.3241806640625,-5.012476279592514,0.15924012936353682,0.5727049029037357
1684253175203206700,8.33420654296875,-3.036738808698952,-0.14681202494502066,0.9861059635579585
1684253175213231600,8.344231689453125,-2.0033900324508545,0.301312266305089,0.7264826752081514
1684253175223257600,8.354257568359374,-2.6549662274956702,0.9117524411022663,-0.8371914133757352
1684253175233283600,8.36428369140625,-3.259532249562442,1.2677391314029693,-3.074050009961426
1684253175243308500,8.37430859375,-3.5401372434034943,1.3007605265170334,-4.779100946699082
1684253175253334500,8.38433447265625,-3.717055945059657,0.9317804991304874,-5.248803155767917
1684253175263360500,8.394360595703125,-3.660616264957189,0.1385796186506748,-4.892298579072952
1684253175273385500,8.404385498046874,-3.83077877035141,-0.9579629881352185,-4.480083805593848
1684253175283411500,8.414411376953124,-3.815347392463684,-2.0417326225876806,-4.026962436708808
1684253175293437700,8.424437744140626,-3.502322476533055,-2.872866051098704,-3.586001168955862
1684253175303462400,8.43446240234375,-3.586312719123065,-3.4906881528407334,-3.295521846832335
1684253175313488400,8.44448828125,-3.5136867511123415,-3.993999493783712,-3.4545351817026733
1684253175323514600,8.4545146484375,-2.9534678202942013,-4.06179643420279,-4.211828297977149
1684253175333539600,8.46453955078125,-2.558360833482444,-3.8150013555049895,-5.144384749916195
1684253175343565800,8.47456591796875,-2.729553558707237,-3.6839357657462357,-5.582603733223676
1684253175353591800,8.484591796875,-2.995259381841123,-3.7316052794158456,-5.113773923075199
1684253175363616800,8.49461669921875,-3.139791479155421,-3.8903713615268467,-4.075542927743494
1684253175373642800,8.504642822265625,-3.079716072899103,-4.06034097469747,-3.199577839337289
1684253175383668700,8.514668701171875,-3.070650138390064,-4.1479830177932975,-2.934614943525195
1684253175393693700,8.524693603515624,-3.3133032949775454,-4.183268850708007,-3.2088004257127642
1684253175403719700,8.5347197265625,-3.725481828099489,-4.317013888809084,-3.657476213365793
1684253175413745700,8.54474560546875,-3.9305128177791833,-4.593738826346397,-4.0872482708454125
1684253175423770600,8.5547705078125,-3.8054637118309733,-4.915924953854084,-4.444399036489427
1684253175433796600,8.564796630859375,-3.7554979039177296,-5.196659127032756,-4.708072184751928
1684253175443822600,8.574822509765625,-3.86583108677119,-5.388291121435165,-4.872525664849579
1684253175453847600,8.58484765625,-4.049987046204507,-5.408459464716911,-4.989829563498497
1684253175463873500,8.59487353515625,-3.9567739249780773,-5.1602527656555175,-4.9443818175315855
1684253175473899500,8.6048994140625,-3.530681725054979,-4.628526646611094,-5.067880771428347
1684253175483925500,8.614925537109375,-2.8178923518955705,-3.734101187884807,-5.364572392195463
1684253175493950700,8.62495068359375,-1.4318271391890942,-2.3554706552237272,-5.802199254828691
1684253175503976700,8.634976806640625,0.742639737021923,-0.06459551402926444,-6.003896716171503
1684253175514002700,8.645002685546874,3.158231391209364,3.6659967889517544,-5.350224133369326
1684253175524027600,8.655027587890626,5.430927317112684,7.719811576750874,-3.674818977832794
1684253175534053600,8.6650537109375,8.742927712798117,10.53092172116041,-1.0692834284603596
1684253175544079600,8.67507958984375,12.705650609308481,12.896830183768271,2.498420159521699
1684253175554104600,8.6851044921875,13.523984762001037,16.111630434417723,5.165595295727253
1684253175564130600,8.695130615234374,9.177289436155558,19.970868406534194,5.223281761020422
1684253175574156500,8.705156494140626,5.552897746267915,22.62585801490545,4.997384508922696
1684253175584181500,8.715181396484375,4.092651591193675,21.921567590022086,5.377301525387168
1684253175594207500,8.72520751953125,3.327280966925621,17.093084772777555,5.102637027511
1684253175604233500,8.7352333984375,3.3893197822093963,11.310490382128954,4.728988423791527
1684253175614258400,8.745258544921874,7.045479652279615,5.1545694593220945,4.007627621641755
1684253175624284400,8.755284423828124,7.055160503816604,-0.48383565610051155,2.543101597291231
1684253175634310400,8.765310302734376,1.2364181104660033,-3.1097488075912,1.6265101917251943
1684253175644335600,8.775335693359375,-1.9297323833048343,-3.880679988595843,1.0053469628617167
1684253175654361600,8.785361572265625,-1.7322727056622504,-4.0520249817729,0.5432990679383277
1684253175664387600,8.7953876953125,-1.4814192914843558,-4.186235299298167,0.3895432152047753
1684253175674412500,8.80541259765625,-1.9826514880657196,-4.848770987513661,0.6907532632444053
1684253175684438800,8.815438720703124,-2.7345114733755587,-5.313581625148654,1.0974621327836065
1684253175694464800,8.82546484375,-3.857113819569349,-5.134311684191227,1.615788891224563
1684253175704489700,8.83548974609375,-5.624407569730281,-4.404589880931377,2.39939542940706
1684253175714515700,8.845515625,-6.965913363611698,-3.1401749255150553,3.310653657251596
1684253175724541700,8.855541748046875,-7.838926031953096,-1.663721732005477,4.114877743788063
1684253175734566700,8.865566650390624,-10.578616369271277,-0.06104103641808033,4.139390546014905
1684253175744592600,8.875592529296876,-12.905081294763088,1.5301719242155551,4.467203281232714
1684253175754618600,8.88561865234375,-13.1921212900877,2.746931394487619,5.224654218417406
1684253175764643600,8.8956435546875,-8.658356747710704,2.118413126686215,4.011532812386751
1684253175774669600,8.905669677734375,-4.09448932801485,1.162409455925226,3.3217730171591042
1684253175784695600,8.915695556640625,-1.8561141893863677,0.7742074261963366,2.796471962726116
1684253175794720800,8.925720703125,-0.8041688492178917,0.6845178029209374,2.3630974968403575
1684253175804746800,8.935746826171876,-0.3273930850336328,0.5359060350775718,2.2839374508857726
1684253175814772500,8.9457724609375,0.05570376704335212,0.22107553102970123,2.466305942380428
1684253175824797700,8.955797607421875,0.1419955554408487,-0.08818155680000782,2.6430641927778717
1684253175834823700,8.96582373046875,0.06331073491573333,-0.30818916633725163,2.5799118632942437
1684253175844849700,8.975849609375,-0.1277484280347824,-0.5071534033238887,2.2908974991567432
1684253175854874600,8.98587451171875,-0.36653847945332524,-0.6746960816085338,1.9080780392490326
1684253175864900600,8.995900634765626,-0.26550620890855786,-0.769786687144637,1.334833184249699
1684253175874926600,9.005926513671875,0.2876543460969813,-0.7828238633722067,0.6844486832074821
1684253175884951600,9.01595166015625,0.6533119327962398,-0.4352601335018873,0.3120524176366627
1684253175894977500,9.0259775390625,0.9531272385418414,0.11883096208572387,0.2224108712866902
1684253175905003500,9.03600341796875,1.2763070532619953,0.4593149628281593,0.13063085160329937
1684253175915028000,9.046028076171876,1.6419909617125987,0.5538911891013384,0.0333203780606389
1684253175925054000,9.056053955078125,2.0159189668953417,0.4104173686683178,-0.07449585353583096
1684253175935080200,9.066080078125,2.3077502881497143,0.1534159532546997,-0.2528887193977833
1684253175945105200,9.076105224609375,2.4471219339609145,-0.18075053490400314,-0.5833565722342581
1684253175955131400,9.08613134765625,2.378955721838027,-0.5568745888262987,-0.882971679232642
1684253175965157400,9.096157470703124,2.31206639778316,-0.7846744596749544,-0.9902259660974144
1684253175975182300,9.106182373046876,2.3358289661645886,-0.8193173185110092,-1.0410554051026701
1684253175985208300,9.116208251953125,2.460198273155093,-0.6560574321120977,-1.1419182373646646
1684253175995234300,9.126234375,2.4053666127711533,-0.46170039665997026,-0.9774413033261895
1684253176005259300,9.13625927734375,2.369973666220158,-0.24666648388206958,-0.7337238785080611
1684253176015285200,9.14628515625,2.3713690661013125,-0.11429916387498378,-0.47046501013487574
1684253176025311200,9.156311279296874,2.384666354569793,-0.015377017351984977,-0.13386252700090406
1684253176035337200,9.166337158203126,2.3827023610204456,0.05318973839581012,0.2732752354748547
1684253176045362200,9.176362060546875,2.448983636179566,0.15259411547780036,0.8413707448869943
1684253176055388200,9.18638818359375,2.544233231669664,0.22459552184939383,1.3946660139217972
1684253176065414100,9.1964140625,2.694659355458617,0.39974867513775825,1.9467334947273134
1684253176075439000,9.206439208984374,2.8355671247959133,0.6555921526879072,2.463846274268627
1684253176085465000,9.216465087890626,2.838041405954957,0.8363479482889175,2.8290941293895244
1684253176095491000,9.226490966796876,2.7936025447696444,0.9111497990339994,3.008649317029118
1684253176105516300,9.236516357421875,2.8212545218050478,0.8053443227380513,3.045019730310142
1684253176115542300,9.246542236328125,2.8137264643877744,0.3762614165663719,2.8941084533527492
1684253176125568300,9.256568359375,2.6912796498924494,-0.4324900842666626,2.604883222943544
1684253176135593200,9.26659326171875,2.6092057623177767,-1.356301211953163,2.3548953395538033
1684253176145619200,9.276619140625,2.6150328610360623,-2.1426386364042758,2.111602277627587
1684253176155645200,9.286645263671875,2.4606167908281087,-2.662070506542921,1.891174835243076
1684253176165670100,9.296670166015625,2.139955827061087,-2.9370383712798356,1.8228239142030476
1684253176175696100,9.306696044921875,1.7507026808440684,-2.8836808751016854,1.9961348006255923
1684253176185722000,9.31672216796875,1.2780324157498777,-1.8744407041937112,2.5676111846476792
1684253176195747000,9.3267470703125,1.8334084365814922,0.07319266198277473,3.316156346321106
1684253176205773000,9.33677294921875,5.029052151340246,3.1437054377287623,3.874644800084829
1684253176215799000,9.346799072265625,6.146050101655721,6.681875472712516,4.533678617659211
1684253176225824000,9.356823974609375,3.6235002940058707,10.26965680308342,5.083151405796408
1684253176235850000,9.36685009765625,0.9090038730464876,13.432857799398898,4.627154773736
1684253176245876000,9.3768759765625,0.38998978992849587,14.877447535657883,3.06078311663121
1684253176255901200,9.386901123046876,1.675259171194583,13.795209933078288,0.5169994553599506
1684253176265927200,9.39692724609375,2.659612884257734,11.292609857523441,-2.609643569213152
1684253176275953400,9.406953369140625,-0.7998296509698033,8.48027689332068,-5.012627086240053
1684253176285978000,9.41697802734375,-6.39797845158875,5.631761439624428,-5.507407914724945
1684253176296004400,9.42700439453125,-11.098716932451724,3.6223809345871207,-3.9280563645377753
1684253176306030300,9.4370302734375,-15.450437977504729,2.293278110682964,-1.2919796925596891
1684253176316055300,9.44705517578125,-17.248277672576904,0.7780430588364601,0.37227073949500916
1684253176326081300,9.457081298828125,-17.298596823972463,-0.35206104128956794,1.1992091274689882
1684253176336107300,9.467107177734375,-15.110776983582973,-1.3023872509360312,1.653648374019563
1684253176346132200,9.47713232421875,-3.3064626353025433,-1.5673872638881206,4.0469226901978255
1684253176356158200,9.487158203125,6.192589734512567,0.3341851928591728,8.319031853875517
1684253176366184200,9.49718408203125,2.7871567296311257,2.3784862046301365,9.203900379705429
1684253176376209200,9.507209228515626,-1.8839087897628544,3.9253579192340373,6.608316315504908
1684253176386235100,9.517235107421875,-5.467918784901499,4.561873615530133,2.94724090860337
1684253176396261000,9.52726123046875,-6.261209681752324,4.558557038328051,-0.13124854511022566
1684253176406286300,9.537286376953125,-5.3109524456888435,4.339094203191995,-2.3681129869148134
1684253176416312300,9.547312255859374,-3.7298148888677356,3.713738198813796,-3.6016464818552136
1684253176426338300,9.55733837890625,-1.6400070944190024,2.918413165786862,-3.6583670247256754
1684253176436363300,9.56736328125,-0.7521686128675937,2.310246781140566,-3.7936785814911125
1684253176446389200,9.57738916015625,-1.4358642857506871,2.066646699091792,-5.287873767918348
1684253176456415200,9.587415283203125,-2.346870876921713,1.5437503677129745,-6.841072347456216
1684253176466440200,9.597440185546875,-2.0881571046322582,0.5053285259842872,-7.753767037844657
1684253176476466200,9.607466064453124,-0.7061731698900461,-0.6199152746289968,-8.26313168747723
1684253176486492200,9.6174921875,0.4492711231976747,-1.8079262048006057,-8.64997119668126
1684253176496517000,9.62751708984375,0.6122960317969321,-2.7094068427354094,-8.52751386079192
1684253176506543000,9.637543212890625,0.1442009656637907,-2.895427426996827,-7.76552937183082
1684253176516569000,9.647569091796875,-0.8909212499976158,-2.6921055793225763,-6.258019945800304
1684253176526595000,9.657594970703125,-2.28433375672698,-2.5006121166080235,-4.698701422077417
1684253176536620000,9.6676201171875,-3.5160797837287188,-2.5222277360886336,-3.6567233491718767
1684253176546646000,9.67764599609375,-3.9165859992355108,-2.575110600492358,-3.118428373131156
1684253176556672000,9.687672119140625,-3.999525563728809,-2.9001655614346262,-3.295058613234758
1684253176566697200,9.697697265625,-4.204388795626163,-3.3147897341430186,-3.3749081027582286
1684253176576723200,9.70772314453125,-4.026072794392705,-3.65522521956861,-3.28550694103539
1684253176586749200,9.717749267578125,-3.9478041443198917,-3.9252071125864982,-3.148050188934803
1684253176596774100,9.727774169921876,-4.469982682818174,-4.125567187845706,-2.985023526769876
1684253176606800100,9.737800048828126,-5.392753361541033,-4.330589994218945,-3.119049135378003
1684253176616826400,9.747826416015625,-5.952126196923851,-4.653169504958391,-3.50479383508265
1684253176626851000,9.75785107421875,-5.878304589387774,-4.9575031649112695,-3.6931338022023437
1684253176636877300,9.767877197265625,-5.560619280430674,-5.207741077539325,-3.668099898710847
1684253176646903300,9.7779033203125,-5.138291109216213,-5.560483671352267,-3.6159269361421464
1684253176656928300,9.78792822265625,-4.813500059907138,-5.91738396936655,-3.387473862081766
1684253176666954200,9.797954345703126,-4.767722935855389,-6.1216580031991,-3.1279332835793494
1684253176676980200,9.807980224609375,-4.739821952494979,-6.101320148569345,-2.838637910543382
1684253176687005200,9.818005126953125,-4.388692639097571,-6.010487200477719,-2.5346803904265163
1684253176697031200,9.82803125,-2.9762805406048893,-5.784999113702773,-1.7863192070178686
1684253176707057200,9.83805712890625,-0.23225743477940558,-4.832728199729323,0.5045961200565099
1684253176717082400,9.848082275390626,1.5464038048312068,-0.8046177620291709,4.670376075825095
1684253176727108400,9.8581083984375,-1.7229824608780442,6.745349873757362,9.217229816877841
1684253176737134300,9.86813427734375,-2.0862954024136067,16.45071625880003,12.190656429356336
1684253176747159300,9.8781591796875,12.366636096596718,29.8719911724329,13.294557582211494
1684253176757185300,9.888185302734374,14.43451087617874,42.245996921014786,10.130940406310557
1684253176767211300,9.898211181640624,-1.0827695174992085,40.92392063474655,3.213179371449351
1684253176777236200,9.908236328125,-0.548744473862648,28.713321487557888,4.2283501014500855
1684253176787262200,9.91826220703125,9.059502430164814,9.556583936807513,2.58805074608624
1684253176797288200,9.9282880859375,19.098571192985773,-5.955436928907036,-1.715939702759683
1684253176807313200,9.938313232421875,20.82144595570564,-10.143156913805008,-4.344369220985472
1684253176817339100,9.948339111328124,10.705212120139597,-9.048118281841278,-4.765309737233817
1684253176827365000,9.958365234375,-0.49393038566801695,-6.617763942807913,-3.337170785038173
1684253176837390000,9.96839013671875,-2.6688860317766663,-6.599293051093817,-2.262027378503233
1684253176847416000,9.978416015625,-3.130213211210072,-6.729980455189943,-1.7247829344287513
1684253176857442000,9.988442138671875,-4.787780219978094,-6.382300989985466,-1.402735484739393
1684253176867467300,9.99846728515625,-5.479596947735548,-5.2059407501190895,-0.7081967846721411
1684253176877493200,10.0084931640625,-5.646812293761968,-3.1325299637198447,0.7700035447657108
1684253176887519200,10.018519287109376,-5.676268689870834,-1.0364274530410766,2.7264900794833897
1684253176897544200,10.028544189453125,-5.9972331666290755,0.7063496955007315,4.598365901625156
1684253176907570000,10.03856982421875,-5.778088311401009,1.649444784849882,6.1590662350952625
1684253176917596000,10.048595947265625,-4.637608363211155,1.3904741151899098,6.4509875727206465
1684253176927620900,10.058620849609374,-2.1596540686130523,0.8747913684517145,4.852396776795387
1684253176937646800,10.068646728515626,-1.434358411232382,-1.121982168468833,3.9198160671979188
1684253176947672800,10.0786728515625,-2.504384036362171,-2.4022762455403806,3.666043550702929
1684253176957698800,10.08869873046875,-2.900194203007221,-1.7495500036776064,3.37299350130856
1684253176967723800,10.098723876953125,-2.8717969605624676,-1.0064432336658238,2.883997101444006
1684253176977749800,10.108749755859375,-2.6902573211073872,-0.43070436989367006,1.9287810739293694
1684253176987776000,10.11877587890625,-2.426545448269695,-0.21503332825601099,1.2720359518140554
1684253176997800700,10.12880078125,-2.234362980377674,-0.05854220533967018,0.6821496124848723
1684253177007827000,10.138826904296875,-2.0117069021582603,0.009113280782103538,0.19720595860984175
1684253177017853000,10.14885302734375,-1.8216379192888736,-0.025827099695801735,-0.2692366458748467
1684253177027878100,10.158878173828125,-1.534006387811899,0.18087679163217543,-0.8595791862726211
1684253177037904100,10.168904052734375,-1.1128560282051563,0.3453776180028915,-1.4549205761373043
1684253177047930000,10.17893017578125,-0.5879249761283397,0.7808212913781404,-2.2195625938698647
1684253177057955000,10.188955078125,-0.12999591470062732,1.2161188342809677,-2.626899532179534
1684253177067981000,10.19898095703125,0.2270417459577322,1.3746879325151442,-2.728524800181389
1684253177078007000,10.209007080078125,0.4870352558594197,1.3154320259481667,-2.780616221946478
1684253177088032000,10.219031982421875,0.6175830322891473,1.138705339732766,-2.653030290997028
1684253177098058000,10.22905810546875,0.6115420716244727,0.8743769424319267,-2.2819953769072887
1684253177108084000,10.239083984375,0.40541678390204905,0.6493021126329899,-2.158052478635311
1684253177118109000,10.24910888671875,0.18118468853756783,0.45189796456992626,-2.4195538358166813
1684253177128135000,10.259135009765625,0.22480025064125655,0.21625556352734565,-2.7579081310540436
1684253177138161000,10.269160888671875,0.46057621493563056,-0.04924480016231537,-2.9848627832502124
1684253177148185900,10.279185791015625,0.8083622092545032,-0.16414543706178664,-3.1009447388887406
1684253177158211800,10.2892119140625,1.0448837312191723,-0.47760348371267314,-2.83034179136306
1684253177168237800,10.29923779296875,1.3060657933183013,-1.0043044680714606,-2.2559651558548213
1684253177178263000,10.309262939453125,1.405677237279713,-1.462599440202117,-1.904299543623626
1684253177188289000,10.3192890625,1.331420453196764,-1.5822218449264764,-1.7275015457376837
1684253177198315000,10.32931494140625,1.1473482265241444,-1.111537931343913,-1.6469297332890331
1684253177208340000,10.339340087890625,0.9810252992928028,-0.5234890365749597,-1.4885206479221582
1684253177218366000,10.349365966796874,0.7836766808092593,-0.020409166300296783,-1.3756158610150218
1684253177228392000,10.359391845703126,0.6012918227016926,0.21006313862800596,-1.2636638447880744
1684253177238417000,10.3694169921875,0.543738628399372,0.6481131951093674,-1.4550798583522437
1684253177248443000,10.37944287109375,0.663508478770405,0.9542734859675168,-1.4074414704732596
1684253177258468900,10.38946875,1.0562165877468883,0.5559492906749248,-0.6401546373203396
1684253177268493800,10.399493896484374,1.412791599329561,-0.2750911988556385,0.22074613467855378
1684253177278519800,10.409519775390624,1.584496219599247,-0.5086620543211698,0.47940403032861645
1684253177288545800,10.4195458984375,1.6354608292914925,-0.08680150061845779,0.458301146143116
1684253177298570800,10.42957080078125,1.5561001461982726,0.7350655023753643,0.5637883137375116
1684253177308596700,10.4395966796875,1.380899062114954,0.7172913607537746,0.9010345746677368
1684253177318622700,10.449622802734375,1.271978668668866,-0.13344167124032974,1.395462424996495
1684253177328648000,10.45964794921875,1.3279834644854067,-0.6396972489416599,1.6577900038689375
1684253177338674000,10.469673828125,1.3677753766477108,-0.8761457056701183,1.7875220069363713
1684253177348700200,10.4797001953125,1.3458926306635142,-1.0757476560384034,2.1428584166347977
1684253177358724900,10.489724853515625,1.3896090227931737,-0.9710609546393155,2.5428134279996155
1684253177368751000,10.499751220703125,1.641902698907256,-0.31772505644559856,3.0336975413069127
1684253177378777000,10.509777099609375,2.057429373413324,-0.04671382037997245,3.7061794539973136
1684253177388802000,10.519802001953124,2.2946277717262507,0.15604513271450995,4.156999267941713
1684253177398828000,10.529828125,2.2566214278064667,0.1233393794208765,4.1069615638360375
1684253177408854000,10.53985400390625,2.425066315627843,-0.02382686578929424,3.46589887176007
1684253177418880000,10.5498798828125,2.293820108605176,-0.25390520296394825,2.6354057869791983
1684253177428905000,10.559905029296875,2.075059284258634,-0.37319150760173797,2.1897030237875876
1684253177438931000,10.569930908203125,1.599640012717247,-0.511864065232873,1.9448348214991389
1684253177448957000,10.57995703125,1.2514506982944904,-0.6118038643658161,1.6629891799472272
1684253177458982000,10.58998193359375,0.8632378549106419,0.14073065920472144,1.3740414513051509
1684253177469008000,10.6000078125,0.5618506236732006,1.7742314404696224,1.3316332191646099
1684253177479033900,10.610033935546875,0.22865093472003936,3.7190129243463277,1.3005565283775329
1684253177489059000,10.62005908203125,0.10827449675798416,6.336107978609204,1.02430344613567
1684253177499085000,10.6300849609375,0.27857502238340676,7.755633416238426,0.1735963157678023
1684253177509111000,10.640111083984374,0.13749365004487335,8.670684314364195,-2.1246569895118474
1684253177519136000,10.650135986328126,-0.26758180960621686,9.336037982609868,-4.904970429119468
1684253177529162000,10.660161865234375,-0.5879202999532223,7.977826553121209,-6.032405017775297
1684253177539188000,10.67018798828125,-0.6858920138835907,5.34130257576704,-5.957088787767291
1684253177549213000,10.680212890625,-0.3138812404990196,2.5520430286377667,-5.39639493291378
1684253177559239000,10.690239013671874,-0.09372223979234695,0.7666039654552936,-5.154314023256301
1684253177569265000,10.700264892578126,0.03539044406665489,-0.7499258023768663,-4.500346256899833
1684253177579289900,10.710289794921875,4.490075038254261,-2.663565713536739,-4.555744026733935
1684253177589315800,10.72031591796875,13.985551303148268,-4.3874505300819875,-5.327156561514735
1684253177599341800,10.730341796875,7.3857427037477485,-3.452287987297773,-3.9844130425319073
1684253177609366800,10.74036669921875,0.013737433451414108,-1.8933061481833457,-2.784692385344207
1684253177619392800,10.750392822265624,-2.821069812887907,-1.2940823639273642,-1.8444700749523937
1684253177629418800,10.760418701171876,-3.770031748443842,-1.2921709773480892,-0.6512112341899424
1684253177639444000,10.77044384765625,-3.9493268238425254,-1.1339257042407989,0.2011914115168154
1684253177649470000,10.780469970703125,-4.051634228889644,-0.6288204656183719,1.1616826029554008
1684253177659496000,10.790495849609375,-4.394086022573709,-0.09615618894100189,2.039637257743627
1684253177669521000,10.80052099609375,-4.810280805599689,0.40766310152411456,2.8145974020034075
1684253177679547000,10.810546875,-5.176439345824718,0.7871060707360505,3.618051380950212
1684253177689573000,10.820572998046876,-6.075307755434513,1.7679577670276163,3.4880548817276953
1684253177699597800,10.830597900390625,-6.7774319421947,2.619275905433297,3.534413897320628
1684253177709624000,10.8406240234375,-7.093868712395429,3.2614883520662783,3.0216069982796907
1684253177719650000,10.850650146484375,-7.754428716623782,3.770919052672386,1.7603512375466523
1684253177729675000,10.860675048828124,-8.291936341679095,3.2495465698599815,0.7843522419832646
1684253177739701000,10.870700927734376,-8.09571000522375,1.7098375864922999,-0.4100321687430143
1684253177749727000,10.88072705078125,-7.059218254774809,0.7635732194572686,-1.2772251910202204
1684253177759752000,10.890751953125,-5.4768479412883515,0.7105845565915108,-1.3181503449961542
1684253177769778000,10.90077783203125,-3.7286157422110437,1.2311398778021334,-0.9074494832113384
1684253177779804000,10.910803955078125,-2.3067352658882734,1.0155769727140664,-0.3441888466097414
1684253177789829000,10.9208291015625,-1.0822829030260444,0.5988251403272151,0.2495946462884545
1684253177799855000,10.930855224609376,-0.15801146435141564,0.37660803804695603,0.5665227071374654
1684253177809881000,10.940881103515625,0.5021253460288048,-0.015244330883026121,0.767807057634741
1684253177819906000,10.950906005859375,0.9789747965037822,-0.5920224745750426,0.8720900005385279
1684253177829932000,10.96093212890625,1.411805657032132,-1.2193851426005362,1.1646586961567402
1684253177839958000,10.9709580078125,1.5816449218213557,-1.75558577671051,1.3845559771873055
1684253177849983000,10.98098291015625,0.6696423053503036,-2.3541940594166517,1.5547167290158568
1684253177860009000,10.991009033203126,-1.3609148432284592,-4.005051049152017,1.7936187163762747
1684253177870035000,11.001034912109375,-1.4784475821971892,-4.8631958187073465,2.5174475160747765
1684253177880060000,11.011059814453125,-0.578660888698697,-4.258808368077874,3.346175344748795
1684253177890086000,11.0210859375,0.6839023013710975,-3.183865014159679,3.685459029790759
1684253177900112000,11.03111181640625,1.538486163574457,-2.073763837620616,3.496642092809081
1684253177910138000,11.04113818359375,1.161505200561881,-1.1652917333632706,3.131785282832384
1684253177920164000,11.0511640625,0.23009470378756522,0.06209492938518524,2.598540575918555
1684253177930190000,11.061190185546875,-0.6473077239453792,1.2298574367761612,1.6488557329155504
1684253177940215000,11.071215087890625,-1.7105372591942547,2.131623321393132,0.3773705468520522
1684253177950241000,11.081240966796875,-2.630173731544614,2.879519079247117,-0.39977921640649433
1684253177960267000,11.09126708984375,-3.1195863109946247,2.47044260379374,-0.45047085437625645
1684253177970293000,11.10129296875,-7.416452899309992,0.4325327543646097,-1.0517832814745605
1684253177980318000,11.11131787109375,-10.213538025498389,-0.7984428727865218,-1.5997303213492036
1684253177990344000,11.121343994140625,-11.611120511388778,-1.8408283574491737,-2.406235066168755
1684253178000370000,11.131369873046875,-6.777287565287947,0.8048428029567003,-4.12860085645318
1684253178010395100,11.14139501953125,-1.897972094167769,2.827029598075151,-4.030881071457267
1684253178020421000,11.151421142578124,0.8130442295908927,3.3610207394421097,-3.8841041178256273
1684253178030447000,11.161447021484374,2.350686635817587,2.198588487163186,-4.396494252759218
1684253178040472000,11.17147216796875,5.7534688339293,-1.8138719614624976,-6.429997976183891
1684253178050498000,11.181498046875,12.506463084959982,0.75637190977633,-4.4567415084511035
1684253178060524000,11.19152392578125,11.985015783345698,2.923115644389391,-1.2309233124420047
1684253178070549000,11.201549072265625,6.263694484305382,2.989180646449327,2.117869667459279
1684253178080575000,11.211574951171874,3.7125381753742692,1.5707500183194876,3.441495667387545
1684253178090601000,11.22160107421875,2.286508470417559,0.6790209590703249,1.9317900464870035
1684253178100626000,11.2316259765625,0.9044707596614956,1.2171236274093389,1.1863709078796207
1684253178110652000,11.24165185546875,0.052237259976565836,1.9005425291776656,-0.1328156482964754
1684253178120678000,11.251677978515625,-0.5435363838255405,1.940999042728543,-1.5658078857421873
1684253178130702800,11.261702880859374,-0.3422632853746414,2.493164723211527,-1.0818136780790983
1684253178140728800,11.271728759765624,0.23461042764633894,3.995255631324649,0.507287258836627
1684253178150755000,11.281755126953126,0.4218333734348416,4.7414907624900335,1.4984385230854154
1684253178160780000,11.291780029296875,0.6692474608138204,5.401286212086677,2.2279645115122197
1684253178170806300,11.30180615234375,0.982546809771657,5.436139498803019,2.192010277816653
1684253178180832300,11.311832275390625,0.6970350469276309,5.222603715628385,1.6024733364470303
1684253178190857200,11.321857177734374,0.06814589998722076,5.238610263055563,1.272490855974704
1684253178200883200,11.33188330078125,-0.1753062980234623,5.535661364784836,1.1464337420277297
1684253178210909200,11.3419091796875,-0.22821605043411253,6.520768380433321,0.9296361805781721
1684253178220934100,11.35193408203125,0.4972840434774756,7.7989640239208935,-0.3001290478698909
1684253178230960000,11.361960205078125,1.7739695746630428,8.690290932109951,-1.8190875041536987
1684253178240986000,11.371986083984375,1.898443511071801,9.440390922009945,-2.697130129486322
1684253178251011000,11.382010986328124,0.6050500061914325,9.135794811728596,-2.969928541229665
1684253178261037000,11.392037109375,-1.0645879641205072,8.550124336528778,-3.205984491509199
1684253178271063000,11.40206298828125,-2.469612582710385,7.5609788591444484,-3.171652013796568
1684253178281088000,11.412087890625,-4.180714490050077,5.338678072482347,-3.656227090087533
1684253178291114000,11.422114013671875,-6.3438938101798295,3.263211522597074,-5.0748161236494775
1684253178301140000,11.432139892578125,-7.937175978302955,2.5967402484983206,-5.863258995947241
1684253178311165200,11.442165283203124,-11.578349876165388,1.4461463180512188,-6.18967530837059
1684253178321191200,11.452191162109376,-10.584564464020728,1.6044243243843317,-4.481231222063303
1684253178331217200,11.462217041015625,-9.032856415301561,1.6073539480954409,-3.289387581861019
1684253178341242000,11.4722421875,-2.6751915616616606,-0.5568973851799964,-3.2343577685564755
1684253178351268000,11.48226806640625,9.871043269455432,-4.273665745469928,-2.5403432384938
1684253178361294000,11.492294189453125,6.3741784738063805,-2.0361708968073127,1.1313824494987725
1684253178371319000,11.502319091796876,4.826285014939308,2.5440292335301637,1.2297989845871924
1684253178381345000,11.512344970703126,5.476415979611874,3.956667249733209,1.764362957406044
1684253178391371000,11.52237109375,1.873458122897148,1.799499737238884,3.450571831029653
1684253178401396000,11.53239599609375,1.444262404000759,-0.015120996764302253,2.9874884555786845
1684253178411422000,11.542421875,2.390558919739723,-2.5395272459357976,1.7689426864117384
1684253178421448000,11.552447998046874,7.147442481672764,-3.6520308074414727,-1.3310890292853117
1684253178431474000,11.562473876953124,8.072727189043164,-0.6390437534689903,-3.734168992424011
1684253178441499000,11.572498779296875,6.992055520606041,-1.7710650853931902,-4.235714492738246
1684253178451524900,11.58252490234375,7.0594339433521025,-2.243161788383126,-2.5998008051127193
1684253178461550000,11.592550048828125,8.301673891839384,-3.108750444203615,-0.7989075676888227
1684253178471576000,11.602576171875,8.404899873036145,-2.9236025511234995,2.013997643443942
1684253178481602000,11.61260205078125,8.170061774113774,-2.814612599572539,5.058359494367242
1684253178491628300,11.622628173828126,7.319666595771908,-3.0765970640957354,8.00792533878684
1684253178501653000,11.632653076171875,5.957005201137066,-4.124911938807368,9.728228205192089
1684253178511679200,11.64267919921875,4.40120959084332,-4.993373519715666,10.697439148050545
1684253178521705200,11.652705322265625,3.697091015395522,-5.856046580350399,10.69481932094097
1684253178531730200,11.662730224609374,3.563340132075548,-6.29676322569251,10.106757566690444
1684253178541756200,11.672756103515624,3.33044352260977,-5.628316267606616,9.494489591944218
1684253178551782100,11.6827822265625,3.012951398137212,-4.734455457025766,8.218878119730949
1684253178561807000,11.69280712890625,2.7732576758772134,-4.063219160482287,6.249570097362994
1684253178571833000,11.7028330078125,0.5209887441918254,-4.01800580779314,3.402878351962566
1684253178581859000,11.712859130859375,-2.131394188812375,-3.340778161880374,1.1754209131896496
1684253178591884000,11.722884033203124,-3.9627474464297294,-0.5177279888302088,-0.2946446251094341
1684253178601910000,11.732909912109376,-4.52383293094933,0.7439613410145044,-2.3274445841789246
1684253178611936000,11.74293603515625,-4.811265140461922,2.229056690663099,-3.8665690456569193
1684253178621961200,11.752961181640625,-5.272531821879745,2.293349422353506,-5.615984024778008
1684253178631987200,11.7629873046875,-5.17568940424025,2.271518260426074,-7.320886492955684
1684253178642013200,11.77301318359375,-4.407332457637787,3.066836425320804,-8.265378005099295
1684253178652038100,11.7830380859375,-3.4183839641302822,3.7948029093459246,-8.808782286977767
1684253178662064000,11.793064208984376,-2.649804314687848,3.7831177322492002,-9.472535534289479
1684253178672090000,11.803090087890626,-1.7799743680357931,3.75655033558011,-9.797139244332909
1684253178682115000,11.813114990234375,-0.4033236110150814,3.724988199363649,-9.29822993774116
1684253178692141000,11.82314111328125,0.4999088390231132,3.4740073594138026,-8.263807394781708
1684253178702167000,11.8331669921875,0.7204998014062642,3.6971477140188216,-7.35866180459857
1684253178712192000,11.84319189453125,1.8157190506339072,5.63017387817204,-5.776456910806894
1684253178722218000,11.853218017578126,2.0314660801172257,4.400147806830704,-5.832541201600432
1684253178732244000,11.863243896484375,0.9644535191982984,2.101499693547189,-6.466714718684553
1684253178742269000,11.87326904296875,1.298773152092099,3.05312675665915,-5.766700655946135
1684253178752295000,11.883294921875,1.5083219114571809,4.3996296281754965,-4.845964697921276
1684253178762321000,11.89332080078125,1.171102465468645,4.919691612911224,-4.162427722731232
1684253178772346000,11.90334619140625,0.11677169146835803,4.5187890915632245,-3.872649242353439
1684253178782372000,11.9133720703125,-1.2653437606990336,3.536828849507868,-3.238299199658632
1684253178792398000,11.923398193359375,-2.5003753852427004,2.941677721518278,-2.013854435580969
1684253178802423000,11.933423095703125,-3.177785401985049,2.7957044854849573,-0.6184954709589481
1684253178812449000,11.943448974609375,-2.934118684440851,2.718122648632526,0.5057733471423387
1684253178822475000,11.95347509765625,-1.738461623430252,3.1066441195741294,1.3162713993817567
1684253178832500000,11.9635,-0.36384500258564945,3.4755256550222633,1.3982050017029046
1684253178842526000,11.97352587890625,0.5654612153857946,3.204574040189385,0.57148442119807
1684253178852552200,11.98355224609375,1.1417319940775632,2.804243765771389,-0.2562590726137161
1684253178862577000,11.993576904296875,1.3276479489207267,2.398328676958382,-0.3588055471137166
1684253178872603100,12.00360302734375,1.1070634162783621,1.995134829802811,-0.3212941471040249
1684253178882629000,12.013629150390624,0.49101884560286996,1.8820647693313657,0.10833294894695282
1684253178892653800,12.02365380859375,-0.14501695822179317,1.9525123703896998,1.2798913414895534
1684253178902680000,12.03368017578125,-0.3153764474928379,1.8816595495313404,2.30850432138741
1684253178912705800,12.043705810546875,0.07541910586059093,1.7071750892847775,2.4284032049655915
