time,seconds_elapsed,z,y,x
1684253118247266800,0.019266845703125,0.3838724760919809,0.12107640292495489,-0.7349543701510876
1684253118257292800,0.029292724609375,-1.315152039963007,0.644411710242927,0.24836700418964028
1684253118267318800,0.03931884765625,-3.1358442028343676,1.2604846302300692,1.8929906524933873
1684253118277343700,0.04934375,-4.313724199613929,1.132084752549231,2.8122955548018216
1684253118287369700,0.05936962890625,-4.620083812436461,0.8196668626010417,3.572435584940016
1684253118297395700,0.069395751953125,-3.7976270268559453,0.6433461268380284,4.073400362756848
1684253118307420700,0.079420654296875,-2.5660931813001633,0.09133709822148084,3.5681098306953904
1684253118317446700,0.08944677734375,-1.004337201297283,-0.7542845821082591,2.2903007023073734
1684253118327472600,0.09947265625,0.4709837733119726,-1.1585814220696686,0.9709849667936563
1684253118337498600,0.10949853515625,1.301578272640705,-0.9060454616323113,-0.26735640335250643
1684253118347523600,0.119523681640625,0.7318558926790952,0.021090426562726496,-1.3856015407174824
1684253118357549600,0.129549560546875,0.43371465762555594,0.6922492739558219,-1.8753098882436752
1684253118367575600,0.139575439453125,1.3558511300981044,1.8589011897563934,-1.7304817305922506
1684253118377600800,0.149600830078125,2.4645593909740446,2.8350878168463707,-1.0747641979590057
1684253118387626800,0.159626708984375,3.2997172526955603,2.9439690473258495,-0.7031723075736314
1684253118397652700,0.16965283203125,2.8625387183517215,1.859832333126664,-0.9171889330677687
1684253118407678700,0.1796787109375,1.447080384030938,0.771622085878253,-1.5586793490365147
1684253118417703700,0.18970361328125,-1.4281348605424165,0.10074643934071063,-2.7042352853164076
1684253118427730000,0.19972998046875,-1.4490975690722465,-0.2942430585712194,-3.09066942858994
1684253118437756000,0.209755859375,0.6714806266933679,-0.10953238786458969,-2.793249201287329
1684253118447782000,0.219781982421875,1.4936597643762826,0.4767342996627092,-3.6679169433593746
1684253118457806800,0.229806884765625,-1.1415490387260914,-0.3942763812065124,-6.606655688816309
1684253118467832800,0.239832763671875,0.49691257981657977,1.9724398906528948,-2.414333616950363
1684253118477858800,0.24985888671875,2.289412082904577,6.18950696606636,1.1890770980983971
1684253118487883800,0.2598837890625,1.5256804580152035,7.401022105944156,-0.42229404974915086
1684253118497909800,0.26990966796875,3.467734562754631,7.907693863230943,-0.697432960204035
1684253118507935700,0.279935791015625,4.289844726854563,8.113593452438712,-1.799136164623499
1684253118517961700,0.289961669921875,5.574048086324334,8.172751743850112,-2.2026661118656397
1684253118527986700,0.299986572265625,7.692323850366472,8.976941635856031,-1.0616381744042038
1684253118538012700,0.3100126953125,8.735150649055837,9.915873760306834,0.01469371126294136
1684253118548038700,0.32003857421875,8.530666187343002,10.157807370448111,0.3315872853204608
1684253118558063900,0.33006396484375,8.05481217764616,10.35471759751439,0.4423690887242555
1684253118568089600,0.340089599609375,7.296749830564856,11.191149716955422,-0.15779752933979033
1684253118578115600,0.350115478515625,6.855773072981834,12.111008307623862,-1.5544816050857304
1684253118588141600,0.3601416015625,6.543730738347769,12.367950101804732,-3.3262171370863913
1684253118598166800,0.370166748046875,6.711156512254476,12.445460042464733,-6.798423292297125
1684253118608192800,0.38019287109375,5.060280817818642,13.252132983458042,-6.264552562439441
1684253118618218800,0.39021875,4.590663364423811,14.66929578360915,-4.658685638031363
1684253118628243700,0.40024365234375,3.3759260476291177,14.592297884124516,-3.5964036127656698
1684253118638269700,0.410269775390625,2.12894211948514,13.969941061562299,-2.3017034092009068
1684253118648295700,0.420295654296875,0.7711760956764221,13.538345295786856,-0.44006314986944195
1684253118658321700,0.43032177734375,-0.29914179039821026,12.739886056387423,2.574610834276676
1684253118668346600,0.4403466796875,-0.94166491041556,11.025244869005679,5.836203231239319
1684253118678372600,0.45037255859375,-1.5179334971502423,8.926988979685307,8.841063677379488
1684253118688398800,0.46039892578125,-1.9893080233454703,7.178952303180098,10.795590894722938
1684253118698424800,0.4704248046875,-2.0220760282203556,5.815402435272932,12.169109783458708
1684253118708449800,0.48044970703125,-1.8795427035078405,4.740652558100224,13.626525099021196
1684253118718475800,0.490475830078125,-1.4689710210606455,3.702976858563721,15.094845254957676
1684253118728501800,0.500501708984375,-0.6797358293414115,1.5072855541467667,17.034525031781197
1684253118738526700,0.510526611328125,0.6409608391366899,-1.093878356012702,18.65638038343787
1684253118748552700,0.520552734375,1.4446609017990528,-2.7462428277015682,19.279543846207854
1684253118758578700,0.53057861328125,2.2366075444340705,-3.2999481388419865,19.527017554819583
1684253118768604700,0.540604736328125,3.014882073938846,-3.1860727533370254,19.11698246346712
1684253118778630000,0.5506298828125,3.4927766495525834,-3.293030322277546,17.85293400327563
1684253118788655900,0.56065576171875,4.009022875392437,-3.860225229588151,16.901326521646975
1684253118798681900,0.570681884765625,4.434353151032329,-4.784643090996146,16.365789904403684
1684253118808706800,0.580706787109375,5.427582682859898,-6.143943484765291,15.98927363629341
1684253118818732800,0.59073291015625,7.377980253052711,-7.660431751543283,14.780503411209583
1684253118828758800,0.6007587890625,7.014087319672107,-8.378532090592383,13.126682895493506
1684253118838784800,0.61078466796875,7.312373516154289,-8.396735271281003,11.122609849214554
1684253118848809700,0.620809814453125,7.530610608887672,-8.301695519149304,9.166213915389775
1684253118858835500,0.63083544921875,8.154190251243113,-8.085017930817603,7.171281037899852
1684253118868861400,0.640861328125,8.238255604895949,-7.465419467052817,5.534920775550604
1684253118878887400,0.650887451171875,6.591017390179633,-6.380534564834833,4.20959805470705
1684253118888912400,0.660912353515625,4.954847097444534,-4.624291785520315,2.0630448752075434
1684253118898938400,0.6709384765625,2.482638068500161,-2.990850040966272,0.05746083984375
1684253118908964400,0.68096435546875,1.6432722336947918,-2.24731364736557,-0.6244318752706051
1684253118918989300,0.6909892578125,3.5025586233764883,-1.4678145445019006,-1.7987854514896868
1684253118929015300,0.701015380859375,6.10975830656886,-0.1855973904132843,-4.709210541132093
1684253118939041300,0.711041259765625,6.218241477641463,-0.5623644184142351,-3.938590325772762
1684253118949067300,0.7210673828125,5.186690690726041,-1.710609739908576,-2.0058242738604544
1684253118959092500,0.731092529296875,3.870267900174856,-1.4799053797900676,-1.5246084448695183
1684253118969118500,0.741118408203125,2.6918834610044953,-0.2688508431613445,-1.5259195274680852
1684253118979144400,0.75114453125,2.920547255206108,0.16865210083127022,-0.48113341140449045
1684253118989169400,0.76116943359375,-0.7411433609843253,0.8660644566386938,-0.8907014697670936
1684253118999195400,0.7711953125,-3.094941699081659,3.387637820471823,-0.7795365122646093
1684253119009221400,0.781221435546875,-4.043680639536679,3.187106772559881,-2.1894471493303773
1684253119019247400,0.791247314453125,-0.7449239024363458,0.6985381449669599,-1.6618167751669883
1684253119029272300,0.801272216796875,1.795442132411152,2.303781969040632,-3.2330133682101962
1684253119039298300,0.81129833984375,1.4035609757781027,4.474788621795177,-4.370806269273162
1684253119049324300,0.82132421875,-0.29071327700987454,5.642013953569531,-5.801691889828443
1684253119059349200,0.831349365234375,-0.11971125205159186,7.274588267639279,-5.345885227382182
1684253119069375200,0.841375244140625,-0.793565622138977,6.831211463177204,-3.425869935971498
1684253119079401200,0.851401123046875,-1.2891817324042318,6.109430974310636,-1.7757085272848605
1684253119089427500,0.861427490234375,-1.0427541718445719,5.620569599002599,-0.9094517629444598
1684253119099452200,0.8714521484375,-0.704977822625637,5.326095069763064,-0.5019125800609588
1684253119109478400,0.881478515625,-0.8081155410170555,5.454966364347935,-0.15332359879612922
1684253119119504400,0.89150439453125,-0.5377776741683483,4.926434657430648,1.1326689821779727
1684253119129529600,0.901529541015625,0.6396503410600125,3.060730217400193,1.942976480281353
1684253119139555300,0.911555419921875,1.7243826830647884,0.6658002429693937,2.3206495172113177
1684253119149581300,0.921581298828125,1.8083666420444846,-1.658807071956992,3.7417677769899367
1684253119159607300,0.931607177734375,2.249538629938662,-3.586844926303625,6.285361541712284
1684253119169632500,0.941632568359375,2.1705939803004264,-4.732546993055939,7.610562682002782
1684253119179658500,0.951658447265625,-0.3275944162920117,-3.3740222598344087,6.598932985609769
1684253119189684500,0.9616845703125,0.14356997428387402,-0.32778292460143565,6.235185598179697
1684253119199710500,0.97171044921875,1.852346361285448,1.5246166281759739,6.210372059440612
1684253119209735400,0.9817353515625,3.0222189926981926,2.8330291307508944,5.451314856103062
1684253119219761400,0.991761474609375,2.444644730192423,2.952905217975378,2.394177110236883
1684253119229787400,1.001787353515625,1.5656792909264563,1.1310270601898431,-1.1636615018129348
1684253119239812400,1.011812255859375,0.7720771361693739,1.289524846753478,-4.646269808572531
1684253119249838300,1.02183837890625,0.9352019980117678,1.0150766219764946,-4.871626377922296
1684253119259864300,1.0318642578125,0.6308396964862942,-0.3839806126415729,-4.534073754456639
1684253119269890300,1.041890380859375,-0.9448372568413614,-2.0707646558046338,-6.126095108863711
1684253119279915300,1.051915283203125,-1.948824914048612,-4.23352545826137,-7.322309803757071
1684253119289941200,1.061941162109375,-1.7192670936167238,-5.554913177743554,-7.39019792959094
1684253119299967200,1.07196728515625,-1.2270040931716562,-5.246763174372911,-6.633432052060962
1684253119309992200,1.0819921875,-1.1729894482590257,-4.018963839170336,-6.69613546873331
1684253119320018200,1.09201806640625,-1.1597218242764473,-3.280326908048987,-7.172718961748481
1684253119330044200,1.102044189453125,-0.9307996713995933,-3.2044355085015295,-7.5308876722633835
1684253119340070100,1.112070068359375,-2.0354890520229936,-3.6442636805713176,-8.34541483388841
1684253119350095400,1.122095458984375,-3.4056732433781027,-4.074135691294074,-8.752330331915616
1684253119360121300,1.132121337890625,-4.106411236476898,-3.8379911859482525,-8.230432948446273
1684253119370147600,1.142147705078125,-4.431453922459483,-3.183731158646941,-7.306836340293287
1684253119380172300,1.15217236328125,-4.8193996393397445,-2.1093542064398525,-6.740750855529308
1684253119390198500,1.162198486328125,-4.306330582231283,0.17016601252555846,-5.479087244647741
1684253119400224500,1.172224609375,-2.8535689376935363,3.1336545838356016,-3.426104036988318
1684253119410250500,1.18225048828125,-1.3250710841700435,5.744885714501142,-0.22028671873956918
1684253119420275500,1.192275390625,-0.02878653402328491,7.7968667593806975,4.927653970092535
1684253119430301400,1.202301513671875,0.9223056915596127,10.01653544397354,10.47197151954174
1684253119440327400,1.212327392578125,1.364930800871551,12.033785951733588,14.793517206561564
1684253119450352400,1.222352294921875,1.6820435706377028,12.656653646427392,15.71230261504054
1684253119460378400,1.23237841796875,3.1606466356575487,10.770775602418183,13.571340387415885
1684253119470404400,1.242404296875,4.487395589911937,6.597640023189783,10.05105730677843
1684253119480430300,1.252430419921875,5.194263756328821,2.446667175930738,6.530994006371498
1684253119490455300,1.262455322265625,5.527346540904045,-0.5945324115693569,4.051086239618063
1684253119500481300,1.272481201171875,5.326850856566429,-2.642930337265134,2.3541923058509826
1684253119510507300,1.28250732421875,4.5082069072723385,-3.829455412793159,1.651576243920624
1684253119520533200,1.292533203125,3.581096738040447,-4.012852662813663,0.9007280660018324
1684253119530558500,1.302558349609375,2.7149288210272786,-3.7853923991829155,-0.359369902998209
1684253119540584400,1.31258447265625,1.807692396044731,-3.7211692255973814,-1.097037696826458
1684253119550610200,1.322610107421875,1.123586827186495,-3.823302735382318,-1.3634177659600972
1684253119560635400,1.332635498046875,0.5245372304536402,-3.8974154348194596,-1.3981231686383484
1684253119570661400,1.342661376953125,0.03371405355334282,-4.3032823005765675,-1.5151602330446243
1684253119580687400,1.352687255859375,-0.18007833473086357,-4.774484685075283,-1.787033638897538
1684253119590713300,1.36271337890625,-0.2628000186897814,-5.139638432171941,-2.349280860672891
1684253119600738300,1.37273828125,-0.1686230208672583,-5.121829803758859,-3.0142978443101045
1684253119610764300,1.382764404296875,0.005536445208638907,-4.86274222972095,-3.520053071273863
1684253119620790300,1.392790283203125,-0.0183563254237175,-4.409444335225224,-3.9692981832474468
1684253119630815200,1.402815185546875,-0.22274258745908737,-3.3712411046832798,-4.390179955045879
1684253119640841200,1.41284130859375,-0.17074571210965514,-1.9708195959746837,-4.535682650958002
1684253119650867500,1.422867431640625,0.022055033811181783,-0.6603560060888528,-4.233627457331121
1684253119660893400,1.4328935546875,0.13217676587104796,0.8924854305744171,-3.9953307423874733
1684253119670918400,1.44291845703125,0.029482115072011945,1.6514380044937134,-3.0849481283336875
1684253119680944400,1.4529443359375,-0.5671462458632887,1.4169763376682996,-1.5043521310433745
1684253119690970400,1.462970458984375,-1.9117033901393412,-0.6606085195451975,0.4193874415874481
1684253119700995300,1.472995361328125,-2.8064287085950372,-1.9452455942571163,2.836634754027426
1684253119711021300,1.483021240234375,-2.8824235685169697,-0.762957133385539,4.090173802903294
1684253119721047300,1.49304736328125,-2.5697686549425125,1.1447113021492958,5.23697360176444
1684253119731073300,1.5030732421875,-2.112615254062414,2.8221447486430407,5.584308199054003
1684253119741098500,1.513098388671875,-1.7960615794837473,4.151896976366639,4.9903281606703995
1684253119751124500,1.52312451171875,-1.8085379069581626,4.2162423150271175,4.37995666719526
1684253119761150500,1.533150390625,-1.7156011184550821,3.189762255504727,4.451633371657133
1684253119771175400,1.543175537109375,-1.3307787942923606,1.9050462703377007,4.77782698124051
1684253119781201400,1.553201416015625,-0.7671227286323905,2.1701772161930797,4.879371877482533
1684253119791227400,1.563227294921875,-0.5340493012949824,3.190318135821819,5.437684390157461
1684253119801253400,1.57325341796875,-0.431362833802402,4.2738656519562,4.882448800709843
1684253119811278300,1.5832783203125,0.35593642141819,3.212888279548287,2.808702791006863
1684253119821304300,1.59330419921875,0.8668867328070103,1.7525211284428834,0.8921896624982356
1684253119831330300,1.603330322265625,0.9476560405891388,0.8597872760653495,-0.21372809087634084
1684253119841355300,1.613355224609375,1.0819441725909709,0.1334907710790634,-0.6608151480332016
1684253119851381200,1.62338134765625,1.3714672169029711,-0.44040743326246734,-0.8573074419483542
1684253119861407200,1.6334072265625,1.9789274991065262,-0.6894692878484725,-0.7967354843467473
1684253119871433200,1.64343310546875,2.8197686671614646,-0.5157657488465309,-0.7280287356063723
1684253119881458200,1.653458251953125,4.4329310092747205,-0.4047165266782045,-0.5924357315510511
1684253119891484200,1.663484130859375,6.611191578680277,-0.5999713877528906,-0.26124007589668036
1684253119901510100,1.67351025390625,11.337814442384243,-1.3844921181708574,0.5475988109588623
1684253119911535400,1.683535400390625,17.92072919012904,-0.3013280483961105,2.556768303593993
1684253119921561300,1.693561279296875,9.193536222079397,0.46342999693155285,2.9163386976003647
1684253119931587300,1.70358740234375,3.0013381172329185,-1.6246283235013483,2.162088602283597
1684253119941613300,1.71361328125,1.1754185751020907,-2.6756448583871126,2.0862392883121967
1684253119951638300,1.72363818359375,-0.20348492928147316,-2.820133408820629,1.9164529227539895
1684253119961664300,1.733664306640625,-1.1443781246721745,-2.008434748619795,1.1468114892989396
1684253119971690200,1.743690185546875,-1.7524316965937614,-1.4915443796575067,0.5261737456142902
1684253119981716200,1.75371630859375,-2.723294498312473,-1.3005401617646217,0.2537435826614499
1684253119991741200,1.7637412109375,-4.020798653382062,-0.8598316997289657,-0.15361235260963438
1684253120001767200,1.77376708984375,-5.121686011373996,-0.3178226716011762,-0.49993748059570786
1684253120011793200,1.783793212890625,-5.427997693401575,0.3125830173820257,-0.17961363982856274
1684253120021818000,1.793818115234375,-2.8800048169374466,1.0605950950920582,0.6052347151085734
1684253120031844000,1.803843994140625,15.787427706390618,3.3615941554158923,2.7058558722555635
1684253120041870000,1.8138701171875,44.93844970633983,9.236943986651301,7.395791804075241
1684253120051896000,1.82389599609375,18.84779376665354,10.481169555997848,2.7295509283587336
1684253120061921000,1.833921142578125,1.139615440315008,8.558807993721961,0.9849930338799953
1684253120071947000,1.843947021484375,-9.520556345614791,5.2153895464658735,1.0819155310183763
1684253120081973000,1.853972900390625,-14.300774605906009,2.1845482713729143,2.4575787383064625
1684253120091998200,1.863998291015625,-16.386320651257037,0.8377379413425922,3.9203757469072937
1684253120102024200,1.874024169921875,-16.062614766836166,1.17838560821414,5.167760364806652
1684253120112050200,1.88405029296875,-14.134400971400737,2.342166352492571,7.658509843569994
1684253120122076200,1.894076171875,-11.383051760470867,3.926213074758649,10.763702887552975
1684253120132101400,1.904101318359375,-12.243586055511235,4.75746106956005,14.455824882364272
1684253120142127400,1.91412744140625,-16.374202343440054,3.5980227384001013,19.5103481595695
1684253120152153300,1.9241533203125,-15.176184983038901,0.8877011189073324,19.39332103203535
1684253120162178300,1.93417822265625,-11.258450398290156,-1.9614128852039574,17.95646101324558
1684253120172204300,1.944204345703125,-6.9044836201369755,-3.844474702748656,15.75200801796317
1684253120182230300,1.954230224609375,-3.167002726686001,-4.200501140537858,9.813893395256995
1684253120192256300,1.96425634765625,1.442048819604516,-2.5084949788123367,2.036967015621066
1684253120202281200,1.97428125,1.498812032572925,0.21909926252067088,-2.987662643101811
1684253120212307200,1.98430712890625,-1.374057817918062,1.8976544065207241,-5.518904291251301
1684253120222333200,1.994333251953125,0.7055810492157936,4.398737647771835,-7.733647794401645
1684253120232358100,2.004358154296875,0.37180356037467716,6.3295677631855005,-10.70308212237358
1684253120242384100,2.014384033203125,0.2620215816631913,5.424727877950668,-12.765717247736454
1684253120252410000,2.02441015625,1.8782544172629714,4.076073381358385,-12.7042723066926
1684253120262436000,2.03443603515625,2.2155293928310273,2.4481126985639334,-10.595177043449878
1684253120272461000,2.0444609375,0.7124968199536204,0.9191039729088545,-6.714253309226035
1684253120282487000,2.054487060546875,-2.660660055223107,-0.2063847423762083,-2.741044090014696
1684253120292513000,2.064512939453125,-5.254106522873044,-1.341735510984063,-0.8938485356211662
1684253120302538200,2.074538330078125,-4.792442951092124,-1.084870289170742,-0.9213070359110832
1684253120312564200,2.084564208984375,-3.6301644280701875,0.729178197902441,-1.5498726499855517
1684253120322590200,2.094590087890625,-3.1872908969551323,2.6023767930805684,-1.501488266044855
1684253120332616200,2.1046162109375,-2.8128870909541845,3.357154127141833,-1.1678747355937957
1684253120342641200,2.11464111328125,-2.4062913264006376,3.0550001493155956,-1.3124129703879355
1684253120352667100,2.124667236328125,-2.3966642508774996,2.046112445107102,-1.6783686815172434
1684253120362693400,2.134693359375,-1.8260095585018394,0.45706864520609375,-1.372573716840148
1684253120372718000,2.144718017578125,-1.7610709301233292,-1.273144205316901,-0.7509200741112232
1684253120382744000,2.154744140625,-2.672324189531803,-2.0475369249522686,-1.1996049218535423
1684253120392770300,2.164770263671875,-3.1833275462821122,-2.2942957632929084,-3.323915874406695
1684253120402796300,2.17479638671875,-4.4048041082039475,-2.347957210853696,-5.737525999388098
1684253120412821200,2.1848212890625,-4.304730453558266,-2.4948475617319343,-6.783462454530596
1684253120422847200,2.19484716796875,-4.143258619619906,-2.736221199902892,-6.95414109275341
1684253120432873200,2.204873291015625,-4.428960059817135,-2.941917960014939,-6.851050136113167
1684253120442898200,2.214898193359375,-3.9189068433985113,-3.117680185112357,-6.729344495373964
1684253120452924200,2.224924072265625,-2.83168502266556,-3.308451178771257,-6.734261493510007
1684253120462950100,2.2349501953125,-2.529486913436651,-3.431562594655156,-6.364871716278791
1684253120472976100,2.24497607421875,-3.2658579454526304,-3.3330817621588706,-5.293368858203292
1684253120483001300,2.25500146484375,-3.9366736784964798,-2.836587115493417,-3.7727471448823806
1684253120493027300,2.26502734375,-3.551925880874693,-2.4609137279480695,-2.0754098512619734
1684253120503053300,2.27505322265625,-2.4457588289141654,-2.6868086419582364,-0.1655979739576578
1684253120513079000,2.2850791015625,-2.6296108369648454,-3.343662777405977,1.5582003333479164
1684253120523104300,2.295104248046875,-2.8250667735695836,-3.6928245901226995,3.98454777482748
1684253120533130200,2.305130126953125,10.591169561374187,-1.8305963017702103,12.14555238226056
1684253120543156200,2.31515625,26.90524564515352,10.776140344321727,25.744258915507793
1684253120553181200,2.32518115234375,-14.508155958104133,20.085158802580832,7.449847219389676
1684253120563207200,2.335207275390625,4.797492635697126,30.067172383749483,0.29747809496968985
1684253120573233200,2.345233154296875,37.59138364698887,33.917563032543654,1.8033540745794772
1684253120583259100,2.355259033203125,-2.70731717697978,14.53102479251623,-1.9752295213714242
1684253120593284000,2.3652841796875,-7.397204593482613,3.8488960263222456,-5.505990449142455
1684253120603310000,2.37531005859375,1.8981500810831784,0.44420214937031266,-7.683152117395401
1684253120613336000,2.385336181640625,2.883580921858549,-1.9057646477401256,-6.815356891441345
1684253120623361000,2.395361083984375,6.494284278133511,-3.014159604883194,-6.059994450968504
1684253120633387000,2.405386962890625,8.039931419378519,-2.0836790824353693,-4.621709952333569
1684253120643413200,2.415413330078125,1.9838053342759607,0.22255495593249797,-2.2387702754259107
1684253120653439200,2.425439208984375,-2.042608236378431,1.1828770744144916,-0.5807637061968446
1684253120663464200,2.435464111328125,-2.622453950947523,1.8304291285097598,-0.44854017857462164
1684253120673490200,2.445490234375,-2.3512778797090053,2.323953819453716,-0.6928799730747938
1684253120683516200,2.45551611328125,-1.6384990279436111,2.0970634646654127,-1.2747609928637742
1684253120693541400,2.465541259765625,-1.5916297247409819,1.0846680445969104,-1.9993056857466696
1684253120703567400,2.4755673828125,-2.1329390801668167,0.20154314756393432,-2.2708175648108124
1684253120713593300,2.48559326171875,-2.2907377785503864,0.05509177262485027,-1.9876254770860076
1684253120723619300,2.495619384765625,-2.269129173332453,0.40055765343308447,-1.4384547406353057
1684253120733644300,2.505644287109375,-2.256171638212353,0.8461772683858871,-0.7147488366641104
1684253120743670300,2.515670166015625,-2.1920704835712908,1.241092532017827,0.07135638646632432
1684253120753696300,2.5256962890625,-2.005825442904234,1.4605483528912067,0.9083300654381513
1684253120763721200,2.53572119140625,-1.6936708800673483,1.4315443767249583,1.5831909822195767
1684253120773747200,2.545747314453125,-1.1329191575467585,1.0130980153799056,2.2013737339675425
1684253120783773200,2.555773193359375,-0.2628899254629388,0.30353403400778767,2.8005352666422723
1684253120793799200,2.565799072265625,0.17144143928885458,-0.35186814906597136,3.148236066895723
1684253120803824000,2.57582421875,0.3870440918654203,-0.8751759838551283,3.2738021824553605
1684253120813850000,2.58585009765625,0.8665876037299632,-1.4818243651539087,3.187251733988523
1684253120823876000,2.5958759765625,1.3642904571413994,-2.050156752061844,2.9307296265244482
1684253120833901000,2.605901123046875,1.541034094491601,-2.38232125274837,2.6641049349799752
1684253120843927000,2.615927001953125,1.3689905976563692,-2.487168113145232,2.459555006815493
1684253120853953800,2.625953857421875,1.0939110892385244,-2.5643320168465373,2.235140394490957
1684253120863979800,2.635979736328125,0.9440689028173684,-2.5497441040456295,1.857526540402323
1684253120874004700,2.646004638671875,0.9731273125845938,-2.2920032684415577,1.4179993971057236
1684253120884030700,2.65603076171875,0.9527631544698029,-1.8743617937386035,0.9702824445474892
1684253120894056700,2.666056640625,0.9236901316553354,-1.3796610447525977,0.5562859752833843
1684253120904082000,2.67608203125,0.9452812012165784,-0.793808198723197,0.1853179889500141
1684253120914108000,2.68610791015625,0.9267209507185965,-0.1420610310256481,0.04285217651575803
1684253120924134000,2.6961337890625,0.8431266486436129,0.4107417783170938,0.0652438949353993
1684253120934160000,2.706159912109375,0.770298216863349,0.7432967396259308,0.18246157660558818
1684253120944184800,2.716184814453125,0.7302947077769786,0.7841554042369127,0.32725232485607264
1684253120954210800,2.7262109375,0.7717571104347706,0.5541121383756399,0.4886790044784546
1684253120964237000,2.736237060546875,0.8243799356628209,0.20199381394088267,0.5619494078725576
1684253120974261800,2.74626171875,0.893656812441349,-0.07741057193875313,0.6072141984879971
1684253120984288000,2.7562880859375,1.0569546927630902,-0.29753099420070644,0.6549962326213717
1684253120994314000,2.76631396484375,1.178500759026408,-0.5212111547708511,0.5993322130665183
1684253121004340000,2.776340087890625,1.2608515638463198,-0.800785051998496,0.5299276913203299
1684253121014365000,2.786364990234375,1.4483305302225054,-0.9771429049015045,0.4581988182798028
1684253121024391000,2.796390869140625,1.7351625818848608,-1.07924134337306,0.29315350976884363
1684253121034417000,2.8064169921875,2.0014177094645795,-1.0678180320829151,0.20894173338264227
1684253121044441900,2.81644189453125,2.162953110158443,-0.9543243393719196,0.2776655793882906
1684253121054467800,2.8264677734375,2.2479854091472924,-0.8448241002112626,0.39220410497710106
1684253121064493800,2.836493896484375,2.2741052081793547,-0.7290560328274965,0.5670280263110995
1684253121074519800,2.846519775390625,2.2202732263572513,-0.7100847903758287,0.7896019792050123
1684253121084545000,2.856544921875,2.1750568049281833,-0.8276818267524242,0.9799068166568875
1684253121094570800,2.86657080078125,2.100764803401381,-1.0481079539626836,1.1245311222992838
1684253121104596700,2.8765966796875,2.02543381421566,-1.2871557795345783,1.2606990036331116
1684253121114622000,2.8866220703125,1.938979519599676,-1.4400509237855672,1.4149392788827417
1684253121124648000,2.89664794921875,1.8333412165641783,-1.481831379416585,1.6736260170347987
1684253121134674000,2.906673828125,1.7392838995985687,-1.4153729941248894,2.041937059118599
1684253121144700000,2.916699951171875,1.767889377966523,-1.3289391577750445,2.4452289598211645
1684253121154724900,2.926724853515625,1.8891789852507412,-1.1899001049190758,2.8305422823712227
1684253121164750800,2.936750732421875,2.1109195560604332,-0.9412935928851366,3.246270909190178
1684253121174776800,2.94677685546875,2.4114088155448434,-0.7549129431396723,3.5651948200315235
1684253121184801800,2.9568017578125,2.7464608543664215,-0.6158154380947352,3.734547470347583
1684253121194827800,2.966827880859375,3.0775533419072625,-0.5843097082406282,3.7970202931344508
1684253121204853800,2.976853759765625,3.4393151084780693,-0.6381032577484845,3.7072915068924424
1684253121214879700,2.986879638671875,3.7594898961633443,-0.7674030068784952,3.3703421100169417
1684253121224904700,2.99690478515625,4.019921286025643,-0.9106202222019434,2.745892699089646
1684253121234930700,3.0069306640625,3.9474563537955283,-0.9339566741257905,2.113719562042504
1684253121244957000,3.01695703125,3.25117154071331,-0.902314166149497,1.8326720851309597
1684253121254983000,3.02698291015625,2.157149392315745,-0.6583493424415588,2.0255279222398994
1684253121265007900,3.0370078125,1.2465934675216674,-0.2701221782714128,2.5228128425002097
1684253121275033900,3.047033935546875,0.518437160012871,0.6018208150118589,3.11290054962039
1684253121285059800,3.057059814453125,-0.09995046665742993,2.279595037767291,3.713778530824184
1684253121295085000,3.0670849609375,-0.6969972722005099,4.687185171806812,4.196985241371393
1684253121305111000,3.077111083984375,-0.8484194943547249,7.3114943952322005,4.127418660931289
1684253121315137000,3.087136962890625,-0.13394728267490863,9.38411607708037,3.3693957690775393
1684253121325163000,3.0971630859375,0.4813724808573723,9.840091666352748,1.2822973797179757
1684253121335188000,3.10718798828125,1.4544915370702742,8.478345048475266,-1.5307362801000475
1684253121345214000,3.1172138671875,3.071927903240919,6.70102207173109,-4.088041467049718
1684253121355240000,3.127239990234375,3.8552924493610856,4.910080319479108,-5.920336973953247
1684253121365265000,3.137264892578125,2.764824778574705,2.9148727167010304,-6.479514579024911
1684253121375291000,3.147290771484375,0.6371463954150677,1.0966221017628908,-5.827951535722613
1684253121385316900,3.15731689453125,-1.1434288611233234,-0.2938701336055994,-4.793419979430735
1684253121395342800,3.1673427734375,-1.9574013114750384,-1.126681724461913,-4.0381858415126795
1684253121405367800,3.177367919921875,-2.7185645471811295,-1.2376952907949685,-3.6215716640308497
1684253121415393800,3.187393798828125,-3.5557226428091524,-0.804403242495656,-3.3177947611778973
1684253121425419800,3.197419677734375,-4.069665852403641,0.2793967870950699,-3.6103798234090205
1684253121435444700,3.20744482421875,-5.13436078402996,2.080685161316395,-4.028860671545565
1684253121445470700,3.217470703125,-5.949865850776433,3.458422544530034,-4.069521767757832
1684253121455496700,3.22749658203125,-5.006075764900445,3.644014674246311,-4.448485429020225
1684253121465522700,3.237522705078125,-1.158029048883915,3.5574960822224613,-4.486233852656185
1684253121475548000,3.2475478515625,5.409031127125025,3.6485961568176744,-3.2527406897261737
1684253121485574000,3.257573974609375,7.422892576968669,3.3838913274198767,-1.3573621191829441
1684253121495599900,3.267599853515625,2.8332804751634595,3.0629724433690306,-0.3768301563650369
1684253121505624800,3.277624755859375,-1.6222510729759931,2.5038345857858655,0.29235709869414567
1684253121515650800,3.28765087890625,-3.2582258431389928,1.7347645224779844,0.12270225056111812
1684253121525677000,3.297677001953125,-3.534225096750259,0.6150292561531067,-0.7458838335096836
1684253121535703000,3.307703125,-2.986074204866588,-0.49415480554103847,-2.1333298330500723
1684253121545728000,3.31772802734375,-2.5486487100243567,-1.1702958252608775,-3.327309023976326
1684253121555754000,3.32775390625,-2.1494448092877865,-1.5397551605969666,-4.099252889154851
1684253121565780000,3.337780029296875,-2.0190061192557214,-1.6774819618105887,-4.403463799510896
1684253121575805000,3.347804931640625,-2.7959485233739017,-1.8657073626399039,-4.350797208206355
1684253121585831000,3.357830810546875,-3.4371313346982,-2.260318090367317,-4.5023225254088635
1684253121595857000,3.36785693359375,-3.43073432713747,-2.7260283071905373,-4.7162572447732085
1684253121605883000,3.3778828125,-3.4222421008631585,-3.08388079136312,-4.607110933616757
1684253121615907800,3.387907958984375,-3.8072935576066373,-3.319012320274114,-4.003338984537124
1684253121625933800,3.397933837890625,-4.441937030290067,-3.572272211071849,-3.3195196852743623
1684253121635959800,3.407959716796875,-4.699187744289636,-3.970097809192538,-2.9444106536135077
1684253121645984800,3.41798486328125,-4.403583041976392,-4.47364588150084,-2.8112583207085726
1684253121656010800,3.4280107421875,-4.018483654437959,-4.949525610160827,-2.7990236930355428
1684253121666036700,3.43803662109375,-3.698430155044794,-5.281312509706616,-2.8562691365629433
1684253121676062700,3.448062744140625,-3.340322819328308,-5.48524401371181,-3.1308596924200653
1684253121686088000,3.458087890625,-2.885445546686649,-5.632637637937068,-3.476863041105866
1684253121696114000,3.468114013671875,-2.2322939190186557,-5.674024125814437,-3.658258303654194
1684253121706140000,3.478139892578125,-1.222581454423815,-5.621217833778262,-3.7302158708840607
1684253121716164900,3.488164794921875,1.2139666246831415,-5.284392355543375,-3.096249859070778
1684253121726190800,3.49819091796875,6.237906547576189,-4.506137115260959,-1.2630509735867381
1684253121736216800,3.508216796875,10.018462028121947,-3.2412136258006092,0.568154546122998
1684253121746242800,3.518242919921875,9.733649061197042,-1.4511889883935452,1.438907160577923
1684253121756267800,3.528267822265625,7.654832031840085,1.3331781105190514,2.2723653787747025
1684253121766293800,3.538293701171875,6.515784746801852,5.150765975385904,3.952952613124251
1684253121776319700,3.54831982421875,3.9256478420913217,8.958847176238894,4.220628567287326
1684253121786344700,3.5583447265625,2.384762800681591,11.986749475270509,2.7519083061173557
1684253121796370700,3.56837060546875,4.726524664026498,15.710372523760794,1.1319511892974377
1684253121806397000,3.57839697265625,5.739621510362625,18.447955075144765,-0.8831648637171834
1684253121816423000,3.5884228515625,4.783005845183133,16.01667368439436,-2.2188734425619243
1684253121826448000,3.59844775390625,3.705403501188755,10.476892024809121,-1.917898591517657
1684253121836473900,3.608473876953125,3.4493104327917097,5.468447192689776,-1.3723482375212013
1684253121846499800,3.618499755859375,2.582521753531694,1.6104899080336093,-1.097827970421314
1684253121856524800,3.62852490234375,0.3200561297416687,-0.9502905538111924,-0.9061321900676935
1684253121866551000,3.638551025390625,-0.947314752870798,-2.5586475414693353,-0.904485811100155
1684253121876577000,3.648576904296875,-1.0866595106750727,-3.6185417948156595,-0.9011590778302401
1684253121886602800,3.658602783203125,-0.9651134444117545,-3.9932232487142083,-0.754439772669971
1684253121896628000,3.6686279296875,-1.1780898401379585,-4.1391479694306845,-0.37760501319505274
1684253121906654000,3.678654052734375,-1.6191361558258532,-4.189982669132948,0.19667481087520716
1684253121916680000,3.688679931640625,-2.1513690553486344,-4.0626814003437755,0.7864172847542912
1684253121926705000,3.698704833984375,-2.5061118830680846,-3.8952836834877727,1.2280679230108857
1684253121936731000,3.70873095703125,-2.8368039731144905,-3.5220857461452484,1.9277796418018638
1684253121946756900,3.7187568359375,-3.1096131985127924,-2.774372943642735,2.4862036520272492
1684253121956782800,3.728782958984375,-3.2474726861953735,-1.572731547525525,2.91183437191844
1684253121966807800,3.738807861328125,-3.3495699556231497,-0.0018283844709396362,3.320547859278321
1684253121976833800,3.748833740234375,-3.4823230600774284,1.5858160700261592,3.613184651696682
1684253121986859800,3.75885986328125,-3.570539103668928,2.858058942589164,4.150759496769309
1684253121996884700,3.768884765625,-3.0767852801442146,3.2475299693405626,4.854997314682603
1684253122006910700,3.77891064453125,-2.112655001550913,2.2484517114847895,4.763963583321869
1684253122016936700,3.788936767578125,-1.3678782525002955,1.3162632160753012,4.222683746251463
1684253122026962700,3.798962646484375,-1.0317875182807446,1.0702607490599154,3.663259180681407
1684253122036988000,3.80898779296875,-0.7895207306623458,0.7167465863525867,3.0245319458156823
1684253122047013600,3.819013671875,-0.5919301201164722,0.20844693560302258,2.582805831170082
1684253122057039600,3.82903955078125,-0.4654746545016765,-0.5916255842119456,2.286785095401853
1684253122067064800,3.83906494140625,-0.3565162671327591,-1.3896499393254518,2.029244458544999
1684253122077090800,3.8490908203125,-0.4112216707885265,-2.0162065516650673,1.9318004217505453
1684253122087116800,3.85911669921875,-0.550758736294508,-2.2397966958642006,1.9230908994637428
1684253122097143000,3.86914306640625,-0.7566402053236961,-2.013297970741987,1.820878771484643
1684253122107167700,3.879167724609375,-1.0180933394491671,-1.5125935974270104,1.7434812051579356
1684253122117193700,3.88919384765625,-1.3458359320402145,-0.933558614718914,1.7369048955075441
1684253122127220000,3.899219970703125,-1.6236229458510876,-0.39368250696659085,1.6443267111837863
1684253122137244700,3.90924462890625,-1.4877590158998966,0.08168108886480331,1.5969911056436596
1684253122147271000,3.91927099609375,-0.9882336232364177,0.426810285064578,1.6051104069523512
1684253122157297000,3.929296875,-0.4609990069249645,0.5316004468381405,1.5654523503027855
1684253122167323000,3.939322998046875,-0.03204403798189014,0.4565636182934045,1.4634351603738962
1684253122177347800,3.949347900390625,0.31590368623733517,0.28779519760608674,1.2926397639036178
1684253122187373800,3.959373779296875,0.8852221615731716,0.16306114895641802,1.0110396215453743
1684253122197399800,3.96939990234375,2.521172674077749,0.23039280995130537,0.47926411040127276
1684253122207424800,3.9794248046875,5.512101625499129,0.6618155572474003,-0.0016295008979737757
1684253122217450800,3.98945068359375,12.647772420835494,1.6602783135533332,-0.16205299482718108
1684253122227476700,3.999476806640625,33.86277228869199,2.2289520612448452,0.7097469367235899
1684253122237502700,4.009502685546875,29.152404978740215,0.8186953872203826,2.3763778341740367
1684253122247528000,4.01952783203125,9.955131419461965,-0.03159749979078769,2.4763930366307494
1684253122257554000,4.029553955078125,1.8250092954181134,-0.32201193998456,1.4854432863034308
1684253122267580000,4.039579833984375,0.8621348621048033,-1.4286176756232976,0.5768727631729096
1684253122277604900,4.04960498046875,-0.6565420007586479,-1.7489491151750087,0.28739713819921014
1684253122287630800,4.059630859375,-2.1241618994712828,-1.1642086143016814,0.35451895583570003
1684253122297656800,4.06965673828125,-2.979754646456241,-0.3755687581270933,0.9831295780956745
1684253122307682800,4.079682861328125,-4.557261153298616,1.6134230388760566,1.6293427848026156
1684253122317707800,4.089707763671875,-5.832941599094867,5.428846419185399,1.9449889891475438
1684253122327733800,4.099733642578125,-2.261867950157821,12.287622765636444,1.6634429150640964
1684253122337759700,4.109759765625,7.164046410471201,18.653670539957282,0.4284691581875086
1684253122347784700,4.11978466796875,8.253989180600643,19.529321740108728,-0.16339081930220126
1684253122357810700,4.129810791015625,1.9625415969729423,16.285041712474822,-0.43092970308214423
1684253122367836700,4.139836669921875,-4.826983518597483,12.362048768806456,1.1815641651850193
1684253122377863000,4.14986279296875,-9.501298102915287,8.930046613690257,3.155949710012972
1684253122387887600,4.1598876953125,-12.043671385931969,6.2677989970147605,5.301515339779853
1684253122397913900,4.169913818359375,-11.898948442220687,4.4038305869966745,6.843337954300641
1684253122407939800,4.17993994140625,-9.933313555407523,3.3564240593016144,7.985320123746991
1684253122417965000,4.189965087890625,-7.678562451517582,2.727671398222446,8.981469926935434
1684253122427991000,4.199990966796875,-6.366652754476666,2.2149644524246455,9.342227484899759
1684253122438016800,4.210016845703125,-5.722775004979968,1.1640075387716293,7.971735250508785
1684253122448042000,4.2200419921875,-4.167694557218254,-0.06834346838593483,5.315880549740791
1684253122458068000,4.23006787109375,-1.0142954084709286,-1.2731763540208338,2.022233556869626
1684253122468094000,4.240093994140625,0.30458471210449933,-2.2752356735140085,-1.293941201891005
1684253122478120000,4.250119873046875,-1.5317279214859008,-2.949005287927389,-3.6348917488530277
1684253122488145000,4.260144775390625,-3.54502180057466,-3.445876951211691,-4.887299455611408
1684253122498171000,4.2701708984375,-3.518601118899882,-3.971906319919228,-5.705644421958923
1684253122508196900,4.28019677734375,-2.1818846051216125,-4.108058419162035,-6.568254938751458
1684253122518222800,4.290222900390625,0.046695407940447325,-3.8694711968392133,-6.82471041072011
1684253122528247800,4.300247802734375,0.8219593574523926,-3.8192081595450635,-6.164459034049511
1684253122538273800,4.310273681640625,-0.11205518434047698,-3.9500329262852665,-5.124239202988147
1684253122548299800,4.3202998046875,-1.0903192022264003,-4.040644340580702,-4.085847756397724
1684253122558324700,4.33032470703125,-1.9942203453063965,-4.117401417046785,-3.514079549822211
1684253122568350700,4.340350830078125,-2.8467925754263996,-3.814004161161184,-2.89320273668468
1684253122578376700,4.350376708984375,-2.9300504120886326,-2.810387090831995,-2.1141347187146544
1684253122588402700,4.360402587890625,-3.025288317140937,-1.0856798519879578,-1.625762149836868
1684253122598427600,4.370427734375,-3.8647114350914955,0.8694903394341468,-1.518017960563302
1684253122608453600,4.38045361328125,-4.668077151232958,2.505140992209315,-1.5380065633639692
1684253122618479600,4.390479736328125,-4.918574007058143,3.698622462746501,-1.7475183517195283
1684253122628504800,4.4005048828125,-4.38894719838053,4.228851036709547,-2.1564918051898476
1684253122638530800,4.41053076171875,-3.6313241194993253,3.522649225246906,-2.5490596289128065
1684253122648556800,4.420556884765625,-2.8084198824122546,1.6585551430225371,-2.746241658657789
1684253122658583000,4.4305830078125,-2.0615978912696242,-0.358549234265089,-3.187885940238833
1684253122668607700,4.440607666015625,-1.8994938969075679,-1.729324961772561,-3.5777918512761593
1684253122678634000,4.450634033203125,-2.1365049559548495,-2.6363188101708888,-3.8814126867845653
1684253122688660000,4.460659912109375,-2.555904964762926,-3.246389567133784,-4.022257620018721
1684253122698685000,4.470684814453125,-3.0011496089234946,-3.706197281914949,-3.8789880899861453
1684253122708711000,4.4807109375,-3.390903836530447,-4.068853366976976,-3.6598715840697285
1684253122718737000,4.49073681640625,-3.701354810319841,-4.324281249463558,-3.508370816786587
1684253122728763000,4.500762939453125,-3.9016979344442486,-4.41405972006619,-3.40450303055495
1684253122738787800,4.510787841796875,-4.050036438304185,-4.285688191697001,-3.3828076238363978
1684253122748813800,4.520813720703125,-4.019324489176273,-3.9409167228937148,-3.480993857300281
1684253122758839800,4.53083984375,-3.626882922181487,-3.4682723228931427,-3.6053380298495292
1684253122768864800,4.54086474609375,-2.9590047038942573,-2.7728566938608883,-3.626002047693729
1684253122778890800,4.550890869140625,-1.9850047731935976,-2.027832107529044,-3.4069717587560415
1684253122788916700,4.560916748046875,-0.9854431157350539,-1.1317980445623397,-2.8775001406401395
1684253122798942700,4.570942626953125,-0.20803031762614846,-0.2436380759716034,-2.0224089134365317
1684253122808968000,4.580968017578125,0.052602147766202687,0.7003630223065614,-1.063904073509574
1684253122818994000,4.590993896484375,-0.1313046592116356,1.4294009349554777,0.1659402115240693
1684253122829020000,4.60102001953125,-0.15850596987009047,2.1582009471952914,1.7051660875499248
1684253122839044900,4.611044921875,-0.08083353212475776,3.095352617970109,3.3668606976419686
1684253122849070800,4.62107080078125,-0.13885646283067762,4.473616655406356,5.014871065774559
1684253122859096300,4.631096435546875,-0.44216034134440124,6.517267094314098,6.564908550933003
1684253122869122300,4.641122314453125,-0.914345380204916,9.76929262150824,7.962711401575803
1684253122879147300,4.651147216796875,-1.0558312416911124,14.698850379395484,8.372893792444467
1684253122889173200,4.66117333984375,0.7106769110500812,20.027333221077917,8.333857667085528
1684253122899199200,4.67119921875,5.2673897828161715,21.4993767814517,7.607433151805401
1684253122909224200,4.68122412109375,5.954137536746263,16.814887424600123,2.632721077939868
1684253122919250200,4.691250244140625,9.09673413645029,10.91703583869934,-2.1450556344181297
1684253122929276200,4.701276123046875,9.053776453733443,3.821540986406803,-4.780563128206134
1684253122939301400,4.71130126953125,7.864493603929877,-1.5954022290170191,-4.1406984137430785
1684253122949327000,4.7213271484375,9.538370234724878,-3.593476911664009,-3.228468710517883
1684253122959353000,4.73135302734375,10.608497128272056,-4.616904597878456,-3.1599624527856705
1684253122969379000,4.741379150390625,8.525860832887888,-5.3848289982825515,-2.4650544810146093
1684253122979404300,4.751404296875,2.6452397832512853,-5.517593793174624,-1.0756260754853486
1684253122989430300,4.76143017578125,-0.47691140979528424,-6.214607505053282,-0.21995763291567563
1684253122999456300,4.771456298828125,-1.085085466291383,-6.8899600047439336,0.07612466031406075
1684253123009482200,4.781482177734375,-1.8279764746606348,-7.004734384915232,0.4472948546886444
1684253123019507200,4.791507080078125,-2.4921055695474146,-6.42865708296895,0.8737424439206719
1684253123029533200,4.801533203125,-3.3949066424310206,-4.320892776069045,1.3440579625822604
1684253123039559200,4.81155908203125,-4.682080249883234,-1.4317244094669819,2.096579042149335
1684253123049584000,4.821584228515625,-6.141577340155839,1.5498253037124872,2.8581939671456813
1684253123059610000,4.831610107421875,-7.086015076285601,4.048286964288354,3.2508336870610712
1684253123069636000,4.841635986328125,-8.058622091323137,5.58423747190535,3.297493146905303
1684253123079661000,4.8516611328125,-8.630963713872433,5.456633420777321,2.807567649497092
1684253123089687000,4.86168701171875,-8.417981472927332,4.182483253288269,2.044488643297553
1684253123099713000,4.871713134765625,-7.409315302515029,2.750283627524972,1.8816523891381918
1684253123109739300,4.8817392578125,-5.063273569893837,1.2665116354346275,2.387779372023791
1684253123119764000,4.891763916015625,-3.1952503315269944,-0.20418810911476612,2.388179769518226
1684253123129790200,4.901790283203125,-2.212756713247299,-1.1958131283551454,2.04449390399456
1684253123139816200,4.911816162109375,-1.4859049124658106,-1.7706436451107264,1.7049926306791603
1684253123149841400,4.92184130859375,-0.9019150107640772,-2.0158909098446367,1.3813251785725353
1684253123159867400,4.931867431640625,-0.5753414619524031,-1.9623171405673026,1.1704808264389635
1684253123169893400,4.941893310546875,-0.46078565643522884,-1.8132593825221062,0.9386870636485517
1684253123179919400,4.95191943359375,-0.5648679256677627,-1.6166080986529587,0.8008328366629779
1684253123189944300,4.9619443359375,-0.7792693857610226,-1.3272142336785793,0.6840370336666702
1684253123199970300,4.97197021484375,-1.0276502723455427,-0.9369336441099643,0.5226901412822306
1684253123209996300,4.981996337890625,-1.2908008580386638,-0.5148129781663418,0.2900849159784615
1684253123220021200,4.992021240234375,-1.4532266317009925,-0.04932312609553337,0.030446868450939652
1684253123230047200,5.002047119140625,-1.406831960272789,0.4521346959352493,-0.3870043443769216
1684253123240073200,5.0120732421875,-1.3742308363974094,0.9854384395599365,-0.8643123522743582
1684253123250099200,5.02209912109375,-0.9336731810092925,1.4966893413305282,-1.3550405443675815
1684253123260124200,5.032124267578125,0.3481137649685144,1.6965858907312155,-1.9650980034574865
1684253123270150100,5.042150146484375,2.0379151101261375,1.5294880336046217,-2.491929336197674
1684253123280176000,5.052176025390625,8.497105863046645,0.8981026859343051,-3.921383754906058
1684253123290201000,5.062201171875,13.172352759778498,-0.1135223342835903,-5.127247152632474
1684253123300227000,5.07222705078125,8.619602361902594,-1.0049410124093294,-4.429219879797101
1684253123310253000,5.082253173828125,3.7483828112155195,-1.3825380614936351,-2.761501187109947
1684253123320279000,5.092279052734375,1.3632944318413733,-1.234421383690834,-1.1828040091782808
1684253123330304300,5.10230419921875,0.47603930313587184,-0.8108937735587358,-0.45714083365947006
1684253123340330200,5.112330322265625,0.11805595912523567,-0.39499826574027536,0.07562967987135052
1684253123350356200,5.122356201171875,0.10219130438677966,0.03537234215438366,0.5248150244817137
1684253123360381200,5.132381103515625,0.2925006718832999,0.27657880706489085,1.082997773297131
1684253123370407200,5.1424072265625,0.6666565675377846,0.35962826167345047,1.4759353071153163
1684253123380433200,5.15243310546875,1.0510732335090636,0.3950917892426252,1.8273969212070107
1684253123390459400,5.16245947265625,1.3555319811463356,0.5164204133629798,2.180070833697915
1684253123400484000,5.172484130859375,1.703043104046583,0.6632265930891037,2.577622875574231
1684253123410510300,5.18251025390625,2.055707956448197,0.8416372868686914,2.9230791117712855
1684253123420536300,5.192536376953125,2.370960339169949,0.9761357736855745,3.2219428158804773
1684253123430561300,5.202561279296875,2.671917946818471,0.9758125330805778,3.5510914758771657
1684253123440587300,5.212587158203125,2.9633441944032906,0.8415238896220922,3.872238615725934
1684253123450613200,5.22261328125,3.3398575399041173,0.4346370331674814,4.109096822299063
1684253123460639200,5.23263916015625,4.2316812916994095,-0.21747896784245965,4.193808657161891
1684253123470664200,5.242664306640625,5.839756539806723,-0.9064590108692645,3.9252491981625552
1684253123480690200,5.252690185546875,7.223499885436892,-1.386648419421911,3.3659549809738993
1684253123490716200,5.262716064453125,6.921618294811249,-1.526186653971672,2.9073908365130423
1684253123500741000,5.2727412109375,4.926901690420508,-1.3087988715440033,2.901456770288944
1684253123510767000,5.28276708984375,3.1134096681863066,-0.7591723541498184,3.211100811609626
1684253123520793000,5.29279296875,2.147779360293597,0.10614157638251781,3.6169875511109826
1684253123530819000,5.302819091796875,1.28482602141276,1.0302823744148015,4.225409371823072
1684253123540844300,5.31284423828125,0.4648569609947502,1.9558897378683089,4.895288408538699
1684253123550870300,5.322870361328125,-0.4028098162740469,3.0895044764637944,5.444148617735505
1684253123560896300,5.332896240234375,-1.44148183337152,4.630995082551241,5.8719625268846745
1684253123570921200,5.342921142578125,-2.661713948190212,6.436517733341455,6.093481710028648
1684253123580947200,5.352947265625,-3.917901758009195,8.36199713537693,5.537173522913456
1684253123590973200,5.36297314453125,-5.115863004308939,9.932346756201982,4.178618394553661
1684253123600999200,5.372999267578125,-5.9719619472503656,10.592069725084304,2.201860494571179
1684253123611024100,5.383024169921875,-5.641604203724861,10.076620787101984,0.18143508310206233
1684253123621050000,5.393050048828125,-4.90798831563592,8.431963821050525,-1.349417297658324
1684253123631076000,5.403076171875,-4.514803821319341,6.161463943886757,-2.4265847573667765
1684253123641101000,5.41310107421875,-4.049745346403122,3.53888665882051,-3.0026287415653465
1684253123651127000,5.423126953125,-3.6173160524129866,0.8368775251209736,-3.316898689121008
1684253123661153000,5.433153076171875,-3.080510145886242,-1.7226029600411652,-3.4980265329048037
1684253123671179300,5.44317919921875,3.369084803432226,-4.175297725698352,-4.398390441769362
1684253123681204000,5.453203857421875,8.834673099559545,-5.887375784593821,-5.418036271357536
1684253123691230200,5.463230224609375,4.694697447133064,-5.773444284987449,-4.166135929599404
1684253123701256200,5.473256103515625,0.3941583077847957,-4.939758833906054,-2.978798660905659
1684253123711281400,5.483281494140625,-2.9008403919562697,-3.963475176182389,-2.1277331820867955
1684253123721307400,5.493307373046875,-4.79957353362441,-2.812787137711048,-2.114204861341417
1684253123731333400,5.50333349609375,-4.706977667513489,-0.9517068503499031,-2.3418717534601687
1684253123741359400,5.513359375,-5.1712628199696535,0.7367898419499397,-2.5200471771791575
1684253123751384300,5.52338427734375,-5.752817676544189,2.3859552253365517,-2.7187416573137044
1684253123761410300,5.533410400390625,-6.1154655782997605,3.634184185105562,-2.809913043579459
1684253123771436300,5.543436279296875,-6.391116749125719,4.192417202803492,-2.1133255942888556
1684253123781461200,5.553461181640625,-5.888950486564636,3.912109146082401,-0.15804631646908818
1684253123791487200,5.5634873046875,-4.246212213616073,2.7537703005969525,1.4777692445442079
1684253123801513200,5.57351318359375,-0.0069803604066371915,1.6312047792822122,3.134181822580099
1684253123811538200,5.5835380859375,4.840822658857703,1.0764204407334328,5.201350499719381
1684253123821564200,5.593564208984375,4.5245372798264025,0.7223468905776739,5.054906723564863
1684253123831590100,5.603590087890625,1.080256365634501,0.5768284125745297,2.8165695788592098
1684253123841616100,5.6136162109375,-2.1970319053709506,0.4335048142671585,0.8645831320397556
1684253123851641000,5.62364111328125,-4.417483264774084,0.14284370583593844,0.07930164638236165
1684253123861667600,5.63366748046875,-5.440217123505473,-0.4490104264348745,-0.04527816155366599
1684253123871693600,5.643693603515625,-5.591227769184112,-1.2188310158491134,0.15695755311800166
1684253123881718500,5.653718505859375,-4.971373869353532,-1.8656115010499954,0.34334728121906516
1684253123891744500,5.66374462890625,-3.808739372500777,-2.3083558528274297,0.5678029562063515
1684253123901770500,5.6737705078125,-2.433099838349223,-2.4546043986707926,0.6005813363447785
1684253123911796700,5.683796630859375,-1.666533866816759,-2.287010282459855,0.26225889755040405
1684253123921821700,5.69382177734375,-1.7919935993924736,-1.8286416605710982,-0.4918573422536254
1684253123931848000,5.703847900390625,-2.0238646652027965,-1.3788093963593244,-1.3530838573418558
1684253123941873700,5.713873779296875,-1.985826610970497,-1.0807511634141207,-1.855960752390325
1684253123951898600,5.723898681640625,-1.519853067035973,-0.937363267698884,-2.004365014962852
1684253123961924900,5.7339248046875,-0.9810650467813015,-0.8504436936587094,-1.8777546510472893
1684253123971950800,5.743950927734375,-0.5428676907837391,-0.804990686994791,-1.4869976761385797
1684253123981976800,5.753976806640625,-0.2944631310626864,-0.829907101586461,-0.9865592602834105
1684253123992001800,5.764001708984375,-0.231760591173172,-0.8551642924398183,-0.4105938942790031
1684253124002027800,5.77402783203125,-0.26927579057514667,-0.81219141215384,0.20713504928685725
1684253124012053800,5.7840537109375,-0.28711949030160905,-0.6671008041739463,0.760254888689518
1684253124022078700,5.79407861328125,-0.2904892589956522,-0.4502227248340845,1.0668332588292657
1684253124032104700,5.804104736328125,-0.3087763185754418,-0.2821089686632156,0.9323829220030456
1684253124042130700,5.814130615234375,-0.5234314611688256,-0.25121698679327964,0.6434955452460795
1684253124052156700,5.82415673828125,-0.9774603002876042,-0.3035556613177061,0.45862069695368407
1684253124062181600,5.834181640625,-1.584992186422646,-0.3592173427850008,0.32716252768076953
1684253124072207600,5.84420751953125,-2.253658340217173,-0.42018589848876,0.10440883430577814
1684253124082233600,5.854233642578125,-2.9141303739011284,-0.44940147157907484,-0.10155307954847811
1684253124092258800,5.8642587890625,-3.3188033536985513,-0.40415655470788475,-0.3949566185556352
1684253124102284500,5.874284423828125,-3.2212355443939567,-0.3141641490936279,-0.8092201412580907
1684253124112310500,5.884310546875,-2.6029633607968687,-0.16174012948572636,-1.285189594028145
1684253124122336500,5.89433642578125,-1.4831749029800294,0.08345102114677429,-1.8092932553701102
1684253124132361700,5.90436181640625,-0.05388488105311989,0.3912620018213987,-2.3293660537607965
1684253124142387700,5.9143876953125,1.2400886156722903,0.7583066772311925,-2.6242826276794076
1684253124152413700,5.92441357421875,0.996287019702047,1.2915782721519469,-2.477265143290162
1684253124162438700,5.934438720703125,-0.7366914961419999,1.8216577930331228,-1.6019121954329312
1684253124172464600,5.944464599609375,-2.317192070233822,1.696921990817785,-0.5719906171545386
1684253124182490600,5.95449072265625,-2.8687586157798766,0.8819026617616414,0.09507043953090906
1684253124192516900,5.964516845703125,-2.869884404939413,-0.04855564885437488,0.3355338309891522
1684253124202541600,5.97454150390625,-2.9168834720015524,-0.652194326943159,0.18987565225437283
1684253124212567800,5.98456787109375,-2.8288696729838847,-0.5726397287130356,-0.39043592626079915
1684253124222593800,5.99459375,-2.9083120430111884,0.4340893361568451,-1.3116117370076477
1684253124232618800,6.00461865234375,-3.030889790409803,2.301823820710182,-2.329346033886075
1684253124242644700,6.014644775390625,-2.816498851710558,4.300776455235481,-3.3119998111635445
1684253124252670700,6.024670654296875,-2.3517852447092533,5.1485219958513975,-3.6262200743585824
1684253124262695700,6.03469580078125,-1.7596072873115538,4.42310285822153,-2.729648251253366
1684253124272721700,6.0447216796875,-1.1994682167965918,2.6134558209776877,-1.3572614352874457
1684253124282747600,6.05474755859375,-0.7499134543519467,0.1495288826882839,-0.2709158128671348
1684253124292773600,6.064773681640625,-0.32995800361819566,-2.2889976568847894,0.40484029918834563
1684253124302798800,6.074798828125,0.05755896645598113,-3.915453195813298,0.5311120787993073
1684253124312824800,6.084824951171875,0.49513797135949134,-4.401435216292739,0.19095877131596206
1684253124322850800,6.094850830078125,0.9495417812705039,-3.9497476796030995,-0.18480317129567264
1684253124332876800,6.104876708984375,1.4735574720680713,-2.9120395391017198,-0.32160613566264507
1684253124342901800,6.11490185546875,2.1163678845942018,-1.4598732301086186,-0.19983400555849073
1684253124352927700,6.124927734375,2.5123592530250547,-0.007360299634933471,0.277687206698209
1684253124362953700,6.13495361328125,2.381185526716709,1.1119862596333026,1.0517451414212584
1684253124372978700,6.144978759765625,1.967314802724123,1.7463760498166083,2.0842451918855307
1684253124383004700,6.155004638671875,1.61227912953794,1.9700304914236069,3.0275729209467768
1684253124393030700,6.16503076171875,1.3907681297004222,1.96357152454257,3.720343880689144
1684253124403055600,6.1750556640625,1.454064836090803,1.8633154990673064,4.163164804834127
1684253124413081600,6.18508154296875,1.600294677233696,1.6191583676576613,4.261624594542384
1684253124423107600,6.195107666015625,1.5502607725203037,1.3188608313530683,3.8628894803613423
1684253124433133600,6.205133544921875,1.316662444525957,1.1488409492999314,3.2834804036438463
1684253124443158500,6.215158447265625,1.1522376060009003,0.9898170930355786,2.755963718988001
1684253124453184500,6.2251845703125,1.000654786457494,0.7832797904461621,2.2771875382341444
1684253124463210500,6.23521044921875,0.7846318626422435,0.5308756396949291,1.8318318349145353
1684253124473235700,6.245235595703125,0.5574901634413749,0.2822790645331144,1.5449604741550982
1684253124483261700,6.25526171875,0.32395898239910603,-0.013113164073228835,1.2736308197900652
1684253124493287700,6.26528759765625,0.20906002600006757,-0.2972919247478247,1.0981672853782773
1684253124503313700,6.275313720703125,0.14619301626384257,-0.425488096550107,0.9810489724293351
1684253124513339000,6.2853388671875,0.12423610906489192,-0.3568067745119333,0.8204239645786583
1684253124523364900,6.29536474609375,0.09833294845819472,-0.15963877329230308,0.7840221332460642
1684253124533390800,6.305390869140625,0.0893506736446172,0.09079261608123779,0.8890247687265277
1684253124543415800,6.315415771484375,0.11483582803495228,0.3807236566722393,0.9845616567254066
1684253124553441800,6.32544189453125,0.09215049696359782,0.6295382584989071,1.1481735714323817
1684253124563467800,6.3354677734375,-0.029492051944136618,0.811741914820671,1.3683631134077905
1684253124573493800,6.34549365234375,-0.17650756357200442,0.810263074439764,1.6010735526517033
1684253124583518700,6.355518798828125,-0.34196408323235805,0.6440858392894268,1.7877331654690205
1684253124593544700,6.365544677734375,-0.4946159933120012,0.42432197538018224,1.841190907151252
1684253124603570700,6.37557080078125,-0.635856940126419,0.26282149986922737,1.8084490596309304
1684253124613595600,6.385595703125,-0.755670483508706,0.13140285888910294,1.7547516639739273
1684253124623621600,6.39562158203125,-0.8358756546020507,0.0010205752193927764,1.728301902335137
1684253124633647600,6.405647705078125,-0.9076859223157167,-0.12545827127099035,1.6749929214738308
1684253124643673600,6.415673583984375,-0.9563912087738513,-0.2602846748679876,1.5722361652240155
1684253124653698600,6.425698486328125,-1.0494114377766848,-0.335579862087965,1.318150929518044
1684253124663724500,6.435724609375,-1.1531658267617224,-0.38588323139250275,0.9842857623934745
1684253124673750500,6.44575048828125,-1.290835929352045,-0.3963900123596191,0.6474564847663045
1684253124683775700,6.455775634765625,-1.4359282908976077,-0.3137204969793558,0.33604937929585577
1684253124693801700,6.4658017578125,-1.5830109494775533,-0.09231997177898883,0.15754194714352487
1684253124703827700,6.47582763671875,-1.6574965738803147,0.27275720295011996,0.15521350419595836
1684253124713852700,6.485852783203125,-1.639483947327733,0.6734194858014583,0.3007594547279179
1684253124723878700,6.495878662109375,-1.5725041685104368,0.997282022088766,0.5346482901014388
1684253124733904600,6.505904541015625,-1.5523171205282211,1.128136599445343,0.6451892704866826
1684253124743930600,6.5159306640625,-1.56891754219532,1.0448135885924101,0.668449880695343
1684253124753955600,6.52595556640625,-1.608271062940359,0.8417325639367103,0.6432378441579639
1684253124763981600,6.535981689453125,-1.6492425402760504,0.5460194328129291,0.559207123427093
1684253124774007800,6.5460078125,-1.6438018105268477,0.2178092227101326,0.5136401349946856
1684253124784032500,6.556032470703125,-1.5670844815492628,-0.06719020669758319,0.556059911442548
1684253124794058800,6.566058837890625,-1.4561188460111618,-0.2997685439944267,0.5698299319893121
1684253124804084700,6.576084716796875,-1.3740905511438846,-0.41491058843433853,0.44907837710455056
1684253124814110700,6.58611083984375,-1.2841174347519875,-0.36474808890521526,0.2401609013803303
1684253124824135700,6.5961357421875,-1.1387456717431546,-0.14633037890791892,0.010363719234615563
1684253124834161700,6.60616162109375,-0.8776596173644066,0.17908406299650667,-0.16395108353346585
1684253124844187600,6.616187744140625,-0.5127022696226835,0.45417175472080706,-0.23657938963174818
1684253124854213600,6.626213623046875,-0.11092764161527156,0.6475029542565346,-0.14408523032963275
1684253124864238300,6.63623828125,0.2748995122084394,0.7866261782646179,-0.05141995224431157
1684253124874264300,6.646264404296875,0.6453852314502,0.7515460970550775,0.0003599193535745144
1684253124884290300,6.656290283203125,1.283299688628316,0.4798141454994678,0.03486205454468727
1684253124894315300,6.666315185546875,4.715172664406896,0.24834932240247726,0.0968023778900504
1684253124904341200,6.67634130859375,8.207414476430415,0.1354822371572256,0.3677290044121444
1684253124914367200,6.6863671875,7.68048669757843,-0.0719043757379055,0.7333566526308656
1684253124924392200,6.69639208984375,5.714312881582975,-0.34539456913769245,1.0428601164370774
1684253124934418200,6.706418212890625,3.602496084421873,-0.6465151122629642,1.069574666491896
1684253124944444400,6.7164443359375,1.831651948302984,-0.9052256696820259,0.8920252657167613
1684253124954470400,6.726470458984375,0.6669289547383784,-1.1674696619242428,0.7842312459520995
1684253124964495400,6.736495361328125,-0.13510522053837776,-1.183583176857233,0.6007400340378284
1684253124974521300,6.746521240234375,0.08231120346188545,-0.8285171085327864,0.04892798929810524
1684253124984547300,6.75654736328125,1.184394493240118,-0.03417874845564365,-0.49880657686963675
1684253124994572300,6.766572265625,1.5482066164694726,1.008466848447919,-0.8792636915601789
1684253125004598300,6.776598388671875,1.7727762732252477,2.3248282642006872,-1.1638326205961405
1684253125014624300,6.786624267578125,2.0982694794543084,3.762341778463125,-1.0609798566259443
1684253125024650200,6.796650146484375,2.6946546792834996,5.055657249671221,-0.914457023885846
1684253125034675500,6.806675537109375,2.78707431204468,5.900900452077388,-0.8648314077123999
1684253125044701400,6.816701416015625,2.0068238062918184,6.260763107028604,0.04741320082098245
1684253125054727400,6.8267275390625,0.8585419521793722,5.973470013725757,0.8105205563321709
1684253125064752400,6.83675244140625,-1.8202789058953524,5.333489856189489,1.983241855174303
1684253125074778400,6.8467783203125,-4.413310363003611,4.560184931790828,3.9807968978613615
1684253125084804400,6.856804443359375,-5.353215131878852,3.522302603766322,5.493205201849341
1684253125094830300,6.866830322265625,-4.969677586829662,2.699827113485336,5.755909797340631
1684253125104855300,6.876855224609375,-4.335103087729215,1.6897352941840886,4.2728161429032685
1684253125114881300,6.88688134765625,-3.968683850741386,0.5904898581802844,1.7795955978512763
1684253125124907300,6.8969072265625,-3.031485418215394,-0.1191565407782793,-0.4900307478809729
1684253125134932200,6.90693212890625,-2.298121459060907,-0.6260211902886629,-1.672138262695074
1684253125144958200,6.916958251953125,-1.9562632473558186,-0.9401654656380415,-1.896816348261386
1684253125154984200,6.926984130859375,-2.123956732288003,-1.0051625462055205,-1.6101066078044473
1684253125165009200,6.937009033203125,-2.828968164922297,-0.8059294291496276,-1.0736050910517572
1684253125175035100,6.94703515625,-3.0553675213232636,-0.6673860508561134,-0.7864423461303115
1684253125185061000,6.95706103515625,-2.2917431562006474,-0.6490495991766453,-0.7985326699618249
1684253125195087400,6.96708740234375,-1.2046347327142952,-0.8012707896888256,-0.8863763731095939
1684253125205112300,6.9771123046875,-1.1516577602863312,-1.2453601263344287,-1.1153524481307715
1684253125215138600,6.987138671875,-2.1308225264042613,-1.8834797506958245,-1.4465776952058076
1684253125225164300,6.997164306640625,-2.407090367823839,-2.297211943000555,-1.687356582354009
1684253125235189200,7.007189208984375,-2.2226193510919807,-2.3721821360498665,-2.2810487437069416
1684253125245215500,7.017215576171875,-2.367731586381793,-2.4614023882478473,-2.9415707540124654
1684253125255241500,7.027241455078125,-2.36993757199347,-2.5772955433160063,-3.585263210070133
1684253125265267500,7.037267333984375,-2.045987941944599,-2.666891643089056,-4.043151939487457
1684253125275292400,7.04729248046875,-1.7377514293342828,-2.5535090095371005,-4.177233369936049
1684253125285318400,7.057318359375,-1.7652736425101756,-2.270885661610961,-3.699989074924588
1684253125295344400,7.067344482421875,-1.9485583720669148,-1.9175515316456555,-2.631956523308158
1684253125305369300,7.077369384765625,-2.2195991264879704,-1.6658248417645691,-1.419589588906616
1684253125315395300,7.087395263671875,-2.48075649253726,-1.6111995176076888,-0.4454607711292803
1684253125325421300,7.09742138671875,-2.4298311919420956,-1.5731126557976007,0.0303270049309358
1684253125335447300,7.107447265625,-2.2115791939005254,-1.5160843621522186,-0.08854710217677056
1684253125345472300,7.11747216796875,-2.1175883662998674,-1.5308704278737306,-0.35006402225345373
1684253125355498200,7.127498291015625,-2.2205741089999673,-1.6701830369740724,-0.7100617017611861
1684253125365524200,7.137524169921875,-2.5103303775459525,-1.9562077177762984,-1.121763191955909
1684253125375549400,7.147549560546875,-2.9006594824314114,-2.430805589932203,-1.5955910295873879
1684253125385575200,7.1575751953125,-3.0862203402265904,-2.940882771748304,-1.9703724367290734
1684253125395601200,7.16760107421875,-2.952633999818563,-3.4376042129069564,-2.2723555880330504
1684253125405627100,7.177627197265625,-2.4591522712334988,-3.8484284088104963,-2.4580036857202647
1684253125415652400,7.18765234375,-1.5714070209234952,-4.1868607377201315,-2.528627373997867
1684253125425678300,7.19767822265625,-0.47403760792464017,-4.424610924696922,-2.592126617223024
1684253125435704300,7.207704345703125,0.5453541007719934,-4.340702807432413,-2.749979091620445
1684253125445729300,7.217729248046875,1.328905401635915,-3.8175264900684356,-2.8100729103162885
1684253125455755300,7.22775537109375,1.850875558080524,-2.644628957876563,-2.7660078508794306
1684253125465781200,7.23778125,2.3014019420363008,-0.9584276830375194,-2.606272631475329
1684253125475806200,7.24780615234375,3.0801006883025166,1.0152958176851272,-2.2746327391847965
1684253125485832200,7.257832275390625,4.0750960607588285,3.374750574108958,-1.5825594063177704
1684253125495858400,7.2678583984375,4.046977050733566,6.469364940932393,-0.7916912065692245
1684253125505884400,7.277884521484375,2.1814649184048176,10.172829583013057,-0.8381748714551329
1684253125515909400,7.287909423828125,-0.4375041130363941,13.87972946023941,-2.3689957610987125
1684253125525935400,7.297935302734375,-1.9490122533142566,16.377599584662914,-3.368941011047363
1684253125535961300,7.30796142578125,-1.1525485716462134,15.949284155732393,-1.798806932669133
1684253125545987300,7.3179873046875,0.03695464290976524,11.612217074453831,1.1734645184248684
1684253125556012300,7.32801220703125,-0.17356208470463752,6.694972854694724,2.3522591458313165
1684253125566038300,7.338038330078125,1.3718307895183564,2.871516390055418,2.7163953864485024
1684253125576064300,7.348064208984375,4.8417041178673506,-0.2556178521007299,3.2203122920691967
1684253125586089500,7.35808935546875,5.984581774848699,-2.540074358424544,2.9097680870383975
1684253125596115500,7.368115478515625,6.06304097905755,-3.878750481837988,2.5845003601282834
1684253125606141400,7.378141357421875,7.08413291580081,-4.681176871302724,3.0354271415784955
1684253125616166400,7.38816650390625,6.3452896484524,-4.817912323391437,3.563520749339461
1684253125626192400,7.3981923828125,2.518563368362188,-4.226227117946744,3.578463466927409
1684253125636218400,7.40821826171875,-0.6605307781338692,-3.2968554335236546,3.0964141097217794
1684253125646244400,7.418244384765625,-1.431203600463271,-2.4855226840257645,2.4207341316424307
1684253125656269300,7.428269287109375,-1.1094406668037176,-1.6283493898510932,1.831447804033011
1684253125666295300,7.43829541015625,-1.1919757421493529,-0.8199170379698276,1.4353664192311464
1684253125676321300,7.4483212890625,-1.3609493300199509,-0.16319208185970782,1.240978550249338
1684253125686346200,7.45834619140625,-1.6497160030066966,0.5803308677375316,1.2821871973417698
1684253125696372200,7.468372314453125,-1.9609914449214934,1.3461270239412784,1.5513583584986625
1684253125706398200,7.478398193359375,-2.06499074857831,1.9822540131807327,1.9435408361658453
1684253125716424200,7.488424072265625,-1.930383540689945,2.279246078199148,2.375973198895901
1684253125726449200,7.49844921875,-1.7779262033343315,2.199378760758042,2.342839429448545
1684253125736475100,7.50847509765625,-1.606820279610157,2.0622978562325236,1.5163378985218703
1684253125746501000,7.518501220703125,-1.4079483970820903,1.8675754945993421,0.32566184079423544
1684253125756526300,7.5285263671875,-1.3299965578734874,1.5608020402789116,-0.7060526122502983
1684253125766552300,7.53855224609375,-1.1952584170818328,1.093427105113864,-1.404346719328314
1684253125776578300,7.548578369140625,-1.0018062215149401,0.43843817901611326,-1.6471733327865599
1684253125786604300,7.558604248046875,-0.8224082702636718,-0.23283377336263655,-1.6009345825724304
1684253125796629500,7.56862939453125,-0.4782160626530647,-0.6795598882526159,-1.3949696730434893
1684253125806655500,7.578655517578125,-0.18705224713040514,-0.8728566009968519,-1.1523365363307296
1684253125816681500,7.588681396484375,-0.028486089771986006,-0.9721639474451541,-1.0477616247430444
1684253125826706400,7.59870654296875,0.05370587122440338,-1.2027356210947036,-1.0108099044427274
1684253125836732400,7.608732421875,0.019563363125920295,-1.4810282463401556,-1.11434129832685
1684253125846758400,7.61875830078125,-0.12128884009923785,-1.6544722576230764,-1.2429209164887667
1684253125856783400,7.628783447265625,-0.351057380672358,-1.6783680969953536,-1.4078097192637622
1684253125866809000,7.63880908203125,-0.5497387455970049,-1.5739982064604758,-1.5534347263813018
1684253125876835000,7.6488349609375,-0.6767407391786575,-1.3974053757578133,-1.664318236593902
1684253125886861000,7.658861083984375,-0.8105033129364252,-1.1576935333192349,-1.6264551005370913
1684253125896886000,7.668885986328125,-0.9729827895473688,-0.8677654153376817,-1.4167878293588756
1684253125906912000,7.678912109375,-1.0450397985637188,-0.559807719668746,-1.1746491981647909
1684253125916938200,7.688938232421875,-0.9561416179269552,-0.27094460057020187,-1.0527123790182173
1684253125926963200,7.698963134765625,-0.6768588126003742,0.005037994167208671,-0.9971524043597281
1684253125936989200,7.7089892578125,-0.34935295137465,0.158531104311347,-0.9154276224836707
1684253125947015200,7.71901513671875,-0.00833586666882038,0.16448562880158424,-0.7755451045408844
1684253125957041200,7.729041259765625,0.33953758673779666,-0.00822305394411087,-0.5677560483247042
1684253125967066400,7.73906640625,0.6583089373659342,-0.22629472698271275,-0.27318521910384297
1684253125977092400,7.74909228515625,0.9852350259423255,-0.373144745850563,0.03866904561221599
1684253125987118300,7.759118408203125,1.2993769632041454,-0.3133282827913761,0.37873189833313226
1684253125997143300,7.769143310546875,1.6474012963235378,-0.07489245163798332,0.744387165211141
1684253126007169300,7.779169189453125,2.0893865002967416,0.21431495085358618,1.0662224334545434
1684253126017195300,7.7891953125,2.540665894576907,0.4900450321346521,1.3781034400470553
1684253126027221200,7.79922119140625,2.9695231752991673,0.6688339115768671,1.6683143204927444
1684253126037246200,7.80924609375,3.3396938737750053,0.7020365084767342,1.8588608577460048
1684253126047272200,7.819272216796875,3.605084347349405,0.5895417636752128,1.9041214105777442
1684253126057298200,7.829298095703125,3.766974114438891,0.3407908747345209,1.7693043593309818
1684253126067323100,7.8393232421875,3.936637438139319,-0.03297112623155117,1.4746036201201378
1684253126077349000,7.84934912109375,4.198163052979112,-0.3127911071747541,1.090663631749898
1684253126087375000,7.859375,4.4006127939939494,-0.41494799783527847,0.697976711691916
1684253126097401000,7.869401123046875,4.37634870583117,-0.38538755683004855,0.44155382681861516
1684253126107426000,7.879426025390625,4.229527913057804,-0.3143354140073061,0.27751170400083064
1684253126117452000,7.8894521484375,4.02449692337811,-0.3623702538579702,0.21408786409944294
1684253126127478000,7.89947802734375,3.5445021606147287,-0.5564169081866741,0.3212843563623726
1684253126137503200,7.909503173828125,2.945916674262285,-0.719299193444848,0.44336233754530546
1684253126147529200,7.919529296875,2.481565470832586,-0.8667161985456943,0.4134570286251604
1684253126157555200,7.92955517578125,2.1441139696538447,-1.074532435029745,0.30902751685753466
1684253126167580200,7.939580078125,1.8640378219924867,-1.3898679659903048,0.17898951658084988
1684253126177606100,7.949606201171875,1.4588041395723819,-1.703343548297882,-0.035302784049510955
1684253126187632000,7.959632080078125,0.9561224017698318,-1.7981576749801635,-0.2097398980230093
1684253126197658400,7.969658447265625,0.5637162714146078,-1.8929513433963059,-0.18930077497586606
1684253126207683000,7.97968310546875,0.300530760538578,-2.0802187128484246,-0.007196195114403963
1684253126217709300,7.989709228515625,0.08278700428009032,-1.652147029545903,0.25984540666788813
1684253126227735300,7.9997353515625,-0.14224683592133222,-0.24194062440395353,0.6478896154865622
1684253126237760300,8.00976025390625,-0.4048228731295094,1.7501731040120123,0.8774725703597068
1684253126247786200,8.0197861328125,-0.799895409682393,4.064830102810263,0.7532448637969792
1684253126257812200,8.029812255859374,-1.3313707688361405,6.412503820547461,0.35429172295108435
1684253126267838200,8.039838134765626,-1.9264730892479418,8.610952022457122,-0.2634919464766979
1684253126277863200,8.04986328125,-2.393682604718208,10.353345140117407,-0.9255098944284021
1684253126287889200,8.05988916015625,0.6603647739171982,10.853993983852863,-1.2632676850773394
1684253126297915100,8.0699150390625,16.471016704028845,8.82310073518753,-2.1198815918035803
1684253126307940400,8.0799404296875,21.169975315737723,5.451905223211646,-1.8540322685457764
1684253126317966300,8.08996630859375,9.389494262987375,3.2199522265851495,-1.452792185806483
1684253126327992300,8.099992431640626,0.5262146621465683,1.753243597498536,-1.0154279196321965
1684253126338018300,8.110018310546875,-4.611533133973181,0.5574690475881099,-0.04168254821449518
1684253126348043300,8.120043212890625,-7.300596569120883,-0.8374895195394754,0.8462515026658773
1684253126358069200,8.1300693359375,-8.209107251822948,-1.4475848264217377,1.5892355230808257
1684253126368095200,8.14009521484375,-9.725865567713976,-0.9495020337820053,2.3472587071955204
1684253126378120200,8.1501201171875,-13.299777362686395,0.18381167604029178,4.4631747563689945
1684253126388146200,8.160146240234376,-15.92961265605688,1.2235253111451863,6.01294686858952
1684253126398172200,8.170172119140625,-17.065722134077546,2.2694798864662644,6.279075008788705
1684253126408198100,8.1801982421875,-15.683752227860689,3.135008336532116,5.855411789578199
1684253126418223000,8.19022314453125,-3.1157468789622187,5.013922386747598,8.997301117795706
1684253126428249000,8.2002490234375,6.1309261822819705,6.930513548928499,13.853501963049172
1684253126438275000,8.210275146484374,-1.810159662941098,5.800059320190549,10.28910735348463
1684253126448300000,8.220300048828125,-4.38360320700407,4.489135127055644,7.3919620166540145
1684253126458326000,8.230325927734375,-0.9406386361077427,3.2846342498540877,4.9606993306040765
1684253126468352000,8.24035205078125,3.565723520080745,2.7699510355472565,2.9909634382128716
1684253126478377200,8.250377197265625,2.8828397481024264,2.1575918753862378,1.239684418785572
1684253126488403200,8.2604033203125,-0.567692919960618,1.1446125179499387,-0.037414661636948586
1684253126498429200,8.27042919921875,-1.6058569875359534,0.08774550347030162,-1.8071932143509386
1684253126508455200,8.280455078125,-1.353466573049128,0.08072247296571732,-2.3224469220221042
1684253126518480400,8.29048046875,-2.026502612490952,0.5219762939244509,-1.8814225259050725
1684253126528506400,8.30050634765625,-3.3047944098293778,0.6269868204504251,-2.800301457886398
1684253126538532400,8.310532470703125,-4.3376825828284025,0.15979600968062876,-4.46861022542119
1684253126548557300,8.320557373046874,-4.432586141359806,-0.7715168719381094,-5.431812283253669
1684253126558583300,8.330583251953126,-3.83922628070116,-1.6628905418783426,-5.890665473788976
1684253126568609300,8.340609375,-3.658367609247565,-2.4423645103007554,-5.830182071253657
1684253126578635300,8.35063525390625,-4.151834432524442,-3.094459468522668,-5.3908840605378145
1684253126588660200,8.36066015625,-4.651816336783766,-3.6065848150402307,-4.960635617718101
1684253126598686200,8.370686279296875,-4.882312022587657,-4.072634639081358,-4.544454570956528
1684253126608712200,8.380712158203124,-5.071746799206734,-4.441764304071665,-4.002704778286814
1684253126618737200,8.390737060546876,-5.2643946926534175,-4.805292495793104,-3.491162200093269
1684253126628763100,8.40076318359375,-5.58021011608541,-5.2817503166019915,-3.135955261993408
1684253126638789000,8.4107890625,-5.966090424868464,-5.685312997069954,-3.111898971362412
1684253126648814000,8.42081396484375,-5.934454931154847,-6.074339787185192,-3.323600524847209
1684253126658840000,8.430840087890624,-5.40834957460165,-6.558136280319094,-3.663388652279973
1684253126668866000,8.440865966796874,-5.226955481097102,-6.886496128025651,-3.6265476988777516
1684253126678892000,8.45089208984375,-5.463154346978664,-7.0233870629370205,-3.366313000631332
1684253126688917200,8.460917236328125,-5.033237328070402,-7.163343230637907,-3.109759328985214
1684253126698943200,8.470943115234375,-3.9887537020847197,-7.244992170798778,-2.714461495776474
1684253126708969200,8.48096923828125,-2.6178815284654497,-7.186188684174418,-1.9779526627250015
1684253126718994200,8.490994140625,-1.2760776284202933,-6.7950885949164626,-0.5409232787176966
1684253126729020200,8.501020263671874,-0.7708323968052864,-5.873323878365754,0.9806111655339598
1684253126739046100,8.511046142578126,-1.2527157497942447,-4.567610113355517,2.259526063206792
1684253126749072100,8.521072021484375,-2.1741769533537325,-0.49517830336987967,3.3232232159674164
1684253126759097000,8.53109716796875,20.45652426379919,18.19199761582613,10.17183355771303
1684253126769123000,8.541123046875,6.208307528126239,41.562517813491816,11.668404825621842
1684253126779149300,8.5511494140625,-25.767597705519197,44.20715203206539,-2.945342673766613
1684253126789174000,8.561174072265626,-7.3809110458076,35.65196105979681,-11.069246507817507
1684253126799200300,8.5712001953125,44.55349294214248,13.781183745813369,-11.65843405122757
1684253126809226200,8.581226318359375,33.26448140137195,-4.706142385733127,-6.517865060207248
1684253126819252200,8.591252197265625,9.629984104061126,-1.8214584710687398,-5.026484346678853
1684253126829277200,8.601277099609375,-2.1059867758333684,1.5942109734058378,-4.909592243701219
1684253126839303200,8.61130322265625,-4.63355061225295,0.3775678229898214,-5.045508780622482
1684253126849329200,8.6213291015625,-5.239353774899244,-0.6147498546898365,-4.847739014117419
1684253126859354600,8.631354736328126,-5.184537312084436,-1.553042512193322,-3.929560047098994
1684253126869380400,8.64138037109375,-5.442864423143863,-2.123089301803708,-2.3082351490572095
1684253126879406300,8.65140625,-5.637250684690475,-2.4929127942770717,-0.5212495870850979
1684253126889431600,8.661431640625,-5.055944834440946,-2.9053292278081178,1.0303839350931345
1684253126899457500,8.67145751953125,-4.803559972912073,-3.5233611729085443,2.307068004973978
1684253126909483500,8.6814833984375,-4.889588735592365,-4.534367768967152,3.368297160185873
1684253126919509500,8.691509521484376,-3.979946710772812,-4.792646949231624,3.655962301671505
1684253126929534500,8.701534423828125,-2.8590976379871367,-4.256176266008615,3.6403438767790792
1684253126939560400,8.711560546875,-2.3010464065968987,-3.75634575291872,3.239006178884208
1684253126949586400,8.72158642578125,-2.004087074804306,-3.348228477886319,2.602673437939584
1684253126959611400,8.731611328125,-1.7677755423285066,-2.6758161233007907,2.0416884911850093
1684253126969637400,8.741637451171876,-1.6572247712016104,-1.5687351713657378,1.482430660483986
1684253126979663400,8.751663330078125,-1.6855097854435444,-0.19690087471604345,1.0600304469466209
1684253126989689300,8.761689453125,-1.5932722312510013,1.129067158293724,0.8424721302576362
1684253126999714300,8.77171435546875,-1.3508908773422241,2.144065454337001,0.8147757295586169
1684253127009740300,8.781740234375,-0.6851824043095112,2.607604756861925,1.1667403247363866
1684253127019766300,8.791766357421874,0.17433133377777413,2.5683377453565597,1.6619859942540525
1684253127029791200,8.801791259765626,1.0365689073383808,2.222454515919089,2.1229107303664088
1684253127039817200,8.811817138671875,1.925412328148633,1.6494751799881457,2.279037696145475
1684253127049843500,8.821843505859375,2.69001006834805,0.9870978972047567,2.041367880928516
1684253127059869400,8.831869384765625,3.0768367180705067,0.45504035424888134,1.6798336395032702
1684253127069894700,8.841894775390625,2.904139141240716,0.19889117175042628,1.287487349576503
1684253127079920600,8.851920654296874,2.426773557937145,0.11079495514631271,0.8909370320886373
1684253127089946600,8.861946533203126,1.7774609239101409,0.10277122316658496,0.5265896329388022
1684253127099971600,8.8719716796875,1.317138245344162,0.07621873180568217,0.19849457364827394
1684253127109997600,8.88199755859375,1.0699012680977582,0.015885551396012304,-0.20019743204340337
1684253127120023600,8.8920234375,0.9048334554940461,-0.0025648820519447325,-0.582601735278964
1684253127130049500,8.902049560546875,0.7419114227473735,0.025227964758872984,-1.00018841105476
1684253127140074500,8.912074462890626,0.6410907491266727,0.029740473747253415,-1.3974540372051298
1684253127150100500,8.9221005859375,0.5309650715440511,0.00684533585011959,-1.5640689331203699
1684253127160126500,8.93212646484375,0.3840356307644397,-0.11242694026231766,-1.4764340504176914
1684253127170151400,8.9421513671875,0.31456513110995293,-0.2413631167769432,-1.3297196406282483
1684253127180177400,8.952177490234375,0.12732567257806657,-0.3189507988482714,-1.1717397404588759
1684253127190203400,8.962203369140624,-0.12857567263916134,-0.31993454918861386,-1.1130044967651367
1684253127200228400,8.972228271484376,-0.4068238742209971,-0.1638502535074949,-1.1983534604877233
1684253127210254300,8.98225439453125,-0.689931060141325,0.0731201812684536,-1.3897878864914177
1684253127220280300,8.9922802734375,-0.8528777158726006,0.3104670481413603,-1.6097364593178032
1684253127230306300,9.002306396484375,-0.9577706804335117,0.508676667368412,-1.762436373257637
1684253127240331500,9.01233154296875,-1.1047019478440283,0.5293535446941853,-1.815338819144666
1684253127250357500,9.022357421875,-1.3432529298096894,0.2764244932860136,-1.8342659301936626
1684253127260383500,9.032383544921874,-1.4736357980012893,-0.21736966224908827,-1.7413707888752221
1684253127270408400,9.042408447265625,-1.3954448893398046,-0.8048866420984268,-1.5736182672321795
1684253127280434400,9.052434326171875,-0.9948912544947117,-1.421177296489477,-1.409645410258323
1684253127290460400,9.06246044921875,-0.27981866576895115,-1.9527093542665241,-1.302079061769694
1684253127300486400,9.072486328125,0.5475158088505268,-2.190678736951947,-1.2417927892416716
1684253127310511400,9.082511474609374,1.4216058971650898,-2.1918419355124232,-1.1070670695401728
1684253127320537300,9.092537353515626,2.3360475773513314,-2.071656051686406,-0.8512420044295489
1684253127330563600,9.1025634765625,3.338967313066125,-1.5535329260587691,-0.5227274045526981
1684253127340588300,9.11258837890625,4.5555707159936425,-0.7957932350605725,-0.17076792394146323
1684253127350614500,9.122614501953125,7.496733473727106,-0.3007417729407549,0.6490589515268802
1684253127360640500,9.132640625,11.97275719027519,0.12722878807485102,2.275452531135082
1684253127370665500,9.14266552734375,11.816985613805056,0.4367155930072069,3.282382671535015
1684253127380691500,9.15269140625,8.122181248041986,0.6439291874229908,2.7089181824356316
1684253127390717400,9.162717529296875,5.07372949745655,0.6851297973394394,1.8660627519488333
1684253127400743400,9.172743408203125,3.715438572990894,0.7687567595750093,1.7669285701103508
1684253127410768400,9.182768310546875,3.41258842959404,0.8403145138323307,2.0094920025877654
1684253127420794400,9.19279443359375,3.2247455983415243,0.6288602131068706,2.2295566030092537
1684253127430820400,9.2028203125,3.213746942204237,0.006709726771712303,2.352595099787414
1684253127440845600,9.212845458984376,3.0986878998726604,-0.6233072551548481,1.9273653619125484
1684253127450871600,9.22287158203125,2.818786962647736,-1.0398387227892876,1.1363983779646456
1684253127460897500,9.2328974609375,2.5616607518106695,-1.2569810060232878,0.5591328891471028
1684253127470923500,9.242923583984375,2.3783178623259067,-1.5302397287547587,0.7050814291305839
1684253127480948500,9.252948486328124,2.148386240145564,-1.8953081356555221,1.3190250820040703
1684253127490974500,9.262974365234374,1.8556603081390262,-1.9704688828408716,1.9515118150450288
1684253127501000400,9.27300048828125,1.3876071814514697,-0.9190665635079145,2.4883441711872814
1684253127511025400,9.283025390625,0.39304201710596676,1.7389841859996318,2.4938497828662394
1684253127521051400,9.293051513671875,-0.5933084227323532,5.272632359644771,1.5603475745096802
1684253127531077400,9.303077392578125,-1.8723498693943024,8.69792186537981,-0.14351093757301567
1684253127541103400,9.313103271484374,-2.996999211245775,10.816546004468202,-2.090289878877252
1684253127551128300,9.32312841796875,-3.4882518656045196,10.928481946343183,-3.1555063501596448
1684253127561154300,9.333154296875,0.9714005618572235,9.22575565316081,-4.389333275088668
1684253127571180300,9.34318017578125,6.094291857367754,5.960357434174418,-4.898799923790991
1684253127581205200,9.353205322265625,4.807884265851974,2.891208347997069,-3.904032222610712
1684253127591231200,9.363231201171875,1.2374012762844562,0.5124456645131111,-2.2424933876022695
1684253127601257200,9.37325732421875,-1.4166764779388903,-0.9292810835301876,-0.5616625537551939
1684253127611282400,9.383282470703126,-2.636802794295549,-1.049260046607256,0.4777640811018645
1684253127621308400,9.393308349609375,-3.4529438208580014,-0.3872065889507532,0.5751670552335679
1684253127631334700,9.403334716796875,-4.56962028413415,0.4932821143597364,0.11538988172113895
1684253127641360600,9.413360595703125,-6.071794778877496,1.3019009287238121,-0.4981857415575534
1684253127651385600,9.423385498046875,-7.712208700531721,1.8210802854061126,-1.2804676800727843
1684253127661411600,9.43341162109375,-7.893424514859914,2.055748288458586,-1.99965932148993
1684253127671437600,9.4434375,1.1425146688878536,4.135570695465803,-1.4241655185200273
1684253127681462500,9.453462646484375,8.732631944233178,6.358938234576582,-0.6547922344818711
1684253127691488500,9.463488525390625,6.381662692081928,6.039225803706049,-0.7000768988415599
1684253127701514500,9.473514404296875,2.64867180352658,4.720119473159313,-0.9023284869357943
1684253127711540500,9.48354052734375,-0.5579582924097776,3.1795576723545786,-1.348479432286322
1684253127721565400,9.4935654296875,-2.2905048465773463,1.7703706733882427,-1.5688912387102842
1684253127731591400,9.50359130859375,-2.8726453940853474,0.965381155437231,-1.5848492708206177
1684253127741617400,9.513617431640625,-3.0847467605426906,0.597430471098423,-1.4811021883592008
1684253127751642400,9.523642333984375,-3.5223362137749787,0.5967062484771013,-1.186592076349631
1684253127761668400,9.53366845703125,-4.04731519664675,0.28630408226549625,-1.9813588179066777
1684253127771694300,9.5436943359375,-3.8074715445220466,-0.7027531323134899,-3.507861405959725
1684253127781719600,9.553719482421876,-3.5956744217082854,-1.6430127059757709,-4.491221577940881
1684253127791745500,9.56374560546875,-3.589141220547259,-2.4346622653603553,-4.894106213016808
1684253127801771500,9.573771484375,-3.8591979323670267,-3.167735132613778,-4.774878068307042
1684253127811797500,9.583797607421875,-4.254988809789717,-3.761383162564039,-4.2490866000086065
1684253127821822500,9.593822509765625,-4.716193239626288,-4.197713555645943,-3.6543703563049434
1684253127831848400,9.603848388671874,-5.126717575800418,-4.643072473835945,-3.0689076786369083
1684253127841874400,9.61387451171875,-5.482125589430332,-5.1887826945692295,-2.502313952089846
1684253127851899400,9.6238994140625,-5.624535580024123,-5.855681254169345,-2.1455526241548357
1684253127861926000,9.63392578125,-5.670639159551262,-6.565504763260483,-1.9429950388513504
1684253127871952000,9.643951904296875,-5.6939949006974695,-7.1883262807250015,-1.7482482734292744
1684253127881977900,9.653977783203125,-5.390131780865788,-7.632954546552896,-1.6082389142364262
1684253127892002800,9.6640029296875,-4.7437511086374515,-7.8180971789360045,-1.7176954603858292
1684253127902028800,9.67402880859375,-4.056761362645029,-7.787130962786078,-1.880174279409647
1684253127912054800,9.6840546875,-3.181295163671672,-7.638909655565023,-1.9081915826261042
1684253127922079700,9.694079833984375,-1.339315005838871,-7.36291303230226,-1.6653902497395872
1684253127932105700,9.704105712890625,2.5488489087715744,-6.819187847906351,-0.8225937098331749
1684253127942131700,9.714131591796875,7.163788051795959,-5.8533092643409965,0.4435428086787462
1684253127952156700,9.72415673828125,7.9088389416128395,-4.435971692144871,0.8977682663481682
1684253127962182700,9.7341826171875,6.7367071330964565,-2.6573247733205556,0.5837376074410975
1684253127972208600,9.744208740234376,5.9428539261877535,0.060411506342887875,-0.46038872953951354
1684253127982234600,9.754234619140625,5.439912003079057,4.765953588095307,-4.2791196269616485
1684253127992259800,9.764259765625,11.093232948082685,12.869406754791736,-9.134217771670222
1684253128002285800,9.774285888671875,13.064862691396474,28.653384612989424,-16.65120375983119
1684253128012311800,9.784311767578124,0.18177490951567887,35.77651098405123,-14.919410362118482
1684253128022336800,9.794336669921876,-4.777237783175707,26.694796722078323,-3.211329944190383
1684253128032362800,9.80436279296875,-7.093070255494117,12.65650751595497,1.0498834392026066
1684253128042388700,9.814388671875,-6.230439864957332,3.683606679922342,0.9393044648945331
1684253128052414700,9.824414794921875,-4.548692062395811,-1.9142618424504994,2.2705931084051727
1684253128062439700,9.834439697265625,-3.0659517514407635,-5.735296048378944,3.1015184471234676
1684253128072465700,9.844465576171874,-2.4151684603393075,-7.767571691313385,3.7793481505826114
1684253128082491600,9.85449169921875,-2.3778246719814837,-8.467988489633798,4.246353375652432
1684253128092516600,9.8645166015625,-2.0761564318455754,-8.255783078280091,4.0381194982782
1684253128102542600,9.87454248046875,-2.376230242396891,-7.463107682979106,4.101571687491238
1684253128112568600,9.884568603515625,-3.1766052522897716,-6.232940449601411,4.175646393005549
1684253128122594800,9.8945947265625,-3.647683133625984,-4.634790967702865,4.2801600759252905
1684253128132619500,9.90461962890625,-2.972071690738201,-3.1872908969551323,3.4657337443262337
1684253128142645800,9.914645751953126,-2.2596223631881176,-1.8525182107210159,2.5961951818361877
1684253128152671700,9.924671630859375,-2.1827344999492166,-0.13461831380426884,2.4531854717835784
1684253128162697000,9.934697021484375,-2.216059408054501,1.4380080197811125,3.107947018866241
1684253128172723000,9.944722900390625,-2.037526403069496,2.3519839821517468,3.8260806756630537
1684253128182748700,9.954748779296875,-1.6990870598971843,2.3928654431164262,3.878611365628242
1684253128192774000,9.96477392578125,-1.4496493577361107,2.793572149631381,4.37480147638917
1684253128202799900,9.9747998046875,-1.2835609699130057,2.9396003307223317,5.001469732409715
1684253128212825900,9.984825927734375,-1.06294136595726,2.280490525302291,5.124243294641375
1684253128222851800,9.994851806640625,-0.8393185615975409,1.3057903373777866,4.902601069639623
1684253128232876800,10.004876708984375,-0.8816180726666003,0.1801210048288107,4.556954279306531
1684253128242902800,10.01490283203125,-1.0240531246364115,-0.9441139110028743,4.0446570833534
1684253128252928800,10.0249287109375,-1.2218646844565868,-1.793997632691264,3.625858839830756
1684253128262953700,10.03495361328125,-1.5731516726337373,-2.1424562655746935,3.1638512769177556
1684253128272979700,10.044979736328125,-2.094535992014408,-1.6313275288790463,2.6406103698849677
1684253128283005700,10.055005615234375,-3.092852617847919,-0.47719957908689975,2.258686982034147
1684253128293031700,10.06503173828125,-3.1627427311539646,0.9784615862846374,2.184268577648699
1684253128303056600,10.075056640625,-1.4469208095550536,2.2870821786522866,2.028406108024716
1684253128313082600,10.08508251953125,0.1265548343360424,2.8683558801978823,1.8208119898587465
1684253128323108600,10.095108642578126,1.2828992911338806,2.9166110848009583,1.7343647095054386
1684253128333133800,10.1051337890625,2.4104059221126137,2.557411862194538,1.6001358334101736
1684253128343159600,10.11515966796875,4.327835727074742,1.8867291078805923,1.2544652238100766
1684253128353185500,10.125185546875,12.242378433287143,1.082881745702028,-0.3040270782217383
1684253128363210800,10.135210693359374,13.000052073311805,0.5600228237241506,-0.6542205720737576
1684253128373236700,10.14523681640625,7.4141960602939125,0.504909423789382,0.45660263512954113
1684253128383262700,10.1552626953125,2.9586592514574526,0.5134598099917173,1.5947577936336397
1684253128393289000,10.1652890625,1.349844583159685,0.19093290622234343,1.4478814712807535
1684253128403313700,10.175313720703125,0.6718056208640336,0.016907880181074142,0.8910898845627904
1684253128413339600,10.185339599609375,0.2785935809534043,-0.01119067157804966,0.6275567292928695
1684253128423366000,10.195365966796874,0.08716565775573253,-0.09862404035925865,0.5835428155213594
1684253128433390600,10.205390625,0.05978551993165165,-0.24903496657907961,0.6721566262587905
1684253128443416800,10.215416748046875,0.021250950886681674,-0.49928456964492796,0.7833812049940228
1684253128453442800,10.22544287109375,0.02577975342273712,-0.6268424435436726,1.0338462043762207
1684253128463468800,10.23546875,-0.008002689191699027,-0.7101900043159722,1.2121864632681012
1684253128473493800,10.24549365234375,-0.02194404771737754,-0.7964280258327722,1.2951166754111647
1684253128483519700,10.255519775390624,0.06283961027264595,-0.859381617873907,1.375740364177525
1684253128493545700,10.265545654296876,0.24584409811589866,-0.8201748121231794,1.4358498188339173
1684253128503570700,10.27557080078125,0.4519997079113498,-0.745437258785963,1.3753525339037178
1684253128513596700,10.2855966796875,0.693407869406417,-0.6452279950618743,1.3089859185487032
1684253128523622700,10.29562255859375,0.8689455650329589,-0.5226876570641994,1.2161594585523008
1684253128533648000,10.30564794921875,0.9389443994104861,-0.3336760742932558,0.9785619779191911
1684253128543673900,10.315673828125,0.9863018514562397,-0.16410685861706734,0.695350747102499
1684253128553699800,10.325699951171876,1.051162738423422,-0.1359352416217327,0.3887641936562955
1684253128563725800,10.335725830078125,1.1579354523163288,-0.322394217300415,0.17557824683263898
1684253128573750800,10.345750732421875,1.3618810579121112,-0.7178840659499168,0.06326090442463755
1684253128583776800,10.35577685546875,1.6589853511333466,-1.0213912119507789,0.16310644940286873
1684253128593802800,10.365802734375,2.5949346603810786,-0.61149815941751,0.3602713818825781
1684253128603827700,10.37582763671875,19.6814131667614,2.5316800395667554,-1.2080838502548634
1684253128613853700,10.385853759765626,28.896695356702804,6.175111360967159,-3.840813842153549
1684253128623879700,10.395879638671875,14.983629444050788,7.037949256774783,-3.1010718723997472
1684253128633905700,10.40590576171875,5.450259794092178,7.575026673719287,-1.9827803751423954
1684253128643930600,10.4159306640625,-1.9105103809624908,6.9628943080514665,-0.4171322100065648
1684253128653956600,10.42595654296875,-6.9179194402933115,6.0062897487878795,1.5302122562259435
1684253128663982600,10.435982666015626,-9.694978262019157,5.724886298045516,2.212927978160977
1684253128674007600,10.446007568359375,-11.67860940877199,6.381791871419549,2.412925942109525
1684253128684033500,10.456033447265625,-12.723623488372564,6.878115253171324,2.6432383803009984
1684253128694059800,10.466059814453125,-13.713828119421004,7.460213715103269,3.282944104810059
1684253128704084700,10.476084716796874,-13.840826021349429,8.214154013818503,4.1385979343324895
1684253128714111000,10.486111083984374,-13.792991087985039,8.888647850853204,4.7777094923406835
1684253128724136700,10.49613671875,-12.133439919662475,8.643487679880858,6.5266901716977355
1684253128734162700,10.50616259765625,-5.108490429714322,7.480409530913829,12.565858692258596
1684253128744188000,10.51618798828125,-4.093969395793974,5.417689065355062,17.272978398591277
1684253128754214000,10.5262138671875,-6.663612086269259,2.947078703778982,16.818946344602107
1684253128764240000,10.536239990234375,-8.595155902910232,0.7041817038118838,12.36871933261156
1684253128774264800,10.546264892578124,-6.422068352228402,-0.5134861134767532,8.222851115015148
1684253128784290800,10.556290771484376,-0.3388265889242291,-0.6191109725087881,3.562189792996645
1684253128794316800,10.56631689453125,4.958612587457895,0.37610359565615653,-1.0460933992698789
1684253128804342800,10.5763427734375,8.07702400945425,1.65556589807868,-3.01184519046098
1684253128814367700,10.58636767578125,4.670896884828806,2.0126649335354565,-4.844513914591074
1684253128824393700,10.596393798828124,1.3672697652131318,0.52807636436522,-6.413267790657281
1684253128834419700,10.606419677734374,0.3251455618351698,-0.45094402484595775,-7.332749949228763
1684253128844444700,10.616444580078126,-0.7610036612302065,-0.7019792253315449,-6.333334422242641
1684253128854470700,10.626470703125,-2.5205323303475975,-0.9415285706847906,-6.019637890660762
1684253128864497000,10.636496826171875,-4.109309296005964,-1.5885282515943049,-5.8431894368648525
1684253128874521900,10.64652197265625,-5.4117555836528535,-2.3698896411985158,-5.371670826023816
1684253128884547800,10.6565478515625,-5.83812163208127,-2.997430003878474,-4.409500449326634
1684253128894573800,10.66657373046875,-5.545071582686901,-3.365388871523738,-3.84048563311249
1684253128904599800,10.676599853515626,-5.017680277976393,-3.4791374157786366,-3.976457407352328
1684253128914625000,10.686625,-4.968090025377273,-3.301418795916438,-4.311412707801163
1684253128924651000,10.696651123046875,-5.218050290107727,-3.004530775794387,-4.701012037107348
1684253128934677000,10.706677001953125,-5.314168485125899,-2.844259549817443,-5.247012180697918
1684253128944702000,10.716701904296874,-5.584655989578366,-2.761397142213583,-5.1683542390465735
1684253128954728000,10.72672802734375,-6.033026949065923,-2.9111984121024608,-4.284508626523614
1684253128964754000,10.73675390625,-6.280512348115444,-3.3811148484438656,-3.537591650573909
1684253128974780000,10.74677978515625,-6.255381998512148,-4.001805783620476,-3.3002614425748584
1684253128984804900,10.756804931640625,-5.9906736619830125,-4.624578201246261,-3.13276260343194
1684253128994830800,10.766830810546875,-5.464055679732561,-5.131002705773711,-3.0388942331671713
1684253129004856800,10.77685693359375,-4.506510040226578,-5.4908682833343745,-3.163686441744864
1684253129014881800,10.7868818359375,-3.386323230741918,-5.684729644224047,-3.426771268725395
1684253129024907800,10.79690771484375,-2.381994505012035,-5.878055583062768,-3.5507448543965814
1684253129034933800,10.806933837890625,-1.1771157344087957,-6.128897891324758,-3.4482781671345233
1684253129044958700,10.816958740234375,0.42983138645142316,-6.24631547948122,-2.9317285744339228
1684253129054984700,10.826984619140624,2.184084745514393,-4.911681324934959,-1.1532833887267857
1684253129065010700,10.8370107421875,4.429328016346693,0.3002624649912119,2.7211317673206326
1684253129075036700,10.84703662109375,11.16634845317602,14.233063590204715,9.167264885747432
1684253129085062000,10.857061767578125,5.474821403896808,31.48549370628595,9.305724677410721
1684253129095087900,10.867087890625,-8.038910844159126,38.42133926389217,1.770688653296232
1684253129105113900,10.87711376953125,-10.592130515360832,36.10049743897915,-4.446980577415228
1684253129115138800,10.887138916015624,15.49769891037345,21.035357586455344,-5.429037557843327
1684253129125164800,10.897164794921874,22.138130612063406,0.8660071734935044,-4.088969395549595
1684253129135191000,10.90719091796875,9.22413068230748,-2.809768082150817,-1.9113760578811168
1684253129145215700,10.9172158203125,2.313487370496988,-0.86786186144948,-2.082096781679988
1684253129155242000,10.927241943359375,1.0277169809062032,-2.9732530094772573,-2.4051629068925977
1684253129165268000,10.93726806640625,3.357120809394121,-5.8289627585917705,-3.4838229432463645
1684253129175294000,10.9472939453125,3.947637555581331,-5.794075569605827,-5.4342047313481565
1684253129185319000,10.95731884765625,0.0045078328132629394,-3.8775814380586144,-4.532606604513526
1684253129195345000,10.967344970703126,-3.2835938008904457,-2.5344530114114283,-2.940488219472766
1684253129205371000,10.977370849609375,-4.392182819300889,-1.3108908753871917,-1.961490042093396
1684253129215395800,10.987395751953125,-4.840979602985084,-0.5492354722499847,-0.8856050964761525
1684253129225421800,10.997421875,-4.839223699228465,-0.48833939726054665,0.022226517920568584
1684253129235447800,11.00744775390625,-4.402342394265532,-0.6610802287101745,0.2817638815525919
1684253129245473800,11.017473876953124,-3.835475988256931,-0.423824547252059,0.28851313661709427
1684253129255499000,11.0274990234375,-3.364075450837612,0.1875976243197918,0.12129296828508376
1684253129265525000,11.03752490234375,-3.23927301312685,0.9970791929930448,-0.0542974073767662
1684253129275550700,11.04755078125,-3.121754887205362,2.026661310184002,-0.25195567633137106
1684253129285576000,11.057575927734375,-2.910276036560535,2.680560687479377,0.17999591714441776
1684253129295602000,11.067601806640624,-2.4690952808380127,2.545990888991952,1.0361601804070175
1684253129305628000,11.0776279296875,-1.912787385983765,1.5765321088522672,1.9593917546398936
1684253129315652900,11.08765283203125,-1.2417642937995492,0.530812511330843,2.407742255861312
1684253129325678800,11.097678955078125,-0.44111419329233464,-0.3424421490728855,2.5139620120465755
1684253129335704800,11.107704833984375,-0.061096639062836765,-0.8668290112704038,2.6603411985322833
1684253129345730800,11.117730712890625,0.01485620834827423,-1.3992209007471799,2.7092636348724364
1684253129355755800,11.127755859375,0.0960556511759758,-1.9896540603041648,2.4593024933591483
1684253129365781800,11.13778173828125,0.07017652903199195,-2.0840069992154837,1.8167124455854295
1684253129375807700,11.147807861328126,-0.08122980143334715,-1.5504361290872095,0.7517322672769426
1684253129385832700,11.157832763671875,-0.08466448858976364,-1.7127292162805794,0.6011296178773046
1684253129395858700,11.167858642578125,0.0018354352662339805,-2.1580232525408265,0.7782152005329728
1684253129405884700,11.177884765625,0.10668576626181601,-1.943692519596219,0.5697725027136504
1684253129415911000,11.187910888671874,0.09227612350410781,-1.4154273546606302,0.23167422806397078
1684253129425936000,11.197935791015626,0.0006254384219646454,-0.7581085243105888,-0.10924787183478474
1684253129435961900,11.2079619140625,0.11829670907855033,-0.02744973246157169,-0.49974020445793865
1684253129445987800,11.21798779296875,0.14235154753797688,0.45033027686178684,-0.7978102739714086
1684253129456013000,11.228012939453125,0.22303192579448222,0.979905939874053,-1.154213728379458
1684253129466039000,11.2380390625,0.6223784498721361,1.3384119195193052,-1.4561385736249386
1684253129476065000,11.24806494140625,1.059797222712636,1.5953431923061607,-1.6961631352744995
1684253129486091000,11.258091064453126,1.4030717309564351,1.5929489906460046,-1.6897615976691245
1684253129496116000,11.268115966796875,1.8336147728085517,1.3846540307343005,-1.4510637545786798
1684253129506142000,11.278141845703125,2.256811543551087,1.4242226555347441,-1.2514318474635482
1684253129516168000,11.28816796875,2.609257784765959,1.426974000069499,-0.9605091654866933
1684253129526193000,11.29819287109375,2.7201088540136813,1.2915642436265944,-0.7056450543627143
1684253129536219000,11.308218994140624,2.7613287531524895,0.8481482761979102,-0.18043576986640691
1684253129546244900,11.318244873046876,2.7188556390821934,0.4579343221247196,0.45579146487712857
1684253129556269800,11.328269775390625,2.4917548564136025,-0.12814648744165896,1.0544441712468862
1684253129566295800,11.3382958984375,2.290139812657237,-0.7621072385579347,1.5432693061977625
1684253129576321800,11.34832177734375,2.286675935938954,-1.2799942173421381,1.956152480457723
1684253129586347800,11.35834765625,2.2413797272719442,-1.6796014381825923,2.177894366441667
1684253129596372700,11.368372802734376,2.213722927930951,-2.1404723982810974,2.3831693940103054
1684253129606398700,11.378398681640626,2.116377236944437,-2.6936270898014305,2.5920819012984633
1684253129616424700,11.3884248046875,1.9425082782477139,-3.2290906418085097,2.698251242470741
1684253129626450000,11.398449951171875,1.9419594121932982,-3.539085980784893,2.7467972467139363
1684253129636476000,11.408475830078125,1.5187351689219475,-3.5093244642496106,2.732595995143056
1684253129646502000,11.418501953125,1.1950188361722975,-3.0980969482421874,2.4027163905233144
1684253129656526800,11.42852685546875,0.9073504798162728,-2.535182494729757,2.1386381685912608
1684253129666552800,11.438552734375,0.7867085958510637,-1.525697993671894,1.793870791441202
1684253129676578800,11.448578857421875,0.4904296475380659,-0.342896322581172,1.2934049030572174
1684253129686605000,11.45860498046875,0.2815479007143527,0.572972906190157,1.1213602371782063
1684253129696629800,11.468629638671874,0.1840934886563569,1.2887252208083868,0.8095619404330849
1684253129706655700,11.47865576171875,0.19181326925344763,1.9687503884851931,0.06980389632731676
1684253129716682000,11.488681884765626,0.35475349524393673,2.6458523621916767,-0.9075313162758946
1684253129726706700,11.498706787109375,0.5260247655976563,2.90894274213016,-1.5500753329508006
1684253129736733000,11.50873291015625,0.5764052187263965,2.4045775082200764,-1.394863143929094
1684253129746759000,11.518759033203125,0.5267226116687059,1.6626257534623146,-0.6311597222208977
1684253129756785000,11.528784912109375,0.4044406323462724,1.4039806624948978,0.31921821761280295
1684253129766809900,11.538809814453124,0.33875776147171854,1.6175211218446492,1.2652854546405374
1684253129776835800,11.5488359375,-0.01664484533071518,2.493324297687411,1.7349042232096195
1684253129786861800,11.55886181640625,-0.8561388365603982,3.936016675892472,1.199765226981789
1684253129796887000,11.568886962890625,-1.5275374840587377,5.126362771013379,0.051261108420789236
1684253129806913000,11.5789130859375,-1.8853731632269919,5.3953042150676245,-1.202570785921812
1684253129816938800,11.588938720703124,-2.298683184596896,4.88191396318078,-2.104181772238016
1684253129826964000,11.5989638671875,-2.3840134436190126,3.8379666360288858,-2.589536016207933
1684253129836990000,11.608989990234376,-2.109395122972131,2.868713607594371,-3.089123075930774
1684253129847016000,11.619015869140625,-1.8551596651405096,1.5550544365376233,-3.4133106063887473
1684253129857042000,11.6290419921875,-1.6542758582681416,0.013189736440777778,-3.619504502367973
1684253129867066400,11.63906640625,-1.5196283183693884,-1.4703303267151115,-3.31042277110517
1684253129877092400,11.64909228515625,-1.6941782450675964,-3.31618615693748,-2.4094315241225064
1684253129887118300,11.659118408203126,-2.3357611616253853,-4.725560787430405,-1.4773184320367871
1684253129897143300,11.669143310546875,-2.760200041383505,-5.020429868945479,-1.0640785532936454
1684253129907169300,11.679169189453125,-3.3742741887688634,-4.809325112310051,-0.4063745230183005
1684253129917195300,11.6891953125,-4.616680141472816,-4.444462457114458,0.016257599578797816
1684253129927220200,11.69922021484375,-6.298467691522836,-3.6825258989483114,-0.05771949077993631
1684253129937246200,11.70924609375,-6.969199545675516,-3.433764488613605,-0.1601540293380618
1684253129947272200,11.719272216796876,-6.791350577431917,-3.5983377956986424,-0.7848314038023352
1684253129957298200,11.729298095703125,-7.779131780725717,-4.539997299286723,-1.2338465064123272
1684253129967323400,11.739323486328125,-10.189428835636377,-4.147186898979545,-2.896333435925841
1684253129977349400,11.749349365234375,-11.089826354509592,-3.46639366953969,-4.921975924456119
1684253129987375400,11.759375244140625,-10.418976426935195,-2.5721646101683375,-7.274644966262579
1684253129997400300,11.769400390625,-7.99250214420557,-0.188024325299263,-9.826632465320825
1684253130007426300,11.77942626953125,-4.8789092284068465,2.1233780556172133,-11.45356263602376
1684253130017452300,11.789452392578125,-2.8508959190919994,3.380905589607358,-11.237492950457334
1684253130027478300,11.799478271484375,-3.2082872154936193,3.635526831886172,-9.773342773681879
1684253130037503200,11.809503173828125,-7.553916665673255,1.8068109370350838,-4.905763625323772
1684253130047529200,11.819529296875,-6.169473062819242,0.5581605369836091,0.18911825801581142
1684253130057555200,11.82955517578125,-3.6264977222561834,2.482763156184554,1.9454852482318876
1684253130067580200,11.839580078125,0.39000586428046224,5.354281884327531,1.9185040100648998
1684253130077606100,11.849606201171875,13.17917880640626,5.993391688770055,3.1375989375472066
1684253130087632400,11.85963232421875,39.3375141976118,3.0301930403172967,7.682512650448084
1684253130097657000,11.869656982421875,16.670647295969722,-0.5049859961569308,3.542907584899664
1684253130107683300,11.879683349609374,7.308042208951711,0.692937256219983,-1.3006331007450818
1684253130117709300,11.889709228515626,2.8042893584787842,1.7349924860149621,-5.085764803165197
1684253130127735300,11.8997353515625,-1.3289409113407133,0.9726888481020927,-7.075922136816382
1684253130137760500,11.909760498046875,-3.1921091108918187,0.2987099748522043,-7.08909316855669
1684253130147786500,11.919786376953125,-3.889406315886974,0.3413648752301931,-5.746259340941906
1684253130157812500,11.9298125,-4.170329874157905,0.22137889789044857,-3.73899217479676
1684253130167837400,11.93983740234375,-4.0113329059004785,0.33803543854653834,-1.7473828887715934
1684253130177863400,11.949863525390626,-4.17834133117795,-0.14166121805310247,-0.3525041088819504
1684253130187889400,11.959889404296876,-4.7218812221348285,-1.8563520897954702,1.4635624400153755
1684253130197915400,11.969915283203125,-4.7882139352202415,-2.825549588650465,2.437886780364811
1684253130207940400,11.9799404296875,-5.457124419164657,-3.693060736966133,2.3938357494533062
1684253130217966300,11.98996630859375,-5.807844567239284,-4.47610730317831,1.2160302792146802
1684253130227992300,11.999992431640624,-5.88702273337245,-6.014577684661746,-1.3696817947909234
1684253130238017300,12.010017333984376,-5.88304915356636,-4.14859384316802,-1.597230321227014
1684253130248043300,12.020043212890625,-4.896686000376939,-0.6770481976926326,-0.04023030357956886
1684253130258069200,12.0300693359375,-2.7615993867874145,0.8334422899752855,1.148752394233644
1684253130268094200,12.04009423828125,-0.6781950296401977,0.7334399470001459,1.4914543632864952
1684253130278120200,12.0501201171875,-0.19270291156955063,0.3577782498925924,1.8132900699213146
1684253130288146200,12.060146240234374,-0.5302655449725687,1.4847206711173058,2.1891768079563976
1684253130298172200,12.070172119140626,-0.6105331137776374,3.741449797081947,2.888122656941414
1684253130308197400,12.080197265625,-0.2574878106910735,5.365297783860564,3.587402267925441
1684253130318223400,12.090223388671875,0.1222700696889311,5.123181802889705,2.691843128994107
1684253130328249300,12.100249267578125,0.5397029431425034,4.071540414103866,0.6208963946208358
1684253130338274300,12.1102744140625,1.358421857368946,3.2977216949641703,-1.8256535846710205
1684253130348300300,12.12030029296875,2.17315637813434,1.8502900132775306,-0.16759265490621328
1684253130358326500,12.130326416015626,1.9049895717144012,0.2894961563050747,2.1581150224775074
1684253130368351200,12.140351318359375,1.773962998791784,1.2682201929181813,3.0151152981728315
1684253130378377200,12.150377197265625,1.3178433248735963,2.2138918547570703,4.088685902433097
1684253130388403500,12.160403564453125,0.1626606053315103,1.9470880072534082,3.347027285403013
1684253130398429400,12.170429443359374,-1.1406642187155782,1.3595213430434465,2.4613740389361976
1684253130408454400,12.180454345703126,-2.968509906603396,1.2912100233614443,1.8884771205917
1684253130418480400,12.19048046875,-3.817355809676647,1.9401438872039316,1.1574006878525018
1684253130428506400,12.20050634765625,-2.6942332390010355,2.0689315951585767,-0.3401423476979136
1684253130438531300,12.21053125,-0.48888957848921416,2.5350936474025247,-1.137875610910356
1684253130448557300,12.220557373046875,1.2015114861272276,3.003495587527752,-0.7993575034134089
1684253130458583300,12.230583251953124,1.541773368551582,2.7678023330807684,0.27677885968163607
1684253130468608300,12.240608154296876,1.5191010796248912,2.2965315595209597,1.932836486800015
1684253130478634200,12.25063427734375,1.8183727800130842,2.1086551182597875,2.835151529732346
1684253130488660200,12.26066015625,2.5698443505272266,2.086458484020829,2.582540458232164
1684253130498686200,12.270686279296875,3.185174343192577,1.976885764145851,1.5303062181197107
1684253130508711400,12.28071142578125,3.662034315061569,1.234574528425932,0.2574148185200989
1684253130518737400,12.2907373046875,4.0804035195171835,0.9993547367095946,-0.756422178658843
1684253130528763400,12.300763427734376,3.227508925575018,0.8698930750161409,-1.4712401350364088
1684253130538788400,12.310788330078125,2.490295889776945,0.12443360439836978,-2.4943609472587704
1684253130548814300,12.320814453125,1.8516167318366468,-0.7873755353271961,-3.897058876466751
1684253130558840300,12.33084033203125,2.2494117886886,-1.1922136425584553,-9.147603322944045
1684253130568865300,12.340865234375,0.7524478682003914,-0.09778174431622028,-12.897053471130132
1684253130578891300,12.350891357421874,-2.010537858378887,-1.0068670120358467,-5.64197829773426
1684253130588917200,12.360917236328126,-4.467538212275505,-1.8351111488461493,2.656294553489983
1684253130598943200,12.370943115234375,-6.695720458191633,-3.6386680525213477,7.3707467946678396
1684253130608968200,12.38096826171875,-6.657875003921985,-4.149112898606061,6.524224658367038
1684253130618994200,12.390994140625,-5.451057081949711,-3.1445190921992063,2.1144535754054785
1684253130629020200,12.401020263671874,-4.269581691026687,-2.1830402048975226,-1.6968064016140996
1684253130639045000,12.411045166015626,-2.9909201835930346,-2.5626900948584077,-3.412004492226243
1684253130649071000,12.421071044921876,-2.354510285758972,-3.041249856382608,-4.723932309445739
1684253130659097300,12.431097412109375,-2.162639806425571,-3.0051614749133586,-5.4050967102855445
1684253130669123300,12.441123291015625,-1.463343536567688,-2.634904267197847,-5.210524570778012
1684253130679148500,12.4511484375,-0.8454045304477215,-1.7456524117171763,-4.650883732108771
1684253130689174500,12.461174560546874,-0.598538140079379,-0.7644833200395107,-4.734806462420523
1684253130699200500,12.471200439453124,0.0035093232952058315,-0.04965981070399284,-4.9052404782325025
1684253130709225500,12.4812255859375,5.761012673437595,1.4760001890450716,-1.4847197943344712
1684253130719251500,12.49125146484375,15.839432618916033,1.6084358981132507,4.1617289268121125
1684253130729277400,12.50127734375,7.424878782349825,-0.6556096883445978,-1.054717946686968
1684253130739302400,12.511302490234375,-0.4109877159021795,0.15157003312706946,-3.4341292302727697
1684253130749328400,12.521328369140624,-0.46005029136538506,2.615529120120406,-1.9149875263765452
1684253130759354400,12.531354248046876,1.6374363671481609,2.99878024944365,-0.11546060886979102
1684253130769380400,12.54138037109375,2.3688487538434564,2.3315818301141262,2.1685481536865234
1684253130779405300,12.5514052734375,2.2345240161582827,1.7277765632867812,3.240209417194128
1684253130789431300,12.561431396484375,1.1716318961702286,2.10975109680295,2.630141582840681
1684253130799457300,12.571457275390625,0.07701163574904203,3.1114333996772765,2.322602112583816
1684253130809482200,12.581482177734374,-0.8757356635645032,3.688192254146933,1.3278653910636902
1684253130819508200,12.59150830078125,-1.147277060984075,3.927155908566713,0.29946398982359096
1684253130829534200,12.6015341796875,-0.8332824232384562,4.165558421972394,-0.05063804461900145
1684253130839559400,12.611559326171875,-0.9982615346454083,4.606218953213095,0.07051405389066785
1684253130849585400,12.62158544921875,-0.7930579648777842,4.53966762894094,0.5470118413837626
1684253130859611400,12.631611328125,-0.33693858322054143,4.84991022067666,2.211734384462237
1684253130869637000,12.64163720703125,-1.2013199090778828,4.940545600369572,2.8705323474541307
1684253130879662000,12.651662109375,-2.1028245124101637,5.1144718422114845,3.371358593583107
1684253130889688000,12.66168798828125,-0.8395727555543184,5.03863012702465,2.1092504538044334
1684253130899714000,12.671714111328125,-1.3283761170648039,3.747369834780693,-0.22064517678841947
1684253130909739000,12.681739013671875,-1.6634242103636263,3.4641415066987276,-0.7094903316140174
