time,seconds_elapsed,z,y,x
1684253058584080000,0.023079833984375,-0.9925018020749091,2.3024041048161683,1.5082877169266342
1684253058594105000,0.03310498046875,0.04276128336191177,2.968610444368422,3.3240205038249493
1684253058604131000,0.043131103515625,0.3947632879406214,2.61087749492228,4.1149204138860105
1684253058614157000,0.053156982421875,-0.005445990446209907,2.0919544510886072,5.171566771352291
1684253058624182000,0.06318212890625,-0.10090192216336727,2.9515140558779236,5.2517994149744505
1684253058634208000,0.0732080078125,0.7791700170397758,4.264413056217133,4.040575074736774
1684253058644234200,0.083234130859375,1.421831961005926,4.880875267782807,0.2173994728654623
1684253058654259000,0.093259033203125,1.420884451022744,6.124546710377931,-3.5755700835734605
1684253058664285200,0.10328515625,2.22819744348526,7.8463073743760585,-3.192994661554694
1684253058674311200,0.113311279296875,3.2033857071876524,8.817711443364619,-3.0268384691923855
1684253058684335900,0.1233359375,3.3009254594415425,9.156444801047444,-3.162496647438407
1684253058694362000,0.133362060546875,3.939259603336453,9.479183301740884,-3.3417104742944237
1684253058704388000,0.14338818359375,4.197265227356553,9.55422188385129,-2.539118080613017
1684253058714413000,0.1534130859375,3.410327498924732,9.265915814113617,-2.8947628256082534
1684253058724439000,0.16343896484375,2.5198043083339927,9.83674937018752,-2.7684043906271456
1684253058734465000,0.173465087890625,1.3624135573536156,10.533757821369171,-2.505271340590715
1684253058744490200,0.183490234375,0.2799716643735766,10.994196235269307,-2.6369775663405655
1684253058754516200,0.19351611328125,-0.5741206149205565,11.280016917932032,-2.8037515983402725
1684253058764542200,0.203542236328125,-1.227990473860502,11.24643496632576,-2.6948855654299257
1684253058774567200,0.213567138671875,-1.2198315711937844,10.79379524347782,-2.292004437485337
1684253058784593200,0.22359326171875,-1.0344283881783485,10.275457598316668,-1.4404057285726068
1684253058794619100,0.233619140625,-1.4502373867571352,9.7547462097615,0.2853431282788515
1684253058804644000,0.24364404296875,-1.8868904359221457,8.86810424451828,1.8922645301759242
1684253058814670000,0.253670166015625,-1.8553098872661589,7.825843263018131,3.15848098205626
1684253058824696000,0.263696044921875,-1.3320343473114074,6.308030469638108,4.337167034521698
1684253058834721000,0.273720947265625,0.11190919999852776,4.323368810793757,4.8005356566548345
1684253058844747000,0.2837470703125,1.5029482555948197,3.0670830935582516,5.187330742195249
1684253058854773000,0.29377294921875,1.958766608478874,2.3969728784352538,5.728026934158802
1684253058864798000,0.3037978515625,1.7325426086448132,1.8433523229688404,5.916493742528558
1684253058874824000,0.313823974609375,1.4460861122965811,1.2323626975953579,6.240414731004834
1684253058884850000,0.323849853515625,1.4797836531065403,0.5503787970662116,6.5126429416447875
1684253058894875100,0.333875244140625,2.190827643903345,-0.2495586981922388,6.6690107304424044
1684253058904901000,0.343901123046875,3.3836779769301413,-1.0433411779522894,7.61605017350316
1684253058914927000,0.353927001953125,3.9425805644527077,-1.9096108017742632,9.184307790485024
1684253058924952000,0.3639521484375,2.151925812448561,-3.151009623262286,11.014183376765251
1684253058934978000,0.37397802734375,-2.2233771837219596,-4.648598543781042,12.520070754551886
1684253058945004000,0.384004150390625,0.6171425950452685,-4.619584046220779,14.749632472127676
1684253058955029000,0.394029052734375,3.0480387858703732,-4.185280190530419,15.151410607266426
1684253058965055000,0.404054931640625,4.262076429963112,-4.577357600387931,15.351111341834068
1684253058975081000,0.4140810546875,5.7562336224675175,-5.860728016164899,15.023173518931864
1684253058985106000,0.42410595703125,5.700478417497873,-7.624384286606311,14.972334143054484
1684253058995132000,0.4341318359375,5.897393320739269,-9.347844740259648,14.299170677840708
1684253059005158000,0.444157958984375,9.555392096674442,-11.432736121094226,12.08719839296937
1684253059015182800,0.454182861328125,4.833016369020939,-10.487130510228871,12.477381951904297
1684253059025208800,0.464208740234375,4.9655333266317845,-10.17398226017952,10.641133323460817
1684253059035235000,0.474235107421875,6.658965721768141,-9.604801147487759,9.000409605205059
1684253059045260000,0.484260009765625,6.777603791630268,-8.932384701249003,8.359607025370002
1684253059055286300,0.494286376953125,6.0806806806445115,-7.891874947330355,7.374092597964405
1684253059065312300,0.504312255859375,5.500476069635153,-6.112604928171634,5.623444862177967
1684253059075337200,0.514337158203125,4.603613739150762,-4.362466310951113,4.255208882281184
1684253059085363200,0.52436328125,3.75860200741291,-3.5993092710793015,3.260822581633925
1684253059095389200,0.53438916015625,2.9467011026382446,-3.581325870621204,2.255969247508049
1684253059105414100,0.5444140625,1.9308698629021643,-4.135728516376019,1.9607763408660888
1684253059115440000,0.554440185546875,2.6052164004206655,-4.911097972089052,0.12438801169097423
1684253059125466000,0.564466064453125,2.5703333030879496,-5.628694453269243,-1.6089175441503525
1684253059135491000,0.574490966796875,4.71486695945859,-4.624954633343219,-5.2225692288368935
1684253059145517000,0.58451708984375,6.181812904432416,-2.277239414551854,-7.446421921116113
1684253059155543000,0.59454296875,3.7951521611750123,0.4426975900262594,-7.411817056202888
1684253059165568000,0.604568115234375,3.08733063955605,3.2244881164491175,-7.816516047224402
1684253059175594000,0.614593994140625,4.409123432707786,2.614826524809003,-8.455852061638236
1684253059185620000,0.624619873046875,4.332939187693595,0.21583587681055066,-8.768612773674725
1684253059195645200,0.634645263671875,4.300711573305726,-1.1638158155918121,-6.72976301304698
1684253059205671200,0.644671142578125,0.08592183170709758,-2.834171286523342,-6.416717054328322
1684253059215697200,0.654697265625,-0.910316855341196,-2.800712376774847,-7.269039401340484
1684253059225722000,0.66472216796875,-1.5714122816205023,-1.1829933942705393,-6.278025207474827
1684253059235748000,0.674748046875,-2.9555250450849533,3.893929054008424,-5.119847690030932
1684253059245774000,0.684774169921875,-3.182953160011768,6.860976486843824,-4.086353952354193
1684253059255799000,0.694799072265625,-3.186200763630867,8.255979477635025,-2.301839018279314
1684253059265825000,0.704824951171875,-4.126805205208063,9.768541510879993,-1.7509154468119144
1684253059275851000,0.71485107421875,-1.983338885807991,9.111028034740686,-1.5696458564698694
1684253059285876000,0.7248759765625,1.4022060540378092,10.05944870302677,-1.1909271098792553
1684253059295902000,0.73490185546875,3.7971675926506516,9.86994904447794,0.09414543364048003
1684253059305928000,0.744927978515625,5.18257098044753,8.415387364780903,2.7915082028388976
1684253059315953000,0.754952880859375,3.598133213037252,7.303021165919303,4.59914331573844
1684253059325979000,0.764978759765625,1.084949638017267,6.349962316438555,4.192986527124047
1684253059336004900,0.7750048828125,1.7907891920387744,5.121327114933729,1.917216600602865
1684253059346030000,0.785030029296875,1.8539573036134243,4.8245308647483585,1.9436784910708664
1684253059356056000,0.79505615234375,1.2885280908010899,2.999641834709048,2.6398545830816027
1684253059366082000,0.80508203125,0.071550009342283,0.5692787278473377,2.6362258711904287
1684253059376107000,0.81510693359375,-1.3786799247607588,-1.1090841084510088,1.5290321065306662
1684253059386133000,0.825133056640625,-1.4671987506911157,-1.4329992517083883,-0.06444587642550469
1684253059396159200,0.8351591796875,-1.53841572868675,-1.5368629462867975,-0.5849854155451059
1684253059406184000,0.845183837890625,-0.9656021047115325,-0.888393777346611,-0.7679574258908629
1684253059416210200,0.855210205078125,-0.3745385382965207,-0.7780699468433856,-0.6479474831536411
1684253059426236200,0.865236083984375,-0.11732669500261544,-0.9527408695727586,-0.42096272808015345
1684253059436261000,0.87526123046875,-0.6952914181306957,-1.163937396144867,-0.3681947222277522
1684253059446287000,0.885287109375,-1.3952218942388892,-1.2640747636765242,-0.2523597270876169
1684253059456313000,0.89531298828125,-1.5606994566872716,-2.015502787309885,0.5252002244070172
1684253059466338000,0.905338134765625,0.1194515782020986,-2.4830443112134932,2.5903318427607416
1684253059476364000,0.915364013671875,1.5620271981596945,-1.4745628497183323,2.0068506942987443
1684253059486390000,0.92539013671875,1.5166582165174185,1.2790432002276182,-0.7858224606662988
1684253059496415200,0.935415283203125,-0.1449557295538485,1.57650814345479,-1.2730144414573907
1684253059506441200,0.945441162109375,-1.2399191043242812,1.3580781584978103,-1.3353168761134147
1684253059516467200,0.95546728515625,-1.7172130836963653,1.1071078399419785,-1.4911810993030667
1684253059526492200,0.9654921875,-2.4190412101194263,0.14113222574293613,-0.6609785219013691
1684253059536518100,0.97551806640625,-3.038186084897816,-0.7314303607434034,0.21080635821074245
1684253059546544000,0.985544189453125,-3.189863085530698,-1.4399164837509393,1.3009738770067691
1684253059556569000,0.995569091796875,-2.514617553345859,-2.15493989957273,1.9323931269466876
1684253059566595000,1.005594970703125,-1.5820388895750044,-2.551966456270218,2.347704697397351
1684253059576621000,1.01562109375,-0.6474244821928441,-2.8061598285257814,2.748323141106963
1684253059586646000,1.02564599609375,0.19312369426488876,-3.179790312066674,3.0022201607644554
1684253059596672000,1.035672119140625,0.558901126217842,-3.728310914045572,2.9625679493337866
1684253059606698000,1.045697998046875,0.9057445789895952,-4.275438015839457,1.9462600319966672
1684253059616723000,1.055722900390625,1.2044130527876318,-4.530572468337416,0.9091738227859139
1684253059626749000,1.0657490234375,1.1629473621942101,-4.1696337085872885,0.7978492908075452
1684253059636775000,1.07577490234375,1.1207657784163951,-3.5973359251797197,0.8903244531482457
1684253059646800100,1.085800048828125,1.1123473480306565,-3.088223789003491,1.0067810873180627
1684253059656826000,1.095826171875,1.1344354073286056,-2.545185417827964,1.1845450076267123
1684253059666852000,1.10585205078125,1.1303437541007995,-2.0074708720237013,1.4738871424138544
1684253059676877000,1.115876953125,1.1330103429615497,-1.2245388721019028,1.8061346452087164
1684253059686903000,1.125903076171875,1.2615595659852028,-0.3963905968815088,1.9063982694685457
1684253059696929000,1.135928955078125,1.5114239691257476,0.1793178717523813,1.1451146222531794
1684253059706954000,1.1459541015625,1.3350561793506144,0.46429801193773745,0.40371290259361264
1684253059716980000,1.15597998046875,0.6677860099591314,0.907694690144062,0.5528925334528089
1684253059727006000,1.166005859375,-0.23813779805488883,0.7155208439499139,0.40585283723175525
1684253059737031000,1.176031005859375,-0.44144627479091286,0.929979587188363,-0.5202747507035732
1684253059747057000,1.186056884765625,-0.34015535330995916,1.5767846223086117,-2.1943600558131933
1684253059757083100,1.196083251953125,-0.7751964372336864,4.085487690913677,-3.165747173666954
1684253059767107800,1.20610791015625,-1.6416044466130435,4.184440817096829,-4.2313019369930025
1684253059777134000,1.216134033203125,-2.145666459792852,4.101342847171425,-4.280192224629223
1684253059787160000,1.22616015625,-1.9637565257206557,3.0337112775713204,-3.913926424637437
1684253059797185800,1.236185791015625,-1.755010753301531,1.7206874818086624,-3.2639275619119403
1684253059807211000,1.2462109375,-1.2033023150667548,0.5958697976529598,-2.2891088621743023
1684253059817237000,1.256237060546875,-0.7689199873127043,-0.7632406265020371,-1.4975836598217487
1684253059827262000,1.266261962890625,-0.7252097326628864,-1.8351561570316552,-1.0376299606986343
1684253059837288000,1.276287841796875,-0.3954853186048567,-2.4417209517002103,-0.9192720229521393
1684253059847314000,1.28631396484375,-0.09835077637583017,-2.6711539767086503,-0.8827541640244424
1684253059857339000,1.2963388671875,-0.25520664095133544,-2.73249487285614,-0.9244682764209806
1684253059867364900,1.30636474609375,-0.3257061183273792,-2.718359379997849,-1.006927071660012
1684253059877390800,1.316390869140625,-0.338630043438822,-2.6469910108327865,-0.9074598584748804
1684253059887416800,1.326416748046875,-0.562768469170481,-2.574682145947218,-0.44911542117930947
1684253059897441800,1.33644189453125,-0.6232452958345412,-2.410620295515656,0.022204379153996704
1684253059907467800,1.3464677734375,-0.8759852544113993,-2.4708500155508517,0.3114798784457147
1684253059917493800,1.35649365234375,-1.3480816651403904,-3.1350726339399815,0.535237195905298
1684253059927518700,1.366518798828125,-1.3993021492898463,-3.740968151044845,0.6279053966000676
1684253059937544700,1.376544677734375,-1.0050018026858567,-4.098192274186015,0.4218272359549999
1684253059947570700,1.38657080078125,-1.365251411128044,-4.522230756449699,0.4175586187250912
1684253059957596000,1.396595947265625,-3.094130674959719,-3.5420319711089134,0.7451122646152972
1684253059967622000,1.406621826171875,-2.926405333584547,-2.880410475128889,1.3137607317350803
1684253059977647900,1.41664794921875,-2.1778609025634825,-1.7467016285091637,2.1473393614411354
1684253059987672800,1.4266728515625,-1.281324589163065,-0.6841308494299649,2.7959005925789473
1684253059997698800,1.43669873046875,-0.8755272815108299,1.6533599124670029,3.728637954042852
1684253060007724800,1.446724853515625,-1.2166649238564073,5.288415035188198,4.763124502149224
1684253060017749800,1.456749755859375,-2.048631149929762,7.728390020003914,5.929466621348261
1684253060027775700,1.466775634765625,-2.1388941891789437,10.153841973948477,5.86839109813869
1684253060037801700,1.4768017578125,-1.7240017209231853,11.579572695958614,5.422776159361004
1684253060047826700,1.48682666015625,-1.178122573363781,12.22968495593071,5.233686835178733
1684253060057852700,1.496852783203125,0.4071224187761545,11.72504967290759,3.123797791209817
1684253060067878700,1.506878662109375,2.7262334743738172,9.845305601608752,0.7422071908235549
1684253060077904000,1.51690380859375,5.681513604786992,7.514931978240608,-1.6835028295353054
1684253060087929600,1.5269296875,8.460254095989466,4.402316675302386,-3.69006330871582
1684253060097955600,1.53695556640625,7.789910364371537,1.5873264745891094,-3.970107161542773
1684253060107980800,1.546980712890625,3.6671915516942737,0.27052783646285533,-2.477483754476905
1684253060118006800,1.5570068359375,0.06079480657204985,-0.5091396087050437,-0.8339563769772649
1684253060128033000,1.567032958984375,-0.359781990930438,-1.633234239283204,-0.42681934515386816
1684253060138057700,1.5770576171875,-0.13364742294549942,-2.6455104168862102,-0.35093569052144885
1684253060148084000,1.587083984375,-0.0407078579634428,-3.386746132329106,-0.25367884686216713
1684253060158110000,1.59710986328125,-0.11443532094266265,-3.875905613800883,-0.22973098504170775
1684253060168135000,1.607135009765625,-0.28869885018123315,-4.02233185429871,-0.2752154097571969
1684253060178161000,1.617160888671875,-0.4504126944482326,-3.5504718826740977,-0.2080078135333955
1684253060188187000,1.627186767578125,-0.7220107904911041,-2.7140654821962116,0.028385113615542648
1684253060198211800,1.6372119140625,-0.8597580499708652,-1.9651544098198412,0.3255485896781087
1684253060208237800,1.64723779296875,-0.8820055376142263,-1.417118961009383,0.6349345645844936
1684253060218263800,1.657263916015625,-0.7795423574835062,-0.7582114001631737,0.804031048182398
1684253060228288800,1.667288818359375,-0.6957528981626033,-0.04031798186302185,1.0351710232391953
1684253060238314800,1.677314697265625,-0.6498205835491419,0.5803156701683998,1.3078874557875095
1684253060248340700,1.6873408203125,-0.5131137365004047,0.9987760600388049,1.5332375953964887
1684253060258366000,1.697365966796875,-0.33813013109266754,1.1721031669437885,1.7163241720326243
1684253060268392000,1.707391845703125,-0.15577157647013665,1.1054191562026738,1.8636098058387636
1684253060278418000,1.71741796875,0.09441482516638934,0.7067278811633586,2.0217693003587422
1684253060288443000,1.72744287109375,0.4357306005578488,0.03664426178634166,2.15038457435593
1684253060298468900,1.73746875,0.720642497812584,-0.679632368966937,2.2881267192691563
1684253060308494800,1.747494873046875,0.7102876925367861,-1.2452186720371246,2.4907611692011353
1684253060318520800,1.757520751953125,0.443067592382431,-1.5513310321003198,2.734071328392625
1684253060328545800,1.7675458984375,0.13582535150647163,-1.6784207039654253,2.864626630541682
1684253060338571800,1.77757177734375,-0.0531821396112442,-1.7487907097429036,2.917994648113847
1684253060348597800,1.78759765625,-0.05083367678895592,-1.865337944805622,2.756059288316965
1684253060358622700,1.797622802734375,0.037038667931407684,-1.9322025728106498,2.3901282732374964
1684253060368648700,1.807648681640625,0.25328341780379415,-1.8572230274111032,1.7885319146312773
1684253060378674700,1.8176748046875,0.45504751464202997,-1.7927543546319007,1.2981165878795087
1684253060388699600,1.82769970703125,0.5695458543509244,-1.7413953387945889,0.9426417926236986
1684253060398725600,1.8377255859375,0.6228536661684513,-1.5037433514952658,0.7194473697438836
1684253060408751600,1.847751708984375,0.6311727278329432,-1.1401590456724167,0.6357486574463546
1684253060418776800,1.85777685546875,0.6647492726117372,-0.7395306650906801,0.7643535561800002
1684253060428802800,1.867802734375,0.7234218263328075,-0.4268851038664579,0.845485486729443
1684253060438828800,1.877828857421875,0.6998907286196947,-0.2812643345326185,0.881015649794042
1684253060448853800,1.887853759765625,0.7101859126627444,-0.2574327925682068,0.8971844020456076
1684253060458879700,1.897879638671875,0.7309095517396926,-0.35169045441150665,0.9549319498762487
1684253060468906000,1.907906005859375,0.8617936474516987,-0.637119507408142,1.164718609650433
1684253060478930700,1.9179306640625,1.158893118367344,-1.0441501562476156,1.207721154422313
1684253060488957000,1.92795703125,1.5774423555649817,-1.452964765894413,1.125147792892903
1684253060498983000,1.93798291015625,2.1410054822444913,-1.8587328474521636,1.0923743811905384
1684253060509008000,1.9480078125,2.7024001788437366,-2.275883323767781,1.1449261139437557
1684253060519033900,1.958033935546875,3.0906884255513547,-2.6396295421540734,1.3233480597697198
1684253060529059800,1.968059814453125,3.380353508682549,-2.7960435081809756,1.7966680209442971
1684253060539084800,1.978084716796875,3.7555057949632404,-2.7425878123253584,2.6534979085087773
1684253060549110800,1.98811083984375,2.7673697868824005,-2.312936166355014,3.3506396306812762
1684253060559136800,1.99813671875,0.9604290859878063,-1.704039129346609,3.2980446433082222
1684253060569162000,2.008161865234375,0.016158815379440784,-0.8345037817269563,3.2616961495980616
1684253060579188000,2.01818798828125,-0.3442217259660363,0.41257016278803343,3.409326505188644
1684253060589214000,2.0282138671875,-0.6194812671259046,1.9795184507369994,3.431151968027651
1684253060599239000,2.038239013671875,-0.6647082099489867,3.7949522546887398,3.3128540899053216
1684253060609265000,2.048264892578125,1.7670925285004078,5.903666994181275,2.577164318151772
1684253060619291000,2.058290771484375,8.424018999525904,8.689807532507182,0.5451856123372912
1684253060629315800,2.06831591796875,6.960925638327002,9.825480957198142,-1.492096168321371
1684253060639341800,2.078341796875,2.8456922129690647,9.067326840180158,-3.0155607038527728
1684253060649367800,2.088367919921875,0.5126228477109224,7.8694100175440305,-4.153182047741115
1684253060659392800,2.098392822265625,0.756840842462331,6.9786682157665485,-4.833201662459969
1684253060669418800,2.108418701171875,0.33690205060243605,6.835593623784184,-4.764036940819024
1684253060679444700,2.11844482421875,-2.3099755629837513,7.321349434292316,-2.8087293867528436
1684253060689470700,2.128470703125,-1.3104653434515,7.792064912056922,1.3276681149259209
1684253060699495700,2.13849560546875,2.073821120765805,6.850161662840843,4.380080585835874
1684253060709521700,2.148521728515625,3.1696973725974558,4.813776246500015,2.9253812512338158
1684253060719547600,2.158547607421875,3.4595080016791817,3.1313258486270903,-0.9115417209610343
1684253060729572900,2.16857275390625,3.237027280026674,2.0143734910190103,-3.5822166819810866
1684253060739598800,2.178598876953125,1.655114647179842,1.0086310990989207,-4.111138849520683
1684253060749624800,2.188624755859375,0.3413748121023178,0.21870354120135305,-3.4812861182451247
1684253060759649800,2.19864990234375,-0.47839609539508815,-0.4465437440603971,-2.965558947843313
1684253060769675800,2.20867578125,-0.8917384115993976,-1.1064058291524648,-2.4721412244051693
1684253060779701800,2.21870166015625,-0.483711737459898,-1.4497966572523115,-2.6264456509321925
1684253060789726700,2.228726806640625,0.3782769211072475,-1.348766724795103,-3.5570103445321317
1684253060799753000,2.2387529296875,1.0944763219058513,-0.5074573547065258,-4.5925586766511195
1684253060809779200,2.248779296875,1.3445860781095922,0.6085813951879739,-4.786400163796544
1684253060819804000,2.258803955078125,1.830081922507286,1.623494935557246,-4.484393485486507
1684253060829830100,2.268830078125,2.50250187587738,2.3756471818119285,-4.092313737541437
1684253060839856000,2.278856201171875,1.8392447415195405,2.7054566438049075,-3.2058161492049693
1684253060849881000,2.288881103515625,0.7733433567129075,2.3839795413494107,-1.703229566529393
1684253060859907000,2.298906982421875,0.46502325747236606,1.691509902641177,-0.11194821683466434
1684253060869933000,2.30893310546875,-0.7690555963911115,1.0454892958968878,1.5632921035289764
1684253060879958300,2.318958251953125,-2.1718891346774996,0.38554888487160205,2.4921558384299276
1684253060889984300,2.328984375,-2.6693524802446364,-0.12971417514979838,1.8528402822822332
1684253060900010000,2.339010009765625,-3.158341281324625,-0.6216799462139606,0.4385620976567268
1684253060910035200,2.34903515625,-1.789280102650076,-1.362547412866354,0.0865174229800701
1684253060920061200,2.359061279296875,-0.09242796219810843,-1.652398958480358,0.6816618289679288
1684253060930087200,2.369087158203125,-0.3734942899405956,-1.1261118156194687,1.5117635763436554
1684253060940112100,2.379112060546875,-0.7472200505495071,-0.3925181393623352,1.6179922464877365
1684253060950138000,2.38913818359375,0.0465406557701528,0.27354104680418967,1.415000653681159
1684253060960164000,2.3991640625,1.6830480715051293,0.41667993619441984,1.2443255225896834
1684253060970189000,2.40918896484375,1.9471280470028518,-0.5706856720358133,0.943575566342473
1684253060980215000,2.419215087890625,0.8127119288966059,-1.2463158196240662,-0.2179828257113695
1684253060990241000,2.429240966796875,2.354553540378809,-1.1554232502996922,-1.5065823743134736
1684253061000267000,2.43926708984375,3.6689869106784463,-0.40322073516249657,-2.496426355355978
1684253061010292000,2.4492919921875,2.6096704572200773,0.5253969160228967,-2.8575036467939614
1684253061020318000,2.45931787109375,0.500731553582847,0.7657780360251665,-3.025440292832255
1684253061030344000,2.469343994140625,-1.526817060829699,0.2843278137564659,-3.5971348496496676
1684253061040369200,2.479369140625,-2.40123287396729,-0.4327542881608009,-4.346750855425
1684253061050395100,2.48939501953125,-2.509107850013673,-1.1395189942032098,-4.772657469648123
1684253061060420900,2.4994208984375,-2.237966265566647,-1.645448408690095,-5.064021173390746
1684253061070446000,2.509446044921875,-1.8847548851981757,-2.0622294671714303,-5.3584372504413125
1684253061080472000,2.51947216796875,-1.6498869756594299,-2.4724404996126887,-5.7510261169523
1684253061090498000,2.529498046875,-1.2905939372897148,-2.876745522880554,-6.425117802926898
1684253061100523000,2.53952294921875,-0.7356561617448926,-3.377982980158925,-7.207921792554855
1684253061110549000,2.549549072265625,-0.3673328447014093,-4.039645977193117,-7.700873652046918
1684253061120575000,2.559574951171875,-0.30472061344385143,-4.713184120938181,-7.965214324307441
1684253061130600000,2.569599853515625,-0.21527882744967936,-5.334024109196663,-7.966851570120453
1684253061140626000,2.5796259765625,0.6434352664262056,-6.003539573296904,-7.5410074997395276
1684253061150652200,2.589652099609375,1.789707826542854,-6.469779366952181,-6.759245712640881
1684253061160676900,2.5996767578125,6.567540653002261,-6.960093863677978,-4.894482352852821
1684253061170703000,2.609703125,25.262727444696424,-7.23782768599689,3.0238042160630223
1684253061180729000,2.61972900390625,18.764076203525065,1.7327239565610884,9.318252150550483
1684253061190754000,2.629754150390625,-20.48766525199413,8.377319207671285,2.8670079727202653
1684253061200780000,2.639780029296875,-21.868023046839237,11.89325636805892,0.7444406489640474
1684253061210806000,2.649805908203125,-12.843067029398679,18.9985536524415,1.0793056407809256
1684253061220831200,2.659831298828125,4.085864123010635,19.865787737381456,2.12987443189919
1684253061230857200,2.669857177734375,0.9152701668996364,13.89390411606431,5.3153953965723515
1684253061240883200,2.67988330078125,-6.838523832017183,8.577662331795691,5.021139478519559
1684253061250909200,2.6899091796875,-6.275812792122363,4.384491680276394,3.149725720931589
1684253061260934100,2.69993408203125,-4.7135938707828515,1.801019494152069,2.2657556052461265
1684253061270960000,2.709960205078125,-4.319461281961202,1.2254460500746964,2.0532474115535617
1684253061280986000,2.719986083984375,-4.437653946143389,1.8887825332790613,2.5570781001955267
1684253061291011000,2.730010986328125,-5.295472552484274,2.95090615311265,4.168364419303834
1684253061301037000,2.740037109375,-5.314674096560478,3.606456804746389,4.553945160618424
1684253061311063000,2.75006298828125,-4.348722447758913,3.4104403116494417,3.133698422977328
1684253061321088000,2.760087890625,-3.3796342544972893,2.9199218167841434,1.483759717130661
1684253061331114000,2.770114013671875,-2.4187480723917485,2.1263392435103654,0.4629436747193336
1684253061341140000,2.780139892578125,-0.3980430402636528,0.5692383958369494,-0.8919120146006345
1684253061351165200,2.790165283203125,0.4817921675741672,-0.4122451686173677,-1.9988082576185464
1684253061361191000,2.80019091796875,-0.8277790035165846,-0.5738508580684661,-1.1556292942658066
1684253061371217000,2.810216796875,-1.6845828798569737,-0.6435568469792604,-0.12223667887598276
1684253061381242000,2.8202421875,-1.937437258593738,-0.701367230913043,0.6760586021333932
1684253061391268000,2.83026806640625,-1.929650550240278,-0.8725403746545314,1.183103576646745
1684253061401294000,2.840294189453125,-1.7370809827268123,-1.2886264366090296,1.4459636549606918
1684253061411319000,2.850319091796875,-1.519498554509878,-1.8729852446883917,1.5942784856840968
1684253061421345000,2.860344970703125,-1.3924199885606765,-2.4643314274370667,1.6708239652261136
1684253061431371000,2.87037109375,-1.2676502840757369,-3.1285259887754915,1.6050088462740182
1684253061441396000,2.88039599609375,-1.1050701966345309,-3.8648213252067563,1.4315978604778647
1684253061451422000,2.890421875,-0.7808090894836932,-4.598794356170297,1.2992249875128268
1684253061461448000,2.900447998046875,-0.10249357526898384,-5.202838107928633,1.2333625222876667
1684253061471474200,2.91047412109375,1.602629257661104,-5.690576032164692,1.054065985584259
1684253061481499000,2.920498779296875,2.791210096675157,-5.623357183894515,1.0882950029224157
1684253061491525000,2.930525146484375,2.1655717682242392,-4.876111414381861,1.7124688117787241
1684253061501551000,2.940551025390625,1.0201379970192908,-3.9115941822975873,2.5903201523229478
1684253061511576000,2.950576171875,0.04314823685288429,-3.1608179005712267,3.227937380120158
1684253061521602000,2.96060205078125,-0.46215807729959485,-2.6691467285394666,3.557665301309526
1684253061531628000,2.9706279296875,-0.5053554139912129,-2.4104484460800886,3.5228996928766367
1684253061541653200,2.9806533203125,-0.2978033814013004,-2.1965157725423574,3.256087369805574
1684253061551679200,2.99067919921875,-0.15842881298065184,-1.882348700839281,3.071380790752172
1684253061561705200,3.000705322265625,-0.10030508878137916,-1.5203344208121299,2.982370381912589
1684253061571730200,3.010730224609375,-0.02157821007966995,-1.0587111810415983,2.9672423708856104
1684253061581756200,3.020756103515625,-0.08974164572358131,-0.6048088909119367,3.079326781320572
1684253061591782100,3.0307822265625,-0.32631982977893204,-0.2343967848956585,3.1633959343656897
1684253061601807000,3.04080712890625,-0.5099275442123413,0.014877251136302947,3.1921631791666147
1684253061611833000,3.0508330078125,-0.48320667401459066,0.16114742428958415,3.175849465486407
1684253061621859000,3.060859130859375,-0.4488929010024294,0.15985621543526649,3.1000346383064983
1684253061631884000,3.070884033203125,-0.4939314816465601,-0.05945230592191219,2.9669851812541483
1684253061641910000,3.080909912109375,-0.46613980387952175,-0.3325117066890001,2.7686548582568764
1684253061651936000,3.09093603515625,-0.39541853697896,-0.6489525685429572,2.5361340963661667
1684253061661962000,3.1009619140625,-0.3188964383125305,-1.0874094522595406,2.2585060725092885
1684253061671987000,3.110987060546875,-0.25965163766145705,-1.520153219026327,1.9776985418334603
1684253061682013000,3.121012939453125,-0.09043141808602959,-1.8292121539354322,1.6666235909268259
1684253061692039000,3.131038818359375,0.45751229732036586,-1.9441011003971098,1.254067456664145
1684253061702064000,3.141064208984375,1.0866963355541228,-1.8038474110543727,1.1455693802833558
1684253061712090000,3.151090087890625,1.403292095708847,-1.3697756105542183,1.6013596761167048
1684253061722116000,3.1611162109375,1.9915105018258095,-0.6015256314575672,2.523798930928111
1684253061732141000,3.17114111328125,4.295470165520906,0.42419688769578934,3.608958266173303
1684253061742167000,3.1811669921875,6.112621294784546,1.4214175349861382,4.26878352638632
1684253061752193000,3.191193115234375,5.8498646768450735,1.614606695702672,4.041546842378378
1684253061762218000,3.201218017578125,4.479655351048708,0.6966162369936704,3.3126451233297582
1684253061772244000,3.211243896484375,3.725726158249378,-0.5070119490265846,2.732576705920696
1684253061782270000,3.22127001953125,3.6679157743155955,-1.3958067083895205,2.502476449175179
1684253061792295000,3.231294921875,3.432808210802078,-1.8337153105735777,2.5260060855835675
1684253061802321000,3.24132080078125,1.4327975916564464,-1.536283685094118,2.204011973516643
1684253061812347100,3.25134716796875,-2.737808176833391,-0.8128624432832002,1.5559040391042827
1684253061822373000,3.261373046875,-6.576647504043579,-0.10860416710376739,1.4671344532832502
1684253061832398000,3.271398193359375,-9.620381578457355,1.6187024405837058,2.8489447850242255
1684253061842424000,3.281424072265625,-11.86761105467081,4.391256352105737,5.812874962621927
1684253061852450000,3.291449951171875,-11.233280885720252,7.434363234531879,8.534606449401378
1684253061862475300,3.301475341796875,-12.159135501933097,9.05031199249327,9.189252261149882
1684253061872501200,3.311501220703125,-13.787517625010013,9.640144263547658,8.404629823923111
1684253061882527200,3.32152734375,-15.656923842167853,9.557496959999202,9.535168223813175
1684253061892552200,3.33155224609375,-15.383617773163317,7.7355118347078555,9.692692781430482
1684253061902578200,3.341578125,-15.174206960964202,5.091454539239407,10.162913753676413
1684253061912604200,3.351604248046875,-12.67784373397231,1.613631128668785,9.57292716884315
1684253061922629000,3.361629150390625,-2.1567586394324896,-2.1893390127807852,6.946946212813258
1684253061932655000,3.371655029296875,-0.21373013670295476,-3.8268940378725524,6.293509776854514
1684253061942681000,3.38168115234375,-3.2031448841691015,-3.8922073447823524,4.506663184961677
1684253061952706000,3.3917060546875,-3.0803976254224774,-2.477016721487045,-0.1036450833916664
1684253061962732000,3.40173193359375,-1.1413546851977705,0.08144552654325962,-4.10573494465053
1684253061972758000,3.411758056640625,0.507303917710483,2.473387425073981,-4.6872810333967205
1684253061982783000,3.421782958984375,0.9006178836256266,4.250343906593322,-4.682312012812495
1684253061992809000,3.43180908203125,-1.5445730822727084,4.596984676399827,-6.270290229308605
1684253062002835000,3.4418349609375,-0.7440247616395353,5.0738113305211066,-8.559902803221345
1684253062012861000,3.45186083984375,0.27139205207675693,5.718213980674744,-8.95585208607614
1684253062022886100,3.46188623046875,-0.29004356105476614,5.941223694637418,-7.762376460757851
1684253062032912100,3.471912109375,-1.4577113758996127,5.405111907854676,-6.555855475905537
1684253062042938000,3.481938232421875,-2.154391618040204,4.389325676304102,-5.721300256252288
1684253062052963000,3.491963134765625,-2.9676211410701274,3.4649113220274446,-5.612575677639246
1684253062062989000,3.501989013671875,-3.55275239482671,2.593622408738732,-6.053974460026621
1684253062073015000,3.51201513671875,-3.8631522229507564,1.7962983108490704,-6.73039721929729
1684253062083040000,3.5220400390625,-3.9847745693206784,0.9896230317682028,-7.225220133358239
1684253062093066000,3.53206591796875,-4.082420996819437,0.20041443579494952,-7.640801752921939
1684253062103092000,3.542092041015625,-3.9357378589510916,-0.6733265468209981,-8.448632631778716
1684253062113117000,3.552116943359375,-4.08074488030076,-1.6168191110551355,-9.023304158580302
1684253062123143000,3.562142822265625,-4.470128521029651,-2.5952286748915907,-9.144199651980399
1684253062133169200,3.572169189453125,-4.386759332947433,-3.538355912944674,-9.10165639528334
1684253062143193900,3.58219384765625,-3.6548809361755845,-4.440391262152791,-9.031829994863271
1684253062153220000,3.59222021484375,-2.4119231948077675,-5.268583961036801,-9.025537616720795
1684253062163246000,3.60224609375,-2.157488999533653,-5.884148054718971,-8.324287290185689
1684253062173272000,3.61227197265625,-3.0513702683806416,-6.269520998501777,-6.808578775608539
1684253062183297300,3.62229736328125,-3.6369638789519665,-6.844653713074326,-5.402469868913292
1684253062193323000,3.632322998046875,-4.4644647961795325,-7.381472186821699,-3.920982772889733
1684253062203349000,3.642348876953125,-6.60467532865405,-7.321843939810991,-1.4439964465409516
1684253062213374200,3.652374267578125,-9.283700477129221,-5.152800111562013,6.165329971665144
1684253062223400200,3.662400146484375,3.366490695285797,8.299538048854469,23.268102610242366
1684253062233426200,3.67242626953125,-9.412634315556287,21.88054584380388,26.304251928615567
1684253062243451100,3.682451171875,-4.644949958145618,36.92242640129327,32.6630738433361
1684253062253477000,3.69247705078125,31.546059526407717,35.982185532331464,17.608758167165515
1684253062263503000,3.702503173828125,8.381071253681183,9.808209504401683,-0.6766197431474924
1684253062273528000,3.712528076171875,27.648509651553628,-4.897339495849609,-11.008932032108307
1684253062283554000,3.722553955078125,14.975577070498465,-0.7712023991614579,-9.410915236678719
1684253062293580000,3.732580078125,-5.520730337634682,3.503594396165013,-2.5711393587738276
1684253062303605000,3.74260498046875,6.144360833394527,8.012805512043833,-2.7992268143922088
1684253062313631000,3.752630859375,8.735904682293533,12.18900573953986,-1.9478478857100008
1684253062323657000,3.762656982421875,-1.065046813803911,9.345831062349676,0.029980712243914603
1684253062333683000,3.772682861328125,-2.0042016410946846,6.791575033837557,-0.25108956102132796
1684253062343708200,3.782708251953125,-1.3700357227951288,3.6716514537125824,-1.4087784181654452
1684253062353734100,3.792734130859375,-1.0112170239388942,0.8035019097417593,-2.5043641626179216
1684253062363759900,3.802759765625,-0.43286070767734197,-1.4527438166201114,-3.274422360180318
1684253062373785000,3.81278515625,-0.6843757641017436,-2.658866157543659,-3.5132623882204292
1684253062383811000,3.82281103515625,-1.2106009476423263,-3.0437580398112534,-3.319208427368104
1684253062393837000,3.832837158203125,-1.370263101810217,-3.023077655354142,-3.002629326087236
1684253062403862000,3.842862060546875,-1.5171464384257793,-2.3907073882997034,-2.4436101264476773
1684253062413888000,3.852887939453125,-1.7893921847224235,-1.035570543950796,-1.52620886580348
1684253062423914000,3.8629140625,-2.174009926223755,0.6350099679082631,-0.3682312548458576
1684253062433939000,3.87293896484375,-2.538868489766121,2.3157734356075523,0.8523255618825555
1684253062443965000,3.88296484375,-2.6977251727700233,3.650168520700931,1.7808648871347308
1684253062453991200,3.8929912109375,-2.632657365053892,4.512323110419511,2.4041914315119386
1684253062464017200,3.90301708984375,-2.3449241267681122,4.712428918656706,2.641122703321278
1684253062474042000,3.9130419921875,-1.9387831202447414,4.104475299978256,2.462303721001744
1684253062484068000,3.923068115234375,-1.540640711259842,2.8346348123818634,1.900366295827925
1684253062494094000,3.933093994140625,-1.2227788036268203,1.608267555809021,1.4906313564658165
1684253062504119000,3.943119140625,-0.9971241281133144,0.6617518443614244,1.1516536686331034
1684253062514145000,3.95314501953125,-0.8596013981044291,-0.3142132489323616,0.7663961679235101
1684253062524171000,3.9631708984375,-0.6949544412612915,-1.250581660374999,0.3102168727725744
1684253062534196200,3.9731962890625,-0.5068238060433418,-2.1009692399322986,-0.13227730363607407
1684253062544222200,3.98322216796875,-0.39023035721872,-2.726239319592714,-0.42830519979745146
1684253062554248200,3.993248291015625,-0.2886123774741776,-3.102766109097004,-0.5974371931001544
1684253062564273200,4.003273193359375,-0.18238368906378746,-3.3036692051917314,-0.6666372783154249
1684253062574299100,4.013299072265625,-0.07745850273370743,-3.280728474587202,-0.5540551474913954
1684253062584325000,4.0233251953125,0.021027005937695502,-3.1886037331193684,-0.3467217260882258
1684253062594351000,4.03335107421875,0.10285541258500888,-3.032935617023706,-0.09429857837557792
1684253062604376000,4.0433759765625,0.17612000729283317,-2.8436276816546915,0.03216185567528009
1684253062614402000,4.053402099609375,0.18901277008103207,-2.665899124920368,0.06125760177820921
1684253062624428000,4.063427978515625,0.09487140982747078,-2.395273673301935,0.10962240423560142
1684253062634453000,4.073452880859375,0.061536674447916447,-2.0100725789546967,0.210411805935204
1684253062644479000,4.08347900390625,0.04890106475856155,-1.5614777475833892,0.22004501893818376
1684253062654505000,4.0935048828125,-0.05781630221791565,-1.239756899499893,0.0485287608474493
1684253062664530000,4.103530029296875,0.17923362753503025,-1.051356142103672,-0.10733867721259593
1684253062674556000,4.113555908203125,0.514663340562582,-1.0289151777148247,-0.18166063548624514
1684253062684582000,4.123581787109375,0.8144816419828683,-1.0304799428135156,-0.13154080605506896
1684253062694607000,4.133607177734375,1.0254540774755179,-0.9702677584350109,-0.019286592011153698
1684253062704633000,4.143633056640625,1.3066396476835012,-0.7920733377546072,0.13991642021238804
1684253062714659000,4.1536591796875,1.7390706952393054,-0.5748270096242427,0.18075725690573452
1684253062724685000,4.16368505859375,2.3115550872601567,-0.368057067322731,0.26591829684078694
1684253062734710000,4.1737099609375,3.307470935562253,-0.23746201768517491,0.2708162980154157
1684253062744736000,4.183736083984375,7.461241889107227,0.1522568463474512,-0.28856910458803176
1684253062754762200,4.19376220703125,10.372855311751366,0.7498451383560896,-0.6974100177198648
1684253062764787000,4.203786865234375,7.091550498580932,1.0301672236025332,0.18748188898563384
1684253062774813200,4.213813232421875,3.4302041657835245,1.0410802472829819,1.6527295056089757
1684253062784839200,4.223839111328125,1.7550193749994039,0.9628981064498424,2.748566886734962
1684253062794864000,4.233864013671875,1.4457244393773376,0.67988780503273,2.8961981191083788
1684253062804889600,4.2438896484375,1.3694044391542672,0.20379121875166892,2.5458219621658325
1684253062814915600,4.25391552734375,1.3809953620962798,-0.1138496665418148,2.191242654445022
1684253062824940800,4.26394091796875,1.328095108166337,-0.35171325076520443,2.110569719709456
1684253062834966800,4.273966796875,1.2209025614261626,-0.7238508653998375,2.159570335852355
1684253062844992500,4.283992431640625,1.3436043735958636,-1.351982179710269,2.306305203907937
1684253062855018500,4.2940185546875,1.6843807814136147,-2.2385867355525493,2.5035551843225954
1684253062865043700,4.304043701171875,1.9929661074616014,-3.1145664370059967,2.7548195173889396
1684253062875069700,4.314069580078125,1.942965374365449,-3.8151112456202503,3.245270207715034
1684253062885096000,4.324095947265625,1.6683178276240824,-4.354701522168517,3.7752927377119656
1684253062895120600,4.33412060546875,1.4622180396690965,-4.843911272522806,4.19735436694473
1684253062905147000,4.34414697265625,1.6650792840942739,-5.301590743103623,4.29203142324388
1684253062915172900,4.3541728515625,2.11615234214738,-5.417441812595725,4.575721523618697
1684253062925197800,4.36419775390625,2.1779799988985062,-5.233967405685783,5.036246446758509
1684253062935223800,4.374223876953125,1.7317063039511442,-4.675847200712561,5.375372018629312
1684253062945249800,4.384249755859375,1.330421651417762,-3.5338831514447926,5.938490470281243
1684253062955275800,4.39427587890625,0.8574639476843178,-2.055775760987401,6.67325143675208
1684253062965300700,4.40430078125,0.016694091299921273,-0.07039104856550693,8.356488016566633
1684253062975326700,4.41432666015625,-0.831464267900586,2.935887447679043,11.038843186247348
1684253062985352700,4.424352783203125,-1.8206477392077445,6.985487832653522,13.807344607508181
1684253062995377700,4.434377685546875,-2.416494155985117,10.899046593022346,15.372758525496721
1684253063005403600,4.444403564453125,-2.376177927687764,13.806894525653123,14.640783974874019
1684253063015429600,4.4544296875,-1.6097504878431557,14.56549287930727,11.616907278096676
1684253063025454800,4.464454833984375,-0.6909026085872203,13.282549164509772,7.9426167080521575
1684253063035480800,4.474480712890625,-0.23353936434872447,11.152803911948203,4.911610013264418
1684253063045506800,4.4845068359375,-0.1453939383080229,8.787660003972054,1.7327458761319516
1684253063055531800,4.49453173828125,-0.28031097933053967,6.362777374348044,-1.289616032168269
1684253063065557800,4.504557861328125,-0.5056032512724399,3.824465349420905,-3.8924545975416898
1684253063075583700,4.514583740234375,-0.7972539552628993,1.6054396389067171,-6.4983157256066795
1684253063085609700,4.524609619140625,-0.3104950686594471,-0.17349194207787513,-8.38448836864829
1684253063095634700,4.534634765625,1.0082049826413393,-1.6748095277309416,-9.480659804034232
1684253063105660700,4.54466064453125,8.250680202183126,-3.3270150094658133,-12.713547500038146
1684253063115686700,4.554686767578125,5.8062090749919415,-4.077653928548098,-11.564368112564086
1684253063125711600,4.564711669921875,-0.34478378029558804,-4.005171460661292,-8.316896595412492
1684253063135737600,4.574737548828125,-1.5147089821457862,-3.5570389861047267,-7.558650123935937
1684253063145763600,4.584763671875,-1.9953005417585372,-2.7615894499152898,-7.123491112720966
1684253063155788500,4.59478857421875,-2.9302479804873465,-1.5827742181122302,-6.946820540606975
1684253063165814500,4.604814453125,-4.061891711270809,0.05186813440322876,-6.656554568973183
1684253063175840500,4.614840576171875,-5.91693622559905,2.0155244146198035,-5.871532903295755
1684253063185866800,4.62486669921875,-7.241720601782203,3.7124884910136458,-4.927725281763077
1684253063195891700,4.6348916015625,-9.438991576606035,5.038028654000163,-3.432409274612367
1684253063205918000,4.64491796875,-8.369431084769964,5.092251827096939,-1.956388481170684
1684253063215944000,4.65494384765625,-6.677582743954658,4.376138862472772,-1.2371709746599198
1684253063225969000,4.664968994140625,-4.167655686512589,3.0234499957978724,-0.8316051376760005
1684253063235995000,4.674994873046875,7.803535569620132,2.162168681782484,3.1092344283282753
1684253063246020900,4.685020751953125,7.658492307913303,2.2407570653289555,3.8487569101125
1684253063256045800,4.6950458984375,1.6283663409858942,2.7393291027903555,4.403284643551707
1684253063266071800,4.70507177734375,-2.338638762888312,2.5276865860164164,4.627914944453537
1684253063276097800,4.715097900390625,-4.395560771301389,1.3167431085467338,3.149076901634037
1684253063286123800,4.725123779296875,-5.174332728934288,-0.15372574985623358,1.1973290858760475
1684253063296148700,4.735148681640625,-5.108265973308682,-1.090513848015666,-0.2344482228219509
1684253063306174700,4.7451748046875,-3.982300872683525,-1.6848861005872486,-1.4376409400343895
1684253063316200700,4.75520068359375,-2.713917598158121,-2.05937700034976,-2.6893489740908145
1684253063326225700,4.7652255859375,-2.6606241071268912,-2.2267957599937915,-3.6829888402849433
1684253063336251600,4.775251708984375,-2.816345414714515,-2.313188679811358,-4.310914987412095
1684253063346277600,4.785277587890625,-2.2996201731860637,-2.4767063403636214,-4.663183241711557
1684253063356302800,4.795302734375,-1.7999869362339376,-2.486784082263708,-4.4762528491288425
1684253063366328800,4.805328857421875,-2.0044801657751203,-2.260335041502118,-3.870063025252521
1684253063376354800,4.815354736328125,-2.363672958640754,-1.9658476527810096,-3.087097415322065
1684253063386380800,4.825380859375,-2.519894909226894,-1.7192326068252324,-2.354563184989989
1684253063396405800,4.83540576171875,-2.4552549715340137,-1.5780892751663922,-1.7485545628994703
1684253063406431700,4.845431640625,-2.3845392210587857,-1.4026298324078321,-1.388474465805292
1684253063416457700,4.855457763671875,-2.4119512518584725,-1.3167606442034243,-1.1000883165687323
1684253063426482700,4.865482666015625,-2.250810257309675,-1.1115502063035965,-0.7808242139875888
1684253063436508700,4.8755087890625,-2.194622652272135,-0.9148544987708329,-0.6289423384323716
1684253063446534700,4.88553466796875,-2.2063032993242144,-0.8113000162720679,-0.7154422257557511
1684253063456559600,4.8955595703125,-2.112035408347845,-0.7285597737431526,-0.9160378633365035
1684253063466585600,4.905585693359375,-1.8233178351998327,-0.7151841593414545,-1.0471545987606048
1684253063476611600,4.915611572265625,-1.4708309697136281,-0.7835089230269193,-1.1788014955386519
1684253063486637800,4.925637939453125,-0.5783316567443311,-0.44539106689393515,-1.6870386024460196
1684253063496662500,4.93566259765625,1.8625544515669346,0.489446481719613,-2.0604671336740252
1684253063506688800,4.945688720703125,4.183094663184881,1.6521633961588142,-2.4377204838871953
1684253063516714800,4.95571484375,5.030977566444873,2.8039123418599368,-2.760462199451029
1684253063526739700,4.96573974609375,4.295513420140743,3.441818031209707,-2.983082621835172
1684253063536765700,4.975765625,2.685353182452917,3.659965692093968,-2.768743121062219
1684253063546791700,4.985791748046875,1.6363820357896386,4.150696952927112,-2.248370755203068
1684253063556817000,4.99581689453125,1.8865465909205377,5.18814907284081,-1.7844459604918956
1684253063566843000,5.0058427734375,3.021367928826809,6.58781596378982,-1.5147005065783858
1684253063576868900,5.015868896484375,4.963087687045335,7.719702855679392,-1.3452391351908444
1684253063586894800,5.025894775390625,5.592309134680033,6.966901205605268,0.5508852852836251
1684253063596919800,5.035919921875,1.5450864386223255,4.299142132031918,1.6815139938056467
1684253063606945800,5.04594580078125,-2.265678156095743,2.1086919431388376,1.0223843146413565
1684253063616971800,5.0559716796875,-2.8336534001290796,0.28079613249897956,0.824414641650021
1684253063626996700,5.065996826171875,-2.7104046216011044,-1.3365911338329315,0.6316705943524837
1684253063637022700,5.076022705078125,-2.677678702302277,-2.647148247221112,0.32190555700063705
1684253063647048700,5.086048583984375,-2.430096126488596,-3.7560704431086775,0.0895133899256587
1684253063657073700,5.09607373046875,-1.981180830991268,-4.888088852423429,-0.14998217941373584
1684253063667099600,5.106099609375,-2.1550842764794824,-5.289733132049441,-0.01541910292804241
1684253063677125600,5.116125732421875,-2.9948049160718915,-3.9792853242546316,1.2149512518063188
1684253063687151600,5.126151611328125,-3.4395793123722074,-2.7784669349581,2.4523329466074704
1684253063697176600,5.136176513671875,-3.4997383052587505,-1.9062422021239995,3.2665289765819905
1684253063707202600,5.14620263671875,-3.5052070920586584,-0.9311071299135685,3.865840439121425
1684253063717228500,5.156228515625,-3.348312064516544,-0.11656477071940899,4.156263354882598
1684253063727253800,5.166253662109375,-2.9334055677354334,0.3576455634236336,4.140433040805161
1684253063737279700,5.17627978515625,-2.2226387864448127,0.4002554556161165,3.8769197592794895
1684253063747305700,5.1863056640625,-1.500263108164072,0.029321371552348135,3.295558671711385
1684253063757330700,5.19633056640625,-1.1121500718928874,-0.48524610742032526,2.4784932237803936
1684253063767356700,5.206356689453125,-0.7728945900321006,-0.6671750384539366,1.8871894188687204
1684253063777383000,5.2163828125,-0.29748423244953154,-0.6286024389535189,1.520880948778987
1684253063787409000,5.226408935546875,0.674966130721569,-0.41456162886619563,1.116784307564795
1684253063797433600,5.23643359375,2.2114392009079453,-0.03420914359390735,0.615696195629239
1684253063807459800,5.2464599609375,2.160114671862125,0.23086977981328963,0.7076417811378837
1684253063817485800,5.25648583984375,1.0662848311662674,0.41588966259956356,1.1017319921225308
1684253063827510800,5.2665107421875,0.1952128120312467,0.4598369408756494,1.2719240158721803
1684253063837536800,5.276536865234375,-0.24145664027929303,0.24813655643463134,1.0034902290791272
1684253063847562800,5.286562744140625,-0.47530280555486676,-0.05356675501465797,0.5179655969783663
1684253063857587700,5.296587646484375,-0.6167851599097252,-0.2641062789827585,0.16281360393613575
1684253063867613700,5.30661376953125,-0.6886953808665275,-0.4308335492312908,-0.09245295050889253
1684253063877639700,5.3166396484375,-0.7868529727578163,-0.5485433983325958,-0.03346300140172243
1684253063887665700,5.326665771484375,-0.9535212062954902,-0.5338701453357935,0.19821400314122437
1684253063897691000,5.33669091796875,-1.0713958905696868,-0.4064385281652212,0.4240133478224277
1684253063907716900,5.346716796875,-1.1255436603426932,-0.3059428487151861,0.7085328847587108
1684253063917742800,5.356742919921875,-1.1424048518378287,-0.2207137119799852,0.876530321073532
1684253063927767800,5.366767822265625,-1.0535036755263805,-0.21072072575390338,0.9325818786412476
1684253063937793800,5.376793701171875,-0.8661433670938015,-0.3119423813909292,0.8588064483344554
1684253063947819800,5.38681982421875,-0.624021540904045,-0.48443069938421246,0.7991925221100449
1684253063957846000,5.396845947265625,-0.482715712159872,-0.648337651515007,0.9318751916766166
1684253063967870700,5.40687060546875,-0.3974620255053043,-0.6667524291276932,1.1361623772516847
1684253063977897000,5.41689697265625,-0.2468692764451727,-0.5696855550825596,1.290819270478189
1684253063987923000,5.4269228515625,-0.025419669672381132,-0.4716670794010162,1.4514774499461054
1684253063997948000,5.436947998046875,0.1045452288354747,-0.38305472996830936,1.4839540706589818
1684253064007974000,5.446973876953125,0.05032497834814712,-0.34265842217206954,1.449430162027478
1684253064018000000,5.456999755859375,-0.09439445823179557,-0.3551876488775015,1.4122709364563226
1684253064028024800,5.46702490234375,-0.3409878586113453,-0.3352957844495773,1.480145326025784
1684253064038050800,5.47705078125,-0.6526221969664097,-0.25976094325482846,1.6774156185761093
1684253064048076800,5.487076904296875,-0.9340659797191619,-0.15744915429353712,1.937330875609815
1684253064058102800,5.497102783203125,-1.1793968310832976,-0.10846271280646323,2.1416414420604704
1684253064068127700,5.507127685546875,-1.4286124149262904,-0.10026830043494701,2.2769079906404017
1684253064078153700,5.51715380859375,-1.637324138945341,-0.1680038660556078,2.2718615209057926
1684253064088179700,5.5271796875,-1.7883154954016207,-0.27921324722170826,2.1619085695415734
1684253064098205000,5.537204833984375,-1.8686136054754257,-0.3138473382294178,2.0306097555488347
1684253064108231000,5.54723095703125,-1.877020199292898,-0.3376251041799784,1.8491823442965745
1684253064118257000,5.5572568359375,-1.8836089300334453,-0.43566754525899887,1.7133078929513692
1684253064128283000,5.567282958984375,-1.8850000921308994,-0.5071235927075147,1.6021198468342424
1684253064138307800,5.577307861328125,-1.913184568607807,-0.5326175149261951,1.530589857366681
1684253064148333800,5.587333740234375,-2.0064111338377,-0.4976011466026306,1.5247788330003618
1684253064158359800,5.59735986328125,-2.0920297082819044,-0.4122153580009937,1.6132944440603256
1684253064168384800,5.607384765625,-2.1279005014777184,-0.278421220061183,1.7458856359511612
1684253064178410800,5.61741064453125,-2.142866746071726,-0.16573066042661666,1.8524661882728337
1684253064188436700,5.627436767578125,-2.150862859392166,-0.0806879861742258,1.8854191943258045
1684253064198461700,5.637461669921875,-2.157269219303131,0.018562077128887175,1.8917747008323669
1684253064208487700,5.64748779296875,-2.2760931671261786,0.09264671951532363,1.7200605820819734
1684253064218513700,5.657513671875,-2.4019737554624676,0.10687222874462604,1.5534320960327983
1684253064228539600,5.66753955078125,-2.4666896810010073,0.07527589799761772,1.4269032729208468
1684253064238564600,5.677564697265625,-2.5950340291023255,-0.009963175609707832,1.2751891551479697
1684253064248590600,5.687590576171875,-2.7036498866438863,-0.05924012447595596,0.9987763522997498
1684253064258616800,5.697616943359375,-2.833341265439987,-0.027182021436095237,0.8163309961766004
1684253064268641800,5.707641845703125,-2.9199393524408337,0.029785481932759282,0.7677101731315255
1684253064278668000,5.71766796875,-3.0057845752477643,0.06459142237603664,0.6437023929297924
1684253064288694000,5.727694091796875,-3.1292566411375997,0.11707973450422286,0.45508243982493873
1684253064298720000,5.737719970703125,-3.197065856516361,0.10317980396747589,0.15566577800810336
1684253064308745000,5.747744873046875,-3.1331510182276365,0.044670916375517844,-0.0721110042259097
1684253064318771000,5.75777099609375,-3.015523878973722,-0.08029460294246674,-0.3106085024386644
1684253064328797000,5.767796875,-2.8738486323952674,-0.33442426231205463,-0.588636923789978
1684253064338822000,5.77782177734375,-2.664786195242405,-0.7192834113538265,-0.8323685232639312
1684253064348847900,5.787847900390625,-2.5361352654099463,-1.1530202808111905,-1.2036968673422932
1684253064358873900,5.797873779296875,-1.7861260225333273,-1.4198860876351593,-1.7447668610543012
1684253064368898800,5.80789892578125,7.6144778096199035,-0.21528291910290717,-3.001945435476303
1684253064378924800,5.8179248046875,14.465294136977194,1.0154577302485703,-2.6904493365481494
1684253064388950800,5.82795068359375,6.000819792944193,0.9959434669613838,-0.7584221203044056
1684253064398976800,5.837976806640625,-1.6782232816971838,0.8285919273346662,0.3404702644780278
1684253064409001700,5.848001708984375,-5.267834019452333,0.6157973179161548,1.238011517137289
1684253064419027700,5.85802783203125,-5.7182268401563165,1.378418351215124,2.148537339054048
1684253064429053700,5.8680537109375,-3.11195800807327,2.3335353022694587,4.1915284372702235
1684253064439079000,5.878078857421875,0.9219988175675272,3.01252528167963,7.319319974291324
1684253064449105000,5.88810498046875,1.6972107446312903,2.879119266274571,9.847087224328517
1684253064459131000,5.898130859375,0.021976269486546515,2.1404946101129054,10.745825870078802
1684253064469156900,5.908156982421875,-0.8106874373316765,1.1916747133761643,8.891469338014721
1684253064479181800,5.918181884765625,-2.0219939028948546,0.5355348636776208,6.658624360984564
1684253064489207800,5.928207763671875,-3.5418782418519257,0.09901567002534865,4.66548012047708
1684253064499233800,5.93823388671875,-3.9751957168534395,-0.37728725248277184,1.675631365507841
1684253064509258800,5.9482587890625,-3.654673138643801,-0.6181085174679756,-0.8608563666015863
1684253064519284700,5.95828466796875,-3.2065573229610917,-0.558371549385786,-1.8756465728521345
1684253064529310700,5.968310791015625,-2.502049455934763,-0.2071206554353237,-1.6482558673262595
1684253064539335700,5.978335693359375,-1.9213669982805848,0.19963000741899012,-1.341674428446591
1684253064549361700,5.988361572265625,-1.5818489199608563,0.625791473186016,-1.2739847477942705
1684253064559388000,5.998387939453125,-1.4925295913025736,1.142756076428294,-1.5500398232460022
1684253064569414000,6.008413818359375,-1.655632825835049,1.681606932786107,-2.1719567930862307
1684253064579438800,6.01843896484375,-1.9379960615202783,1.8831109173834322,-2.4891473042637107
1684253064589464800,6.02846484375,-2.0243845974236727,1.7286410711616276,-2.3149513055697084
1684253064599490800,6.03849072265625,-1.5745745450437068,1.391190154504776,-1.9075909863844513
1684253064609516000,6.04851611328125,-0.7861649904936552,1.1134954951524734,-1.6182146570667624
1684253064619541800,6.058541748046875,-0.32383155662715435,0.9007517391383647,-1.8410382008075714
1684253064629567700,6.068567626953125,-0.558157029852271,0.6555155803203583,-2.643841022369265
1684253064639593700,6.07859375,-1.4759534272938966,0.2935731964856386,-3.609514146490395
1684253064649619000,6.088618896484375,-2.452327685910463,-0.16717033784091473,-4.387695444753766
1684253064659645000,6.09864501953125,-3.0803207607939838,-0.6989455567240714,-4.757604277423024
1684253064669671000,6.1086708984375,-2.9381945555776356,-1.1592121211886406,-4.689935347297787
1684253064679696000,6.11869580078125,-2.320114095160365,-1.6037679063022137,-4.266950758001208
1684253064689721900,6.128721923828125,-2.1819830970600247,-1.9518904390990732,-3.4170646982252597
1684253064699747800,6.138747802734375,-2.583587336936593,-2.0842647733688353,-2.473564535206556
1684253064709773800,6.14877392578125,-2.7612323070406912,-1.995893831476569,-1.7928315115213393
1684253064719798800,6.158798828125,-2.76531022400409,-1.7408125704705715,-1.0842144556105135
1684253064729824800,6.16882470703125,-2.6844568181350827,-1.468304373845458,-0.6025321781516074
1684253064739850800,6.178850830078125,-2.6606691153123974,-1.241663025382161,-0.32829262768924233
1684253064749875700,6.188875732421875,-2.8324577606037256,-1.088553361597657,-0.12119009243249892
1684253064759901700,6.198901611328125,-3.054526978845894,-1.0947872875511646,-0.19290742116570472
1684253064769927700,6.208927734375,-3.0822718948617576,-1.1942466096907853,-0.5237859736949205
1684253064779953700,6.21895361328125,-2.9700755484849215,-1.1570341926276684,-0.8841554091244935
1684253064789978600,6.228978515625,-2.6360990299403664,-1.004307390680909,-1.3409440683454275
1684253064800005000,6.239005126953125,-2.1038713911145925,-1.0104437014788388,-1.7934809153407811
1684253064810031000,6.249031005859375,-1.7464122901737689,-1.0189034867882727,-2.165087784099579
1684253064820056300,6.259056396484375,-1.5772253518134354,-1.0061778607279062,-2.5627742660105226
1684253064830082300,6.269082275390625,-1.3975333860516548,-0.9577315174669027,-2.8938188227564097
1684253064840108000,6.27910791015625,-1.1508292005077003,-0.7522995457708835,-3.3786849909484387
1684253064850134000,6.289134033203125,-0.4427509276486933,-0.6042986033022404,-3.8184178859502076
1684253064860159200,6.2991591796875,0.6800619925558566,-0.5947703119784593,-4.093267092743516
1684253064870185200,6.309185302734375,1.8191876035273074,-0.36508711160123347,-3.996040644222498
1684253064880211200,6.319211181640625,2.758517787384987,0.3654308104723692,-3.129633073234558
1684253064890236200,6.329236083984375,3.9785809753775596,1.6700088494509457,-0.942529272159934
1684253064900262100,6.33926220703125,5.4821250049084425,4.0209868694305415,2.3706980349719524
1684253064910288100,6.3492880859375,5.84418195503354,7.554311217948794,5.499881026351452
1684253064920313000,6.35931298828125,3.5287639087349176,12.600416795420646,7.628963431090116
1684253064930339000,6.369339111328125,3.499233862867951,17.570101396512985,8.173566567364334
1684253064940365000,6.379364990234375,8.493877548649907,19.12662473655939,7.809754298004507
1684253064950391300,6.389391357421875,11.93426642383933,14.673115049636364,4.579893840867281
1684253064960416000,6.399416015625,10.044279190945625,7.548320453101396,-1.6334429135978221
1684253064970442200,6.409442138671875,5.8455643493026495,1.8921061247438191,-6.028105274754762
1684253064980468200,6.41946826171875,2.741226460844278,-2.0982032823503016,-8.851087643265723
1684253064990493200,6.4294931640625,1.89210437117815,-4.529375367507338,-9.672676413840055
1684253065000519200,6.439519287109375,0.48964229655265806,-4.970741416668892,-9.237451351651549
1684253065010545200,6.449545166015625,-1.6649755314588546,-4.6195641724765295,-8.119447439163922
1684253065020571100,6.459571044921875,-2.23921918823719,-4.287213793829083,-7.423885679659247
1684253065030596400,6.469596435546875,-2.0376912382423877,-3.511410622873902,-6.949116542589664
1684253065040622300,6.479622314453125,-1.6567618298649787,-2.3441344376951454,-6.358516794294118
1684253065050648300,6.4896484375,-1.6781348727613687,-0.4373778563082218,-5.606631090021133
1684253065060673300,6.49967333984375,-2.581328159832954,2.001298905390501,-4.335855659662187
1684253065070699300,6.50969921875,-3.7423634047955274,3.8816152236193417,-2.6922616466671228
1684253065080725200,6.519725341796875,-5.040509949421883,4.5831034505635495,-1.0139876576960085
1684253065090751200,6.529751220703125,-5.121991131800413,4.5342637240707875,-0.35309622955620285
1684253065100776200,6.539776123046875,-4.3594975242733955,3.997196828520298,-0.3057160542219877
1684253065110802200,6.54980224609375,-3.686122462135553,3.311853096169233,-0.29088877970725296
1684253065120828200,6.559828125,-3.327857305508852,2.6581770062357184,-0.3527729889512062
1684253065130853000,6.56985302734375,-2.4000375267028806,1.7276123126357792,-0.5231774864077567
1684253065140879000,6.579879150390625,-0.9842471839487552,0.7894447428166865,-0.6063520287007093
1684253065150905000,6.589905029296875,-0.2883265097375028,0.5438718993902206,-0.36839638227969407
1684253065160931000,6.59993115234375,-0.3587771612694487,0.730981447932124,0.23009031987339257
1684253065170956000,6.6099560546875,-0.3169125344863161,0.6569517506033182,0.6176312553450465
1684253065180982000,6.61998193359375,-0.12856558963656425,0.31663609216511246,0.8137401029005646
1684253065191008000,6.630008056640625,-0.08179090591482818,-0.08870295032560825,1.1107239846125245
1684253065201033200,6.640033203125,0.04179097702503204,-0.6372972020626068,1.0115396800220011
1684253065211059200,6.65005908203125,0.16311558255739508,-1.2346680519282818,0.7931737002119421
1684253065221085200,6.660085205078125,0.11258826830387114,-1.7154501656770704,0.724254477764666
1684253065231111200,6.670111083984375,-0.061889616071432826,-1.9881255355626344,0.7714356233954429
1684253065241136000,6.68013623046875,-0.3902519479960203,-1.9611200397372244,1.0697715042382479
1684253065251162400,6.690162353515625,-0.408198012118414,-1.7557693165838717,1.4805278956025838
1684253065261188400,6.700188232421875,-0.33424649459235367,-1.4376350948154926,1.937135791429132
1684253065271213300,6.71021337890625,-0.4428629366558045,-1.1130962667018174,2.423364918537438
1684253065281239300,6.7202392578125,-0.3806804020524025,-0.943379751509428,2.8149387627869844
1684253065291265300,6.730265380859375,-0.2172808149218559,-0.9190367528915405,3.1058667054608464
1684253065301291300,6.740291259765625,-0.03012085136696696,-0.9815928700476885,3.3619524673342704
1684253065311316200,6.750316162109375,0.09091003191582858,-1.1835504436314106,3.669974460411072
1684253065321342200,6.76034228515625,0.1833534108787775,-1.4609306302070617,3.9887680228710174
1684253065331368200,6.7703681640625,0.27943375810459253,-1.8258026377528904,4.191136515343189
1684253065341393200,6.78039306640625,0.4855301850587129,-2.1645225514322517,4.046567885410785
1684253065351419100,6.790419189453125,0.8193978364013135,-2.391651391151547,3.6593519441097975
1684253065361445000,6.800445068359375,1.247718233767897,-2.588803610280156,3.2858564851254224
1684253065371471000,6.81047119140625,1.725155713263899,-2.619619604304433,2.9752240172892805
1684253065381496000,6.82049609375,2.261019516634941,-2.5163562137067315,2.6656165085867047
1684253065391522000,6.83052197265625,3.1072347789436576,-2.3640414996922017,2.1419491928353906
1684253065401548000,6.840548095703125,4.877523034745455,-2.258436514404416,1.0808983167998492
1684253065411573200,6.8505732421875,6.345038304039836,-2.1088398271769284,0.2734326179936528
1684253065421599200,6.86059912109375,6.083240886521339,-1.6614567096829413,0.7236822308346629
1684253065431625200,6.870625244140625,5.504628513139486,-1.2430419125199317,1.6554171372577546
1684253065441651200,6.880651123046875,5.9901189507097,-1.1139292103946208,2.032996358424425
1684253065451676200,6.89067626953125,10.164968932640551,-1.4811065722733736,2.2016860147871076
1684253065461702100,6.9007021484375,16.976770761948824,-1.5438719482660292,3.962071154603362
1684253065471728000,6.91072802734375,2.982836830380559,-1.0587456678330898,3.5225331976518035
1684253065481753000,6.920753173828125,-1.4653776727437973,-0.6400982309579849,2.8251766636848448
1684253065491779000,6.930779052734375,-0.8236988945960998,0.6131786598503589,3.4363606425866484
1684253065501805300,6.940805419921875,-1.2252981660366058,2.2994968390673396,3.8775793922320005
1684253065511831300,6.950831298828125,4.834516836711764,5.944436226943135,6.089108317250013
1684253065521856300,6.960856201171875,14.618173499137162,11.639027924489975,10.291957482218741
1684253065531882200,6.97088232421875,3.395399394384026,11.03807395544052,8.789533981150388
1684253065541908200,6.980908203125,-3.724271283265948,7.449618086808919,5.68349338042736
1684253065551933200,6.99093310546875,-4.994122292256355,5.514575906658172,3.1323028769657015
1684253065561959200,7.000959228515625,-3.5526258458375928,5.168773925763368,2.0520888891682025
1684253065571985200,7.010985107421875,-2.315893262594938,6.421024396133422,2.9599729644045234
1684253065582011100,7.02101123046875,-4.329139795410633,7.603751248422265,3.8351509940862654
1684253065592036400,7.031036376953125,-7.743664161503315,8.28653711298406,3.994811102427542
1684253065602062300,7.041062255859375,-9.881408011603355,8.897045092320441,4.2851334804236885
1684253065612088300,7.05108837890625,-11.121592781126498,8.865905857691168,5.655400089365243
1684253065622113300,7.06111328125,-10.926526136100291,7.792133885639905,5.3939288350611925
1684253065632139300,7.07113916015625,-10.023823262894153,6.336523573672771,5.190936657732725
1684253065642165200,7.081165283203125,-9.115811761885881,4.6219899383187295,5.47834373280406
1684253065652191200,7.091191162109375,-7.098569437432289,3.1965017928928137,3.2907337357729673
1684253065662216200,7.10121630859375,-7.125245847433805,2.26204652159512,1.0032143347471951
1684253065672242200,7.1112421875,-7.959258046251535,1.7890747893363237,-0.6977648225069045
1684253065682268200,7.12126806640625,-7.90590990242362,1.4369576339453458,-3.0493951689153906
1684253065692294100,7.131294189453125,-4.18539066516757,1.3009820603132247,-5.747216203275323
1684253065702319000,7.141319091796875,6.467521943414211,2.040509218272567,-8.153931308045983
1684253065712345000,7.151344970703125,6.377130309349298,2.1445769109904766,-7.490949045106768
1684253065722371000,7.16137109375,3.1661037320196628,1.7517746939897536,-6.621531770908832
1684253065732396000,7.17139599609375,0.34828619892597196,0.8120394364625215,-4.520433936160803
1684253065742422000,7.181422119140625,-1.0180641133546828,-0.08377893792688847,-2.8612650451540946
1684253065752448000,7.191447998046875,-1.259672583194822,-0.3594645955443382,-2.72775732294023
1684253065762474200,7.20147412109375,-2.4426865818619725,-0.46678222996890545,-2.4430448937803506
1684253065772499200,7.211499267578125,-3.447297339403629,-0.8648550808489323,-1.6417320185154676
1684253065782525200,7.221525146484375,-3.3958220037102698,-1.4088625893175601,-0.9369652082920074
1684253065792551200,7.23155126953125,-3.382731051468849,-2.143852688369155,-0.07105681899785996
1684253065802576600,7.24157666015625,-2.7706887021720408,-2.9684447324126957,0.26854864534437656
1684253065812602600,7.2516025390625,-1.4987491964697837,-3.5508722801685333,-0.14607961901724337
1684253065822628600,7.261628662109375,-0.7017571070134639,-3.4456039794892073,-1.6047627625584602
1684253065832654600,7.271654541015625,-0.6417429294250905,-2.7151123609006405,-2.554253690424561
1684253065842679600,7.281679443359375,-0.19337270058989522,-2.086641439372301,-2.5253029057502747
1684253065852705500,7.29170556640625,0.6488730735659599,-1.5762556299984454,-2.168929261958599
1684253065862731500,7.3017314453125,1.0669336504638194,-1.2660551238387823,-1.8893197088956832
1684253065872756500,7.311756591796875,0.8101648747622966,-1.2883540494084358,-1.5831056420236824
1684253065882782500,7.321782470703125,0.4633762209177017,-1.5467553947478532,-1.3487860140174626
1684253065892808700,7.33180859375,0.18966800085306165,-1.8377678008347749,-1.117237604290247
1684253065902834700,7.341834716796875,-0.04650909158810973,-2.010161426281929,-1.1211106463313103
1684253065912859600,7.351859619140625,-0.001724339574575424,-1.8051310211241245,-1.450997265213728
1684253065922885600,7.3618857421875,0.24040917705297468,-1.3110568796038626,-2.006015997040272
1684253065932911600,7.37191162109375,0.19750169015340505,-0.7958885121285915,-2.4928344683438537
1684253065942937600,7.3819375,-0.2308966678202152,-0.3131178549110889,-2.4898995839357374
1684253065952962600,7.391962646484375,-0.5985841711781918,0.22823650870025156,-2.1406319727569816
1684253065962988500,7.401988525390625,-0.8927042609568685,0.7312251935601234,-1.7921259936004876
1684253065973014500,7.4120146484375,-1.1881025539778172,1.136715627220273,-1.2901432709127665
1684253065983039700,7.422039794921875,-1.5016064855970441,1.1837702238619328,-0.9705570967704057
1684253065993065500,7.4320654296875,-1.8032197806753216,0.751787504595518,-0.7428010650634765
1684253066003091500,7.442091552734375,-1.642624583441019,0.17680618119239805,-0.5622241331607103
1684253066013117400,7.452117431640625,-1.785327419501543,-0.30164719734787937,-0.6342933440715074
1684253066023142700,7.462142578125,-1.940467712330818,-0.523093315255642,-0.9445289215445518
1684253066033168600,7.472168701171875,-1.6019102957367897,-0.4996311911255121,-1.4146645535945892
1684253066043194600,7.482194580078125,-1.3286907359719276,-0.4520943639248609,-1.8385113126784562
1684253066053219600,7.492219482421875,-1.4814777436733244,-0.5423936435312032,-2.1846108152151107
1684253066063245600,7.50224560546875,-1.4279425528407097,-0.8384288462162017,-2.5013819319367405
1684253066073271600,7.512271484375,-0.9819267051119357,-1.2538245878189802,-2.850109444889426
1684253066083297500,7.522297607421875,-0.4869371292471885,-1.708906443122029,-3.3557670566976068
1684253066093322500,7.532322509765625,-0.6473861229438335,-2.071106016588211,-3.7553403752684593
1684253066103348500,7.542348388671875,-1.209236746617034,-2.1198229934841395,-4.026853715637326
1684253066113374500,7.55237451171875,-1.8577847529470919,-1.9185510640770196,-4.113434266981482
1684253066123399400,7.5623994140625,-2.398766776114702,-1.7518348997443913,-4.147365762677788
1684253066133425400,7.57242529296875,-2.2777754211246966,-1.7684183702766894,-4.424665869754553
1684253066143451400,7.582451416015625,-1.5004536623001097,-1.9614701683491467,-4.796580781549215
1684253066153477600,7.5924775390625,-0.297908595341444,-2.2630238421946762,-5.0820034048050635
1684253066163502300,7.60250244140625,0.8770821097373962,-2.5076392387658357,-5.118606165537238
1684253066173528600,7.612528564453125,1.4024913007199764,-2.537595401090383,-4.840705169957876
1684253066183554600,7.622554443359375,1.4085171368807554,-2.291406471592188,-4.2506706543296575
1684253066193580500,7.63258056640625,1.4544021052211522,-1.8030647362440824,-3.5274504880487916
1684253066203605800,7.642605712890625,1.4229618418186902,-0.8906383414030075,-2.8134365415304896
1684253066213631700,7.6526318359375,1.2070885556071995,0.40112990036308765,-2.0665128435790536
1684253066223657700,7.66265771484375,0.9365157109588385,1.7912737606853246,-1.1285399195492267
1684253066233682700,7.6726826171875,2.0985972501039503,3.7712048838764427,0.9243041719004511
1684253066243708700,7.682708740234375,15.3862995595932,11.40258882011175,6.497562861412764
1684253066253734700,7.692734619140625,-6.344484761810302,20.744370899331567,14.584599730837343
1684253066263760600,7.7027607421875,-12.4639098913908,29.345285511898993,19.799977586865424
1684253066273785600,7.71278564453125,-2.4220728329002856,24.024228436303137,13.74158589491844
1684253066283811600,7.7228115234375,10.575597898232937,10.30684642379284,3.2853841914385553
1684253066293837600,7.732837646484375,2.38819628226161,2.3695173007547856,-0.33466216272115706
1684253066303862500,7.742862548828125,-1.098294418889284,-2.933072390258312,-2.1722382403761147
1684253066313888500,7.752888427734375,0.1268617265944369,-6.477153110590577,-4.041884696030617
1684253066323914500,7.76291455078125,-0.27706280945586037,-8.374241699922084,-4.292519499021768
1684253066333940500,7.7729404296875,-0.19181555254207922,-9.722094232481718,-3.9059132140517234
1684253066343965400,7.78296533203125,-0.12991174354851245,-10.141431405186653,-3.214764887075126
1684253066353991400,7.792991455078125,0.21729367440342903,-9.790325472664833,-2.308310260120034
1684253066364017400,7.803017333984375,0.13255787414312362,-7.495121362355351,-1.2825278274729848
1684253066374043400,7.81304345703125,-0.48518352704551065,-5.464606299352646,-0.2883899486288428
1684253066384068600,7.823068603515625,-0.7800152356922626,-4.129953440105915,0.6557222088083624
1684253066394094600,7.833094482421875,-0.8325392036557198,-2.9932798984616995,1.3573480906575917
1684253066404120600,7.84312060546875,-0.4915010761618614,-2.1995868505507707,1.7574281897068023
1684253066414145500,7.8531455078125,0.43108014440350234,-1.4486393039107321,1.8073785077899693
1684253066424171500,7.863171630859375,0.5885048949081451,-0.23159166434705256,1.7784949431329964
1684253066434197800,7.87319775390625,-0.1982709209602326,1.2652256872773169,1.9439318813100457
1684253066444223700,7.8832236328125,-0.8682814751010388,2.7503362344950437,2.4553704146072266
1684253066454248700,7.893248779296875,-1.3062953642904758,4.096284979259967,3.2763676490291953
1684253066464274700,7.903274658203125,-1.5673391869626938,4.954291801649331,3.982093951934576
1684253066474300700,7.91330078125,-1.7346727525413035,4.901506552401185,4.327449065844714
1684253066484325600,7.92332568359375,-2.0526444772243497,3.6900972109854218,4.083590625120699
1684253066494351600,7.9333515625,-2.662534616923332,2.053823457875848,3.5246699174195526
1684253066504377600,7.943377685546875,-3.1452772170901295,0.7907371207147836,2.9913980302378533
1684253066514403600,7.953403564453125,-3.2997277740895745,-0.21085224317908285,2.156031201940775
1684253066524428500,7.963428466796875,-3.2586873231709004,-0.7452624867409468,1.277676295788586
1684253066534454500,7.97345458984375,-3.1271722360789775,-0.8807967463463544,0.4570797511219978
1684253066544480500,7.98348046875,-2.971339869332313,-0.6500374411702156,-0.2970367809429765
1684253066554506500,7.993506591796875,-2.7906758436679837,-0.1323544605255127,-0.7888523298814892
1684253066564531500,8.003531494140624,-2.5962381441950795,0.6338467693477868,-0.9380226083904504
1684253066574557400,8.013557373046876,-2.427696079609543,1.452891700658202,-0.7442410347387194
1684253066584583400,8.02358349609375,-2.315724043507874,2.0178665938317772,-0.4405298905983567
1684253066594608600,8.033608642578125,-2.1310665642932056,2.138026174172759,-0.2933843959152698
1684253066604634600,8.043634521484375,-1.9306644034579394,1.8292548240333795,-0.34178017803281546
1684253066614660600,8.05366064453125,-1.7305040885545313,1.222481355050206,-0.6123021692767739
1684253066624686600,8.0636865234375,-1.451432295630127,0.44378012456595894,-1.0568024248108268
1684253066634711600,8.073711669921876,-1.1314964312672615,-0.3096300127953291,-1.4278081128060818
1684253066644737500,8.083737548828125,-0.8339128300964832,-0.9737561850726604,-1.839973786446452
1684253066654763500,8.093763427734375,-0.5813781848333776,-1.5612947922319174,-2.124995135425031
1684253066664789800,8.103789794921875,-0.2625438519716263,-1.968301475673914,-2.0597066706955434
1684253066674814500,8.113814453125,0.19527239673137664,-2.111021262869239,-1.9142498597517608
1684253066684840700,8.1238408203125,1.311694008463621,-1.958067666429281,-1.9596803623229264
1684253066694866700,8.13386669921875,2.8856887077927587,-1.5067951402813196,-2.069606717941165
1684253066704891600,8.1438916015625,2.771141122114658,-0.9856038592547177,-1.6099916031226515
1684253066714917600,8.153917724609375,1.3541466642677784,-0.6225549754828215,-0.7863821403756738
1684253066724943600,8.163943603515625,0.17346154693961144,-0.4881155253767967,-0.16627134317457676
1684253066734969600,8.173969482421874,-0.034715924072265626,-0.599336596980691,-0.10587211179137229
1684253066744994600,8.18399462890625,0.114455194686912,-0.874555221608281,-0.24725012898892162
1684253066755020500,8.1940205078125,-0.2759188818514347,-1.2176409292817114,-0.28375352099984885
1684253066765046500,8.204046630859375,-1.0193594138622284,-1.4855623826384543,-0.18476210863292217
1684253066775072500,8.214072509765625,-1.1032102479815482,-1.6595973455518482,-0.1447647370263934
1684253066785097500,8.224097412109375,-1.0536509750425815,-1.8400620492517947,-0.06444616868644952
1684253066795123500,8.23412353515625,-1.1781271764736623,-1.9421137259721755,0.0077908000066876405
1684253066805149200,8.244149169921876,-1.317971773558855,-2.05829505033195,0.16876579033881425
1684253066815174100,8.254174072265625,-1.4803437712073326,-2.2445897753596307,0.46806584003865714
1684253066825200000,8.2642001953125,-1.507211904388666,-2.3475158968269825,0.7064183768227696
1684253066835226000,8.27422607421875,-1.540058527457714,-2.3920973813533783,0.9982043976306915
1684253066845252000,8.284252197265625,-1.5765806241691112,-2.352680732244253,1.3040008236125111
1684253066855277000,8.294277099609374,-1.4128057739853859,-2.3168472023189066,1.5001877048403023
1684253066865303000,8.304302978515626,-1.004618940848112,-2.343079960206151,1.5358613680288196
1684253066875329000,8.3143291015625,-0.44882279490828514,-2.384624853515625,1.594530560749024
1684253066885355000,8.32435498046875,0.35227380725741386,-2.515368371713161,1.5903060749217868
1684253066895380000,8.3343798828125,1.7273972085803746,-2.764280588695407,1.3206718262977897
1684253066905406000,8.344406005859375,4.88866460648477,-3.1287796712756153,0.6623107934184372
1684253066915432000,8.354431884765624,6.084538525116443,-3.7260949915617703,0.37488048360198734
1684253066925457000,8.364456787109376,4.344018800112605,-4.175834901314974,1.019454983191192
1684253066935483000,8.37448291015625,1.5296896936565636,-3.7816976363182064,3.040155631405115
1684253066945508900,8.3845087890625,-1.366363171762228,-3.471452706494927,4.983353060960769
1684253066955535000,8.39453515625,-3.2165432949244974,-3.2745962554425,6.2798635288178914
1684253066965560000,8.40456005859375,-2.8544015891253944,-2.5591315255939957,7.433617384600639
1684253066975586000,8.4145859375,-1.7869103047788142,-0.8287602696388959,8.245964279577136
1684253066985612000,8.424612060546876,-0.7669933300990611,1.9209481883466242,8.616116857874394
1684253066995638000,8.434637939453125,0.6591290215771645,4.7790287582457065,8.060225434866547
1684253067005663200,8.444663330078125,2.597513570958376,7.080426462498306,6.03607347715497
1684253067015689200,8.454689208984375,10.780869126409291,10.387501092219352,0.9585624153330922
1684253067025715200,8.464715087890625,20.552063197624683,13.88746853005886,-5.427239568510651
1684253067035740200,8.474740234375,12.22613807710409,12.772650846391915,-3.6219092254221437
1684253067045766100,8.48476611328125,5.369350274121761,10.63885251904726,-1.9277900170654056
1684253067055792000,8.494792236328125,1.5266189079090953,8.331380463317036,-2.260717026557028
1684253067065818000,8.504818115234375,-1.2910079249180852,6.007853929364681,-2.5114091126933693
1684253067075843000,8.514843017578125,-3.0039678812146184,4.659502215111256,-2.75614287494719
1684253067085869000,8.524869140625,-3.1705873071745034,4.301215431174636,-2.833742247456312
1684253067095895000,8.53489501953125,-2.337367427778244,4.403504423782229,-3.2010373904958365
1684253067105920000,8.544919921875,-1.9110592470169065,4.7140369383752345,-4.007567708148062
1684253067115946000,8.554946044921875,-1.5121850166261195,4.8128573780894275,-4.106899896776676
1684253067125972000,8.564971923828125,-1.1456921298801899,4.628294006898999,-3.964042162415385
1684253067135998000,8.574998046875,-0.7823135757625103,3.9457133095204826,-3.5729414886355397
1684253067146023000,8.58502294921875,-0.14847674328684807,2.9955940206229683,-3.1493799762338397
1684253067156049000,8.595048828125,0.9450742804676294,2.190173125517368,-2.5427169818878173
1684253067166075000,8.605074951171876,6.375246395298838,1.7134955244779586,-0.6737468180596828
1684253067176100900,8.615100830078125,9.624376785573363,1.8638415687680243,0.18679799837470054
1684253067186126000,8.6251259765625,8.076952697783709,1.9960686035215853,-0.6948147405296564
1684253067196152000,8.635152099609375,6.942140858358145,2.0164210711985824,-1.0423474907398222
1684253067206178000,8.645177978515624,5.8824389127135275,1.7777952704310416,-1.2189841605842113
1684253067216204300,8.655204345703124,5.519119979828596,1.2290502120465039,-1.325578741431236
1684253067226229000,8.66522900390625,5.085753112727403,0.9657394673556089,-1.2285288185209036
1684253067236255200,8.675255126953125,3.750327515542507,0.9678495913773775,-1.5523837560236453
1684253067246281200,8.68528125,1.760218697208166,1.068715273183584,-3.0229233415752645
1684253067256306200,8.69530615234375,0.5258826537132263,0.7083703876733779,-4.84213432597816
1684253067266332200,8.705332275390624,0.3088110976278782,-0.39659868667423726,-6.440493651235103
1684253067276358100,8.715358154296876,-0.5443185471791774,-1.5736767194211483,-7.296973702448606
1684253067286384000,8.725384033203126,-1.6764122867524622,-2.434118075481057,-7.279670685470104
1684253067296409000,8.7354091796875,-2.036812117320299,-2.7793144916981456,-6.722957424685359
1684253067306435000,8.74543505859375,-1.3568226054787635,-2.6024270619630814,-5.5783653650015586
1684253067316461000,8.7554609375,-0.6448609153151512,-2.0117425579935313,-3.5638112567186355
1684253067326487000,8.765487060546874,-0.20503405841961503,-1.2381237453401088,-1.228020868998766
1684253067336512000,8.775511962890626,-1.0437398218810559,-0.6541928072839975,1.0290361737459897
1684253067346538000,8.7855380859375,-2.8944284790873525,-0.4316162240415811,2.6852865469574927
1684253067356564000,8.79556396484375,-3.963388082420826,-0.25903672063350675,3.284659968817234
1684253067366589200,8.805589111328125,-3.5286370674848553,-0.29538813695311544,2.85030759781003
1684253067376615200,8.815615234375,-2.852711151820421,-0.6891945625603199,2.1975193966269493
1684253067386641200,8.82564111328125,-2.7987656266212464,-1.310381172299385,2.21253167231977
1684253067396667000,8.8356669921875,-2.274068383300304,-2.3036451909184454,2.4473791235923765
1684253067406692000,8.845692138671875,-1.877604867313057,-3.6339474537402388,2.7527362813740965
1684253067416718000,8.855718017578125,-2.0269315054275094,-5.054084301266074,2.0870167024254798
1684253067426744000,8.865744140625,-1.2452575427427888,-6.358968629714846,0.33028292472362514
1684253067436770000,8.87577001953125,0.22090134350657462,-7.0599038989514105,-1.8885019627720117
1684253067446795000,8.885794921875,1.047236431825161,-6.827520791965723,-3.7999674525022504
1684253067456821000,8.895821044921876,0.5902046114981174,-6.001695991256833,-4.989484695583582
1684253067466847200,8.90584716796875,-0.2123160321213305,-5.1484425008744,-5.7092339708834885
1684253067476873200,8.915873291015625,-0.6564085836373269,-4.620733216255903,-6.624084962522983
1684253067486898200,8.925898193359375,-1.1419067661225795,-4.5747471256285905,-7.954659028023481
1684253067496924200,8.935924072265625,-1.7786840359643101,-4.688931138691306,-8.81470758537352
1684253067506950100,8.9459501953125,0.02233794240579009,-5.180368501967191,-9.232721985042094
1684253067516975000,8.95597509765625,14.88407250675559,-6.0035799053072925,-8.687056187972425
1684253067527001000,8.9660009765625,45.621596805429455,-5.229440868172049,5.045861831843853
1684253067537027000,8.976027099609375,-15.188964969635009,3.008319646683335,5.418827713996172
1684253067547053000,8.986052978515625,-22.053232314717768,4.7197418720185755,-1.6799217561781405
1684253067557078000,8.996078125,-4.9504573380529875,8.041537685531377,-2.785934786620736
1684253067567104000,9.00610400390625,-0.9819523510098457,11.453362729537487,-2.0412422087222337
1684253067577130000,9.0161298828125,-4.886040687721968,13.168054185801743,-0.25947745013833046
1684253067587156000,9.026156005859375,8.006550543302296,13.725552459484337,5.699380685389041
1684253067597181200,9.03618115234375,3.846017256015539,9.6655610288769,6.842590935325622
1684253067607207200,9.046207275390625,-2.0918565436720846,4.905439215674996,3.7153894731521606
1684253067617233200,9.056233154296875,-3.3217139804482456,2.4450258384644985,1.8412281704217195
1684253067627259100,9.066259033203124,-1.6568343105792998,0.9429559731394052,0.45282501628696914
1684253067637284000,9.0762841796875,-1.3402315361618995,1.0107599278211592,-0.5432786096721888
1684253067647310000,9.08631005859375,-3.244331465560198,2.381245147949457,-0.5231149425655603
1684253067657336000,9.096336181640625,-3.8689296373084185,3.083193978142738,-0.5568950470924378
1684253067667361000,9.106361083984375,-4.041372654855251,3.7735757046610114,-0.5207815311819315
1684253067677387000,9.116386962890624,-4.249706193211675,4.61829575997591,-0.4717974277824163
1684253067687413000,9.1264130859375,-4.267650722964108,4.929145669955015,-0.6906488530218601
1684253067697439000,9.13643896484375,-4.170797491669655,4.574024072051048,-1.0984019709169863
1684253067707464000,9.1464638671875,-3.7910160842835903,3.5279134293854235,-1.5381623384475707
1684253067717490000,9.156489990234375,-3.3752386498868465,2.4688655637353656,-1.7282798366338015
1684253067727516200,9.16651611328125,-2.953272297722101,1.7420190236508846,-1.7368758155435322
1684253067737542100,9.176542236328125,-2.593025611889362,1.2500778025060892,-1.6982488555073738
1684253067747567000,9.186567138671874,-2.243129785809666,1.0187959347605704,-1.4922972438514233
1684253067757593000,9.196593017578126,-1.9459541809178889,1.0609686045795679,-1.110465625937283
1684253067767619000,9.206619140625,-1.65034377951622,1.1135603770822287,-0.7810176907330751
1684253067777645000,9.21664501953125,-1.3543734587609768,1.0341618461966513,-0.5719102453947067
1684253067787670000,9.226669921875,-1.0324632255852222,0.8447112874865531,-0.4283627752035856
1684253067797696000,9.236696044921874,-0.7187889058351516,0.7879659024357796,-0.4678130343213677
1684253067807722200,9.24672216796875,-0.25889760442376136,0.7380149998307227,-0.6117962655812501
1684253067817747200,9.256747314453126,0.48495910717248913,0.7140805820137262,-0.5169944138586521
1684253067827773400,9.2667734375,0.6089268476247787,0.7799725655943155,-0.48131110605895516
1684253067837799400,9.27679931640625,0.8139525035422295,0.9410662138700485,-0.5336407204940915
1684253067847825400,9.286825439453125,1.3332348091423512,0.9464175117701291,-0.1629597344085574
1684253067857850400,9.296850341796874,1.731249792355299,0.812698777154088,0.564641715696454
1684253067867876400,9.30687646484375,1.6685048746287823,0.5865267997682094,1.1249787199363113
1684253067877902300,9.31690234375,1.8223954596579073,0.6186714120477438,1.6793509705528615
1684253067887928300,9.32692822265625,1.6040402935028075,0.508609447351098,2.1213056332573292
1684253067897953300,9.336953369140625,1.238528234487772,-0.6272130304217338,2.4044074123501775
1684253067907979300,9.346979248046875,1.1809539973974228,-1.8262199863821267,2.473160046058893
1684253067918005200,9.357005126953124,1.22739776866436,-2.8268869747340677,2.6830095419362188
1684253067928030200,9.3670302734375,1.0888076286196708,-3.9632892982214685,3.2374504738748073
1684253067938056200,9.37705615234375,0.47460718797352164,-5.081707636728883,3.902570041103661
1684253067948082200,9.387082275390625,-0.47284547553062434,-5.661425341004133,4.483404766710103
1684253067958108200,9.397108154296875,-1.1239186894893645,-5.755859528458118,4.286554745398462
1684253067968133000,9.407133056640625,-1.368565650242567,-6.21559768513441,3.3093855370119214
1684253067978159000,9.4171591796875,-0.938088659363985,-5.572811822527647,2.266289565992355
1684253067988185000,9.42718505859375,-0.42463527911305426,-4.839433250325918,1.6187775516465306
1684253067998211000,9.437211181640626,-0.0360720148563385,-4.104156151026487,1.2979603744044899
1684253068008236300,9.447236328125,0.1502174494743347,-3.348575683888793,1.39957512101233
1684253068018262300,9.45726220703125,0.1450198808312416,-2.73077930110991,1.568287865989655
1684253068028288000,9.4672880859375,0.2246270860314369,-2.2083587705492973,1.6298622786320744
1684253068038314200,9.477314208984374,0.3859159646183252,-1.5821709915220736,1.780945405025035
1684253068048339200,9.487339111328126,0.714914694750309,-0.5282464602351188,1.9796974605657158
1684253068058365400,9.497365478515626,0.7318845342516899,0.048722237592935556,1.286934245738387
1684253068068391400,9.507391357421875,0.29556111889984454,-0.05085808057785034,0.014741057536005972
1684253068078416400,9.51741650390625,0.5042973563056439,0.017061609438061714,-0.81062489348948
1684253068088442400,9.5274423828125,1.2055261285960674,0.4237397915780544,-1.1727277285829185
1684253068098468400,9.53746826171875,1.806570114016533,0.7410767254889011,-1.300416243124008
1684253068108494300,9.547494384765624,2.3624597834587098,0.9946680401980876,-1.1420838762551546
1684253068118519300,9.557519287109375,3.1474048767685887,1.240282969200611,-1.0358552061110735
1684253068128545300,9.567545166015625,3.7428795376241206,1.0686059675902129,-0.9837281285107136
1684253068138571300,9.5775712890625,5.419474195206165,-3.5040006388783453,1.9369976981326937
1684253068148597200,9.58759716796875,5.945758999979495,-4.763564062610269,2.8235622142255306
1684253068158622200,9.597622314453124,5.340050529879331,1.5256500628769396,-1.1748840298339724
1684253068168648200,9.607648193359376,4.821548049545288,3.1854385470867155,-2.068992093174159
1684253068178674200,9.617674072265626,4.040772935396433,3.240645470523834,-1.3092884086266159
1684253068188700200,9.6277001953125,3.010009499466419,3.8181776474535463,-0.33079993433505295
1684253068198725000,9.63772509765625,1.4363007774718104,3.857386206769943,1.5742213476918636
1684253068208751000,9.647751220703125,-2.466746379624307,3.9049206958830354,3.535165007948875
1684253068218777000,9.657777099609374,-6.3954153231024735,3.8603561624914406,6.158798524069786
1684253068228803000,9.667802978515626,-11.130704308342933,2.975292990872264,10.696621986448765
1684253068238828300,9.677828369140625,-14.02398595548272,1.9239789343446492,13.117275600200891
1684253068248854300,9.687854248046875,-10.319297909086941,1.5112725779563188,9.125155928814412
1684253068258880300,9.69788037109375,-4.019778662684559,2.6089859820872543,3.2148665938839316
1684253068268905200,9.7079052734375,1.1944875788398086,1.9207985507428644,0.7138166703805326
1684253068278931200,9.71793115234375,3.6035879713118075,2.578566878426075,-0.44090252330303187
1684253068288957200,9.727957275390626,4.472455210411549,4.9737405984848735,-1.9985954916507005
1684253068298983400,9.7379833984375,4.659880985295772,7.271231942948699,-4.065039653907716
1684253068309008100,9.748008056640625,3.9244226842105387,7.471282806128263,-5.524831927734613
1684253068319034400,9.758034423828125,2.071948604892194,4.980418176552653,-5.375591798859834
1684253068329060400,9.768060302734375,0.08679740896522999,1.6996604758709668,-5.955936695122719
1684253068339086300,9.77808642578125,0.5130994522467255,-1.3188865503162144,-6.517304503715038
1684253068349111300,9.788111328125,2.0583621242187915,-2.2121821282297374,-5.944999121522903
1684253068359137300,9.79813720703125,2.3033220964439214,-2.5877128924340007,-4.583679204624891
1684253068369163300,9.808163330078125,1.7981860242918133,-3.4357910260051487,-2.865119382494688
1684253068379189200,9.818189208984375,-0.5820505311369896,-5.091659121900797,-1.5889640126630662
1684253068389214200,9.828214111328125,-3.6216391763091087,-5.7289808738827706,-0.4847312897659838
1684253068399240200,9.838240234375,-3.5401033411338925,-3.806766026601195,0.37153833356723187
1684253068409266200,9.84826611328125,-3.0568355480492113,-2.1098861213594673,0.2448506666317582
1684253068419292200,9.858292236328126,-2.3963491935789585,-0.9378039972037077,0.33499168693646786
1684253068429317000,9.868317138671875,-3.534057923489809,0.6332189928382634,0.8057669320642947
1684253068439343000,9.878343017578125,-2.282862222869694,2.508310269895196,1.4818036146268247
1684253068449369000,9.888369140625,0.2176478946685791,3.280506356269121,2.174578373761475
1684253068459394300,9.898394287109374,2.1981024572119114,3.754510354185104,2.904459166975319
1684253068469420300,9.908420166015626,2.923674447315931,4.437395587468147,2.69077462297976
1684253068479446300,9.9184462890625,0.7585846173897385,4.314776923537254,1.899571199927479
1684253068489472300,9.92847216796875,-1.7926146539002656,3.9219636006206273,1.2218468565389513
1684253068499497200,9.938497314453125,-2.9761013846457,4.308530722624063,0.6808651256322861
1684253068509523200,9.948523193359375,-2.9113550639688968,4.687670324975252,0.1565301397524774
1684253068519549200,9.958549072265624,-1.9532272406607865,4.541353974592686,-0.01276917294114828
1684253068529575400,9.968575439453126,-1.0849860245049,3.7129315586060283,0.3553612518787384
1684253068539600100,9.97860009765625,-0.47784459899216886,2.6586732653200627,1.9805014704249797
1684253068549626400,9.98862646484375,-0.3185550775289535,1.6489567090719937,3.671159870803356
1684253068559652400,9.99865234375,-0.6796095726132393,0.8432417994558811,4.873973817831278
1684253068569678300,10.00867822265625,-1.6811904609397053,0.4579296459496021,5.29279251962006
1684253068579703300,10.018703369140624,-2.669180923070013,0.4960924956053495,5.176826299315691
1684253068589729300,10.028729248046876,-3.4717154490843414,0.9892968685537576,3.9057147688701748
1684253068599755300,10.03875537109375,-4.118974657712877,1.5771061093479395,2.4340289358928797
1684253068609781200,10.04878125,-3.8775983891934156,1.3435925370275974,0.8379889934942126
1684253068619806200,10.05880615234375,-2.8604443764209746,0.8232727781385183,-0.7813280718564987
1684253068629832200,10.068832275390625,-1.4246905653074382,0.21450784307718276,-1.6831494860529899
1684253068639858200,10.078858154296874,-0.5103703195437789,-0.4817021512031555,-2.7342148285165426
1684253068649884200,10.08888427734375,0.10602657170072197,-1.005156116464734,-3.924890593983233
1684253068659909400,10.098909423828125,-0.10615852751731872,-0.8614782978922129,-4.609332409058511
1684253068669935000,10.10893505859375,-1.0815597033180295,-0.46231531368792056,-5.267044914901256
1684253068679961000,10.118961181640625,-1.071578261399269,-0.04066635690927505,-5.96069061165154
1684253068689987000,10.128987060546875,0.3559060262799263,-0.25088030218482016,-6.863792713308334
1684253068700012300,10.13901220703125,1.6073451802670955,-1.1232429821848868,-8.224532784491776
1684253068710038300,10.149038330078126,2.3976687517449258,-1.3324381058067083,-8.578053376939891
1684253068720064300,10.159064208984375,3.6653374482601877,0.055367082434892655,-7.489126505854726
1684253068730089200,10.169089111328125,6.035906303894519,2.0943448533564806,-4.545124725303054
1684253068740115200,10.179115234375,3.400211763101816,3.895688172635436,-1.6600526881039142
1684253068750141200,10.18914111328125,-0.3246463801413774,4.881946696406603,-1.6077578527212142
1684253068760167200,10.199167236328124,-2.1904154098406434,4.943778590941429,-1.42728905736804
1684253068770192100,10.209192138671876,-3.302194456464052,5.037387433487177,-0.45971769841015336
1684253068780218000,10.219218017578125,-4.757831948699057,4.397994135928154,1.0903227093577383
1684253068790244400,10.229244384765625,-4.913900754550099,3.709584586265683,1.3870499859601257
1684253068800270300,10.239270263671875,-4.775202185694873,3.4236242028713226,0.3534720771312713
1684253068810294500,10.24929443359375,-3.872076118640601,2.76472190272212,-1.4792524688392876
1684253068820320800,10.25932080078125,-3.3669258718326684,1.8723732502698898,-3.8851094954758882
1684253068830346800,10.2693466796875,-2.639669289642572,0.900602101534605,-5.512036743569373
1684253068840372700,10.279372802734375,-1.2188698865547776,0.2527110247433185,-5.336745058593154
1684253068850398000,10.28939794921875,1.7966212591931223,0.594352963349223,-2.6965760027348993
1684253068860423700,10.299423583984375,5.4590708770573135,1.2127420513242482,1.8118343181550502
1684253068870449700,10.30944970703125,6.5092416087687015,1.5708564013034105,5.638327374011278
1684253068880475600,10.3194755859375,2.4492094077594575,1.9003040442466734,6.727568133351206
1684253068890500900,10.3295009765625,0.7916974901795387,3.2556466403007507,5.9713774253606795
1684253068900526800,10.33952685546875,-0.158832279215008,3.7872424109637737,4.77294096276462
1684253068910552800,10.349552734375,0.8504488082252443,3.143332512763142,2.1092443163245913
1684253068920577800,10.359577880859375,2.812161699289083,3.470149807202816,0.5182791929721832
1684253068930603800,10.369603759765624,3.051674219763279,2.2665414949268103,0.1506979264676571
1684253068940629800,10.379629638671876,2.155409270650148,2.246853044116497,-0.9904249958008527
1684253068950655700,10.38965576171875,1.8443091853022575,1.7740116602391003,-1.943563924780488
1684253068960680700,10.3996806640625,1.1732055021625012,0.3841565537303686,-2.0784891125768423
1684253068970706700,10.409706787109375,1.0064916759174316,-0.558955486753583,-1.9076205047398804
1684253068980732700,10.419732666015625,0.7505763021748513,0.5112620076864958,-1.0802028818815945
1684253068990758700,10.429758544921874,0.048145752879232166,1.1258002654522656,-0.03763677995502949
1684253069000783600,10.43978369140625,0.17630115427970885,-0.4412333626925945,0.790738289758563
1684253069010809600,10.4498095703125,0.21486440142989158,-0.9238117122083902,1.6078817713618279
1684253069020835600,10.459835693359375,0.5985702887833118,-1.798322510153055,2.389299859589338
1684253069030861600,10.469861572265625,0.30883681659102435,-2.1340227837502956,2.5004385136067864
1684253069040886500,10.479886474609375,0.38863340688347814,-2.246839600113034,2.2748048808813093
1684253069050912500,10.48991259765625,1.0346318017959595,-2.490926004374027,0.8160475030601024
1684253069060938800,10.499938720703126,2.3984523033380505,-2.4037515787899495,-1.2140882052361965
1684253069070964700,10.50996484375,3.4360639977276324,-2.5562936718195677,-1.5881845527231693
1684253069080990000,10.519989990234375,3.5112031176030634,-3.734482880678773,0.35703181543946266
1684253069091016000,10.530015869140625,4.238457653966546,-5.254244470039009,1.378121998617053
1684253069101042000,10.5400419921875,4.849996729916334,-5.415795214432477,1.8306342956930397
1684253069111067600,10.550067626953124,4.8092497089862825,-4.533241979807615,2.982543400391936
1684253069121092900,10.5600927734375,4.205414047020674,-4.209714374563098,4.798244915369152
1684253069131118800,10.570118896484376,3.046578357928991,-4.470300662726164,5.157789590412378
1684253069141144800,10.580144775390625,1.8512521363079546,-4.836113750514388,4.5691403916627165
1684253069151170800,10.5901708984375,1.329821347437054,-4.65446743581444,4.669036936175823
1684253069161195800,10.60019580078125,1.20119905917719,-3.4525168276175853,4.606012032464147
1684253069171221800,10.6102216796875,1.1731759107418358,-2.1902920757219193,3.7594010488361116
1684253069181247700,10.620247802734376,1.0137537028096615,-1.804290478646755,2.9908944646298883
1684253069191272700,10.630272705078125,0.8103662425532937,-2.447021688456833,2.294126836466789
1684253069201298700,10.640298583984375,0.7693807366922497,-3.633881402766704,1.7757734092146158
1684253069211324700,10.65032470703125,0.9533502336427568,-4.197684329551458,1.8842150792330503
1684253069221350700,10.6603505859375,0.8346817686423659,-3.774176593163609,2.1977590506017206
1684253069231375600,10.670375732421874,0.3110875181272626,-2.7271862450540065,2.4917583635449407
1684253069241401600,10.680401611328126,-0.44013621510565276,-1.5389713167428969,2.8056875348389148
1684253069251427600,10.690427490234375,-0.8084791136324405,-0.584937630880624,2.1849299641668796
1684253069261453600,10.70045361328125,0.1325882692813873,0.7709507624879479,0.5440630380481482
1684253069271478500,10.710478515625,0.4102414275795221,1.7570953044906257,-1.1621966899573801
1684253069281504500,10.72050439453125,0.8458739015251397,2.354060496164858,-2.696737330776453
1684253069291530800,10.73053076171875,1.5189643015027046,2.872840916657448,-3.850312322860956
1684253069301556700,10.740556640625,2.196146939229965,3.1703765870332714,-4.664215215107799
1684253069311582000,10.75058203125,-0.13824994830489157,1.891585169609636,-7.062042080023884
1684253069321608000,10.76060791015625,-1.2638432930082082,0.6481520658150315,-8.188786932849883
1684253069331634000,10.770634033203125,-0.24116554837822912,1.452249457231909,-7.8014231075108045
1684253069341660000,10.780659912109375,-0.18130699974298475,1.9460896438658237,-7.637735351088643
1684253069351684900,10.790684814453124,0.5811795935213565,3.06159414075315,-6.005660803234576
1684253069361710800,10.8007109375,0.1643389138072729,5.140451502120494,-3.737929221740365
1684253069371736800,10.81073681640625,-0.4189291764259338,6.8823641427874565,-1.7859142794787883
1684253069381762800,10.8207626953125,-0.860426158490777,4.13143520309627,-2.7420038749575615
1684253069391787800,10.830787841796875,-1.457556185337901,2.3164205013394352,-3.7595135692998767
1684253069401813800,10.840813720703125,-1.328339438316226,2.5534064259454605,-3.0184046951070425
1684253069411839700,10.85083984375,-1.7366817542761563,3.34777839603126,-2.466537413048744
1684253069421865700,10.86086572265625,-2.2577157989144325,3.6655318017885086,-2.2803426412642
1684253069431890700,10.870890625,-2.951151652306318,3.908141119234264,-1.425602273324877
1684253069441916700,10.880916748046875,-3.021712212219834,4.196675444769859,-0.4308671592399478
1684253069451942700,10.890942626953125,-2.0679764863908288,4.259987056468427,-0.08275631688088178
1684253069461968600,10.90096875,-0.8552572314202785,4.109947593909502,-0.03398249523118138
1684253069471993600,10.91099365234375,0.2692781286627054,3.707455173021555,0.11293898143768309
1684253069482019600,10.92101953125,0.6928133375793695,2.960767621913552,0.4384329183191061
1684253069492045600,10.931045654296875,0.3726443951129913,2.1086662241756913,1.0067510575059802
1684253069502071600,10.941071533203125,-0.19585808766484258,1.6959443779572843,1.6168661650672553
1684253069512096800,10.9510966796875,-0.7274637951999903,1.902805797934532,2.110683701477945
1684253069522122500,10.96112255859375,-1.4556629189372061,2.373388296969235,2.3245815959632394
1684253069532148700,10.971148681640624,-1.9081541732251643,2.6294085923910138,2.3794627945773303
1684253069542174700,10.9811748046875,-1.6299042180776595,2.7694892632544037,2.097410086145997
1684253069552200000,10.991199951171875,-0.9639309566289186,3.0365061689868567,2.008949858535081
1684253069562226000,11.001225830078125,-0.15603578036427496,3.047217532615363,2.06961066346392
1684253069572252000,11.011251953125,0.6270780058652162,2.6567227157741784,1.8663829238139091
1684253069582276900,11.02127685546875,1.1631821938633917,2.002378809581697,1.808908201575279
1684253069592302800,11.031302734375,1.498560395899415,1.3040654132813214,2.090283156875521
1684253069602328800,11.041328857421876,0.9184592452645302,1.5423983685821294,2.770637848767638
1684253069612354800,11.051354736328125,-0.04905132341682911,2.371786122469604,3.0669471922188993
