time,seconds_elapsed,z,y,x
1684252352468049000,0.044048828125,3.0451474483430383,2.272310141456127,0.7790063509106636
1684252352478075100,0.0540751953125,3.289340235587954,2.2896251411333677,0.44882630203962326
1684252352488101000,0.06410107421875,4.548455915552378,2.443954117579758,0.17828472931236028
1684252352498127000,0.074127197265625,5.547537680539488,2.5404841082692147,0.287330210442841
1684252352508153000,0.084153076171875,5.765387235260009,2.8251550363749263,0.5792158922329544
1684252352518178800,0.0941787109375,5.454208823978901,3.5223476119518278,0.2955576483011246
1684252352528204800,0.104204833984375,4.632494965720176,4.378925862842798,-0.5164607453733683
1684252352538230800,0.114230712890625,3.6299101610481737,5.138876800149679,-1.160979130861163
1684252352548256800,0.1242568359375,2.746708107125759,5.917062482327222,-2.2441268340229987
1684252352558282800,0.13428271484375,3.682618837928772,6.756331871020794,-2.973942160785198
1684252352568308700,0.144308837890625,4.160302985662222,7.236642275604606,-3.424128645262122
1684252352578334000,0.154333984375,4.022013289868831,7.035996953663229,-3.0998125199884172
1684252352588360000,0.16435986328125,4.067687245807051,6.80501553016901,-2.5658891831606625
1684252352598386000,0.174385986328125,3.9083872029498217,7.42317197843194,-3.5429636990010738
1684252352608412000,0.184411865234375,3.665646660339832,8.37305512048602,-4.711082180222869
1684252352618438000,0.19443798828125,3.001327888099849,9.252933582943678,-5.170141706985235
1684252352628463900,0.2044638671875,2.5261475398808715,9.632847092276812,-5.887537112635374
1684252352638489900,0.21448974609375,1.9746154811263084,9.841439573830366,-5.1893794914186
1684252352648515800,0.224515869140625,0.7770785977184772,9.672283615130185,-3.8872961918652056
1684252352658541800,0.234541748046875,0.3041618835825473,9.348266765064,-2.229109297633171
1684252352668567800,0.24456787109375,-0.17005133663732558,9.477845331135391,0.5069973359793424
1684252352678593800,0.25459375,-1.0104594835698604,9.171244895294308,3.7490111722469326
1684252352688619800,0.264619873046875,-2.6645149770855903,7.85900377434194,6.810184457239508
1684252352698645800,0.274645751953125,-4.4750317829012864,6.542748157051205,8.303499938222766
1684252352708671700,0.284671630859375,-5.427007513320445,5.872612515226006,9.606576924988627
1684252352718698000,0.294697998046875,-6.236350550305843,6.161555129301548,10.914225457453727
1684252352728724000,0.304723876953125,-6.9955626519441605,6.441108568263053,11.97151098960638
1684252352738750000,0.31475,-6.726193922388553,6.159958800020814,12.730861038410662
1684252352748776000,0.32477587890625,-5.220819754821062,5.017488554796576,13.748753302329778
1684252352758802000,0.334802001953125,-3.346576034504175,2.7250504020690918,15.307311947596073
1684252352768828000,0.344827880859375,-1.3331564832091332,0.1551110667347908,16.593562887245415
1684252352778852900,0.354852783203125,-0.28444358562324196,-1.0594342346191405,17.424485303354263
1684252352788878800,0.36487890625,-0.3696832437524572,-1.7917086449712514,17.383947541260717
1684252352798904800,0.37490478515625,-0.6647569444615393,-2.4595295801132915,17.237736404818296
1684252352808930800,0.384930908203125,-0.5314613306283951,-2.998998276108503,16.372556329798698
1684252352818956800,0.394956787109375,-0.05403028087317943,-3.2793916730254886,15.38504985179305
1684252352828982800,0.404982666015625,0.3120429556885734,-3.4760452949821947,14.53729203621745
1684252352839008800,0.4150087890625,0.3218418441146612,-3.5709307333350178,13.16819096392393
1684252352849035000,0.425034912109375,0.9663128833293915,-4.108395103770494,11.679181071180105
1684252352859061000,0.43506103515625,2.351824407675862,-5.2503679208666085,10.467903247189522
1684252352869087000,0.4450869140625,3.6081682848393917,-6.553208760789037,8.974369155019522
1684252352879113000,0.455113037109375,4.22968573396802,-7.672829460823536,7.227815995070338
1684252352889139000,0.465138916015625,4.7175697886765,-8.587274209749697,5.5112990769445895
1684252352899165000,0.4751650390625,5.11608512262702,-9.261170665413141,4.69517207890749
1684252352909191000,0.48519091796875,5.241594247302412,-9.086903062787652,4.312943862891197
1684252352919217000,0.495216796875,6.043946402487158,-7.5795210625290865,2.8240567197442052
1684252352929243000,0.505242919921875,12.973273956501483,-2.1025287443339824,-9.025782531392574
1684252352939268900,0.515268798828125,16.40375343209505,4.425673000970483,-15.903746393394469
1684252352949295000,0.525295166015625,7.572977924495935,3.1937644768834113,-9.639455696761608
1684252352959321000,0.535321044921875,2.856323497098684,-0.057224693000316615,-7.207741175290942
1684252352969347000,0.54534716796875,1.4300982695698736,-2.7688153095155954,-4.173403290253877
1684252352979372000,0.5553720703125,1.1885761628389357,-4.9374938115835185,-0.5359434444785118
1684252352989398000,0.56539794921875,1.5007809945583344,-6.224893336746097,2.6896885813087223
1684252352999424000,0.575424072265625,1.2022376084446906,-6.462230851268768,3.576991640809178
1684252353009450000,0.585449951171875,1.6518460007727145,-5.465050535988808,6.328795609769225
1684252353019476000,0.59547607421875,0.5927144754271954,-2.7342674354866143,8.279831477865576
1684252353029502000,0.605501953125,-2.968322567337751,1.6047230150699614,6.3236564933151005
1684252353039528000,0.61552783203125,-3.3654806414604184,4.525160087899863,4.18305842282772
1684252353049554000,0.625553955078125,-1.5225556039929389,4.601720765011012,2.181328140282631
1684252353059580000,0.635579833984375,-0.7935340579569339,2.270338549122214,2.5639813037127257
1684252353069606000,0.64560595703125,-3.4562510457098483,0.3428200424745679,2.963374589541554
1684252353079632100,0.655632080078125,-5.242069463598728,1.2856708016738294,2.3262211798638104
1684252353089658000,0.665658203125,-7.601281643438338,2.6666686479881405,1.879789664006233
1684252353099684000,0.67568408203125,-8.294627480459212,3.042418315640092,1.2938111457705497
1684252353109710000,0.6857099609375,-7.11300245193243,2.534317986854911,-0.06005787059962749
1684252353119736300,0.695736328125,-5.507106885951757,2.4624580347806213,-2.0616063668370246
1684252353129762000,0.705761962890625,-3.1466952671945094,2.709600319480896,-4.055115933525562
1684252353139788000,0.7157880859375,-0.9483389813520013,2.688781111074984,-5.051812849202752
1684252353149814000,0.72581396484375,1.4635890357613563,2.788931922610104,-6.752051417222619
1684252353159840000,0.735840087890625,2.7644658821344374,3.4514550436049696,-9.416846380293368
1684252353169865200,0.745865234375,3.9454268937945365,4.547076736153662,-10.639345855522155
1684252353179891200,0.75589111328125,4.936313077366352,6.114412269854546,-10.988630417835711
1684252353189917400,0.76591748046875,3.8128281031191347,7.701421349057555,-10.688925002205371
1684252353199943400,0.775943359375,2.9479706841826436,8.105209070453046,-7.662231494441628
1684252353209969400,0.785969482421875,1.3128127833604812,8.269219482958317,-4.144831860285997
1684252353219995100,0.7959951171875,-1.4358208850003777,5.799584103894233,0.6913765827745199
1684252353230021000,0.806021240234375,0.05048953952640295,-0.45554479663968084,0.2780570629239082
1684252353240047000,0.816047119140625,1.9324156310394405,-1.8806401433557272,-0.88619480599761
1684252353250073000,0.826072998046875,1.2493307835310696,-0.9343781144082546,0.18009236325621603
1684252353260099000,0.83609912109375,0.7849149904325604,-0.48398237109482284,0.1516904446363449
1684252353270125000,0.846125,-0.04401625185906887,-0.8145143021434545,-2.0318822597026824
1684252353280151000,0.856151123046875,-1.073586970873177,-0.21435177573263645,-3.1530951973646877
1684252353290177000,0.866177001953125,-3.01981836129725,2.5557167487144468,-4.32138728158772
1684252353300203300,0.876203369140625,-3.067216072288155,5.257421931031346,-2.9691444051146507
1684252353310229200,0.886229248046875,-1.3369821789771317,6.329036432787776,1.709928771907091
1684252353320255200,0.896255126953125,-2.0820710627168415,6.645554451531171,4.065822036457061
1684252353330281200,0.90628125,-3.2102900797486305,4.975985747063159,4.012126102104783
1684252353340307200,0.91630712890625,-2.844083608728647,4.606703521859646,4.868910689222813
1684252353350333200,0.926333251953125,-1.9794941930785774,4.548016355091333,5.1273067738652225
1684252353360358100,0.936358154296875,-1.4752166374519466,3.6469846299678084,4.227220805159211
1684252353370384100,0.946384033203125,-0.020407412734627723,2.413666239082813,3.288662482456863
1684252353380410000,0.95641015625,1.7595888748720288,0.8665572085916996,2.2980296891242262
1684252353390436000,0.96643603515625,1.9988395295396446,-0.2729822438776493,0.47247518091350793
1684252353400462000,0.976462158203125,1.8611530603364108,-1.689719512093067,-0.9447957557871938
1684252353410488000,0.986488037109375,2.4049860890209676,-2.8374820185065266,0.011611819599568843
1684252353420514000,0.99651416015625,2.886654337954521,-3.6448061168849466,1.5617330375187097
1684252353430540300,1.006540283203125,3.2805613013267516,-4.465256238818168,3.0087761582791805
1684252353440566300,1.016566162109375,3.640634968680143,-5.493931178036332,4.774653027379513
1684252353450592300,1.02659228515625,3.6481636106193065,-5.626783066689968,5.294649545663595
1684252353460618200,1.0366181640625,3.4737633215248582,-5.6350990596145385,4.356037446947395
1684252353470644200,1.046644287109375,2.7869384107053277,-6.133225106874108,2.6418063016712665
1684252353480670200,1.056670166015625,1.8892583340972662,-6.67839990555644,1.024465285633877
1684252353490696200,1.0666962890625,0.7223281128119677,-6.561480330049991,0.33898660179153084
1684252353500722200,1.07672216796875,-0.37843130795136093,-5.490329354152083,0.3667776950366795
1684252353510748200,1.086748046875,-0.7301515729792416,-3.7869285227090117,1.31209703630656
1684252353520774100,1.096774169921875,0.15593246612027287,0.04872749828994274,3.885102481213212
1684252353530800000,1.106800048828125,-0.7323596774827689,-0.058202598121762275,2.824756684707105
1684252353540826400,1.116826416015625,-1.304886666536331,0.11580021608769893,3.214289086256921
1684252353550852400,1.126852294921875,-2.029087076026201,0.4843459437102079,4.708066047272085
1684252353560877300,1.136877197265625,-1.9286884272098541,0.4605728539347648,5.4890282084256405
1684252353570903300,1.1469033203125,-1.709806022310257,-0.40694589316546914,5.624304693877697
1684252353580929300,1.15692919921875,-1.0937209734939037,-1.8512708410084247,5.635120102402568
1684252353590955300,1.166955322265625,-0.3760352065950632,-3.544408052590489,4.58444609734416
1684252353600981200,1.176981201171875,-0.8547123108886182,-4.990642633447051,3.6900758759364485
1684252353611007200,1.18700732421875,-1.2323135977566242,-2.1460738715499637,5.422962037321925
1684252353621033200,1.197033203125,-0.03927095702812075,1.258280398184061,5.115094358024001
1684252353631059200,1.20705908203125,1.01238080702126,6.026958442807198,3.0480919773623345
1684252353641085200,1.217085205078125,0.3106919429384172,7.41011551298201,1.8405878266915678
1684252353651111200,1.227111083984375,0.11267886919677257,8.67902894886136,-0.49086686991155143
1684252353661137200,1.23713720703125,0.8007341985940932,9.575345335900783,-4.12328521438837
1684252353671163400,1.247163330078125,0.5274526429763063,8.875067069268226,-5.5856672124475235
1684252353681189400,1.257189453125,-1.1230629494428634,7.042259521189331,-4.814111177542806
1684252353691215400,1.26721533203125,-4.071553858107328,5.139926601463556,-3.3250945627972484
1684252353701241300,1.277241455078125,-6.0550096482932565,4.149904925766587,-2.6753800699710846
1684252353711267300,1.287267333984375,-6.638849985456466,3.810605166372657,-3.5290041472315785
1684252353721293300,1.297293212890625,-6.372199282687902,3.570723228064179,-4.090327532160282
1684252353731319300,1.3073193359375,-5.748425579065084,3.1350778946369884,-4.126886453750729
1684252353741345300,1.31734521484375,-5.175135862010717,2.5180571724057197,-3.7475533746540544
1684252353751371300,1.327371337890625,-4.715951832085848,1.864649962541461,-2.390269143012911
1684252353761396200,1.337396240234375,-4.344668203932047,1.4272241754382848,-0.5144115577585995
1684252353771422200,1.347422119140625,-3.630862931728363,1.1167395916402338,1.0510032370127738
1684252353781448200,1.3574482421875,-2.7923510834038257,0.748829823833704,1.7916415710844098
1684252353791474200,1.36747412109375,-2.4157880535423755,0.49711423986852166,1.9591008088693023
1684252353801500400,1.37750048828125,-1.9966998871624468,0.0009147767573595046,1.8359553445853292
1684252353811526400,1.3875263671875,-0.816963010469824,-0.5682482157558203,1.3413633166708052
1684252353821552400,1.397552490234375,3.338969066631794,-2.121677681440115,1.824721126126498
1684252353831578400,1.407578369140625,3.800445591408014,-4.623167749926448,2.799245811353624
1684252353841604400,1.417604248046875,0.9983096115708351,-7.224204234313964,2.347823209210485
1684252353851630300,1.42763037109375,0.37243484401553867,-7.910107938635349,2.133508989009261
1684252353861656000,1.437656005859375,0.9868918532386421,-7.43935914312303,1.7712841349713504
1684252353871682000,1.44768212890625,2.61159616458565,-7.114224102681875,1.2416229856327174
1684252353881708000,1.4577080078125,5.323257215988636,-5.583205206248164,1.190178775729984
1684252353891734000,1.467734130859375,4.548661667257547,-3.904563553008437,1.002588384868577
1684252353901760000,1.477760009765625,1.9723218172311783,-3.0266368091404434,1.0461210909944028
1684252353911786200,1.4877861328125,0.7297793786659836,-2.323197448128462,0.8978548486530781
1684252353921812200,1.497812255859375,1.1216662343874573,-2.991931990984082,1.1278126281879841
1684252353931838200,1.507838134765625,1.1511939421668649,-1.2543021422028542,1.6656638059839606
1684252353941864200,1.5178642578125,2.029973503471911,1.3943395584464073,1.6545409389451144
1684252353951890200,1.52789013671875,1.7680699952304362,3.92902637861371,1.3881170306697488
1684252353961915100,1.5379150390625,0.7327472885608672,6.683077834239602,0.551055088892579
1684252353971941000,1.547941162109375,-0.7246782561346888,9.408678271406888,-0.2770145681336522
1684252353981967000,1.557967041015625,-2.232900506609678,11.548609402418135,-0.9013105420649051
1684252353991993000,1.5679931640625,-3.5649583809271452,12.47166766591072,-1.7798925349712371
1684252354002019000,1.57801904296875,-2.7598659871235487,11.563805802506208,-1.6131734480291604
1684252354012045000,1.588045166015625,-1.8935165760636328,8.502550684449076,-0.3888303907603025
1684252354022071000,1.598071044921875,-1.7255568414106963,3.588348316603899,1.6140443856447935
1684252354032097000,1.608096923828125,-1.3546888083204627,-0.7656897732198238,2.86440685031116
1684252354042123300,1.618123291015625,-1.4351099602520465,-3.2364725687533613,2.7646125971287487
1684252354052149200,1.628149169921875,-1.5803475754871963,-4.503599121215939,1.884989570736885
1684252354062175200,1.63817529296875,-1.321574766486883,-4.652752740851044,0.6019388884335756
1684252354072201200,1.648201171875,-0.9355828140228987,-3.965414619812369,-0.64202832223773
1684252354082227200,1.658227294921875,-1.0500631796836852,-2.8394956964164972,-1.6695675354242323
1684252354092253200,1.668253173828125,-1.4132394892275333,-1.7291303159832954,-2.3659534707933663
1684252354102279200,1.678279052734375,-1.9529004929244518,-0.9065922818601131,-2.604346631848812
1684252354112305200,1.68830517578125,-2.485712945900857,-0.43147476974427695,-2.4542723902374504
1684252354122331100,1.6983310546875,-2.828971087531745,-0.21116145525872707,-1.9286328976303337
1684252354132357000,1.708357177734375,-3.1093279518306254,-0.29282208585739133,-1.4125877473205326
1684252354142383000,1.718383056640625,-3.2940845075055956,-0.6205705236673354,-1.1896645425975323
1684252354152409000,1.7284091796875,-3.3709953132286667,-0.9711977327615022,-1.249267070645094
1684252354162434000,1.73843408203125,-3.388231110189855,-1.2333739204645155,-1.333538760524988
1684252354172460000,1.7484599609375,-3.3019995184138415,-1.305796767118573,-1.293943247717619
1684252354182486000,1.758486083984375,-3.2073695161268114,-1.1676759981513023,-1.1103899303525686
1684252354192512000,1.768511962890625,-2.857081037467718,-0.9707996733546257,-0.8923515750616788
1684252354202538000,1.7785380859375,-2.3062553734168407,-0.8341665125966071,-0.5753595090657472
1684252354212564000,1.78856396484375,-1.6062001018851995,-0.7857897274404764,-0.2797884167611599
1684252354222590000,1.79858984375,-0.9606796997480094,-0.7708177837580442,-0.032359131813049315
1684252354232616000,1.808615966796875,-0.5883532845430076,-0.8298837207108736,0.19314941322803497
1684252354242642200,1.81864208984375,-0.474326946260035,-0.9795464589118957,0.2909673979014158
1684252354252668200,1.828668212890625,-0.5729333048321307,-1.0577893900215625,0.239742822098732
1684252354262694100,1.838694091796875,-0.7727589809536933,-0.9718103117018938,0.09731178871691226
1684252354272720100,1.84872021484375,-1.1059504866003989,-0.6848381209164858,-0.24364333666861057
1684252354282746000,1.85874609375,-1.5210333628617225,-0.24285072498619556,-0.7215139468848705
1684252354292772000,1.868772216796875,-1.7371651538789272,0.3302332403630018,-1.027068088543415
1684252354302798000,1.878798095703125,-1.766559590667486,1.058375665476918,-1.1774936278104782
1684252354312824000,1.888823974609375,-1.4900924272835254,1.6214052698016166,-1.063517704540491
1684252354322850000,1.89885009765625,-0.8990273995637893,2.043395002841949,-0.6175403621912002
1684252354332876000,1.9088759765625,-0.22810155720897018,2.566063370683789,0.105296357730031
1684252354342902000,1.918902099609375,0.03281034617926925,3.383387469550967,0.6707999509528279
1684252354352927000,1.928927001953125,0.41481063519120215,4.6087107700288295,0.6195943721115589
1684252354362953000,1.938952880859375,2.3902783492326733,6.271171688318252,-0.28942689046114684
1684252354372979200,1.948979248046875,6.787048496323823,8.68935920421779,-1.5766250478327273
1684252354383005200,1.959005126953125,10.45248239069581,10.798917993319034,-1.947387282460928
1684252354393031200,1.96903125,8.502953420031071,10.190623598378895,-1.0772235738098621
1684252354403057200,1.97905712890625,3.495907348793745,6.454901531293988,-1.191412263047695
1684252354413083100,1.989083251953125,0.3901122472643852,1.954223850482702,-2.983075315311551
1684252354423109000,1.999109130859375,0.05657711581178009,-0.8283283079624175,-4.853886723092198
1684252354433135000,2.009135009765625,0.3590987213740125,-2.3032126447200776,-6.264293034720421
1684252354443161000,2.0191611328125,0.228888214074634,-2.884354244318604,-6.686742201966047
1684252354453187000,2.02918701171875,-0.8004758399188519,-2.4570383478194473,-5.915201364630461
1684252354463213000,2.039213134765625,-2.182213106423616,-1.4170973336994648,-4.393165985119342
1684252354473239000,2.049239013671875,-3.318089944732189,-0.3256698779702186,-2.854875344116986
1684252354483265300,2.059265380859375,-3.871777135694027,0.4513017522424459,-1.6489011794924735
1684252354493291300,2.069291259765625,-4.0783775666475295,0.7719587704867125,-0.904261208564043
1684252354503317000,2.07931689453125,-3.5757764198005195,0.7614321157753468,-0.5066039527475834
1684252354513343000,2.089343017578125,-1.768680236083269,0.543352843952179,-0.3968982541427016
1684252354523369000,2.099368896484375,1.0524550432562827,-0.11916823121607303,-0.439760952052474
1684252354533395000,2.10939501953125,2.021257989835739,-1.371454357421398,-0.18202245453596114
1684252354543421000,2.1194208984375,1.3642168073832988,-2.5452847865492103,-0.27308658103495836
1684252354553446100,2.129446044921875,0.9608335751354694,-2.95883168541491,-0.20507278299480675
1684252354563472100,2.13947216796875,1.176014787429571,-2.465000705000758,0.6472644693255424
1684252354573498000,2.149498046875,2.215473570990562,-1.2332803969621657,1.6003940459549426
1684252354583524000,2.159524169921875,3.264243203732371,0.5724117651760577,1.947679835666716
1684252354593550000,2.169550048828125,2.9339737230122087,2.2282816146373747,1.5223887229934334
1684252354603576000,2.179576171875,1.4752350498914717,3.0460312454402443,0.5905512329787016
1684252354613602000,2.18960205078125,0.16955577167272567,2.844258380773663,-0.5324161471351981
1684252354623628000,2.1996279296875,-0.8384721008360385,2.0493834296017885,-1.5373922308579087
1684252354633654000,2.209654052734375,-1.3749135579645633,1.075964513659477,-2.303458143913746
1684252354643680000,2.219679931640625,-1.3033528810977935,0.28123744652569294,-2.2855846335709096
1684252354653706000,2.2297060546875,-1.4063514832794666,0.18391864354610443,-1.524256270430982
1684252354663732000,2.23973193359375,-2.0211995376467704,0.5406219576835632,-0.33486791442632674
1684252354673758000,2.249758056640625,-2.472458619791269,1.027441013509035,0.8613134627193212
1684252354683784000,2.259783935546875,-2.6055834801673887,1.2193699450314044,1.246070028169453
1684252354693810000,2.269809814453125,-2.635363701403141,1.1123562619894742,1.0833815119177101
1684252354703836000,2.2798359375,-2.5644588580965992,0.7424544435828924,0.9523290739014744
1684252354713862000,2.28986181640625,-2.3233476702541114,0.313845000141859,0.9184037156850099
1684252354723888000,2.29988818359375,-1.9215625208526848,-0.1255091246753931,0.882582460719347
1684252354733914000,2.3099140625,-1.1959580897837876,-0.5314554854094982,0.9499252276301383
1684252354743940000,2.319940185546875,0.062083823469281194,-0.6798509801536798,1.0859899408504365
1684252354753965000,2.329965087890625,1.1369406681478023,-0.5053057296305895,1.1611430892512202
1684252354763991000,2.339990966796875,1.5883002880573271,-0.43092765725553034,1.155572887903452
1684252354774017000,2.35001708984375,1.841703825109452,-0.5209872828871012,1.1420803691238164
1684252354784043000,2.36004296875,1.9500936188101767,-0.6239525673210621,1.2820230928212404
1684252354794069000,2.370069091796875,1.9970612678207456,-0.8433557812243699,1.452241127794981
1684252354804095000,2.380094970703125,2.0703438000440597,-1.2523229510843754,1.5284367709860205
1684252354814121000,2.390120849609375,2.1208682647533714,-1.806843670260906,1.4347256371095776
1684252354824147000,2.40014697265625,2.010071702171862,-2.492308398643136,1.0593266825914383
1684252354834173000,2.4101728515625,1.7346536094494163,-3.134475837090611,0.6999664242044091
1684252354844199000,2.420198974609375,1.5368893959023058,-3.8095606257557866,0.279972833417356
1684252354854225200,2.43022509765625,1.607517614224553,-4.581532840245962,-0.14227671960294247
1684252354864251100,2.440251220703125,2.011833305016905,-5.39059472220242,-0.45876258964240546
1684252354874277000,2.450277099609375,2.678295665156841,-6.100070440769195,-0.6508309296354651
1684252354884303000,2.46030322265625,3.7295351951435207,-6.564011309832334,-0.5972802489727735
1684252354894329000,2.4703291015625,5.262594949755072,-6.504933682441711,-0.26918840455263854
1684252354904355000,2.48035498046875,6.432663396000862,-5.507371674367785,0.06912643545717001
1684252354914381000,2.490381103515625,8.441023325818776,-3.8637691858053205,0.10823913318365812
1684252354924407000,2.500406982421875,10.291356593716143,-2.4750930599480867,-0.11359598404169081
1684252354934433000,2.51043310546875,9.03755772486031,-1.951771781155467,-0.9149392544448375
1684252354944459000,2.520458984375,9.309566155269742,-1.684139666134119,-1.943022949771583
1684252354954484000,2.53048388671875,11.372872896283864,-1.955634301802516,-2.614454768887162
1684252354964510000,2.540510009765625,9.40263373054564,-2.5795336776316162,-3.0481007451906796
1684252354974536000,2.550535888671875,1.9354478383421896,-2.4065853409111497,-3.7138854983299967
1684252354984562200,2.560562255859375,-3.947410176566243,-1.523480317622423,-3.0549376054733988
1684252354994588200,2.570588134765625,-6.065315353730321,0.3323340120345354,-2.067115485647321
1684252355004614100,2.5806142578125,-5.483150840824842,3.542172840884328,-1.9520599504470824
1684252355014640000,2.59064013671875,-4.301558545523882,8.624526374301313,-1.1027437995135783
1684252355024666000,2.600666015625,0.12494387374175711,17.72521713942289,1.7831848545148967
1684252355034692000,2.610692138671875,3.7470986166238784,26.917420067071912,6.5132771478950975
1684252355044718000,2.620718017578125,0.8921779720604419,28.09757911469936,9.168278446704148
1684252355054744000,2.630744140625,-1.996606363660097,22.953887023222446,9.599209026569127
1684252355064770000,2.64077001953125,-3.903223244315386,14.49441501752138,7.588955245828628
1684252355074796000,2.650796142578125,-5.798259577292203,7.974124191471934,5.168749960365891
1684252355084822000,2.660822021484375,-6.485589515024423,3.1643805614888665,3.9408810670584438
1684252355094848300,2.67084814453125,-6.666845076841115,-0.41198622542023655,3.980115053077042
1684252355104874200,2.680874267578125,-4.057449344909191,-3.0073996092289685,5.092458747845888
1684252355114900200,2.690900146484375,-0.25369535960555073,-4.6151925332635635,6.30888562516272
1684252355124925700,2.70092578125,-1.0127695140779018,-4.751115499925613,5.393247867059707
1684252355134952000,2.710951904296875,-2.083987709993124,-4.377221397012472,4.4305280397862195
1684252355144978000,2.72097802734375,-2.984242605525255,-3.7932027806729076,4.126787669551372
1684252355155003000,2.7310029296875,-3.8348715926229953,-2.832261068987846,3.9447313127458092
1684252355165028900,2.74102880859375,-4.050645510113239,-1.588641648840904,3.49004167163074
1684252355175054800,2.751054931640625,-3.9313235496401786,-0.46612347379922864,2.6477538118988275
1684252355185080800,2.761080810546875,-4.0239118169665336,0.253135387635231,1.9514944255188107
1684252355195106800,2.77110693359375,-3.967323083782196,0.741681121122837,1.65185418407917
1684252355205132800,2.7811328125,-3.6670927674949167,1.2671809129983187,1.6051000316888093
1684252355215158800,2.79115869140625,-3.5327684682011604,1.8916168799221516,1.6174106472074985
1684252355225184800,2.801184814453125,-3.3798774156033993,2.4729507872223855,1.4268646944761276
1684252355235210800,2.811210693359375,-3.684438162310421,2.587667884248495,0.945841465447843
1684252355245236700,2.82123681640625,-3.198409087818861,2.2226666973650455,0.26450696873813867
1684252355255262700,2.8312626953125,-2.317420910553634,1.309838735985756,-0.38668577994704245
1684252355265288700,2.841288818359375,-2.2461127471432087,0.2032254015624523,-0.806557205659151
1684252355275314700,2.851314697265625,-1.8114906192839144,-0.6262853941828012,-1.1047174376741051
1684252355285340700,2.861340576171875,-1.5366297220528125,-1.0577508115768433,-1.3391913794592023
1684252355295366700,2.87136669921875,-1.921431587949395,-1.2537047608315943,-1.3886732032477855
1684252355305392600,2.881392578125,-2.337057338915765,-1.4357511807650327,-1.0656582237005232
1684252355315418600,2.891418701171875,-2.922275686433911,-1.6750836684972046,-0.5159919588178395
1684252355325444600,2.901444580078125,-3.5874516600251196,-1.7964438567996024,-0.046453123617172236
1684252355335470600,2.911470703125,-4.042544036722183,-1.6272534113079309,0.41241701805293557
1684252355345496600,2.92149658203125,-4.02711704274863,-1.4030769916534422,0.8243442067623138
1684252355355521800,2.931521728515625,-3.693223234051466,-1.3688503124028444,1.0700783782303334
1684252355365547800,2.9415478515625,-3.4675825870633123,-1.5970079106479882,0.9470943881183862
1684252355375573800,2.95157373046875,-3.5416850573673844,-1.98533619710505,0.6743541363030672
1684252355385599500,2.961599609375,-3.5739693703785536,-2.296353280344605,0.5992869126200676
1684252355395625700,2.971625732421875,-3.135875182494521,-2.415216391134262,0.5507499684661626
1684252355405651700,2.981651611328125,-2.931662523460388,-2.362746199184656,0.3911848449319601
1684252355415677700,2.991677734375,-3.22602277867049,-2.2544424763321875,0.1805652414649725
1684252355425703700,3.00170361328125,-2.954867165698111,-2.129626010096073,0.020728315252065657
1684252355435729700,3.011729736328125,-2.3752178504839536,-1.8510826249599455,-0.17362229045927524
1684252355445755600,3.021755615234375,-2.203497009731829,-1.324984282669425,-0.43258769942224023
1684252355455781600,3.03178173828125,-2.28456727322191,-0.5347895982682704,-0.6688426794052124
1684252355465807600,3.0418076171875,-2.890173159730434,0.3182908736348152,-0.9141349523246288
1684252355475833600,3.05183349609375,-3.2581624225139616,1.0720552312612532,-1.2128554485708474
1684252355485859600,3.061859619140625,-3.306705504147708,1.6033821218550204,-1.3303595459669828
1684252355495885600,3.071885498046875,-3.6505429069712756,1.799423164871335,-1.2555413286089896
1684252355505911800,3.081911865234375,-3.897336816625297,1.7727303882569074,-1.1941507481008768
1684252355515937800,3.091937744140625,-3.226370569194853,1.6748177110373972,-1.2017255672693252
1684252355525963800,3.1019638671875,-2.6969489277005194,1.4727397259443997,-1.3020587496340275
1684252355535989800,3.11198974609375,-3.128533003038168,1.1720067208319902,-1.5533926408052443
1684252355546015700,3.122015625,-3.2268963466346263,0.9043822045952081,-1.6525959423571823
1684252355556040700,3.132040771484375,-2.5561481258690355,0.8246037344813346,-1.437548585575819
1684252355566066700,3.142066650390625,-1.9363307586565612,0.8467261344403028,-1.1227303564876316
1684252355576092700,3.1520927734375,-1.796295388239622,0.8085743907004594,-1.0812883390307426
1684252355586118700,3.16211865234375,-1.9672122191324828,0.6727355951905251,-1.2821861744284628
1684252355596144600,3.17214453125,-1.9290721658304333,0.44773207706213,-1.4340519756317138
1684252355606170600,3.182170654296875,-1.9020976496651767,0.09323124140501021,-1.6726748537898062
1684252355616196600,3.192196533203125,-1.9182436055630445,-0.2993944499850273,-1.944845196762681
1684252355626222600,3.20222265625,-1.876277856492996,-0.5434580578923225,-2.1386673946857453
1684252355636248800,3.212248779296875,-1.8556521248325704,-0.532214779344201,-2.448237786248326
1684252355646274800,3.22227490234375,-2.1665935124874114,-0.2925795092731714,-2.965476530256867
1684252355656300800,3.23230078125,-2.9644638460829853,-0.39675416949689385,-3.306735607025027
1684252355666326800,3.242326904296875,-3.7579052573204037,-1.1283294916689395,-3.080590517646074
1684252355676352800,3.252352783203125,-3.118164753758907,-1.9623095417827368,-2.8485926105856896
1684252355686378800,3.262378662109375,-2.1209949598729607,-2.5780881549984214,-3.1973142783194777
1684252355696404700,3.27240478515625,-1.9379931389108298,-2.8732418986737724,-4.269007106009125
1684252355706430700,3.2824306640625,-1.9831153061851858,-3.12407134745419,-4.535355610960722
1684252355716456700,3.292456787109375,-3.005682868438959,-3.493339544132352,-4.472740457093716
1684252355726482700,3.302482666015625,-3.929944370241463,-3.8912165801793335,-4.966499541315436
1684252355736508700,3.3125087890625,-4.469661488039791,-4.259515639564395,-5.360258036127687
1684252355746535000,3.322534912109375,-4.59434000710994,-4.546134194606542,-5.308727170854807
1684252355756559600,3.3325595703125,-4.464572932729125,-4.81389841157496,-4.712131397014856
1684252355766585900,3.3425859375,-4.0353453573897475,-5.1327060025602576,-4.073719511708617
1684252355776611800,3.35261181640625,-3.4792367844998835,-5.441109688431024,-3.440983333951235
1684252355786637800,3.362637939453125,-2.8124735417172313,-5.701701237291097,-2.9310259791225195
1684252355796663800,3.372663818359375,-2.2729066460445524,-5.8196285285353655,-2.3384207362234593
1684252355806689800,3.382689697265625,-1.363961809708923,-5.984633212774992,-1.0916676942259074
1684252355816715800,3.3927158203125,-0.4259432929717004,-5.77648262977004,1.1012775263532995
1684252355826741800,3.40274169921875,0.2904886014085263,-4.926706460109353,3.6234576239079237
1684252355836767700,3.412767822265625,1.9493314022660255,-2.9835622220456597,6.78759502429068
1684252355846793700,3.422793701171875,0.6837303058050572,0.9027145636439323,7.992745305311679
1684252355856819700,3.43281982421875,-4.23749845354557,9.119524060407281,7.543653045812249
1684252355866845700,3.442845703125,0.7531354120731353,22.484181599283218,12.108614105963706
1684252355876872000,3.452871826171875,3.4410639979720115,35.728666698336596,20.504034202992916
1684252355886898000,3.46289794921875,-3.4444057096153498,35.59178803838491,17.53524752527475
1684252355896924000,3.472923828125,15.375116486799715,20.497763452160356,2.71348972813487
1684252355906949600,3.48294970703125,33.38215267202854,2.881616928309202,-11.61576161519289
1684252355916975600,3.4929755859375,6.429138729006052,0.325298122048378,-8.912679883825778
1684252355927001600,3.503001708984375,-3.0605764881432056,0.9040326605051755,-6.545151126539706
1684252355937027600,3.513027587890625,-1.4309084169089794,1.0569260511904954,-8.559398360830546
1684252355947053600,3.523053466796875,-2.621366740232706,2.5662767211735247,-8.974684796839952
1684252355957079600,3.53307958984375,-3.72643109164834,4.28852546094954,-8.621497966390848
1684252355967104800,3.543104736328125,-5.388018734234572,5.855952472326159,-7.628509842103719
1684252355977130800,3.553130859375,-7.059425175523757,6.493177193674445,-6.263766380497813
1684252355987156700,3.56315673828125,-8.329673074877261,5.86315027487576,-5.055252760523557
1684252355997182700,3.5731826171875,-8.432855216932296,4.009479386988282,-3.9816634515628215
1684252356007208700,3.583208740234375,-7.622930580666661,1.9816911186009645,-2.9608932941198347
1684252356017234700,3.593234619140625,-6.511832209783792,0.2527478496223688,-1.6902625329285859
1684252356027260700,3.6032607421875,-5.436121378624439,-0.5863707324236631,-0.18462372307553887
1684252356037286700,3.61328662109375,-4.351868344569206,-0.6740063457787037,1.363321319848299
1684252356047312600,3.623312744140625,-3.126785282588005,-0.34074937368035313,2.646999194139242
1684252356057338600,3.633338623046875,-1.2890332638442517,0.3038818245321512,3.973149597978592
1684252356067364600,3.643364501953125,1.4987293227255343,1.1120242535561322,5.471996994125843
1684252356077390600,3.653390625,3.661892276242375,1.6215975775033236,6.53020665538609
1684252356087416600,3.66341650390625,5.159713251951336,1.5627175185114144,6.5681503093332045
1684252356097442600,3.673442626953125,4.950279643398523,1.0929174020260572,5.412587358301877
1684252356107468500,3.683468505859375,3.190163822042942,0.64601943770051,4.024544854173064
1684252356117494800,3.693494873046875,2.482282679191232,0.6012912381798029,2.9480054632350803
1684252356127520500,3.7035205078125,3.981095588546991,0.7201771453231572,1.8938354327544569
1684252356137546800,3.713546630859375,8.130032546064257,0.5471043054401874,0.6258253754556179
1684252356147572700,3.72357275390625,8.48836959888339,0.3043412587374449,0.09056216832622885
1684252356157598700,3.7335986328125,3.9513457624495025,0.46065936317443845,0.8549687698677182
1684252356167623700,3.743623779296875,0.8894033197153359,0.6742050832211971,1.7665075682193039
1684252356177649700,3.753649658203125,0.7999871796190738,0.4790823240935802,1.3144161269038914
1684252356187675600,3.763675537109375,0.8425017947435378,0.44202831246256824,0.729701198863238
1684252356197701600,3.77370166015625,0.48036242703199383,0.5447855071038007,0.21653218851163983
1684252356207727600,3.7837275390625,0.31062136192023754,0.39745501124262805,-0.3002383534632623
1684252356217753600,3.793753662109375,0.2964578120112419,0.07319850720167159,-0.5688723390035331
1684252356227779600,3.803779541015625,0.19824644410610198,-0.1958136640012264,-0.6261877790272236
1684252356237805600,3.8138056640625,-0.12403260411573573,-0.3823825297951698,-0.4513140272021293
1684252356247831600,3.82383154296875,-0.5571756175994873,-0.45139586026668543,0.012328297305852174
1684252356257857500,3.833857421875,-1.0709072302699087,-0.30170564953684803,0.7249880527362227
1684252356267883800,3.8438837890625,-1.5552408990204334,-0.11253156968057156,1.3455030468240379
1684252356277909800,3.85390966796875,-1.8944938966631888,0.020128011271357535,1.8119610132746398
1684252356287935700,3.863935791015625,-2.039735895812511,0.08638356746733188,2.061056916260719
1684252356297961700,3.873961669921875,-2.060441999232769,0.022628011393547056,2.0722405735760927
1684252356307987700,3.88398779296875,-1.9705460397303103,-0.08446165949404238,1.9525667309254406
1684252356318013700,3.894013671875,-1.8511200343608856,-0.22562837202847003,1.8306471551746129
1684252356328039700,3.904039794921875,-1.6991431739985943,-0.2832055317282677,1.7687902723290025
1684252356338065700,3.914065673828125,-1.4885644870638846,-0.3828273509532213,1.7221365115731952
1684252356348091600,3.924091552734375,-1.273935063433647,-0.6327326706260442,1.5982238623090088
1684252356358117600,3.93411767578125,-1.031713868522644,-0.9670967271834612,1.4132166928738354
1684252356368143600,3.9441435546875,-0.7567617858767509,-1.4301210659235715,1.0575453521326184
1684252356378168600,3.95416845703125,-0.5254162052452563,-1.9154829086780547,0.7151742224693298
1684252356388194600,3.964194580078125,-0.3532417755067348,-2.2402900323390957,0.4444447259545326
1684252356398220800,3.974220703125,-0.18405600619018075,-2.3469991794764993,0.4029319813489914
1684252356408246800,3.984246826171875,-0.060454797495342785,-2.363438273102045,0.4188102262213826
1684252356418272800,3.994272705078125,0.053882981356978416,-2.308358775436878,0.3766132987439632
1684252356428298800,4.004298828125,0.15846739142537117,-2.1465011570513246,0.43919133547097444
1684252356438324700,4.01432470703125,0.40223172412514685,-2.0035037219583987,0.6386258203178644
1684252356448350700,4.024350830078125,0.6044360390115529,-1.9181348844915627,0.740021371217072
1684252356458376700,4.034376708984375,0.7783687105942517,-1.7945055822134017,0.75394731297791
1684252356468402700,4.044402587890625,1.0197177988458423,-1.6835604049414394,0.6247168296918273
1684252356478428700,4.0544287109375,1.5246002615630625,-1.6262527098327875,0.4275330463811755
1684252356488454700,4.06445458984375,2.4158120189398526,-1.7000146961361169,0.10664075807631015
1684252356498480600,4.074480712890625,3.6597874129176136,-1.9613906733721493,-0.2925146273434162
1684252356508507000,4.0845068359375,5.087749839502573,-2.428623569718003,-0.647959173591435
1684252356518532900,4.094532958984375,6.3628703133285045,-3.113689069649577,-0.9009510611027479
1684252356528558800,4.104558837890625,6.976841584861278,-3.782228382194042,-0.8639560861825942
1684252356538584800,4.114584716796875,6.364506974619626,-4.220183746129274,-0.5020584182724356
1684252356548610600,4.124610595703125,4.753800208964944,-4.4920331865847105,-0.08287205221503972
1684252356558636500,4.134636474609375,3.0982348954081536,-4.8287610496640205,-0.012193711140751838
1684252356568662500,4.14466259765625,2.0455463356569408,-5.319949406614899,-0.11031506267488002
1684252356578687700,4.154687744140625,1.599402989090979,-6.032676820454001,-0.3456678331211209
1684252356588713700,4.164713623046875,1.8108165194146335,-6.852550019282102,-0.8215078142926097
1684252356598739700,4.17473974609375,2.8141490737140176,-7.723591679811477,-1.9660963668450713
1684252356608765700,4.184765625,2.3037862068243324,-7.548327467364072,-2.3665686800822616
1684252356618791700,4.194791748046875,0.9499475855924189,-6.376338866710663,-1.1147142232924698
1684252356628817700,4.204817626953125,0.4638274718165397,-5.11546786751151,0.1260141515880823
1684252356638843600,4.21484375,0.09118892192244529,-3.471100824317336,1.5690233406573533
1684252356648869600,4.22486962890625,-0.5245791698992252,-1.38377841694355,3.2686838165283203
1684252356658895600,4.2348955078125,-1.603340036278963,2.46591139010489,5.712603155055642
1684252356668921600,4.244921630859375,-2.7716052324950695,8.509152859193087,8.23821527288556
1684252356678947600,4.254947509765625,-5.119206469517946,16.262279261046647,10.505739349108934
1684252356688973600,4.2649736328125,-6.699539139696955,22.18657578628063,10.846602120035886
1684252356698999600,4.27499951171875,-5.95166267106533,23.04964807536602,9.408554352766275
1684252356709025500,4.285025634765625,-4.639891505712271,22.196655281746388,6.9866410943418735
1684252356719051500,4.295051513671875,-3.9901755515813826,18.928460125517844,3.9368922896832226
1684252356729077500,4.305077392578125,-3.8185540795505046,13.48591602036953,1.0795809505909681
1684252356739103700,4.315103759765625,-2.823031468349695,8.444958327180146,-1.0474281550049782
1684252356749129700,4.325129638671875,-1.5923814198911188,4.851468556034565,-3.254907220110297
1684252356759155700,4.33515576171875,0.3691898707449436,2.2735458207309245,-4.851019643223285
1684252356769181700,4.345181640625,2.5573826361000536,1.3576339218616484,-5.862644078919291
1684252356779207700,4.355207763671875,5.310709869104623,1.3847113138794898,-5.848319785490632
1684252356789233700,4.365233642578125,5.340744941884279,1.1590776811540127,-5.82618511057198
1684252356799258600,4.375258544921875,3.689045071583986,0.5287444728851318,-6.031340603414177
1684252356809284600,4.38528466796875,2.112863091343641,-0.19158523265123367,-6.298372998976707
1684252356819310600,4.395310546875,0.7632451565466821,-1.1676397577941418,-6.012253625628352
1684252356829336600,4.405336669921875,-0.45817368383854623,-2.1260873145759103,-5.260332850041985
1684252356839362600,4.415362548828125,-1.4087962460830807,-2.791713954544067,-4.494073752501607
1684252356849388500,4.425388427734375,-2.3792250402987003,-3.012286796748638,-3.9248195745736356
1684252356859414500,4.43541455078125,-3.2948902709305283,-2.913821746343374,-3.229410375282168
1684252356869440800,4.445440673828125,-3.6371409890845414,-2.4548259324669837,-2.644408593124151
1684252356879466800,4.455466796875,-2.2477271966025234,-1.5701631583422422,-1.9353677588433027
1684252356889492700,4.46549267578125,-0.7719871197983622,-0.7488871069788933,-1.4116922597855328
1684252356899518700,4.475518798828125,-1.2293868966549635,-0.3446902202606201,-0.8918290124922991
1684252356909544700,4.485544677734375,-3.086349811825156,-0.2460468906790018,-0.39084640675783155
1684252356919570700,4.49557080078125,-6.114635557216405,0.19293723178207872,-0.02779927655160427
1684252356929596700,4.5055966796875,-6.3263587380111215,0.8504016080826521,0.71998542214334
1684252356939622700,4.51562255859375,-3.7086718553349374,1.438598386889696,1.9608295323580502
1684252356949648600,4.525648681640625,-0.8099927330657839,2.093801247999072,4.021932041326165
1684252356959674600,4.535674560546875,0.28338030377328394,2.6030314575970173,5.891272207510471
1684252356969700600,4.54570068359375,-0.0021709142982959746,2.7516064005613323,5.504292997574806
1684252356979726800,4.555726806640625,-0.19939853675067423,2.257890570959449,2.860978629428148
1684252356989752800,4.5657529296875,-0.9737041626244782,1.4226467845201491,-0.21326047336459159
1684252356999777800,4.57577783203125,-2.276601993431151,0.7682680992752313,-2.402010288080573
1684252357009803800,4.5858037109375,-2.660889772325754,0.4441524650096893,-3.751187347242236
1684252357019829800,4.595829833984375,-2.1235043123453856,0.4594207612901926,-3.844190625110268
1684252357029855700,4.605855712890625,-2.008935683879256,0.4693190549701452,-3.165570063534379
1684252357039881700,4.6158818359375,-2.282121925896406,0.3944038069784641,-2.7666718677461146
1684252357049907700,4.62590771484375,-2.561718034955859,0.3406868298381567,-2.78329742385447
1684252357059933700,4.63593359375,-2.6947724604442715,0.32363866440355776,-3.3086142603784796
1684252357069959700,4.645959716796875,-2.91533127412349,0.2272293774843216,-3.738219729119539
1684252357079985700,4.655985595703125,-3.0692613143801686,-0.08030570885837078,-4.017361664670705
1684252357090011600,4.66601171875,-2.668137551496923,-0.6770820999622345,-4.086958347988128
1684252357100037600,4.67603759765625,-2.2939842131257056,-1.2672083855271339,-3.324681013560295
1684252357110063900,4.68606396484375,-2.8677535303905604,-1.3436708629608154,-1.6095494123131036
1684252357120089900,4.69608984375,-3.260483558937907,-0.8675807064205407,-0.28584698614776133
1684252357130116000,4.7061162109375,-2.763978098617494,-0.11173135921359062,-0.4113917666584253
1684252357140142000,4.71614208984375,-2.8220947720214724,0.8668710968464612,-1.3602484882742165
1684252357150168000,4.72616796875,-3.1013214632466433,1.633077587416768,-2.2615905945211647
1684252357160194000,4.736194091796875,-2.6468086400032043,1.9660487283110617,-2.9066683674573897
1684252357170219800,4.7462197265625,-2.2499054174244404,2.021045223867893,-3.466846089482307
1684252357180245800,4.756245849609375,-2.032957195457816,1.98652979080379,-3.992856753489375
1684252357190271700,4.766271728515625,-1.0968179165959357,1.8528245001912116,-4.241809887003899
1684252357200297700,4.776297607421875,0.05303571687787771,1.5511580136209726,-4.166184444916248
1684252357210323000,4.786322998046875,0.3849951965115964,1.4579302793473004,-4.131484302935004
1684252357220349000,4.796348876953125,-0.030755057617276906,1.5224591578811406,-3.834047416758537
1684252357230375000,4.806375,-0.8045956963278352,1.625927131140232,-3.451594744336605
1684252357240401200,4.816401123046875,-1.385059688925743,1.6974825473099946,-3.010440876621008
1684252357250427000,4.826427001953125,-1.7755356549359858,1.7896113804310558,-2.4497856002122163
1684252357260452900,4.836452880859375,-2.0196341880261897,1.8424276093393563,-1.9763602789670227
1684252357270478800,4.846478759765625,-2.1236767463028428,1.6776713469028472,-1.3666548481851815
1684252357280504800,4.8565048828125,-3.0719150437593457,1.3644582149237394,-0.37788755646348
1684252357290530800,4.86653076171875,-4.506584274506569,0.7876572748780251,0.6413596291959285
1684252357300556800,4.876556884765625,-4.321774819600582,-0.04534545463621616,1.5827718800246715
1684252357310582800,4.886582763671875,-2.4092215346336365,-0.8532669343858956,2.7577584934502837
1684252357320608800,4.89660888671875,-0.22996673002634196,-1.5109212803006171,3.6086399940043687
1684252357330634800,4.906634765625,2.19132638720572,-1.817345775052905,4.261568480440974
1684252357340660700,4.91666064453125,4.035245111885667,-1.5087380910426378,4.889785134947299
1684252357350687000,4.92668701171875,3.577737490740418,-0.719897743859887,6.031968964445591
1684252357360713000,4.936712890625,1.0195733488738536,-0.3946346931248903,5.15506338031888
1684252357370739000,4.946739013671875,-1.6276082160949705,-0.2610650115907192,3.6928707673519847
1684252357380765000,4.956764892578125,-1.7356500731408595,-0.6097972007185221,2.042694161096215
1684252357390791000,4.966791015625,-0.2181564287126064,-1.6703338436216115,-0.3136597067028284
1684252357400817000,4.97681689453125,0.55467152582407,-3.074303400200605,-2.116727950078249
1684252357410843000,4.9868427734375,0.2785410470485687,-4.511149390465021,-2.738908247029781
1684252357420867800,4.996867919921875,0.26725042222738266,-5.629718535619974,-2.846623940861225
1684252357430893800,5.006893798828125,8.295874850171804,-4.795632102522254,-3.0926819374561307
1684252357440919800,5.016919921875,28.350452636528015,2.5258804133772847,-0.7378712074458599
1684252357450945800,5.02694580078125,-0.4498352598864585,5.8458647935539485,6.823630798789859
1684252357460971800,5.0369716796875,-16.956622292411325,4.315280196884275,7.864283760571479
1684252357470997800,5.046997802734375,-14.141059844768046,5.269889198416471,7.76012195982933
1684252357481024000,5.05702392578125,-11.641081934410334,4.509520912480354,5.955441605082154
1684252357491050000,5.067050048828125,-7.590471495610475,2.4449825838446615,2.451749886022508
1684252357501076000,5.077075927734375,-5.053574013656378,0.4268459408998489,0.8976175327658653
1684252357511102000,5.08710205078125,-2.5175220426157114,-1.4448171152740716,2.087367415559292
1684252357521128000,5.0971279296875,-0.17785466733202338,-1.7929314647644756,3.0166324247375127
1684252357531154000,5.10715380859375,0.7122352464079856,-1.6062293279796838,2.6520453716129064
1684252357541180000,5.117179931640625,0.23504458127990363,-1.6125737285703419,1.8777189952120183
1684252357551206000,5.127205810546875,-1.590435108128935,-1.6045722084224223,0.7268409871265292
1684252357561232000,5.13723193359375,-3.4009915153026578,-1.5630565412074326,0.899820595768094
1684252357571257900,5.1472578125,-4.613948086160421,-1.424959737637639,1.1395564036041497
1684252357581284000,5.1572841796875,-4.192266980677843,-1.1807207731634377,-0.16155717413425444
1684252357591310000,5.16731005859375,-2.7234932357549666,-0.4902735801935196,-1.5962369262754916
1684252357601336000,5.177336181640625,0.5762602938303724,1.304668639871478,-2.351832006460428
1684252357611362000,5.187362060546875,13.6000345669806,4.669529103606939,-5.306756163042784
1684252357621387000,5.197386962890625,26.498890703618525,9.510412552741169,-9.197466547265648
1684252357631413000,5.2074130859375,12.965939375829695,11.739051310253142,-5.7962318708568805
1684252357641439000,5.21743896484375,1.217871888493374,9.949065251290797,-2.452057636797428
1684252357651465000,5.22746484375,-3.065554861077666,4.15773342743516,-2.1956138552665707
1684252357661491000,5.237490966796875,-0.5195229824882001,0.08053951761424541,-2.065001269972324
1684252357671517000,5.247516845703125,2.954035683310032,-2.0477304016977547,-1.340167238754034
1684252357681543000,5.25754296875,5.338894345581531,-3.204070766842365,0.39721769535541535
1684252357691569000,5.26756884765625,5.242368154284358,-3.3010388566881415,2.5512749668747183
1684252357701595000,5.277594970703125,3.6251375398188825,-2.946800471359491,4.541764601220191
1684252357711621000,5.28762109375,2.093836903834343,-2.8002047195136544,5.789867012000084
1684252357721647000,5.297647216796875,0.954838134112954,-2.9052058936893936,6.159020642387866
1684252357731673000,5.307673095703125,0.08374213131414726,-2.826404159653187,5.745962403821945
1684252357741699000,5.317698974609375,-0.5174356548201292,-2.5109832884967327,4.803093816705048
1684252357751725000,5.32772509765625,-0.9506640632987022,-2.020691588124633,3.841123346494138
1684252357761751000,5.3377509765625,-1.0698503416281193,-1.7248071920871733,2.9010584186211226
1684252357771777000,5.347777099609375,-0.8726187005877495,-1.5751163968354462,2.1090806501954793
1684252357781803000,5.357802978515625,-0.18543905804641544,-1.3959656983435154,1.3554817122638225
1684252357791829000,5.3678291015625,0.8659580736547708,-0.908136588692665,0.7381085233330726
1684252357801855000,5.37785498046875,1.8955057040542362,-0.3303501447409391,0.12000146716982125
1684252357811880700,5.387880615234375,2.7517314882457256,0.1480301685631275,-0.5733972690820693
1684252357821907000,5.397906982421875,3.421953639310598,0.45370589077472684,-1.4423463412463664
1684252357831932000,5.407931884765625,3.462404307642579,0.789427207159996,-2.0321073006302117
1684252357841958100,5.417958251953125,2.9840222407728434,1.167719252771139,-2.2232161479413506
1684252357851984100,5.427984130859375,2.335832473295927,1.524161285623908,-2.020440828233957
1684252357862010000,5.438010009765625,1.820464929986745,1.8225170402109623,-1.8895611164361237
1684252357872036000,5.4480361328125,1.3809505000412463,2.154606137573719,-1.6413368817180394
1684252357882062000,5.45806201171875,1.0669319699633866,2.4555296968221665,-1.3332844935029744
1684252357892088000,5.468088134765625,0.8937668486870824,2.605363699936867,-1.1716326268225907
1684252357902113800,5.47811376953125,0.9056079469978808,2.6766525741249323,-1.2388228335201739
1684252357912139800,5.488139892578125,0.9118775287866592,2.643147779408097,-1.412553845050931
1684252357922165800,5.498165771484375,0.9517129878297448,2.433752749300003,-1.499285495303571
1684252357932191700,5.508191650390625,1.1997552901096642,1.9615660299390554,-1.6369477068483829
1684252357942217700,5.5182177734375,1.5919022580720483,1.231176118159294,-1.800838584627211
1684252357952244000,5.528243896484375,2.065282571131736,0.23881343229413032,-1.9767586306348441
1684252357962270000,5.53827001953125,2.526810972225666,-0.9208376648336648,-2.1756460029929876
1684252357972296000,5.5482958984375,2.8598335510462523,-1.97082661023736,-2.2878876498162746
1684252357982322000,5.558322021484375,3.0695769562005997,-2.6253081713348627,-2.226949489250779
1684252357992348000,5.568347900390625,3.4709669688045977,-2.9257816487282513,-2.0184984619945285
1684252358002374000,5.578373779296875,4.140924915975332,-2.94820215485096,-1.6592039623200892
1684252358012399900,5.58839990234375,5.067933962920308,-2.8469495195537804,-1.0882318745583295
1684252358022425900,5.59842578125,5.137608387649059,-2.374391628792882,-0.17724281904399394
1684252358032451800,5.608451904296875,3.589410977399349,-1.539098157992959,0.5271224246412516
1684252358042477800,5.618477783203125,2.6788041992008687,-1.5219395179212092,0.6684747228756547
1684252358052502800,5.628502685546875,4.359713212850689,-2.9089737217903138,0.4101508266866207
1684252358062528800,5.63852880859375,7.3331807418614625,-4.776307224327326,-0.533078410436213
1684252358072554800,5.6485546875,8.62884131489098,-6.07182634305954,-2.7950182567864656
1684252358082581000,5.6585810546875,6.967524305939674,-6.421239500188827,-4.15051458209753
1684252358092607000,5.66860693359375,3.223067728257179,-6.4927966699242585,-3.794371239930391
1684252358102633000,5.678633056640625,0.3955985697209835,-7.201110943496227,-3.51028687954098
1684252358112659000,5.688658935546875,-1.7095160994529723,-7.795508915030956,-3.40740372043252
1684252358122685000,5.698684814453125,-2.28735456585288,-6.627472266873717,-2.700421864508092
1684252358132711000,5.7087109375,-0.36507838030550627,-2.5894559367090464,-1.6572303241595625
1684252358142737000,5.71873681640625,2.6670716758310795,2.732106750321388,-0.6296478563532233
1684252358152763000,5.728762939453125,4.382420134699345,9.116907155907153,1.17758364418149
1684252358162788900,5.738788818359375,0.18053543084859847,14.811585947215557,4.62338811467886
1684252358172814800,5.74881494140625,-0.6907318551301955,20.34010854616165,8.101171193239093
1684252358182840800,5.7588408203125,-2.362867925868183,24.49882981559038,10.104258151090145
1684252358192867000,5.7688671875,-6.458614998859167,24.345105234777925,10.916928286671638
1684252358202893000,5.77889306640625,-9.079723380416631,17.617842806375027,9.171060186377167
1684252358212919000,5.7889189453125,-9.758834940379858,10.389175162911414,7.442159002974629
1684252358222945000,5.798945068359375,-9.490807104039192,5.2298377585351465,7.298940034085512
1684252358232971000,5.808970947265625,-9.382541959631443,1.6251444563299418,7.6774781634122125
1684252358242997000,5.8189970703125,-8.691209215998649,-0.6373883874773979,7.86696788508892
1684252358253023000,5.82902294921875,-6.872699657863378,-1.9138649520874023,7.927477591109275
1684252358263048000,5.8390478515625,-3.913917949070036,-2.2299796507269143,7.959473734828829
1684252358273074000,5.849073974609375,-0.5237000489771366,-1.923088122984767,7.553526789572834
1684252358283100000,5.859099853515625,0.5609095434308051,-0.9560136076331138,6.866994724220037
1684252358293126000,5.8691259765625,-0.9719549808695912,0.5863105266690254,5.557030900549888
1684252358303151900,5.87915185546875,-2.930839808900654,2.3154525330901143,4.114885927094519
1684252358313177900,5.889177734375,-4.704102112077177,3.516761336252093,2.6969769847512244
1684252358323204000,5.8992041015625,-5.886838024455309,3.981170407348871,1.3616869966447354
1684252358333230000,5.90922998046875,-5.576003312045335,3.916818638947606,0.1705260780096054
1684252358343256000,5.919256103515625,-3.7615819000065325,3.222933288222551,-0.529945080846548
1684252358353282000,5.929281982421875,-1.8904738473668694,1.8426321920007467,-0.7684984008997678
1684252358363308000,5.93930810546875,-0.6750713446617126,0.11251169593632221,-0.6163900231122971
1684252358373334000,5.949333984375,-1.3605825425341724,-1.341636726784706,-0.38778000492453574
1684252358383360000,5.959360107421875,-3.0449954726517197,-2.2119085719853637,-0.8957944089919329
1684252358393386000,5.969385986328125,-3.797862296916544,-2.736079161083698,-1.9822230335205793
1684252358403412000,5.979411865234375,-3.572109421725571,-3.0590000326067206,-2.7096453276664016
1684252358413438000,5.98943798828125,-3.059868632134795,-3.149512078180909,-2.8791613518506285
1684252358423464000,5.9994638671875,-2.269184118390083,-3.0743986772686243,-2.7959166669309137
1684252358433490000,6.009489990234375,-1.5727955526724458,-2.9666134253323078,-2.4203964241206646
1684252358443516000,6.019515869140625,-1.4991545624002813,-2.7766104934364555,-1.9929943106427788
1684252358453542000,6.0295419921875,-1.183407820290327,-2.4863176337957382,-1.5670897422462702
1684252358463568000,6.03956787109375,-0.6022770343467593,-2.1296330243587493,-1.0863038291051983
1684252358473593000,6.049593017578125,-0.2900114123508334,-1.6987451145917176,-1.045039214041829
1684252358483619000,6.059619140625,-0.23676526759266853,-1.2551596358150243,-1.3280682201594114
1684252358493645000,6.06964501953125,-0.39850685838311906,-0.9483733220130205,-1.6628128004670142
1684252358503671000,6.079671142578125,-0.4717322535917163,-0.717693511813879,-1.9693103604555129
1684252358513697000,6.089697021484375,-0.028518530736863612,-0.34000527731478214,-2.0389058747291564
1684252358523723000,6.099722900390625,0.4277119100794196,0.19628361960053442,-1.8241817585527895
1684252358533749000,6.1097490234375,0.13228051850646733,0.6733703859627247,-1.4278776709109544
1684252358543774700,6.119774658203125,-0.1477978211119771,0.921372502362728,-0.9882342077583074
1684252358553800700,6.12980078125,-0.30614918494224547,0.8534908062696457,-0.6404729094892739
1684252358563827000,6.139826904296875,-1.110881513261795,0.5709662425428629,-0.6645487816035747
1684252358573853000,6.14985302734375,-2.051713626115024,0.23496727825999258,-0.9944050053477287
1684252358583879000,6.15987890625,-2.4711364312767983,0.07221475686132907,-0.911941241672635
1684252358593905000,6.16990478515625,-2.6342490181595086,0.10566636008620262,-0.5626373901367188
1684252358603931000,6.179930908203125,-2.6066838426247236,0.22457214097380637,-0.39194530791044235
1684252358613956900,6.189956787109375,-2.514576636813581,0.31876725897490976,-0.13421616274416445
1684252358623982800,6.19998291015625,-2.6476842537939547,0.31005729829669,0.07730769608616829
1684252358634008800,6.2100087890625,-2.8272514241322875,0.15153437729179858,0.08844049999713897
1684252358644034800,6.220034912109375,-2.949715774284303,-0.17367022125422954,-0.27148820592761036
1684252358654060800,6.230060791015625,-3.036484541676938,-0.5276888263523578,-0.8485586105644702
1684252358664086800,6.240086669921875,-3.228509627050161,-0.7803396453410386,-1.577263345736265
1684252358674113000,6.250113037109375,-3.420297396536171,-0.9700316115915775,-2.380740121036768
1684252358684137700,6.2601376953125,-3.741982004262507,-1.0981780990332364,-3.1685102086395025
1684252358694164000,6.2701640625,-4.084665560875833,-1.1076076061576605,-3.8171360294461247
1684252358704190000,6.28018994140625,-4.306178898800909,-1.0555869115412235,-4.349250855547189
1684252358714216000,6.2902158203125,-4.30534741641283,-1.0514578489124775,-4.86069055788815
1684252358724242000,6.300241943359375,-4.051389314217865,-1.2021277183294297,-5.3479339766055345
1684252358734268000,6.310267822265625,-3.8296003742218017,-1.5327823989748954,-5.6824424100697035
1684252358744294000,6.3202939453125,-3.438746368679404,-2.000041598805785,-5.948266598886251
1684252358754320000,6.33031982421875,-3.0416753883183,-2.4415415034800767,-6.0103632818371056
1684252358764345900,6.340345947265625,-2.5436282515138386,-2.780965181514621,-5.950971766191721
1684252358774371800,6.350371826171875,-2.2050318180836737,-3.060135174116492,-5.623357768416405
1684252358784397800,6.360397705078125,-2.0614545372761786,-3.1188299396693706,-4.8367824435561895
1684252358794423800,6.370423828125,-2.5345830675318837,-2.7647973060458897,-3.7431466641277074
1684252358804450000,6.380449951171875,-3.026766572999954,-2.128346491679549,-2.953312629732489
1684252358814476000,6.39047607421875,-2.910710920846462,-1.453333599206805,-2.6519109315782785
1684252358824502000,6.400501953125,-2.418037293773889,-0.8456804247796536,-2.611985163903236
1684252358834528000,6.410528076171875,-1.8031961075387894,-0.31977848184406754,-2.699478738439083
1684252358844554000,6.420553955078125,-1.0388554108403623,0.233140647354722,-2.796833781775832
1684252358854580000,6.430580078125,0.20094342810511587,0.816935976332426,-2.505608025199175
1684252358864606000,6.44060595703125,1.0676420179288835,1.2407558474093674,-1.552893459111452
1684252358874632000,6.4506318359375,1.3285901982069015,1.0856430271089077,-0.38666415263712406
1684252358884657000,6.460656982421875,1.3912731566131114,0.5161678999066353,1.0001116925567388
1684252358894683000,6.470682861328125,0.7901379857778549,0.3062397858351469,2.5115970364809033
1684252358904708900,6.480708984375,0.17713234440684317,0.023501287096738814,3.3371693237334488
1684252358914734800,6.49073486328125,-0.7485340557575225,0.5573515586882829,3.9936560871735214
1684252358924760800,6.5007607421875,5.380227057445049,6.670002079567313,7.815073447200655
1684252358934787000,6.510787109375,31.662117516648767,24.428551579749584,24.340160179591177
1684252358944813000,6.52081298828125,-7.620500723171234,24.574656333208083,17.280073325288296
1684252358954839000,6.530839111328125,-8.673235167890786,20.65242560608387,10.923547412550448
1684252358964865000,6.540864990234375,3.284918327492475,9.62630220067799,1.89975108653903
1684252358974891000,6.55089111328125,8.379903963467479,-0.30418519139289857,-4.961249365702272
1684252358984917000,6.5609169921875,-1.2901048385985194,-0.4209253186792135,-3.2211762154221533
1684252358994943000,6.57094287109375,-2.2110084082752466,-0.7941250095874071,-3.9961306605935096
1684252359004969000,6.580968994140625,-1.214935761976242,-0.4998270059585571,-4.78364648117423
1684252359014995000,6.590994873046875,-1.0494370836745948,0.408887674883008,-5.463101155486703
1684252359025021000,6.60102099609375,-0.9115157097369432,1.2276894450873135,-6.567235532575845
1684252359035047000,6.611046875,-0.38447628720402716,1.869282298517227,-6.750138277077674
1684252359045073200,6.6210732421875,-0.46980128552913664,2.388603109496832,-5.955426407513022
1684252359055099100,6.63109912109375,-0.9294622853159904,2.5280478205442427,-5.114229265627265
1684252359065124900,6.641124755859375,-1.193795943313837,2.3294500787824393,-4.1917672144621605
1684252359075150800,6.65115087890625,-1.0859680212795735,1.489787306857109,-3.376585972842574
1684252359085176800,6.6611767578125,-0.7177963876664638,0.6305185017079115,-2.674032162493467
1684252359095202800,6.671202880859375,-0.5355401974398643,0.1565139192700386,-1.88309688885808
1684252359105228000,6.68122802734375,-0.9806231482326984,0.09912672918438911,-0.7984493025273084
1684252359115254000,6.69125390625,-1.4543793088674544,0.3217652717471123,0.40829964586198325
1684252359125279700,6.70127978515625,-1.6082044274449347,0.481296493011713,1.4824550642728804
1684252359135305700,6.7113056640625,-1.5042928020715713,0.4816103812664747,2.031990980774164
1684252359145331700,6.721331787109375,-1.209590893816948,0.3183358818203211,2.343919333639741
1684252359155357700,6.731357666015625,-0.8772773400485515,-0.15163608410060406,2.5401450855731964
1684252359165383700,6.7413837890625,-0.5339759437978268,-0.9501070139378309,2.442016719776392
1684252359175410000,6.751409912109375,-0.12198621124625206,-1.85530813370049,2.213359063054621
1684252359185435600,6.761435546875,0.220344878667593,-2.533472768202424,2.0403905603289605
1684252359195461600,6.771461669921875,0.23984569795131683,-2.93412102252841,2.0078607481241226
1684252359205487600,6.781487548828125,-0.0643231268286705,-3.1026661558538673,2.1772090145260092
1684252359215513600,6.791513671875,-0.2778513112187385,-3.1261446465969085,2.3202423977151514
1684252359225539600,6.80153955078125,-0.2187433069561608,-3.1081361116975543,2.2074942626744507
1684252359235565600,6.811565673828125,0.0683013828098774,-2.9740158105432983,1.9011442944630979
1684252359245591600,6.821591552734375,0.47939913495779035,-2.747536374643445,1.3781024171337484
1684252359255617500,6.831617431640625,0.8395178104966878,-2.36561035644412,0.8654349265635013
1684252359265643500,6.8416435546875,1.0519424175590275,-1.8461890076994896,0.35748949607908725
1684252359275669500,6.85166943359375,1.1478753191381692,-1.3395850549519062,0.11287994472682475
1684252359285695700,6.86169580078125,1.0358791715085507,-0.8230857311338186,0.14817951390594244
1684252359295721700,6.8717216796875,0.7761229044288397,-0.43921968478262424,0.22083061635792253
1684252359305747700,6.881747802734375,0.5187543727358803,-0.21609832713901994,0.4593792602360248
1684252359315772700,6.891772705078125,0.4257979662168771,-0.17884966971874236,0.9593573651030659
1684252359325798700,6.901798583984375,0.45514498366713524,-0.47347325204014773,1.202334054556489
1684252359335824600,6.91182470703125,0.5844049853086472,-0.8988368454277514,1.4291566048055886
1684252359345850600,6.9218505859375,0.6118986299771815,-1.4029337837904692,1.903456955319643
1684252359355876600,6.931876708984375,0.6232277601778506,-1.8107453538745641,2.4347733245193957
1684252359365902600,6.941902587890625,0.699894308816269,-1.98173671130836,2.843558415810764
1684252359375928600,6.951928466796875,0.8653438142139465,-2.0047943462908266,3.146371149806678
1684252359385954600,6.96195458984375,0.8234493768144399,-1.9643115292549131,3.375304993121326
1684252359395980500,6.97198046875,0.6729547908991574,-1.833241263321042,3.450380400110781
1684252359406006500,6.982006591796875,0.8750584949553012,-1.672735059544444,3.454591588065028
1684252359416032800,6.99203271484375,1.2922528104126452,-1.56205467068851,3.128653706808388
1684252359426058800,7.002058837890625,1.635425611847639,-1.4644067818850277,2.776741426339745
1684252359436084700,7.012084716796875,1.7017331904917954,-1.461625626733899,2.559258074583113
1684252359446110700,7.02211083984375,1.493446413886547,-1.5229893192350863,2.576649646627903
1684252359456136700,7.03213671875,1.0959247671484946,-1.647708170315623,2.6610730199381707
1684252359466162700,7.04216259765625,0.5443324661066755,-1.8783540782451629,2.6513386846482754
1684252359476188700,7.052188720703125,-0.19354221193790436,-2.052393717333674,2.668204479253292
1684252359486214700,7.062214599609375,-1.0834347034096716,-2.0138655414968727,2.8312872555196282
1684252359496240600,7.07224072265625,-1.9420377381265161,-1.6258534813821315,3.169187669509649
1684252359506266600,7.0822666015625,-2.558295659291744,-0.9992518608570098,3.3155843916520475
1684252359516292600,7.092292724609375,-2.831925553423166,-0.17105682388544083,3.1842876234859228
1684252359526317600,7.102317626953125,-2.887563854014873,0.6806044288694858,2.998475129017234
1684252359536343600,7.112343505859375,-2.9533330879986286,1.5822370424956083,2.8043288137063382
1684252359546369800,7.122369873046875,-2.883704255977273,2.610275437375903,2.629470259450376
1684252359556395800,7.132395751953125,-2.489214524281025,3.560962881550193,2.4362147554993627
1684252359566421800,7.142421875,-2.24559807561934,3.9990456712573765,1.8505694147408007
1684252359576447700,7.15244775390625,-2.4763328308761117,3.93680402687788,0.8404992227494716
1684252359586473700,7.1624736328125,-2.7730302968621254,3.5267677664816377,-0.016437924581766128
1684252359596499700,7.172499755859375,-3.231121270853281,3.2582395794034,-0.3195020029902458
1684252359606525700,7.182525634765625,-3.848021873836219,3.0386563327580687,-0.38616380189955235
1684252359616551700,7.1925517578125,-4.375066849327087,2.944879732429981,-0.2653700153082609
1684252359626577700,7.20257763671875,-4.804578210043907,3.126870622783899,-0.021639584878087044
1684252359636603600,7.212603759765625,-4.176067541027069,3.6998031969636678,-0.3013759791910648
1684252359646629600,7.222629638671875,-3.5548555045858024,4.2548207597464325,-0.9152320999115705
1684252359656656000,7.23265576171875,-3.837126678073406,4.064344949641823,-1.223600714468956
1684252359666681900,7.242681884765625,-5.04709868016243,2.7794448400795457,-0.7114204228937625
1684252359676707800,7.252707763671875,-6.224777016890049,1.364969671577215,0.2509919458657503
1684252359686733800,7.26273388671875,-6.930203752326965,0.8036819424837828,0.73954936979115
1684252359696759800,7.272759765625,-6.91083620403409,0.2417904022783041,0.8059206613212824
1684252359706785800,7.282785888671875,-5.927594982257485,-0.4486310717284679,0.45048049898743625
1684252359716811800,7.292811767578125,-5.054323370718956,-0.9940917016148567,0.14863105706572532
1684252359726837800,7.302837646484375,-4.376766346721351,-1.424364694353938,-0.14138707728683947
1684252359736863500,7.312863525390625,-3.38012729871124,-1.7725369115114211,-0.3924403979510069
1684252359746888700,7.322888671875,-2.0796447123527524,-1.866488868406415,-0.5724801542371512
1684252359756914700,7.332914794921875,-1.2647186145380138,-1.529060748103261,-0.6918290027171373
1684252359766940700,7.342940673828125,-1.7446520025029777,-0.7564590035378933,-0.675141487288475
1684252359776966700,7.352966552734375,-2.899614357292652,0.16448212167024612,-0.5726549262821674
1684252359786993000,7.362992919921875,-3.855305308842659,0.9173118287950753,-0.5140887555450201
1684252359797019000,7.373018798828125,-4.32284098752737,1.4170622623860836,-0.4568880279421806
1684252359807044900,7.383044921875,-4.3896752203941345,1.6358102272510529,-0.4461941999703645
1684252359817070800,7.39307080078125,-4.221146161420643,1.643652172923088,-0.5422983664631843
1684252359827096600,7.4030966796875,-3.9446524022907017,1.5743752230793238,-0.6808505125850439
1684252359837122600,7.41312255859375,-3.776334355719387,1.5048796620488165,-0.9589134207278489
1684252359847148500,7.4231484375,-3.6895547746717927,1.383321320825815,-1.4783318468630313
1684252359857174500,7.433174560546875,-3.5558608822360633,1.0696358951598406,-2.1405518932580945
1684252359867200500,7.443200439453125,-3.471356260383129,0.7420452782601118,-2.767741542804241
1684252359877226500,7.4532265625,-3.3555832245633006,0.39778000541329384,-3.3093583567440508
1684252359887252500,7.46325244140625,-3.1414670111522076,0.04625263260900974,-3.645469549229741
1684252359897278700,7.47327880859375,-2.880867278985679,-0.23876550149917602,-3.7912376180797813
1684252359907304700,7.4833046875,-2.6722356344655154,-0.3615992694854736,-3.823551157185435
1684252359917330700,7.49333056640625,-2.530438515073061,-0.2759264806360006,-3.7760657679110765
1684252359927356700,7.503356689453125,-2.4987436923876403,-0.048127194309234615,-3.531237605372071
1684252359937382700,7.513382568359375,-2.5215432609558106,0.21769699450731275,-3.1302345462590453
1684252359947407600,7.52340771484375,-2.6161700483724473,0.43342298120260236,-2.587534613257646
1684252359957433600,7.53343359375,-2.7194319776654243,0.516367806392908,-2.089468187230825
1684252359967459600,7.54345947265625,-2.70617005277127,0.36800679844021794,-1.624931105840206
1684252359977485600,7.553485595703125,-2.684560570770502,0.290523161265254,-1.1356266629397869
1684252359987511600,7.563511474609375,-2.6651918534338472,0.3279775703907013,-0.6491016216248273
1684252359997537500,7.57353759765625,-2.680020296992361,0.6102987204998731,-0.22892098383307455
1684252360007563500,7.5835634765625,-2.7065388860836626,1.0161059650242328,0.06898410437703133
1684252360017589500,7.593589599609375,-2.598686414130032,1.460242063421011,0.2976426378816366
1684252360027615700,7.60361572265625,-2.3562404705524442,1.806002543261647,0.4583423184037208
1684252360037641700,7.613641845703125,-2.0495289755523203,2.1549615268826483,0.4540694633901119
1684252360047667700,7.623667724609375,-1.6050700749419629,2.5572411818027496,0.1599246044963598
1684252360057693700,7.633693603515625,-0.863801772403717,2.9756624087065457,-0.34187750092744823
1684252360067719700,7.6437197265625,0.02251103395037353,3.2839328235864635,-0.9586036241263151
1684252360077745700,7.65374560546875,0.6478852315723895,3.4311528448104855,-1.6107967820256948
1684252360087771600,7.663771728515625,1.0290063631296158,3.4808816290974613,-2.093388575544953
1684252360097797600,7.673797607421875,1.2156792738199234,3.3441485150963066,-2.4222405906826254
1684252360107823600,7.68382373046875,1.3052397177577018,2.854124525749683,-2.417240590438247
1684252360117849600,7.693849609375,1.3206418695509432,2.2507968133062124,-2.2066969748169183
1684252360127876400,7.70387646484375,1.2022205842446536,1.8458061458617447,-2.1521955693006514
1684252360137902300,7.71390234375,1.0631833580195904,1.8510376167744398,-2.1617758830726146
1684252360147928300,7.72392822265625,1.2303227162003516,2.2126789718359707,-1.7715695277839898
1684252360157954300,7.733954345703125,1.2200731248646974,1.9672955135017631,-1.0737275483876465
1684252360167979300,7.743979248046875,0.3344201706588268,1.1641373026311397,-1.1114619434982538
1684252360178005200,7.754005126953125,-0.49804070706367487,0.2508738724440336,-1.3541121774762868
1684252360188031200,7.76403125,-0.3612204627683386,-0.7391343592494726,-1.2172908006697893
1684252360198057200,7.77405712890625,0.09770984812378883,-1.6316782420128584,-1.0454296746641396
1684252360208083200,7.784083251953125,0.41148704372644423,-1.9086738131850958,-0.7229305356845259
1684252360218109200,7.794109130859375,0.8392945231348276,-1.2363672570616007,0.300789995996654
1684252360228135200,7.80413525390625,0.9662766429722308,-0.3914198227316141,1.670230383247137
1684252360238161200,7.8141611328125,0.8040197230707854,0.06993687505722046,2.8885283151328562
1684252360248187100,7.824187255859375,0.5347206977505237,0.19850363373756408,3.844351953151822
1684252360258213400,7.83421337890625,0.33108898040950296,0.12333002707064152,4.516169556714594
1684252360268239400,7.8442392578125,0.444906498247385,-0.283372704988718,4.864175477394461
1684252360278265300,7.854265380859375,1.025710901780799,-1.0585025067269802,4.811729835364222
1684252360288291300,7.864291259765625,2.114310367542505,-1.9541022699296473,4.405430131147802
1684252360298317300,7.8743173828125,3.5270541822075843,-2.720439693403244,3.906502704377472
1684252360308343300,7.88434326171875,4.888290512475371,-3.1366128491193055,3.5798338784977792
1684252360318369000,7.894369140625,5.9864943304717535,-2.881279659178853,3.51237537625283
1684252360328395000,7.90439501953125,6.183097683545947,-2.0137679263412953,3.401720414099097
1684252360338421000,7.9144208984375,4.869185414510965,-1.0535188730955123,3.1305484345138073
1684252360348447000,7.924447021484375,2.663652222776413,-0.5392746347278357,2.951160712395608
1684252360358473000,7.934472900390625,1.1205635338425635,-0.6255494811236858,2.870937421123683
1684252360368499200,7.944499267578125,0.3180903826266527,-1.0378548554956912,2.4786162656381725
1684252360378525200,7.954525146484375,-0.42410862489044665,-1.3099118012219666,2.1219617590785025
1684252360388550400,7.96455029296875,-0.8872557132273912,-1.2837930251032112,1.877372665992379
1684252360398576400,7.974576416015625,-1.212658464694023,-1.1421885056734085,1.6051020775154232
1684252360408602000,7.98460205078125,-1.5023580346167087,-1.0195423692137002,1.292977033033967
1684252360418628000,7.994628173828125,-1.7884721472680567,-0.8724024274885654,1.1389005700439214
1684252360428654000,8.004654052734375,-2.056398276799917,-0.7034376074463129,0.980250807788968
1684252360438680000,8.01468017578125,-2.2298305976450443,-0.5919628533422947,0.7023124028086661
1684252360448706000,8.0247060546875,-2.2805881404578683,-0.5408756401836872,0.3384288217782974
1684252360458732000,8.03473193359375,-2.4727602330863476,-0.5424515111982822,0.22300562230944632
1684252360468758000,8.044758056640624,-2.9457249510824677,-0.484897732374072,0.47239714724123477
1684252360478784000,8.054783935546874,-3.1338357856214043,-0.3754600370556116,0.7179834346711635
1684252360488810000,8.06481005859375,-3.120138099658489,-0.3239923001468181,0.8044961814761161
1684252360498836200,8.074836181640626,-2.9877018060684204,-0.2904658781200647,0.7884528091698885
1684252360508862200,8.0848623046875,-2.6751579516530035,-0.19115327097475526,0.6556482667893171
1684252360518888200,8.09488818359375,-2.375546059525013,-0.09294190306961536,0.5041021990597248
1684252360528914200,8.1049140625,-2.0509704065322873,-0.042030046477913856,0.42165363295376296
1684252360538940200,8.114940185546875,-1.7631658565759658,0.01649228511750698,0.4048655797600746
1684252360548966100,8.124966064453124,-1.4581108966112135,0.0890320361495018,0.45778293095529077
1684252360558992100,8.1349921875,-0.976317559993267,0.1717190871864557,0.45421968551576136
1684252360569018000,8.14501806640625,-0.16602759754657745,0.07395078687369823,0.3215980984866619
1684252360579044000,8.155044189453125,0.8459212477982043,-0.3300672361463308,0.09934300228357315
1684252360589070000,8.165070068359375,1.86384975207448,-0.6561322509139775,-0.008679565539956092
1684252360599095000,8.175094970703125,2.878959691798687,-0.8656821793228388,0.10492343276441096
1684252360609121000,8.18512109375,6.713094202318787,-1.4481471364796161,1.2590215719401836
1684252360619147000,8.19514697265625,10.137890371578932,-2.192211937868595,3.037505409157276
1684252360629173200,8.20517333984375,9.504223050451278,-2.228499641302228,2.832655036741495
1684252360639199200,8.21519921875,8.44623843011856,-1.9275392571747303,2.2490192822396753
1684252360649225200,8.22522509765625,6.639432169258594,-1.1924053657382725,1.9298264913290737
1684252360659251200,8.235251220703125,4.226674277192354,0.03259177152514457,2.1399609416276215
1684252360669277200,8.245277099609375,2.0075790085732934,1.8129338038295506,2.8074685730367896
1684252360679303200,8.25530322265625,0.5456546911537646,3.89545728648901,3.4488264486670492
1684252360689329200,8.2653291015625,0.03263970232009888,5.945214225578308,3.3950147789806127
1684252360699355100,8.275355224609376,0.5971288578033447,7.888779903924465,2.726937238729
1684252360709381000,8.285381103515626,1.0927452603295444,8.966717763483524,1.973036687502265
1684252360719407000,8.295406982421875,0.22453239348530768,8.682789178177714,1.3632535153090952
1684252360729433000,8.30543310546875,-1.4793851553082464,7.14942459540069,1.015129813468456
1684252360739459300,8.315459228515625,-1.1100675665304065,4.830052843040227,0.3236889332860708
1684252360749485300,8.3254853515625,-1.6999612123832106,2.4786305864244698,-0.21526070727109908
1684252360759511300,8.33551123046875,-3.821137958563864,0.895614960771799,-0.4233218584269285
1684252360769537300,8.345537353515626,-5.29325955260992,-0.23727789328992366,-1.0999252349615096
1684252360779563300,8.355563232421876,-5.960180324041843,-1.144886074194312,-1.4297943181872368
1684252360789589200,8.36558935546875,-5.90141833847165,-1.7391501902163027,-1.600695659250021
1684252360799615200,8.375615234375,-4.8144598448500036,-1.900066143837571,-1.535297012144327
1684252360809640200,8.38564013671875,-2.834210449489951,-1.8346476229876278,-0.9227052122712135
1684252360819666200,8.395666259765624,-1.1366694499909877,-1.5555331599652766,0.17939035246670246
1684252360829692200,8.405692138671874,-0.40695056934058665,-1.162993393293023,0.9045587302058935
1684252360839718100,8.41571826171875,-0.9742150347560644,-0.789749863243103,1.4095681072384119
1684252360849744100,8.425744140625,-2.011384538336098,-0.45115328368246554,1.6447867299109697
1684252360859770000,8.43577001953125,-2.8608044419050214,-0.2525029349505901,1.7817992453753948
1684252360869796400,8.44579638671875,-3.0687694392099973,-0.16895839030146598,1.257254562267661
1684252360879822300,8.455822265625,-2.9152888962864876,-0.16516484323740005,-0.05222469275593757
1684252360889848300,8.465848388671875,-2.7327228363931177,-0.12332768898308276,-1.4033902953863142
1684252360899874300,8.475874267578124,-2.429602643883228,-0.05162731138467788,-2.1380320193916558
1684252360909900300,8.485900390625,-2.456020695209503,-0.11774901206791401,-2.442320671159029
1684252360919926300,8.49592626953125,-2.569914493153989,-0.16697276944220066,-2.640574129527807
1684252360929952300,8.5059521484375,-2.5298510705739257,-0.29209318706095216,-2.799496863505244
1684252360939978200,8.515978271484375,-2.4787331700161097,-0.5815571946620941,-2.831705188670754
1684252360950004200,8.526004150390625,-2.564892573338747,-0.8429746729522943,-2.5973814690113066
1684252360960030000,8.536030029296874,-2.8658196397185325,-0.9132605075776576,-2.0809832674801347
1684252360970056200,8.54605615234375,-3.06357099378407,-0.8848007212907075,-1.5316969418257473
1684252360980082200,8.556082275390626,-3.03604293538928,-0.8843430406510829,-1.1410901890426874
1684252360990108200,8.566108154296876,-2.7316318262860175,-1.0941302849471568,-0.9713947166383265
1684252361000134100,8.576134033203125,-1.8192384569317102,-1.5559119301497935,-0.7956213856250047
1684252361010160000,8.58616015625,-0.5848579897731542,-2.049341344025731,-0.6761912886023521
1684252361020186000,8.59618603515625,-0.003916588921844959,-2.149247825410962,-0.6285112535387277
1684252361030211300,8.60621142578125,-0.8635621184289455,-1.7696195627599953,-0.9098036451220511
1684252361040237300,8.6162373046875,-1.4548422502040863,-1.5700041683882473,-1.6539327439188956
1684252361050263000,8.626262939453126,-1.8613138038560748,-1.467884687128663,-2.4076696290165183
1684252361060289000,8.6362890625,-1.9899593268610536,-1.4733032050460577,-3.160478877875209
1684252361070315000,8.64631494140625,-1.8602961512461305,-1.601609266963601,-3.7851042298913
1684252361080341000,8.656341064453125,-1.4063364318408071,-1.8411866693675516,-4.263178253725171
1684252361090367000,8.666366943359375,-0.45037864604815836,-2.074914176699519,-4.5528836688667536
1684252361100393200,8.676393310546874,0.6784956200219691,-2.191012498950958,-4.567675579807162
1684252361110419200,8.686419189453124,1.8265034794986248,-2.1674720488876105,-4.0944086639940735
1684252361120445200,8.696445068359376,2.92757437736392,-1.9853964028596878,-3.4778806937158104
1684252361130470400,8.706470458984375,3.901601780593395,-1.4176274950534105,-3.3589585462152955
1684252361140496400,8.716496337890625,4.7541994374156,-0.5816483800768852,-3.266345728969574
1684252361150522400,8.7265224609375,5.378291120946407,0.45265842754840846,-2.9594840118438004
1684252361160548400,8.73654833984375,5.866289741945266,1.9875299077570436,-2.5969056681931018
1684252361170574300,8.74657421875,5.818187097555398,4.306024292761087,-1.9049393028318882
1684252361180600300,8.756600341796876,4.554382967513799,7.714441574150324,-0.8077987301528453
1684252361190626300,8.766626220703126,2.270566512659192,12.269411401641369,0.46078445085883135
1684252361200652300,8.77665234375,1.4416507601976394,16.641794126451014,1.634787898465991
1684252361210678300,8.78667822265625,2.704603826367855,18.68422466817498,4.706335570217669
1684252361220704300,8.796704345703125,1.0810387481838464,14.425278937453031,8.334975272938609
1684252361230730500,8.80673046875,-5.950294305321574,7.746285157656669,8.111852746251225
1684252361240755200,8.816755126953124,-8.757384108173847,2.483895375084877,4.073675672566891
1684252361250781400,8.826781494140626,-6.757538324201106,-2.0303058041661974,0.4951885325029492
1684252361260807400,8.836807373046875,-5.42185203025341,-5.650878812548518,-0.8921516685754061
1684252361270833400,8.84683349609375,-5.187912341475487,-8.020780728706717,-1.2708829823866485
1684252361280859400,8.856859375,-5.09536382163763,-9.517688681223987,-0.6035992228612304
1684252361290885400,8.866885498046875,-1.5040448186598718,-11.122972252786159,1.4886279076889157
1684252361300911400,8.876911376953124,2.3264624412737787,-11.71676933581829,5.0336552612215275
1684252361310937300,8.886937255859374,-0.3622001579880714,-10.055841033923626,7.198166122215985
1684252361320963300,8.89696337890625,-2.6979098816871643,-7.460044788277148,8.762776322606205
1684252361330989300,8.9069892578125,-2.6065736602485177,-4.6393163361728185,9.875808291900157
1684252361341015300,8.917015380859375,-1.5149940826974808,-2.3296067306488752,9.687816699826717
1684252361351041300,8.927041259765625,0.8007774532139301,-0.10880524263381958,8.76075387686789
1684252361361067500,8.937067626953125,2.9708044472813606,1.5818851603180168,6.26485417573452
1684252361371093500,8.947093505859375,2.372821018475294,1.4597358674645422,3.086590050321817
1684252361381119500,8.957119384765624,-0.019081132566928862,-0.2024105780482292,0.6620768385320901
1684252361391145500,8.9671455078125,-1.358804134684801,-1.5095511609911918,-0.4494803820341825
1684252361401171500,8.97717138671875,0.28838147306144235,-1.664866810387373,-1.9079212412521243
1684252361411197400,8.987197509765625,4.03988212403655,-0.6263216345399618,-3.520685231697559
1684252361421223400,8.997223388671875,7.602557654723524,1.7383821284532546,-4.750278464579582
1684252361431249400,9.00724951171875,3.749585172742605,3.277872500634193,-3.4732515726104376
1684252361441275400,9.017275390625,-1.1166454836159945,3.74797130780518,-1.4810957586184144
1684252361451301400,9.02730126953125,-0.6462205132305622,4.459517402905226,-0.9509659688547253
1684252361461326300,9.037326416015626,0.44010406640172,4.67681926061511,-1.4904989622578024
1684252361471352300,9.047352294921875,-0.17209259667396545,3.5800919449120756,-2.5148072306990623
1684252361481378300,9.05737841796875,-0.5259188940703868,2.090229819253087,-3.291345730191469
1684252361491404500,9.067404541015625,0.012719780841469764,1.5207833336234091,-3.440850647482276
1684252361501430500,9.077430419921875,1.3436767081797123,1.7956898235619068,-3.4747055708110333
1684252361511456500,9.08745654296875,2.161213573014736,2.327163429149985,-3.1295506556481123
1684252361521482500,9.097482421875,2.070385885620117,2.737990547662973,-2.201138171645999
1684252361531508500,9.107508544921876,1.7297025629132985,2.8262510149180886,-1.242077159141004
1684252361541534500,9.117534423828126,1.4240087205231189,2.3263439294606445,-0.6230144096881151
1684252361551560400,9.127560546875,1.5895663624703884,1.2876193053930998,-0.16415946558713912
1684252361561586400,9.13758642578125,2.5922365073382854,0.4940396547287702,0.3938894277155399
1684252361571612400,9.1476123046875,3.655876376953721,0.05108604411482811,0.9058718586310743
1684252361581638400,9.157638427734375,3.4972020647794007,-0.27553602001369,1.270436407662928
1684252361591664400,9.167664306640624,2.757739788749814,-0.5398235007822513,1.5331880571663379
1684252361601690600,9.177690673828126,1.9441993000745772,-0.7527583954542875,1.695570283947885
1684252361611716600,9.187716552734376,1.3172475509375332,-0.9740805947214365,1.8984072707146404
1684252361621742600,9.19774267578125,1.1765385190427302,-1.1551982093721627,2.1268761268660423
1684252361631768600,9.2077685546875,1.6036989327192306,-1.3080395776093006,2.2948718096151945
1684252361641794600,9.217794677734375,1.9446265855759381,-1.3571148664236068,2.417875673471391
1684252361651820500,9.227820556640625,1.6735364390552043,-1.2776590523928404,2.461591481079161
1684252361661846300,9.23784619140625,1.2527321164071559,-1.0474164645671844,2.345899986062944
1684252361671872300,9.247872314453126,1.001306455299258,-0.6260369723796844,2.133549905541539
1684252361681897500,9.2578974609375,0.9519488424122333,-0.1289776775687933,1.862809010849893
1684252361691923500,9.26792333984375,0.9683879360377788,0.20437457159757613,1.4621321149513125
1684252361701949400,9.277949462890625,0.8610878372699021,0.2208189259201288,0.9680608960404992
1684252361711975400,9.287975341796875,0.6414560753077269,-0.07553308762907981,0.5877338374704122
1684252361722001400,9.29800146484375,0.3698439507395029,-0.43975919848680495,0.39759675780087705
1684252361732027600,9.308027587890624,0.12719782668100668,-0.6531546964079141,0.3476546230241656
1684252361742053600,9.3180537109375,-0.02935759364319965,-0.6901151845365763,0.3541241112992167
1684252361752079400,9.328079345703125,-0.06870878543383442,-0.7503536724001169,0.2752896440371871
1684252361762105300,9.338105224609375,-0.008515917677152901,-0.9437328027307986,-0.02707943784445524
1684252361772131300,9.34813134765625,0.18779460819661617,-1.2303273923754692,-0.36245004109591245
1684252361782157300,9.3581572265625,0.3830494692713022,-1.6011609386742114,-0.6500932630106806
1684252361792183300,9.368183349609374,0.3325988004505634,-1.956070355132222,-0.6644675330609083
1684252361802209300,9.378209228515624,0.058766077223420136,-2.249971468397975,-0.6578153816953302
1684252361812235300,9.3882353515625,-0.22303601744771,-2.6516075647175312,-0.8159481343388557
1684252361822261200,9.39826123046875,-0.4109691573321819,-3.1541227868467567,-1.071402904832363
1684252361832287200,9.408287353515625,-0.2861901004970073,-3.706874742785096,-1.419991301575303
1684252361842313500,9.4183134765625,0.5882558155179023,-4.287562168875336,-1.5640008363202214
1684252361852339500,9.42833935546875,2.0466157184541225,-4.848330258008837,-1.6033949813365935
1684252361862365400,9.438365478515625,3.440032901358604,-5.2650984570086,-1.6601409509092568
1684252361872391400,9.448391357421874,4.384395818686485,-5.373682165846228,-1.7357085253298281
1684252361882417400,9.45841748046875,4.731875377404689,-5.067446471664309,-1.729285798805952
1684252361892443400,9.468443359375,4.594439083570242,-4.2901609531968825,-1.6007880137085915
1684252361902468400,9.47846826171875,4.126302516382933,-3.4724031390875574,-1.235700902107358
1684252361912494300,9.488494384765625,3.1304110718697307,-2.971116581970453,-0.9410171140313148
1684252361922520300,9.498520263671875,1.181628535658121,-2.4851053353965282,-0.26568390356302257
1684252361932546300,9.50854638671875,0.0852805746614933,-1.4785025272548198,1.8403379435837268
1684252361942572300,9.518572265625,-2.261073292648792,-0.3942945013850927,3.9483787293374535
1684252361952598300,9.528598388671876,-4.858327920410037,0.5917015720576048,4.422240103912353
1684252361962624300,9.538624267578125,-3.3253888695687053,3.725131114965677,6.44641193536818
1684252361972650500,9.548650390625,0.5282178186625242,9.257849996557832,9.853234056520462
1684252361982676500,9.558676513671875,1.3553724066704511,14.582086286711691,11.703215442240237
1684252361992702500,9.568702392578125,1.3595546607911586,16.80109270800352,12.005766310429573
1684252362002728400,9.578728515625,1.5370178445875644,15.302249988031386,10.359813459348677
1684252362012754400,9.58875439453125,0.5055202491641044,11.348969458127021,6.818379454132915
1684252362022780400,9.598780517578126,-0.701885701829195,7.6275021263659,3.1880110279232263
1684252362032806400,9.608806396484376,-1.2090753455102443,5.023728325968981,0.12549451162815092
1684252362042832400,9.618832275390625,-1.5219745892345904,3.292647460439801,-1.8904846610218284
1684252362052858400,9.6288583984375,-1.7433131551146506,2.1016139675766228,-3.3634459207624197
1684252362062884400,9.63888427734375,-1.2064613636195658,1.249727673894167,-4.407964910322428
1684252362072910300,9.648910400390625,0.6312170053660869,0.8061427796393632,-4.550194868174195
1684252362082936600,9.6589365234375,2.626243990880251,0.33122283592224117,-3.6553830404788252
1684252362092962600,9.668962646484376,3.391179730862379,-0.3737690152287483,-2.5843694272249937
1684252362102988500,9.678988525390626,2.823426605147123,-1.0810966158509254,-2.382923310294747
1684252362113014500,9.6890146484375,2.3568530494928357,-1.790427957510948,-3.0667198132038114
1684252362123039500,9.69903955078125,2.850370726174116,-2.472809332925081,-3.98249610299468
1684252362133066500,9.70906640625,3.446968838101625,-3.1588767033755776,-4.550507002863288
1684252362143092500,9.719092529296875,3.460520393592119,-3.9138726486235855,-4.7702077384084465
1684252362153118500,9.729118408203124,2.754434317463636,-4.61924619256854,-4.609355497673153
1684252362163144400,9.73914453125,1.3700433215796948,-5.158589216357469,-4.312576198622584
1684252362173170400,9.74917041015625,0.15071078594923018,-5.292237808346748,-3.7721401188999413
1684252362183196700,9.75919677734375,0.09152675730837509,-4.948637136888504,-2.884673393270373
1684252362193222400,9.769222412109375,0.5215934320867062,-4.0692777298688885,-1.7208955716013907
1684252362203248400,9.779248291015625,0.43174072720408435,-2.7674761698663235,-0.3282996419519186
1684252362213274400,9.7892744140625,-0.20527122817635535,-1.2787456785857676,0.9433072707951068
1684252362223300400,9.79930029296875,-0.5269686953842639,0.11099018545746803,1.9736597878366708
1684252362233326300,9.809326416015624,-0.9430758001267909,1.238865503618121,2.7992817594498396
1684252362243352300,9.819352294921876,-1.2334417250037193,1.7859458436608313,3.3223002559036012
1684252362253378300,9.82937841796875,-1.2791840700030326,1.8820014948368071,4.048752243712544
1684252362263404300,9.839404296875,-1.2099147920090705,1.48905840806067,4.7845834697633975
1684252362273430300,9.84943017578125,-1.1205424910545347,0.5765653777241706,4.993734169721603
1684252362283456300,9.859456298828125,-0.7328723762452602,-0.38900340923964977,3.9532887132108208
1684252362293482500,9.869482421875,0.35358898150920864,-0.8522107033312321,2.1459154661178585
1684252362303508500,9.879508544921874,1.0952151575744151,-0.7170604746073485,0.867009628534317
1684252362313534500,9.889534423828126,1.5597779579281805,-0.10959551622867583,-0.12561726122498512
1684252362323560400,9.899560546875,1.775381195026636,0.8611790226846933,-0.7021838079929351
1684252362333586400,9.90958642578125,1.7771569725275038,1.9483593423634766,-1.1827847199559212
1684252362343612400,9.9196123046875,2.380390576946735,2.898605472511053,-2.005655347034335
1684252362353637400,9.929637451171875,3.0795769566893574,3.4883173320561647,-3.0026790104478596
1684252362363663400,9.939663330078124,2.9852608426570892,3.557953762862086,-3.839023451605439
1684252362373689300,9.949689453125,1.7548551243484019,3.2272435526371,-4.011411816355586
1684252362383715300,9.95971533203125,0.6261597219765186,2.714369433578849,-3.470263204449415
1684252362393741300,9.9697412109375,0.7914999217808246,2.1459259875118732,-2.9391584321737287
1684252362403767300,9.979767333984375,1.143750348162651,1.7183441335529088,-2.9046114349275824
1684252362413793300,9.989793212890625,0.37591070343255995,1.521580036959052,-3.4375615428090094
1684252362423819500,9.999819580078125,-1.410403389018774,1.069349479433894,-4.014865171679854
1684252362433845500,10.009845458984374,-2.5037901621222494,0.33487551321089265,-4.147479159924388
1684252362443871500,10.01987158203125,-2.6583412568867204,-0.5436655631631613,-4.276445147055387
1684252362453897500,10.0298974609375,-2.451566492279619,-1.352405373558402,-4.639658866000175
1684252362463923500,10.03992333984375,-2.6715903222993016,-2.1014076313495633,-4.786496025386453
1684252362473949400,10.049949462890625,-3.447334748804569,-2.9581577316761014,-4.364546039834618
1684252362483975400,10.059975341796875,-4.395591750961542,-3.8131355616331097,-3.6775276522696014
1684252362494001400,10.07000146484375,-5.132998848026991,-4.525881095650792,-3.1272604988843202
1684252362504027400,10.08002734375,-5.342353546124697,-5.12115818810761,-2.9254549009919164
1684252362514053400,10.090053466796874,-5.017479786968231,-5.648689193549752,-3.041519320973754
1684252362524079400,10.100079345703126,-4.9715375354826445,-6.041926294836402,-2.869446013522148
1684252362534105600,10.110105712890626,-5.134810865885019,-6.267609611922502,-2.4311837755948305
1684252362544131600,10.120131591796875,-5.38190346622467,-6.3753346581041805,-1.9061305584430694
1684252362554156500,10.130156494140625,-5.853659977474808,-6.37145752440989,-0.8271066572129726
1684252362564182500,10.1401826171875,-5.519962860393524,-6.502793747803569,0.2980617400765419
1684252362574208500,10.15020849609375,-4.299247345972061,-5.902627129739523,3.4804952601283787
1684252362584234500,10.160234375,-0.1766485794778913,-1.5949410412460565,13.722299010646342
1684252362594260500,10.170260498046876,2.0386206280469894,7.49394822692275,26.017642141401765
1684252362604286500,10.180286376953125,-2.716054610186815,14.32990250071287,25.239893681597707
1684252362614312400,10.1903125,10.557784009122848,18.819818549013135,15.209633663654326
1684252362624338400,10.20033837890625,9.994148255598544,14.267916292399168,-1.567158715829253
1684252362634364400,10.210364501953125,11.532330467790365,5.275352139997482,-8.811421403309703
1684252362644390400,10.220390380859374,-1.472106688737869,-0.6832435452014207,-6.492331390500068
1684252362654416400,10.23041650390625,5.749193640828132,-2.9053093540638684,-8.53236305438876
1684252362664442600,10.240442626953126,8.872382944750786,-3.468068324753642,-8.55752321460843
1684252362674468600,10.250468505859375,-1.1845406237125395,-1.934928782904148,-4.157386221432685
1684252362684494600,10.26049462890625,-0.5009434793004766,0.34770343060195447,-2.5913760911166666
1684252362694520600,10.2705205078125,4.4696705481290815,4.203043226236105,-1.6151333499252796
1684252362704546600,10.280546630859375,2.4575579877793787,7.51558196658194,1.1773369759440422
1684252362714572500,10.290572509765624,0.738589000326395,9.902983883595466,3.7652088583320378
1684252362724598500,10.3005986328125,0.16826514734029768,9.058935443931817,4.1510558493673795
1684252362734624500,10.31062451171875,-1.604496220576763,4.8244718280375,2.7301649686038494
1684252362744650200,10.320650146484375,-2.197271559345722,0.6009323417395352,0.5786375078231096
1684252362754676200,10.33067626953125,-1.7350901011705397,-2.060697435298562,-1.0336638335466384
1684252362764702200,10.3407021484375,-1.2568436433792114,-3.5040859790742394,-1.6832962010473012
1684252362774727400,10.3507275390625,-0.9488742572724819,-4.009287079286575,-1.372621647635102
1684252362784753400,10.36075341796875,-0.8376420797526836,-3.5883489011257885,-0.18711539376080036
1684252362794779600,10.370779541015626,-0.6718985598444939,-2.5611720915108918,1.334932260710001
1684252362804805600,10.3808056640625,-0.08690612090355716,-1.376782858967781,2.6751877622693776
1684252362814831600,10.39083154296875,0.98293259421885,-0.4770668926179409,3.2187831828057765
1684252362824857600,10.400857666015625,1.8050801677197217,0.0327343948662281,3.2032273017555473
1684252362834883300,10.41088330078125,2.1717928346961735,0.27222411898672577,3.0475042406022546
1684252362844909300,10.420909423828125,2.375232755792141,0.23403613488972186,2.804109325736761
1684252362854935300,10.430935302734374,2.365249121916294,0.018884148690104484,2.665166134470701
1684252362864961300,10.440961181640626,2.142244668650627,-0.15539163724184035,2.629328220631182
1684252362874987300,10.4509873046875,1.9132365910559892,-0.35533085674047465,2.3835656998515127
1684252362885013200,10.46101318359375,1.9741583850085733,-0.6813058551371097,1.7409259677171707
1684252362895039200,10.471039306640625,2.0729045904427768,-1.05473526314795,1.0196569355040788
1684252362905065500,10.4810654296875,2.173919909852743,-1.3852502430617808,0.4156231206178665
1684252362915091500,10.491091552734375,2.185061481592059,-1.6821376786619424,-0.1059153664112091
1684252362925117400,10.501117431640624,1.7564619750231503,-1.7911165242969989,-0.23330314444005487
1684252362935143400,10.511143310546874,1.221453765568137,-1.7643728942781687,-0.13962941996455192
1684252362945169400,10.52116943359375,1.127737370994687,-1.6943793205976485,-0.1650052687615156
1684252362955195400,10.5311953125,1.0374317347127944,-1.513812325567007,-0.09143149850666522
1684252362965221400,10.541221435546875,0.6919552594453096,-1.2525462384462356,0.20631167713999746
1684252362975247400,10.551247314453125,0.2853851773222908,-1.0279489630311727,0.5457607818767428
1684252362985273300,10.5612734375,-0.0348778001030907,-0.7940238873004913,0.8365937397435307
1684252362995298300,10.57129833984375,-0.34071368131246416,-0.6091337683737278,0.9225538211017846
1684252363005324300,10.58132421875,-0.35117132590822875,-0.3949702086895704,1.0004086296766996
1684252363015350300,10.591350341796876,-0.22912973121292887,-0.19652210453152655,1.0649661497831344
1684252363025376300,10.601376220703125,-0.0635474297484383,-0.130514970138669,1.0326502725899218
1684252363035402500,10.611402587890625,0.02579663149230182,-0.02781272055506706,1.00549923081398
1684252363045428500,10.621428466796875,0.06443776618428528,0.09285773191750049,0.9617109424918889
1684252363055454500,10.631454345703125,0.2529869190752506,0.1733662698715925,0.8430354632288217
1684252363065480400,10.64148046875,0.488603601154685,0.18999416406750677,0.6140700557321309
1684252363075506400,10.65150634765625,0.7153443914044648,0.1287982293486595,0.3521718081876635
1684252363085532400,10.661532470703126,0.9125902071006595,-0.007834346887469291,0.062221770635247226
1684252363095558400,10.671558349609375,1.1028087545085699,-0.20079379050135612,-0.21037498105615376
1684252363105584400,10.68158447265625,1.3757137684315441,-0.35813480824530125,-0.5208104650154709
1684252363115610400,10.6916103515625,1.6639298217982053,-0.4335422236680984,-0.7947545396625996
1684252363125636400,10.70163623046875,1.9068109419226644,-0.5490495942890644,-1.0916650638774037
1684252363135661600,10.71166162109375,2.228176985219121,-0.6456850911796093,-1.5660475397169589
1684252363145687600,10.7216875,2.4782167449265717,-0.6246113234907388,-1.9022581009238957
1684252363155713500,10.731713623046875,3.0789468420922756,-0.42042555246353147,-2.4324261768713593
1684252363165739800,10.74173974609375,4.043579809510708,-0.20061317323744296,-2.882133645659685
1684252363175765800,10.751765869140625,5.95404927394092,-0.03707037824392319,-3.642662382854521
1684252363185791700,10.761791748046875,7.026265248721837,-0.09827624983489512,-3.8764880898639555
1684252363195817700,10.771817626953125,6.178143276008964,-0.4860936641603708,-2.759884691824019
1684252363205843700,10.78184375,5.137663917228579,-0.8831628909558057,-1.1760603801369667
1684252363215868700,10.79186865234375,4.241405982378125,-0.6307137320190668,0.171737207365036
1684252363225894700,10.801894775390625,3.08033683514595,0.004573883786797523,1.0426543647319078
1684252363235920600,10.811920654296875,1.9342074828922748,0.4437590817779302,1.6168933453351257
1684252363245946600,10.821946533203125,1.9287702602744101,0.1888946783930063,1.700120786859095
1684252363255972600,10.83197265625,10.075579169094562,-1.4010907862722872,2.6860961097747085
1684252363265998600,10.84199853515625,18.050489542508124,-2.975417494034767,3.219469996026158
1684252363276024600,10.852024658203124,9.443758937138318,-2.4406775801271197,1.3643442331552504
1684252363286050600,10.862050537109376,0.316799173772335,-0.7460796483427286,2.380739828775823
1684252363296076800,10.872076904296875,-3.357835095143318,0.7952917152792215,4.339115245980024
1684252363306102800,10.882102783203125,-5.184155034768581,3.151478409817815,6.5130567831426855
1684252363316128800,10.892128662109375,-7.244210080510378,6.0561973967731,8.787799704703689
1684252363326154800,10.90215478515625,-9.521313301461934,9.580099836951494,11.014190391027928
1684252363336180700,10.9121806640625,-10.284286216938495,13.579503820127249,12.394501424121856
1684252363346206700,10.922206787109374,-10.530376946759223,15.081305389904974,12.55154608926773
1684252363356232700,10.932232666015626,-11.78249063900709,12.859654591584205,11.793330012929438
1684252363366258700,10.9422587890625,-11.10836738885045,8.002261321675777,9.449756716248393
1684252363376284700,10.95228466796875,-8.998380729725957,2.7404706740409135,6.378876860755682
1684252363386310700,10.962310546875,-8.095518282043933,-1.3523948521643876,3.982723482009768
1684252363396337000,10.9723369140625,-7.370133631205558,-4.518282311084866,2.2703280277282
1684252363406363000,10.98236279296875,-5.993342588931322,-6.645656742861867,1.3706596999123692
1684252363416388900,10.992388916015624,-4.044944375862181,-7.513249139720201,1.3060972113698721
1684252363426414800,11.002414794921876,0.482562859685719,-7.429462018486857,2.267168686914444
1684252363436440800,11.01244091796875,8.739067530238628,-6.5210641485095024,5.7956625465363265
1684252363446465800,11.0224658203125,8.80286692545414,-4.884291798228025,6.8946502083867784
1684252363456491800,11.03249169921875,3.5390529552981254,-3.236868874594569,4.547938029158115
1684252363466517800,11.042517822265625,-0.9307119931161403,-1.9448440277189014,1.1543822168141602
1684252363476543700,11.052543701171874,-3.1437311566919086,-0.9907967517226934,-1.5290578254938125
1684252363486569700,11.06256982421875,-2.99320332609415,0.4130307660371065,-2.999500380411744
1684252363496595700,11.072595703125,-3.812150349988043,1.6984090145051478,-3.7132822717398404
1684252363506621700,11.08262158203125,-5.700144655498862,1.4912386747092008,-4.137493187960982
1684252363516647700,11.092647705078125,-5.055009014895558,0.7421545838534832,-4.424263134172558
1684252363526674000,11.102673828125,-2.2077444380432367,0.300178293839097,-4.213699060285091
1684252363536699600,11.11269970703125,0.7945145934268831,0.37742169251739976,-3.0200661985784767
1684252363546725600,11.1227255859375,0.1595902579754591,0.7466600785791874,-1.5641238781780002
1684252363556751600,11.132751708984374,-2.4897359178066254,1.1325234362274408,-0.6661620620191097
1684252363566777600,11.142777587890626,-4.405748111055791,1.7689666518092155,-0.2377034252256155
1684252363576803600,11.152803466796875,-5.3174482374489305,2.4981179617047307,-0.07806172932386397
1684252363586829600,11.16282958984375,-5.562433051854372,3.148957951429486,0.15414719013869763
1684252363596855600,11.17285546875,-5.435826779592037,3.5414983026236295,0.34214930360615253
1684252363606881500,11.182881591796875,-5.237611899667978,3.5834774956971405,0.0700438425630331
1684252363616907500,11.192907470703124,-4.7543300780579445,3.2911452391833067,-0.9646294602870941
1684252363626933500,11.20293359375,-3.97559640660882,3.029439007079601,-2.377172199422121
1684252363636959700,11.212959716796876,-3.09992854758352,3.1222283499360084,-3.802122584709525
1684252363646985700,11.22298583984375,-2.399554419361055,3.5177585305958985,-4.922067109870911
1684252363657011700,11.23301171875,-2.2124442862972615,3.6794676804214714,-5.817919386529923
1684252363667036700,11.24303662109375,-3.529100301082432,2.880942390048504,-6.020284956392645
1684252363677062700,11.253062744140625,-4.947960845062136,1.1820230879336595,-5.418972090902924
1684252363687088600,11.263088623046874,-4.213115999700129,-0.786363143414259,-4.319033996459842
1684252363697114600,11.273114501953126,-2.1280244201183316,-2.5279618958264587,-3.6138270412534474
1684252363707140600,11.283140625,-2.222028107200563,-3.7133857321143147,-3.8266315875440835
1684252363717166600,11.29316650390625,-3.646558221249282,-4.45389547137022,-4.4967719055444
1684252363727192600,11.303192626953125,-5.267200397723913,-4.865377254399657,-5.079121711888909
1684252363737218600,11.313218505859375,-6.7230293208777905,-4.797499649959803,-5.525394822314381
1684252363747244500,11.32324462890625,-6.822987240189313,-4.652245960372686,-5.746016764357686
1684252363757270500,11.3332705078125,-5.951355212551355,-4.982951494422554,-5.595480750453472
1684252363767296800,11.343296875,-4.731742398674786,-5.5435956649154425,-5.3259214667618275
1684252363777322800,11.35332275390625,-3.3580990067765115,-6.115405957067012,-5.185128263714909
1684252363787348700,11.3633486328125,-2.3398843790352344,-6.618897330752015,-5.008330850350856
1684252363797374700,11.373374755859375,-1.6708688272811472,-7.289992757520079,-4.680961182725429
1684252363807400700,11.383400634765625,-1.6698291089698671,-7.9355235349208115,-3.727408412247896
1684252363817426700,11.3934267578125,-1.8082747259773313,-8.247047983160614,-2.4992267997294664
1684252363827452700,11.40345263671875,-2.0549847567401827,-8.293852988955377,-1.2022820321083068
1684252363837478700,11.413478759765624,-2.5367466753065586,-7.438244459879398,0.7676473370283842
1684252363847504600,11.423504638671876,2.1123779381752015,-4.701001515713334,5.795107250741124
1684252363857530600,11.433530517578125,21.859727512180804,7.625985292062163,18.026842124938963
1684252363867556600,11.443556640625,7.320570851135254,23.892547344994544,24.67856094431877
1684252363877582800,11.453582763671875,-18.01422580447197,34.818047060656546,25.620419769871233
1684252363887607600,11.463607666015625,-0.3939478433718905,37.32516432137489,17.666460999071596
1684252363897633800,11.4736337890625,12.134668584674596,23.440817138206956,3.911490137401223
1684252363907659800,11.48365966796875,12.867992211818695,7.826281069913506,-8.266981933164596
1684252363917685800,11.493685791015626,9.720380414301156,0.9070482089340687,-11.312028843742608
1684252363927711700,11.503711669921875,-6.309120018440485,-0.3537584928572178,-5.554874599298834
1684252363937737700,11.51373779296875,-4.149529662713408,-0.06771160022318362,-5.333440756350756
1684252363947763700,11.523763671875,-0.925412133142352,-0.7363555421859026,-5.441951984474063
1684252363957789700,11.533789794921875,-0.11673720467686652,-1.1222679996728897,-4.811685411700606
1684252363967815700,11.543815673828124,1.2942349241405724,-0.7408674666523933,-3.197261671349406
1684252363977841700,11.553841552734376,4.176234129765629,-0.050529579275846476,-0.8910562745541334
1684252363987867600,11.56386767578125,4.95558184145987,0.22600538864731787,0.9052715546503662
1684252363997893600,11.5738935546875,2.399622516161203,-0.05144260246753692,1.426807995852828
1684252364007919900,11.583919921875,0.7144762302678078,-0.20306524256467817,1.5728233174622057
1684252364017945900,11.59394580078125,1.0005091674417257,-0.5702051950424909,2.2790268824905158
1684252364027971800,11.603971923828125,1.339590900170803,-1.0187754764944315,3.0986393845558164
1684252364037997800,11.613997802734374,0.4400404265809804,-1.0068372014194726,3.8548371068090197
1684252364048023800,11.62402392578125,-0.5350152237176895,-0.8192518520593642,4.4789416498214
1684252364058049800,11.6340498046875,-0.7662199345737696,-0.9812111772537231,4.839739539796113
1684252364068075800,11.64407568359375,-0.47135735586471855,-1.4833470446765422,5.103578107753396
1684252364078101800,11.654101806640625,-0.2521316904854029,-1.9442191738188266,5.308750551730394
1684252364088127500,11.66412744140625,-0.33958087789025154,-2.1656237906724214,5.363005873531103
1684252364098153500,11.674153564453125,-0.3137239310454577,-2.320949961462617,5.105640885502099
1684252364108178700,11.6841787109375,-0.07144201892316342,-2.57301801212728,4.440274650035798
1684252364118204700,11.69420458984375,0.33414434939213095,-2.710351430109143,3.544545122973621
1684252364128231000,11.70423095703125,0.8227309263467788,-2.6291017183989287,2.618535608460009
1684252364138257200,11.714257080078125,1.206196575203538,-2.4091911394953724,1.7892098138928412
1684252364148283000,11.724282958984375,1.451498784995079,-1.8891063584059475,0.9309206674307584
1684252364158308900,11.734308837890625,1.5000731385499237,-1.1154407840013503,0.15695377199202776
1684252364168334800,11.7443349609375,1.21730139512904,-1.0640694932043553,-0.011784838078916072
1684252364178360800,11.75436083984375,1.0734317803114652,-1.0112222846359014,-0.19881810651421547
1684252364188386800,11.76438671875,0.9385913481891155,-0.999247769203782,-0.5004495217710733
1684252364198412800,11.774412841796876,0.6014830344248563,-1.1600701993227005,-0.4337932758197188
1684252364208438800,11.784438720703125,0.16675006660223007,-1.4178069432735443,-0.2368973695397377
1684252364218464800,11.79446484375,0.14217274777181446,-1.862122489890456,0.06424333959072828
1684252364228490800,11.80449072265625,0.06019413726516067,-2.159980816349387,0.16409429139643908
1684252364238517000,11.81451708984375,-0.3176653621476143,-2.605247380080819,0.3389437855631113
1684252364248543000,11.82454296875,-0.43178515086770053,-2.8031144694805143,0.18701456373482941
1684252364258569000,11.83456884765625,-0.5853086561501026,-2.7003128511756658,-0.1495578165218234
1684252364268595000,11.844594970703126,-0.7834574120353907,-2.766499433788657,0.5187576241388917
1684252364278621000,11.854620849609375,-0.8888100299973041,-2.3340543577075,0.7285930914908647
1684252364288647000,11.86464697265625,-0.9295850349128246,-1.7197195135593413,0.4507441183596849
1684252364298673000,11.8746728515625,-1.022077440649271,-0.8995832798808813,-0.023560031546652316
1684252364308699000,11.884698974609375,-1.1003425835907459,-0.10765431903302669,-0.47373511784672734
1684252364318724900,11.894724853515624,-1.0622937157034873,0.5246738624453544,-0.7894260381162166
1684252364328749800,11.904749755859376,-1.0271861619651317,0.4548533072441816,-0.8703083778187632
1684252364338775800,11.91477587890625,-1.3487620486199856,0.5147703080683946,-1.0643272673577069
1684252364348801800,11.9248017578125,-1.6981576700925827,0.7787380553632974,-1.5556585399106144
1684252364358827800,11.934827880859375,-1.9036042548358438,0.9750199213981627,-2.389304243503511
1684252364368854000,11.94485400390625,-1.7455635643899439,0.766525055000186,-3.028151013095677
1684252364378880000,11.9548798828125,-1.0921072546869515,0.16099018790125846,-2.708486513020098
1684252364388906000,11.964906005859374,-0.31793833387009796,-0.34752982760071754,-2.2117878682151435
1684252364398932000,11.974931884765626,0.32308570669591424,-0.5720335795134306,-1.8044570673853157
1684252364408958000,11.9849580078125,1.0895173112589864,-0.5537807144641876,-1.1766226901948451
1684252364418984000,11.99498388671875,2.128036256686598,-1.1468968294948338,-0.4623658748313784
1684252364429010000,12.005010009765625,3.0974463753789663,-1.7734774072319268,0.012169453482329845
1684252364439036000,12.015035888671875,4.1178614357739685,-2.0330174012124536,0.33584465050399304
1684252364449062000,12.025061767578125,5.601801770168542,-2.3650258345544337,0.4896253454178571
1684252364459088000,12.035087890625,7.321624159580469,-2.393923427736759,0.8199123617947102
1684252364469113900,12.04511376953125,8.463560736319423,-1.8057710725933311,1.2377364995881914
1684252364479140000,12.05514013671875,8.465140698987245,-0.5522241326719523,1.8453037492975592
1684252364489166000,12.065166015625,6.98942692566812,1.1384995880275963,3.842818459974229
1684252364499192000,12.075192138671875,4.861532269409299,2.3309669130861757,6.8293591133087865
1684252364509218000,12.085218017578125,2.352738599911332,3.367700655597448,8.609303670728206
1684252364519244000,12.095244140625,-0.2111521759737283,4.174201747155189,9.143163879191874
1684252364529270000,12.10527001953125,-1.728299125856161,4.340368460911512,7.887190004384517
1684252364539296000,12.1152958984375,-2.109924115282297,4.163707825669646,5.839549034535884
1684252364549322000,12.125322021484376,-1.7285609916627407,3.955809756121039,4.192810001513362
1684252364559347000,12.135346923828125,-0.6183797356247902,3.8373032036840913,2.845021474100649
1684252364569373000,12.145373046875,0.3179472478289157,4.183737637263536,1.2546005406275391
1684252364579399000,12.15539892578125,0.5597999747537076,5.144314022767544,0.1374035606086254
1684252364589425000,12.1654248046875,0.1643092493213713,6.149889241427183,-0.7854819766655564
1684252364599451000,12.175450927734374,-0.6634652241505682,7.016261156579851,-1.7994988604560493
1684252364609477000,12.18547705078125,-1.5739776020638643,7.931867935022711,-2.530872814837098
1684252364619503000,12.195503173828126,-1.8532843727879225,8.130899392026663,-3.7644270603045817
1684252364629529000,12.205529052734375,-1.768338875299692,6.922445977807045,-5.473128043982387
1684252364639555000,12.21555517578125,-1.655237396776676,5.3479491741746665,-6.751590229451656
1684252364649581000,12.2255810546875,-2.496558457303047,4.631606492447853,-7.469662511450052
1684252364659607000,12.23560693359375,-3.1407401581823824,4.186016103589535,-7.776285159122944
1684252364669633000,12.245633056640624,-1.9505308411836624,3.288755129176378,-7.759145223751664
1684252364679659000,12.255658935546874,-1.0036449812494217,2.502004447749257,-7.632900770539045
1684252364689685000,12.26568505859375,-0.013187836744636297,1.5792939747810364,-7.756991260588169
1684252364699710700,12.275710693359375,0.5846272497572005,0.7266717680394649,-8.15975489963293
1684252364709736700,12.28573681640625,2.1687446991719304,-0.2296896301180124,-7.706929298824072
1684252364719763000,12.295762939453125,4.258188190352916,-1.1429957304030656,-6.695742670023441
1684252364729789000,12.305788818359375,2.21358468850404,-1.553961965125799,-7.078671727785467
1684252364739815000,12.31581494140625,-0.5922692889429628,-1.7072294498205185,-7.13368575899899
1684252364749841000,12.3258408203125,-1.2686249743267892,-1.3182985212951899,-6.433895568144321
1684252364759867000,12.335866943359376,0.2379796118184924,-0.7541185778915882,-4.802336276336014
1684252364769892000,12.34589208984375,2.0197931779801843,-0.15070084907710551,-2.370090716728568
1684252364779918000,12.35591796875,-0.060652037100493904,0.44014732102155685,-0.7807648850157857
1684252364789943800,12.36594384765625,-3.9473172375857826,-1.4204320310801266,1.7184125226140021
1684252364799969800,12.3759697265625,-6.5547933996319765,-2.481288991978764,3.0307977282121774
1684252364809995800,12.385995849609374,-7.950338242214918,0.36833939139544963,1.5203633546456694
1684252364820021800,12.396021728515626,-7.320021400558948,1.8271330095738172,1.0953238786458968
1684252364830047700,12.4060478515625,-4.694822827078402,-0.7563847692579031,2.2684096268862484
1684252364840073700,12.41607373046875,-3.5082784623280165,-4.150792814517021,0.9460182833194732
1684252364850100000,12.426099853515625,-1.5797089853227138,-5.0585354354560375,-2.7517414251178502
1684252364860126000,12.4361259765625,-2.186466087692976,-3.178617176634073,-2.3868267474740743
1684252364870152000,12.44615185546875,-3.4663474923104047,-1.3618243592888115,-1.0885004623666406
1684252364880178000,12.456177978515624,-3.6266710329964753,-0.8603396492511034,-1.0475506123408675
1684252364890204000,12.466203857421876,-2.9376372139558193,-0.8412012335389852,-1.549142874406278
1684252364900230000,12.47622998046875,-1.7150550288796425,-1.1933511221557855,-1.6935212424635886
1684252364910255900,12.486255859375,-0.24237901582121849,-2.066740222594142,-1.2371890948385
1684252364920281900,12.49628173828125,0.5315200750783086,-3.230052180317044,-0.5486226010486484
1684252364930307800,12.506307861328125,0.36316052745282645,-3.311476664072275,-0.269422505569458
1684252364940333800,12.516333740234375,0.24859584450945257,-2.2210312051177024,-0.35602205387502905
1684252364950359800,12.52635986328125,0.41576574395895,-0.5695072759062051,0.24578882426470516
1684252364960386000,12.536385986328124,0.43187078332453965,1.8406833960205315,1.0673325866535306
1684252364970412000,12.546412109375,0.08940013880953192,3.5946342650055882,1.6819439096555113
1684252364980438000,12.55643798828125,0.29176030184477564,3.7857857824146746,2.127430399747938
1684252364990464000,12.566464111328125,1.3920938253462314,2.7494354862630366,2.597078394411504
1684252365000489000,12.576489013671875,3.3045161774098872,0.9749521168589591,3.7923061240941283
1684252365010515000,12.586514892578125,4.872200378417968,0.46014381486773487,5.065346869036555
1684252365020541000,12.596541015625,4.830764790701866,1.9515280355274676,6.073657065618038
1684252365030567000,12.60656689453125,3.8299990181505676,2.4704770905852316,6.5265206603497266
1684252365040593000,12.616593017578126,2.3591642490446567,2.4461136337012053,6.458668774873018
1684252365050619000,12.626618896484375,0.6125741911511868,2.5991052240639925,6.347096990135312
1684252365060644900,12.636644775390625,-0.0998328316271305,2.9868600945472714,5.985130056381225
1684252365070670800,12.6466708984375,-0.24746084913015365,3.977570921552181,5.3668672251343725
1684252365080696800,12.65669677734375,-0.3167056502699852,5.284620319080353,4.324071113844216
1684252365090723000,12.66672314453125,0.016421484903618694,6.204592306995392,2.353527119940519
1684252365100749000,12.6767490234375,1.2699801883280277,6.3744368324816225,-0.09523147531151771
1684252365110775000,12.686775146484376,4.6249558023869985,5.676684869456291,-3.0540511780276893
1684252365120801000,12.696801025390625,1.9661866754770279,5.210030649781227,-2.827026383204758
1684252365130827300,12.7068271484375,-1.639466996192932,5.116154680731892,-0.9500848021060228
1684252365140853200,12.716853271484375,-2.609578102761507,5.093565247783064,-0.46528526940941806
