time,seconds_elapsed,z,y,x
1684252440656605400,0.01160546875,-5.049827812865376,3.5818525248438116,5.097445304086804
1684252440666631400,0.02163134765625,-2.05450968657434,3.6593867231622337,5.783872155499458
1684252440676658700,0.03165869140625,1.588513054025173,4.51554353377074,5.315809822592139
1684252440686684700,0.0416845703125,3.561920912927389,4.373120683695376,3.6950644780039785
1684252440696710700,0.051710693359375,3.926337577921152,4.232435909458995,2.194600148179382
1684252440706736600,0.061736572265625,2.41294435454905,3.6716008925691246,0.2516220604628324
1684252440716763400,0.071763427734375,1.7524983320891856,-0.3554173659801483,-3.541402148772776
1684252440726789400,0.081789306640625,2.598198046091199,-0.5165615753993392,-5.3206777208894485
1684252440736815400,0.0918154296875,3.1247084763139483,2.6613544672280547,-3.2071775006860492
1684252440746842600,0.101842529296875,-0.2502256376683712,1.140643029797077,-6.879627411299944
1684252440756868600,0.11186865234375,-9.543345100528,-7.343819040253758,-23.71028874361515
1684252440766894600,0.12189453125,-1.9645704724520443,-2.059814807245135,-11.675170081973075
1684252440776920600,0.131920654296875,0.7829068654805421,4.518408567813038,-1.649260368193686
1684252440786947600,0.141947509765625,0.28715397709310053,6.81264354082942,0.5217614090647548
1684252440796973600,0.1519736328125,0.8485334761232137,6.509054561764001,2.403947539753467
1684252440806999600,0.16199951171875,2.1592671151220797,5.229021765977144,1.1459368984214962
1684252440817026600,0.172026611328125,3.059333210083842,5.079767608577013,0.7584834951028228
1684252440827052500,0.182052490234375,4.697803596454858,5.020966460040212,2.2484087491258977
1684252440837078500,0.19207861328125,5.797773255079984,4.102627041763067,2.8152999973148107
1684252440847104500,0.2021044921875,6.843551889312267,2.646101368516683,2.4404300351068375
1684252440857131500,0.212131591796875,8.04242849689126,1.6035072095394134,-0.03201894007325172
1684252440867157500,0.222157470703125,8.108288331767916,2.3328099106043574,-0.1675976233422756
1684252440877183700,0.232183837890625,7.870964845770597,4.054660590973496,1.794547960050404
1684252440887210500,0.24221044921875,7.18888975982666,5.385268558743595,1.6986434077829122
1684252440897236500,0.252236572265625,7.070267472055554,6.56763651459217,-0.15146715727448462
1684252440907262500,0.262262451171875,6.570069294697046,7.604264458641409,-2.3307868803441525
1684252440917288400,0.272288330078125,7.095221296048164,8.446246613425016,-3.849942905026674
1684252440927315500,0.2823154296875,7.25336310878098,8.813436250263452,-5.572909437683224
1684252440937341400,0.292341552734375,5.848529628849029,8.193265539568662,-5.894483570772409
1684252440947367700,0.30236767578125,3.0553017626106738,7.5085390623331065,-4.280764763820171
1684252440957394700,0.312394775390625,2.7573350073412057,8.82563756018877,-4.455467835253477
1684252440967420700,0.322420654296875,2.6076632090508935,9.669370358031987,-2.6451912679344414
1684252440977446700,0.33244677734375,1.0572248149413614,9.09319076475501,0.33481121580302714
1684252440987472600,0.34247265625,1.012882911324501,9.217061474573612,0.8028092513024806
1684252440997499400,0.35249951171875,1.1349451104164123,9.916978506678342,0.8117056744635105
1684252441007525400,0.362525390625,0.3879484202940017,10.013802219617366,1.8441537024796009
1684252441017551600,0.372551513671875,-0.17128829455375671,9.55073228816986,3.801693545642495
1684252441027578600,0.38257861328125,-1.1074492007255554,9.014975890696048,6.1627311873435975
1684252441037604600,0.3926044921875,-1.8674119746007025,7.742208701997995,9.546628359982371
1684252441047630600,0.402630615234375,-2.390544014431536,6.4495829666197295,12.729254772257804
1684252441057656600,0.412656494140625,-2.6230720828458667,5.07529718516469,15.345928970760106
1684252441067683600,0.42268359375,-3.21172683455348,3.600235738274455,18.145044141471384
1684252441077709600,0.43270947265625,-3.8373639939606186,2.9361200873911377,18.785096779721975
1684252441087735600,0.442735595703125,-2.787519717724621,2.2995161282896994,18.161646901226042
1684252441097762600,0.452762451171875,-1.765648759432882,0.9223878168851136,19.631060113096236
1684252441107788500,0.46278857421875,0.14588848035931587,-1.6520704571783542,21.3234380307436
1684252441117814500,0.472814453125,2.2679753271222114,-4.413310947525501,21.4400314430356
1684252441127841500,0.482841552734375,3.7208290338575836,-6.157915311494469,20.436353582429884
1684252441137867500,0.492867431640625,4.690186107188463,-6.982913013729453,18.723435565578935
1684252441147893800,0.502893798828125,4.857428341221809,-7.351714177417755,16.23172396378517
1684252441157919700,0.512919677734375,4.247843321949243,-7.537237918072939,14.286556695461272
1684252441167946500,0.522946533203125,3.7006390632659194,-7.418520353233814,12.362514048230647
1684252441177972500,0.532972412109375,3.5727240464925765,-7.058700952902436,10.108756631553172
1684252441187998500,0.54299853515625,3.8611078576415774,-6.888471227490902,7.824760143956541
1684252441198024400,0.5530244140625,4.367708887779712,-6.972381682842969,5.524491151472926
1684252441208051000,0.563051025390625,5.240770655959844,-6.832523130297661,3.2141619527459144
1684252441218077000,0.573076904296875,6.170206053268909,-6.738759389451146,1.4394722471147774
1684252441228103200,0.583103271484375,7.786331921362876,-6.209436824417114,0.09271920022964476
1684252441238130200,0.593130126953125,15.658311497133969,-2.7753625392019745,-7.265070497709512
1684252441248156200,0.60315625,17.53696601963043,1.1944903553187847,-11.254850912493467
1684252441258182100,0.61318212890625,7.173776361846923,-0.009261457081139087,-4.997680861520767
1684252441268208000,0.6232080078125,1.0889006406653672,-2.930060056699812,0.6073293493002653
1684252441278235000,0.63323486328125,-2.6066250981748103,-2.9539801537305115,2.5107430500000714
1684252441288261000,0.64326123046875,-2.3188766623198984,-2.113137524370849,1.164199846473336
1684252441298287000,0.653287109375,0.8787053270250559,-3.5381507457613943,0.6611719986468553
1684252441308314000,0.663314208984375,2.4253975934088228,-4.273705785219371,-1.30604518892169
1684252441318340000,0.673340087890625,1.2139818222522736,-0.5128828868865967,-3.9345664770841595
1684252441328366000,0.683365966796875,1.110709663826227,-0.23029519479572771,-4.640141681081056
1684252441338393000,0.69339306640625,0.9787982708930969,-1.0210542350813745,-4.977347098544239
1684252441348419000,0.703419189453125,-0.6707740127939731,-0.8038228122591972,-5.986553951704502
1684252441358445000,0.713445068359375,0.2125835239510983,-0.8636953894197941,-5.570201932290196
1684252441368471000,0.723470947265625,-0.6379799236297607,0.8077449541389942,-4.449067905083298
1684252441378498000,0.733498046875,-1.2651368399500846,1.7154285383671521,-3.4697920798063278
1684252441388524000,0.74352392578125,-2.813027960729599,2.294089719326794,-2.0717893226772546
1684252441398550000,0.753550048828125,-3.8584991364479064,2.9985306585967537,-0.5883797341585159
1684252441408577000,0.763576904296875,-5.121615868747234,4.827471886636316,-1.0748732112914323
1684252441418603000,0.77360302734375,-6.773339119923114,7.46149732517302,-0.4918716630399227
1684252441428629200,0.783629150390625,-8.142831821882725,8.662644800293444,1.6395990981400013
1684252441438655200,0.7936552734375,-5.073942263424396,7.209483050522207,3.3926281761050223
1684252441448682000,0.803681884765625,-0.6138273330174386,6.391923389333487,3.5401141547888515
1684252441458708000,0.8137080078125,0.9396237599767744,4.954507490226626,2.8491777169972656
1684252441468734000,0.82373388671875,2.0296049624204633,3.5637551426172256,2.5787819824814795
1684252441478761000,0.833760986328125,2.8213620738327503,2.472296707227826,2.051838421538472
1684252441488787200,0.843787109375,2.7451556169867515,0.626916093301773,2.1999556838631626
1684252441498813200,0.853813232421875,2.0233317273698748,-0.8432412149339914,0.10295184043049811
1684252441508839200,0.863839111328125,1.6757270809672773,-0.9776263045042752,-1.2717945442736147
1684252441518866200,0.8738662109375,1.288255703600496,-0.3383984266400337,-2.1459183887273072
1684252441528892200,0.88389208984375,1.2820811066187918,0.6948977426379919,-2.1887568289786574
1684252441538918100,0.893918212890625,1.6379124602273105,2.096840761825442,-2.5335914261460304
1684252441548945000,0.90394482421875,2.2903180918335915,2.7115520380705593,-2.0983453211694956
1684252441558971100,0.91397119140625,2.4773253490447997,1.6453127996116876,-1.165123391059041
1684252441568997000,0.9239970703125,2.053608938342333,0.8763269074559211,-1.451246856060624
1684252441579023000,0.934023193359375,1.1881057688482104,0.6925356896817684,-2.2075872016549107
1684252441589050000,0.944050048828125,1.9234113635897636,0.2541781746864319,-3.582850303709507
1684252441599076000,0.954076171875,2.508932493446767,0.5360457358092069,-4.35189873970747
1684252441609102000,0.96410205078125,1.1781366018891335,1.3536205945670603,-4.469152661734819
1684252441619128800,0.97412890625,-0.7832441346108913,1.8156956697583198,-3.9823406201720237
1684252441629155000,0.984155029296875,-2.766012234793603,0.6539543223530053,-2.5290754100263118
1684252441639181000,0.99418115234375,-4.43547747888714,-0.6695499508917331,0.04147241259515285
1684252441649207000,1.00420703125,-4.41020625950843,1.349693776512146,-0.2916922050446272
1684252441659234000,1.014234130859375,-5.08950808134675,0.946070890289545,0.7223200025707482
1684252441669260000,1.024260009765625,-4.7400958010002965,0.09906418534219265,1.5185527980923652
1684252441679286000,1.0342861328125,-3.6283740375220774,-0.08825696012377739,0.9903612829148769
1684252441689313300,1.044313232421875,-2.422603578776121,-0.4693342525392771,0.9413046988010406
1684252441699339300,1.05433935546875,-1.0328940182179212,-0.6729045220166444,1.8809668910920618
1684252441709365200,1.064365234375,0.08512859897017479,-0.8438245677798986,3.2814597114711996
1684252441719391200,1.07439111328125,0.9462810259088873,-1.2915011152625082,4.966191498279572
1684252441729418000,1.08441796875,1.820941169196367,-1.6769956395983694,6.173312787112593
1684252441739444000,1.09444384765625,2.436022886189073,-1.595268373504281,5.923311021327972
1684252441749470000,1.104469970703125,2.920377743858099,-0.9959083956480026,5.150555547505617
1684252441759497200,1.114497314453125,3.408917632126808,0.13966449127793312,4.543628933787345
1684252441769523200,1.124523193359375,3.839248492532968,1.2145511465728283,4.040303564319014
1684252441779549200,1.134549072265625,4.122338288927078,1.8494488862782716,3.709980307585001
1684252441789576000,1.144575927734375,3.552150045019388,1.5557050094008444,2.8638907174825667
1684252441799602000,1.154601806640625,2.802643344837427,1.2762094381064175,3.0052430157169696
1684252441809628000,1.1646279296875,2.425111323813349,1.6342980691224336,3.20878025970757
1684252441819654000,1.17465380859375,2.2727578852236268,1.7173007619798182,2.7531974691450594
1684252441829681200,1.18468115234375,2.0694179173707963,1.009016883546114,2.049916659695655
1684252441839707100,1.19470703125,1.7371815204918384,-0.29416297907233235,1.543005394564569
1684252441849733000,1.204733154296875,1.3512836760520934,-1.5288111572563647,1.2525146742641926
1684252441859760000,1.214760009765625,0.900666545072943,-2.743253582757711,0.5441445788517594
1684252441869786000,1.2247861328125,0.6114334236182272,-2.990950578731298,0.08349953646361827
1684252441879812000,1.23481201171875,0.33520342999100683,-2.725467166176438,-0.28989421571195123
1684252441889838000,1.244838134765625,-0.09492072886191308,-2.574470549023151,-0.7923942402720451
1684252441899865000,1.254864990234375,-0.4374141697306186,-2.6726538598775864,-1.7151191801570356
1684252441909891000,1.26489111328125,-0.6501064147531986,-3.2574183261483904,-2.1242367182731625
1684252441919917000,1.2749169921875,-0.8564847273886204,-3.719318044772744,-2.2535119174838063
1684252441929944000,1.284944091796875,-1.0239338821709156,-3.7739094666600224,-2.5737983488500116
1684252441939970000,1.294969970703125,-1.0740249238990247,-3.692092184194922,-2.512806412270665
1684252441949996000,1.30499609375,-1.2223204654000699,-3.0258003583163022,-2.7832687822818754
1684252441960022000,1.31502197265625,-1.412618726980686,-1.8499492370158432,-3.093231972554326
1684252441970049000,1.325049072265625,-1.5718869133949278,-1.216494681856036,-2.91617006303519
1684252441980075000,1.335074951171875,-1.511499956971407,-1.0672463696748018,-2.470690441074967
1684252441990101000,1.34510107421875,-1.3736474835515022,-1.1004495510965584,-1.9597811923488972
1684252442000128000,1.3551279296875,-1.5492039569437503,-1.9626140776872634,-1.1399268443517385
1684252442010154000,1.365154052734375,-1.66099742160812,-3.0147739373892546,-0.7463187177956104
1684252442020180000,1.375179931640625,-1.1233178009867668,-3.1234383102476593,-0.935667861957848
1684252442030206000,1.3852060546875,-0.7497241423249245,-3.6206098332613705,-0.995107600659132
1684252442040233200,1.395233154296875,-0.3235749880502,-3.9783419059246774,-1.220310733012855
1684252442050259200,1.40525927734375,-0.11276952488860115,-4.433481628894806,-1.5764137431696057
1684252442060285200,1.41528515625,-0.76771104991436,-4.657602518969774,-1.9133891512691974
1684252442070312000,1.42531201171875,-0.48775545989274977,-4.493524886447191,-1.7683005891159176
1684252442080338000,1.435337890625,-1.052540383452177,-2.3510855720072983,-0.5244175495967268
1684252442090364000,1.445364013671875,-1.13045481325984,-0.9395137237310409,1.3114140224784612
1684252442100390000,1.455389892578125,-1.3499579804062842,1.8176959036648273,3.857110312438011
1684252442110417200,1.465417236328125,-2.107100874555111,4.669104156193137,6.6017153098046775
1684252442120443100,1.475443115234375,-2.656895149731636,7.841374009627104,8.262718430501222
1684252442130469000,1.48546923828125,-2.449959787735343,10.892132868111133,7.8045760185837745
1684252442140496100,1.49549609375,-2.646948340734839,11.287103661322593,6.99576840364933
1684252442150522000,1.505522216796875,-2.9797979010760782,10.595878469717501,7.059872334769368
1684252442160548000,1.515548095703125,-2.8285055158466097,8.365482054883241,6.799315857222676
1684252442170575000,1.5255751953125,-2.189065456536412,5.705294293347,5.239987396627664
1684252442180601000,1.53560107421875,-1.0668143349330872,3.084501553609967,2.704754925276339
1684252442190627000,1.545626953125,0.043683220512419935,0.787304808178544,0.41431028445363044
1684252442200653000,1.555653076171875,1.8754712162852287,-0.9322095381975174,-1.3771008388757704
1684252442210680600,1.5656806640625,10.850807170510292,-1.0637316395521164,-3.284357771000266
1684252442220706600,1.57570654296875,19.97814921119213,0.6356231313705444,-4.836261050030589
1684252442230732800,1.58573291015625,16.026022527498007,0.9718740245878695,-6.543154984286427
1684252442240759600,1.595759521484375,12.107063953912258,0.6729945383876562,-6.434031177222728
1684252442250785500,1.60578564453125,9.801398070821165,0.8358838379085064,-3.88424791021049
1684252442260811500,1.6158115234375,8.34560597254634,1.3297060504943132,-1.4253443530410528
1684252442270837500,1.62583740234375,6.379003702005743,1.3235960431814193,0.262301859909296
1684252442280864500,1.635864501953125,4.736377364999056,1.2630980275988577,1.7972180560424922
1684252442290890500,1.645890380859375,3.4535756890207527,1.1649971343308687,2.337676932118833
1684252442300916700,1.655916748046875,2.7379472930431366,0.7332739427834749,2.3233885867863893
1684252442310943500,1.665943603515625,2.5219161859214303,0.3117161714196205,2.3199805319085716
1684252442320969500,1.675969482421875,2.2220336601585147,0.4407055394262075,2.654194074079394
1684252442330995500,1.685995361328125,0.7911240742057561,1.6475374899238346,2.993065963450074
1684252442341021400,1.696021484375,-0.276373347620666,3.2543916718035932,3.3247695686265826
1684252442351048400,1.70604833984375,-0.8237854038357734,4.619477078714967,3.74011094969362
1684252442361074400,1.716074462890625,-1.6654963404625653,5.562874950402975,4.26182771589905
1684252442371100700,1.7261005859375,-2.3450310942739248,5.708790318769216,4.6854129014372825
1684252442381127700,1.736127685546875,-2.003795982903242,4.642668569210171,4.789140402415394
1684252442391153700,1.746153564453125,7.155637478566169,2.3554560421764847,6.281126096099615
1684252442401179600,1.7561796875,12.10573708922267,0.042883448436856264,6.462585071533918
1684252442411205600,1.76620556640625,6.491868449163436,-1.539715413108468,3.524305760282278
1684252442421232400,1.776232421875,-0.0871567437969148,-2.2221295217484234,0.7147919451534748
1684252442431258600,1.786258544921875,-7.868875764536857,-2.274807803490758,-0.5965168633848429
1684252442441284600,1.79628466796875,-9.662082539111376,-2.2973493056446315,-0.48913317798674105
1684252442451311600,1.8063115234375,-8.835010953211784,-2.309871518087387,-0.7745908725559711
1684252442461337600,1.816337646484375,-8.92865837420225,-1.8676064742594956,-0.9280272840768098
1684252442471363600,1.826363525390625,-8.944927956479788,-0.8984873013377189,-0.9405278692096471
1684252442481390600,1.836390625,-7.84261144246757,0.38103812944889065,-1.1754302655398845
1684252442491416600,1.84641650390625,-7.425863117212057,2.0753847168207167,-0.946294762173295
1684252442501442600,1.856442626953125,-5.277793687930703,3.810270819851756,-0.156897365629673
1684252442511468500,1.866468505859375,-0.23779490290135144,5.307455251222849,1.8890940834462642
1684252442521495600,1.87649560546875,1.3421338626518844,5.899997365757823,4.751073998871445
1684252442531521500,1.886521484375,1.1334507802054286,5.349573560506105,7.051992395174503
1684252442541547500,1.896547607421875,0.5068567584648728,4.009096525150537,7.474148132431507
1684252442551574500,1.906574462890625,-0.7119111290201544,2.3627374313563108,5.398880319988727
1684252442561600500,1.9166005859375,-1.582321505908668,0.7731488570541143,1.3953671479284762
1684252442571626800,1.926626708984375,-2.2033953029230235,-0.306067936399579,-1.753622367683053
1684252442581652700,1.93665283203125,-2.750926893864572,-0.9532646011859178,-3.6825247299045323
1684252442591679500,1.946679443359375,-3.0394007213845846,-1.1355687952727078,-5.146818114542961
1684252442601705500,1.95670556640625,-3.2829502422899006,-0.9998030649989843,-5.923007069945335
1684252442611731500,1.9667314453125,-3.338383375698328,-0.6628665276050567,-5.85513121907115
1684252442621758500,1.976758544921875,-2.9185964133992788,0.010130933392047882,-5.428980274698138
1684252442631784700,1.98678466796875,-2.7528154840901493,0.8438771747499704,-4.930135265514254
1684252442641810700,1.996810791015625,-2.6384982000365853,1.6565549091160297,-4.593275300487876
1684252442651836700,2.006836669921875,-1.9964991038933395,2.170336206147075,-4.427905874589086
1684252442661863700,2.01686376953125,-1.2834718303248285,2.019341927081346,-4.361804047650098
1684252442671889700,2.0268896484375,-0.7674132360115646,1.1425643532484768,-4.488030380684137
1684252442681915600,2.03691552734375,-0.5198036260604858,0.06565408317148685,-4.131216007387638
1684252442691942400,2.0469423828125,-0.6413304031014442,-0.5844178447902202,-2.9759605148702857
1684252442701968600,2.05696875,-1.2746321057870984,-0.8865279834747314,-2.1970196304112672
1684252442711994600,2.06699462890625,-2.2112881019994615,-1.0180442396104334,-1.9844068073004484
1684252442722021600,2.077021728515625,-3.221734433826804,-1.2385843485891819,-2.0836042636334895
1684252442732047600,2.087047607421875,-4.045360555447638,-1.6416963626801966,-2.4396727869987487
1684252442742073600,2.097073486328125,-4.463311242230236,-2.0905214956760405,-2.7529624913454054
1684252442752099600,2.107099609375,-4.489161722801626,-2.5034932250022885,-2.7817840966820717
1684252442762126300,2.117126220703125,-4.28224915715903,-2.90985693436563,-2.6400498133927583
1684252442772152600,2.127152587890625,-4.027909069909155,-3.2635125513702627,-2.6466683547496794
1684252442782178600,2.137178466796875,-4.058927016246319,-3.558053131583333,-3.088704265996814
1684252442792205600,2.14720556640625,-4.004014691841602,-3.8911236411988734,-3.7865672881811854
1684252442802231600,2.1572314453125,-4.773701425743103,-4.121227697336674,-4.764564179563522
1684252442812257500,2.167257568359375,-6.444831972700357,-3.830097802349925,-6.003495734155178
1684252442822283500,2.177283447265625,-6.24321868250966,-3.692490243601799,-6.618243250757455
1684252442832310800,2.187310791015625,-3.4011060815930363,-4.395491213196515,-6.6308893818408245
1684252442842336800,2.197336669921875,-1.489947465854883,-4.8785494551837445,-6.206621766996383
1684252442852362800,2.20736279296875,10.048977577894926,-3.149742964327335,-0.660820116469264
1684252442862389500,2.217389404296875,33.67817793784141,5.195765393063426,10.336792649245261
1684252442872415500,2.22741552734375,-5.8969140127897255,10.086091210758685,2.2169377983242273
1684252442882441500,2.23744140625,-15.0711873159945,19.04749099408984,7.24135059942603
1684252442892467500,2.247467529296875,12.717768917125463,25.689180586886405,4.562567443013191
1684252442902494700,2.25749462890625,6.419753645545244,17.34295385209322,-4.766797053182125
1684252442912520700,2.267520751953125,-12.56143035442233,8.006717716562747,-2.1039362730443476
1684252442922546700,2.277546630859375,-7.640764928042888,3.2815321921855207,-1.3183277473896742
1684252442932573400,2.287573486328125,3.1954046453058718,-0.9141028036206961,0.3775724991649389
1684252442942599400,2.297599365234375,3.800712133389711,-2.5985961054980753,3.6680835320979353
1684252442952625400,2.30762548828125,-4.249130439150333,-1.018133086937666,5.146402519479394
1684252442962651400,2.3176513671875,-2.6589023979008197,1.145294654995203,7.746782585784793
1684252442972678700,2.3276787109375,3.016300124043226,2.2523031262159345,7.686924621671438
1684252442982704600,2.33770458984375,1.5794705003917215,1.5439409218490123,5.463339055895805
1684252442992730600,2.347730712890625,2.52736217636764,0.5756231284379959,3.4200387455999848
1684252443002757600,2.357757568359375,5.372334842890501,0.11624386820197105,1.3001672367990016
1684252443012783600,2.36778369140625,4.553571066609025,-0.6404845999270677,-0.411157373380661
1684252443022809600,2.3778095703125,3.555146888747811,-1.2708201462835074,-1.2489251253396272
1684252443032836600,2.387836669921875,4.3103865796238185,-1.5618997723877428,-1.5719097097486256
1684252443042862600,2.397862548828125,4.72251250577569,-1.5744009420424698,-1.8384721497118472
1684252443052888600,2.407888671875,3.681767774057388,-1.0941384682536124,-1.5458990701794624
1684252443062914600,2.41791455078125,2.6674597983658312,-0.4144078996092081,-0.7069499994814396
1684252443072941600,2.427941650390625,2.3483774820923804,-0.1851566609084606,0.182878779104352
1684252443082967600,2.437967529296875,1.8414374292582272,-0.548119619962573,1.1236182452380656
1684252443092993500,2.44799365234375,0.9071464816767721,-0.9774076933175325,2.08582252420485
1684252443103020500,2.4580205078125,0.8136872036695479,-1.3220569970458744,2.891771242576837
1684252443113046500,2.468046630859375,1.1218377915620803,-1.6068641187518835,3.4033079755514857
1684252443123072500,2.478072509765625,0.8715817587554454,-1.7892910624355076,3.6097424022883176
1684252443133098500,2.488098388671875,0.4022930989235639,-1.8411907610207796,3.5733795877918597
1684252443143125500,2.49812548828125,0.288544591201283,-1.8251175780981779,3.3611695002630353
1684252443153151500,2.5081513671875,0.37519349507391453,-1.7214765863597392,3.1799019557476043
1684252443163177500,2.518177490234375,0.3829378986556083,-1.54670571038723,3.142980630585551
1684252443173204700,2.528204833984375,0.4908973381150514,-1.5171259801596402,3.065060940080881
1684252443183230700,2.538230712890625,0.6072627868700772,-1.511329861101508,2.8959073194682596
1684252443193256700,2.548256591796875,1.1275889754999429,-1.4727169295907019,2.4674244250163433
1684252443203283500,2.558283447265625,1.6853104634791611,-1.2290396906524896,1.8611650430351494
1684252443213309000,2.568308837890625,1.771330458331108,-0.7003606842190027,1.2783783065780996
1684252443223335000,2.5783349609375,1.837045916301012,-0.10880115098059177,0.861560130956769
1684252443233361000,2.58836083984375,1.9196236617445945,0.22072657146155833,0.4013599097266793
1684252443243388000,2.598387939453125,1.9176888942897319,0.337605230435729,-0.09912117622643708
1684252443253414000,2.608413818359375,1.6522335387855767,0.32967852908968925,-0.531623827713728
1684252443263440100,2.618440185546875,1.588265216743946,0.24282559054493902,-0.9880357625767588
1684252443273467100,2.628467041015625,1.8849229352414607,0.19163257892429827,-1.455758196005225
1684252443283493000,2.6384931640625,2.0269810436576603,0.18947861576080322,-1.8054121761530637
1684252443293519000,2.64851904296875,1.8999626834630965,0.22130700169801712,-1.8689006057232618
1684252443303545000,2.658545166015625,1.5742618258327246,0.17239771710038185,-1.8273901992052792
1684252443313571800,2.66857177734375,1.2511965774029492,-0.00905132146179676,-1.7615972920849918
1684252443323597800,2.678597900390625,1.1186375342160462,-0.26676643810272216,-1.647415617109835
1684252443333624000,2.6886240234375,1.1200783806741237,-0.5746054758280515,-1.5069596831932663
1684252443343651000,2.698651123046875,1.2870306918501853,-0.839983674442768,-1.528252646590769
1684252443353677000,2.708677001953125,1.7191887676835058,-1.0262211163252593,-1.5977046607404946
1684252443363703000,2.718703125,2.356927868294716,-1.209538286846876,-1.7468483435034752
1684252443373729000,2.72872900390625,3.2093641970753666,-1.4051555514931677,-1.7074410467445849
1684252443383756000,2.738756103515625,4.0087364596664905,-1.6487036110937594,-1.2297741424068809
1684252443393782000,2.748781982421875,4.514057386866211,-1.8363637792557477,-0.34355449422895906
1684252443403808000,2.75880810546875,5.115362069049477,-1.9468132819652557,0.6006783669784664
1684252443413835000,2.7688349609375,5.810774190950394,-1.9632091209709643,1.400119895413518
1684252443423861000,2.778861083984375,6.531706538555025,-1.7991408407986162,2.003216137188673
1684252443433887000,2.788886962890625,7.743808538410067,-1.7729221114367246,2.5488763813003894
1684252443443913000,2.798912841796875,9.607923663422465,-2.2329794170647856,2.4367709280773995
1684252443453940000,2.80893994140625,10.68333112772107,-2.6387930913299322,1.3790560645967722
1684252443463966200,2.81896630859375,9.590293898707628,-2.279020452749729,-0.33757980373352764
1684252443473992200,2.8289921875,6.201987677454948,-1.2876111220866442,-1.4075401085421442
1684252443484019000,2.83901904296875,2.1201155466899273,-1.0572183121353387,-1.519461437369883
1684252443494045000,2.849044921875,-1.4795055668175219,-0.719651660144329,-0.9109797031641006
1684252443504071000,2.85907080078125,-4.0705753684639925,0.7330453947246074,-0.10006050290316343
1684252443514098000,2.869097900390625,-5.414965193349123,2.5142004969775673,1.6402502555251122
1684252443524124000,2.8791240234375,-8.504138830423354,4.630678271687031,4.6766415659606455
1684252443534150100,2.889150146484375,-13.519329629671573,9.925826999044418,9.01169263124168
1684252443544176000,2.899176025390625,-19.789804567897317,18.12076777834892,11.849901210457086
1684252443554203100,2.909203125,-20.613335120189188,24.134209736979006,14.8392922847867
1684252443564229000,2.91922900390625,-15.66442793418765,24.361055668103692,16.175205373227595
1684252443574255000,2.929255126953125,-9.881985519230366,15.158330177396534,13.801225832366942
1684252443584281900,2.93928173828125,-5.304620320057869,5.197143111157417,7.77599172913432
1684252443594308000,2.94930810546875,-0.8248135778397321,-0.9711351889193057,2.9279113542333244
1684252443604334000,2.959333984375,6.804373725134134,-5.736970703592896,1.6166460925757884
1684252443614361000,2.969361083984375,7.161005727601051,-7.62681180601418,3.7786575379699467
1684252443624387000,2.979386962890625,0.3306323226831853,-7.033361344462633,4.667002215477824
1684252443634413000,2.9894130859375,-5.219287138426304,-6.1123009767889975,4.007071741324663
1684252443644439000,2.99943896484375,-5.200239908128976,-5.319760606044531,3.043773821902275
1684252443654465800,3.0094658203125,-2.5504092899560926,-4.172417201825976,0.6526923395931721
1684252443664492000,3.019491943359375,-0.2868041407421231,-2.957725769999623,-2.5732202567011115
1684252443674518000,3.02951806640625,0.4596577849164605,-2.1788328163355586,-4.814107670411468
1684252443684545000,3.039544921875,0.09268032952398061,-1.8652023357272147,-5.8573956568717955
1684252443694571000,3.049571044921875,0.006906856779009103,-1.8999778810322283,-6.249854759523272
1684252443704597000,3.059596923828125,0.9959455127879977,-2.4225895502507684,-5.696185688740015
1684252443714623000,3.069623046875,1.6651216619312763,-2.735756505000591,-4.770625671559572
1684252443724650000,3.07964990234375,0.7093745962798595,-2.505389414012432,-3.939019364839792
1684252443734676200,3.08967626953125,-0.9876923559665679,-1.891997988194227,-3.329375308856368
1684252443744702200,3.0997021484375,-2.25868595912084,-1.110116958630085,-2.9616689546674486
1684252443754729000,3.10972900390625,-2.876158662903309,-0.300021641972661,-2.566755444601178
1684252443764755000,3.1197548828125,-3.282833922433853,0.5390232903152704,-2.0467033967375756
1684252443774781000,3.129781005859375,-3.9127591344237325,1.4265496371775865,-1.4579004687309265
1684252443784807000,3.139806884765625,-4.304292938923836,2.2710300385177136,-0.6677022771984339
1684252443794834200,3.149834228515625,-4.583764544820785,2.953581509801745,-0.08033610399663448
1684252443804860200,3.159860107421875,-4.265710987073183,3.311566095921397,0.31415771935284137
1684252443814886100,3.16988623046875,-0.4193943097196519,3.2139076857239006,1.6703057865709066
1684252443824913200,3.1799130859375,2.5136580606639383,2.6061715091884134,2.8071564383476972
1684252443834939000,3.18993896484375,-1.0876429687544702,1.6178373481869697,1.6680068619787691
1684252443844964900,3.19996484375,-2.8219065559729932,0.9133622143864631,-0.1180278290092945
1684252443854992000,3.209991943359375,-2.453888943877816,0.5588327371567487,-1.375259010401368
1684252443865018000,3.22001806640625,-2.143190571198612,0.43086978958845135,-1.9463082550525663
1684252443875044000,3.230044189453125,-1.9554875868082044,0.44533670635819433,-2.201018344658613
1684252443885070000,3.240070068359375,-1.4374277356751262,0.5902250697642565,-2.4396248562037943
1684252443895097000,3.25009716796875,-1.102059908902645,0.7373246794790029,-2.6516888132601975
1684252443905123000,3.260123046875,-1.0864068510882556,0.9013228170245885,-2.839468223887682
1684252443915149000,3.270149169921875,-1.1210685607552529,1.0985188752949238,-2.986179711067676
1684252443925175800,3.28017578125,-1.2233423557937144,1.1256231553196907,-3.060646630769968
1684252443935202000,3.2902021484375,-1.4071065394304691,0.8986883768677711,-2.9246476762622593
1684252443945228000,3.30022802734375,-1.6027962847910822,0.4731231234282255,-2.5929239050805566
1684252443955254000,3.31025390625,-1.9288674370385706,-0.018867197555303573,-2.3085499140948054
1684252443965281000,3.320281005859375,-2.2066369151927527,-0.4612760337680578,-2.2419056508421895
1684252443975307000,3.33030712890625,-2.2351554459296166,-0.866063872116804,-2.411855390268564
1684252443985333000,3.3403330078125,-2.1857791283421215,-1.2637713968157767,-2.7006039430767297
1684252443995360300,3.3503603515625,-2.105021145671606,-1.6326853732287883,-2.918877276167273
1684252444005386200,3.36038623046875,-1.97950339929834,-1.941627988281846,-3.0728052705973385
1684252444015412000,3.370411865234375,-1.9046014491796492,-2.2214035455614325,-3.2424124801963567
1684252444025438000,3.38043798828125,-1.847212943919748,-2.445231590169668,-3.4619027878612276
1684252444035465000,3.39046484375,-1.7250854245066642,-2.641740250697732,-3.7242338738650083
1684252444045491000,3.400490966796875,-1.54940970864892,-2.736342195934057,-4.048229096621275
1684252444055517000,3.410516845703125,-1.2833075796738267,-2.6649153745800254,-4.242842737182975
1684252444065544200,3.420544189453125,-1.051764430643618,-2.483787238535285,-4.134108221697807
1684252444075570200,3.430570068359375,-0.8009868581809103,-2.186768285509944,-3.670382456690073
1684252444085596200,3.44059619140625,-0.8100224706169218,-1.8503958117395638,-2.9604893894940614
1684252444095623000,3.450622802734375,-1.1173137382663785,-1.4466191962599753,-2.024059018731117
1684252444105649000,3.46064892578125,-1.3667699989974498,-0.9302993206620216,-1.0613725092053412
1684252444115675000,3.4706748046875,-1.4976865356743334,-0.5992290449529886,0.042728550136089324
1684252444125700900,3.480700927734375,-1.807513532346487,-0.30622867991924285,1.3290584002405403
1684252444135728000,3.49072802734375,-1.9909949535191058,-0.14240005372166634,2.5334493873268364
1684252444145754000,3.500754150390625,-1.8653122258424757,-0.2588338915377855,3.368596727654338
1684252444155780000,3.510780029296875,-1.7377262948930263,-0.03475508703887462,4.322839526222646
1684252444165807000,3.52080712890625,-1.9959762490630149,2.037397808253765,5.884125258365273
1684252444175833000,3.5308330078125,15.381177978795765,12.290379370868205,9.792284790039062
1684252444185859000,3.540859130859375,24.89059742884636,24.21316695383787,15.065684626924991
1684252444195885000,3.550885009765625,-1.9743705664545297,18.116432964015004,11.45742398762703
1684252444205911800,3.560911865234375,-6.542100506797433,12.032296589958667,7.916817080885171
1684252444215937800,3.570937744140625,-5.079141001111268,5.985073942279815,4.046797017991542
1684252444225963800,3.5809638671875,5.296287375998497,-1.9282354227453469,-2.3153759607225655
1684252444235991000,3.590990966796875,15.684984400004147,-7.140814003443718,-7.147270632237196
1684252444246017000,3.60101708984375,6.285224179068208,-5.213465884926915,-4.011277376320958
1684252444256043000,3.61104296875,-1.3461387143790722,-3.9271424645632504,-2.29873169991374
1684252444266070000,3.621070068359375,-1.7441653880298136,-4.148122134003043,-2.030458072118461
1684252444276095700,3.631095703125,-1.7123194664359092,-4.60587583886385,-2.1580752749890086
1684252444286121700,3.641121826171875,-2.101912073740363,-4.573259517419338,-2.127625191667676
1684252444296147700,3.651147705078125,-2.579959209567308,-3.8491736742198466,-2.0469231769680976
1684252444306175000,3.661175048828125,-3.0039503455579277,-2.6808997101753946,-1.8217270588770507
1684252444316201000,3.671200927734375,-3.261938433921337,-1.3900018215030432,-1.1948892915084957
1684252444326227000,3.68122705078125,-3.24356223475337,-0.33638650229573247,-0.5650061650946736
1684252444336254000,3.69125390625,-3.5874610123753548,0.5578963330894708,0.025885551884770392
1684252444346280000,3.701280029296875,-3.2723663044333455,0.7517687998950481,-0.5479571228772402
1684252444356306000,3.711305908203125,-2.185419793510437,0.43618484713137146,-1.618017380928993
1684252444366332000,3.721331787109375,-1.417085643261671,0.4114361903220415,-1.9627999556481837
1684252444376359000,3.73135888671875,-1.0670119763970374,0.5558206958591938,-1.7353610270664095
1684252444386385000,3.741385009765625,-0.9386381099402904,0.6728390555649996,-1.64094408300817
1684252444396411000,3.751410888671875,-0.7362836459934711,0.5305716883122921,-1.702607050716877
1684252444406438000,3.76143798828125,-0.7235130117475986,0.3480699258267879,-1.8148828920707105
1684252444416464000,3.7714638671875,-0.6089806236386299,-0.12210311562418937,-1.9138263736426828
1684252444426489900,3.78148974609375,-0.5499006946930661,-0.5946089839369059,-1.985414523038268
1684252444436517000,3.79151708984375,-0.6247948633641004,-1.156533257368207,-1.928207365694642
1684252444446543000,3.801543212890625,-0.6614198359280824,-1.5204700298905371,-1.7738810195967554
1684252444456568800,3.81156884765625,-0.8255570896834135,-1.4531038821041584,-1.665614413884282
1684252444466594800,3.8215947265625,-0.9584083207499235,-0.8567787418991327,-1.473292975912988
1684252444476621800,3.831621826171875,-0.9560141190897673,0.04454933582246303,-1.2656857060045004
1684252444486647800,3.841647705078125,-0.8522744162172079,0.9589104981184006,-1.028701827225089
1684252444496673800,3.851673828125,-0.7471937470644712,1.707582501041889,-0.7272045597419142
1684252444506701000,3.861701171875,-0.4419914145182818,2.116958251702785,-0.4757628242820501
1684252444516727000,3.87172705078125,0.23331834200918672,2.3216607400804756,-0.2840045731514692
1684252444526753000,3.8817529296875,1.2104314362943172,2.112683058601618,0.23373861324787137
1684252444536779000,3.891779052734375,2.6865724951148033,1.58864924762547,0.7772182984501123
1684252444546805800,3.9018056640625,5.210245169314741,0.9666969142109155,1.363233349303901
1684252444556831700,3.911831787109375,9.17517580500245,0.6551677897959948,2.266577735283971
1684252444566857700,3.921857666015625,10.618038863599299,0.21923954777419566,2.5788205609261987
1684252444576885000,3.931885009765625,7.663564788872003,-0.021558920857310294,1.5849907251179218
1684252444586911000,3.941910888671875,4.411959532916546,-0.03955927245020866,0.1277633333429694
1684252444596937000,3.95193701171875,3.077856416507065,-0.14666004925370216,-0.55140755559206
1684252444606964000,3.9619638671875,2.7867764981418848,-0.253545722001791,-0.402388083730638
1684252444616990000,3.971989990234375,2.3499169666193422,-0.28193419661819935,-0.012780571117997169
1684252444627016000,3.982015869140625,1.687583230716735,-0.14263093986809253,0.1261734338030219
1684252444637042000,3.9920419921875,1.2659401191569863,-0.2305523844271898,-0.02921148143708706
1684252444647069000,4.00206884765625,0.9525864096634089,-0.39863457641601563,-0.4041232369601726
1684252444657095000,4.012094970703125,0.7407295194864273,-0.6482341911405325,-0.6688933866791427
1684252444667121000,4.022120849609375,0.6747270612686872,-1.0296838239997625,-0.7960748284809291
1684252444677148000,4.03214794921875,0.4857102908659726,-1.4302514143049716,-0.9715817636430263
1684252444687174000,4.042173828125,0.0358235930532217,-1.6398066034108398,-1.4106174701608716
1684252444697199900,4.052199951171875,-0.5844418101876974,-1.4230898521125315,-1.7104999959237872
1684252444707225900,4.062225830078125,-0.30330957760214805,-0.2715127558469772,-1.8009226096488535
1684252444717252900,4.0722529296875,4.086480209082365,2.4109108028948305,-1.1376585340935736
1684252444727278800,4.08227880859375,6.719946552431583,5.2010775279968975,-0.1967722068350762
1684252444737304800,4.092304931640625,5.805691188597679,7.71010208364129,-0.3325121450804174
1684252444747331800,4.102331787109375,2.157493821839243,10.923967099267244,1.3674416146486996
1684252444757357800,4.11235791015625,0.891960383787006,12.362551457631588,3.441515833392739
1684252444767383800,4.1223837890625,1.226191315484047,10.376697958654164,2.6401746088162064
1684252444777411000,4.1324111328125,-1.4498320208266378,8.004376706394552,2.5671634408801793
1684252444787437000,4.14243701171875,-3.149211341668665,5.8472325747758145,1.6844669983923435
1684252444797463000,4.152463134765625,-5.489821989151835,4.818534839203953,1.7627713043004274
1684252444807489000,4.162489013671875,-8.469194942814111,4.990107795917988,2.8461943172723054
1684252444817515800,4.172515869140625,-10.066798481267691,5.368871550694108,3.761974114194512
1684252444827541800,4.182541748046875,-9.065061817857623,5.04677953121066,3.6893218426987526
1684252444837567700,4.192567626953125,-7.242233812001347,3.6591327484011646,3.0366537607640027
1684252444847595000,4.202594970703125,-5.727560485690832,2.182154069712758,2.8212422468453644
1684252444857621000,4.21262109375,-3.894007087680697,1.7308669305175541,3.9223786111623045
1684252444867647000,4.22264697265625,-2.321983103902638,1.5963111605554818,5.4855789447546
1684252444877674000,4.232674072265625,-2.4781559546500445,1.105194699797034,6.647344257557392
1684252444887700000,4.242699951171875,-3.9415211185276506,0.033930326652526856,6.637244888347387
1684252444897725700,4.2527255859375,-5.563544812488556,-1.3556968163192271,5.407870851173997
1684252444907751700,4.262751708984375,-5.974346796560287,-2.6779373532384634,4.10239732466042
1684252444917779000,4.272779052734375,-4.725323471543192,-3.940259135767817,3.0744644359812137
1684252444927805000,4.282804931640625,-1.7163234413802624,-5.0190118188411,1.9611540881372986
1684252444937831000,4.292830810546875,1.791226122151315,-5.260512882784009,-0.06892755188420414
1684252444947858000,4.30285791015625,3.6611253835231063,-3.7791993897616862,-2.8093250145584343
1684252444957884000,4.3128837890625,3.483834341423213,-2.259441307532787,-4.115382478439808
1684252444967910000,4.322909912109375,1.543913741581142,-1.2510522004961966,-3.953392758107185
1684252444977936000,4.332935791015625,-1.0776707330554722,-0.7880453974127769,-2.6487179807558654
1684252444987963000,4.342962890625,-3.6120898421972987,-0.8854179764062166,-0.9532431200064718
1684252444997988900,4.35298876953125,-4.532627647301554,-1.2081401104867457,0.7640392295338213
1684252445008014800,4.363014892578125,-4.363770379287004,-1.6097995876818894,2.374327623645961
1684252445018041900,4.373041748046875,-4.256088003203272,-2.1167028156369923,3.543073004594445
1684252445028067800,4.38306787109375,-4.618148460459709,-2.669567584300041,4.078761013007163
1684252445038093800,4.39309375,-4.716761979424954,-3.064643006929755,3.707057698136568
1684252445048121000,4.40312109375,-4.187976590007543,-3.3536563481539488,3.073281363676488
1684252445058147000,4.41314697265625,-3.453852752396464,-3.5516853501170873,2.5266779934957624
1684252445068173000,4.423173095703125,-3.7205128075152634,-3.614018179911375,2.1905697236195207
1684252445078198800,4.43319873046875,-4.544263724559546,-3.5888206102907656,2.1985016856625674
1684252445088225800,4.443225830078125,-5.113068405154347,-3.6773897051036357,2.0963781127497554
1684252445098251800,4.453251708984375,-5.655600580373406,-3.944731897267699,1.7622446500778197
1684252445108277800,4.46327783203125,-5.951760870742797,-4.358602621260285,0.9016916503369807
1684252445118305000,4.473304931640625,-5.696468597334623,-4.857102762529253,-0.19753683453202248
1684252445128331000,4.4833310546875,-5.25704082275927,-5.21905157610476,-0.6872463511019945
1684252445138357000,4.49335693359375,-5.4365223606407636,-5.155708692485094,-0.6804518686562776
1684252445148383000,4.503383056640625,-5.6207373567849395,-4.6569326568841936,-0.7515323607906699
1684252445158409700,4.51340966796875,-5.427299189743399,-4.112289773121476,-0.9859200855970383
1684252445168435700,4.523435791015625,-5.366133065640926,-3.746712832176685,-1.2787865951180457
1684252445178461700,4.533461669921875,-5.516252315437794,-3.6415818941414355,-1.5510630288138985
1684252445188489000,4.543489013671875,-5.611673175841569,-3.683562256258726,-1.7855606437355278
1684252445198515000,4.553514892578125,-5.33527849317193,-3.748751644527912,-1.9376006324619053
1684252445208541000,4.563541015625,-4.853646192334592,-3.9139065508931874,-1.7522516638517378
1684252445218568000,4.57356787109375,-4.3200706460312,-3.9527445233315226,-1.5057807025417684
1684252445228594000,4.583593994140625,-3.678461133727431,-3.93109617062509,-1.4144973803341387
1684252445238620200,4.5936201171875,-3.0468755873098967,-3.8671781174659725,-1.2675117523878812
1684252445248646100,4.603646240234375,-2.2651979713633654,-3.3655367555618283,-0.7370131293118
1684252445258673000,4.6136728515625,-1.0029926548205315,-2.2999445828348395,0.1979185273259878
1684252445268699000,4.623698974609375,0.6070365768987686,-0.6566659193992614,1.5424883849531412
1684252445278724900,4.633724853515625,1.749862138366699,1.3288286831378937,2.948796905873716
1684252445288751900,4.643751953125,2.080154415440559,3.576997486028075,4.525984263764322
1684252445298777900,4.65377783203125,3.0013831254184242,6.6387541238665575,6.603457769557833
1684252445308804000,4.66380419921875,2.1190707138121128,11.40691778922677,6.256586698126792
1684252445318830000,4.673830078125,38.58861306210756,30.59598466117382,9.830270529562235
1684252445328856800,4.68385693359375,14.201730878829956,50.00431855342388,8.808951213803887
1684252445338882800,4.6938828125,-17.626033127093315,41.21586359968185,3.3038471921071406
1684252445348908800,4.70390869140625,30.2625897419095,27.74062328710556,-12.935877415043114
1684252445358935800,4.713935791015625,49.02364981248378,9.758630357718467,-27.008296854305264
1684252445368962000,4.723962158203125,0.9647276599645614,2.572408355796337,-11.102103652280569
1684252445378988000,4.733988037109375,-0.24341245052218435,-0.5425625703573227,-7.440548060646653
1684252445389015000,4.74401513671875,-4.576636884897947,-1.9487942266494034,-5.334637857180834
1684252445399041000,4.754041015625,-5.83592149168849,-3.261353327509761,-5.468645930132269
1684252445409067000,4.76406689453125,-7.950591924715042,-2.3505630094379186,-6.932341933399439
1684252445419093000,4.774093017578125,-9.483380168908834,-1.0864882457613945,-7.388921333783864
1684252445429119700,4.78411962890625,-9.729926825803517,-0.7362789698183536,-5.814755369541048
1684252445439146000,4.79414599609375,-10.61111929346919,-0.4343588007479906,-3.1422561157032844
1684252445449172000,4.804171875,-11.098588337635993,0.24630641839802264,-0.49557607051581143
1684252445459199000,4.814198974609375,-12.701839526587724,1.0841770462095737,1.0885697282105684
1684252445469225000,4.824224853515625,-12.301389425182341,1.1041478210926055,1.9620793862886725
1684252445479251000,4.8342509765625,-10.539177508330345,0.5837649338394403,2.333212207794934
1684252445489277000,4.84427685546875,-8.15485076097846,-0.11947744329571723,2.1208779093645513
1684252445499304000,4.854303955078125,-6.565358048266172,-0.5084691620975732,2.0670872824661433
1684252445509330000,4.864329833984375,-5.1992731089234345,-0.6559808597445488,2.1408055757582187
1684252445519356000,4.87435595703125,-4.074958113592863,-0.6936515419691801,2.145251887642592
1684252445529383000,4.8843828125,-3.4061037437498567,-0.6490875930994748,2.0975683454476295
1684252445539409000,4.894408935546875,-2.7536113106429574,-0.25906419316232204,2.024982855577767
1684252445549435000,4.904434814453125,-2.048810013628006,0.11385668080449103,1.8082596745386719
1684252445559462000,4.9144619140625,-0.47251989683806894,0.22763035950064658,1.5432983861617744
1684252445569488100,4.924488037109375,1.3986732037365435,1.1154811160117386,2.1442349656850097
1684252445579514000,4.93451416015625,2.9042157136082647,1.60802673279047,2.6106214743345975
1684252445589540000,4.9445400390625,8.641743466562032,1.0488982275575398,1.4498168232575057
1684252445599566800,4.95456689453125,18.19391952379942,0.09719839147031306,-0.8346899519488215
1684252445609592800,4.9645927734375,15.34373935176134,-0.372782926800847,-0.6085572105947882
1684252445619618800,4.974618896484375,9.114722213083505,-0.03167816381156444,1.2909529798604547
1684252445629645800,4.984645751953125,4.625912664720416,0.1134615440070629,2.7821199045076965
1684252445639672000,4.994672119140625,1.6159429127424954,-0.3231441588848829,2.7978958580493924
1684252445649698000,5.004697998046875,-0.07145838553607463,-0.7031891856431961,2.0473126146771015
1684252445659725000,5.01472509765625,-0.8812205247163772,-0.7952233262181282,1.2818318080328404
1684252445669751000,5.0247509765625,-1.3200349896989763,-0.6053215166091919,0.30226152985394
1684252445679777000,5.034777099609375,-1.6264331809662282,-0.4731494269132614,-0.3694510058991611
1684252445689803000,5.044802978515625,-1.8662929074428976,-0.23997020111382006,-0.8847092436149716
1684252445699829800,5.054829833984375,-2.0189578961998222,-0.023484335961937903,-1.2149503750234842
1684252445709856000,5.06485595703125,-2.085324511554837,0.11953823357224463,-1.342253981900215
1684252445719882000,5.074882080078125,-1.9135702069245277,0.28485096084773537,-1.2195092073716223
1684252445729909000,5.084908935546875,-1.558165846556425,0.3776157537847757,-1.064047573633492
1684252445739935000,5.09493505859375,-1.2201985048100352,0.3668704878866672,-0.8352206978246569
1684252445749961000,5.1049609375,-0.6174414318613708,0.11726152081191539,-0.7920427964858711
1684252445759987000,5.114987060546875,0.08813070339560508,-0.12043898180425167,-0.9721487498760223
1684252445770014000,5.125013916015625,1.032321771287918,-0.20833821453154086,-1.2106589614398777
1684252445780040000,5.1350400390625,2.5429265329852697,-0.21649229489266872,-1.670105295562744
1684252445790066000,5.14506591796875,3.440807392862439,-0.045849312505126,-1.9614298363387583
1684252445800093000,5.155093017578125,3.381061949212849,0.21218553760945796,-1.84347901808843
1684252445810119000,5.165118896484375,3.2022920667320487,0.2774316245019436,-1.4095477951027453
1684252445820145000,5.175144775390625,3.189764301331341,0.11661445508003235,-0.936425110065937
1684252445830172000,5.185171875,3.102931528791785,-0.09009645051062107,-0.6390574897333979
1684252445840198100,5.1951982421875,3.0148303437516093,-0.1876098992794752,-0.3205769387453794
1684252445850224000,5.20522412109375,2.905369559818506,-0.3711199620246887,-0.22559724623784422
1684252445860250000,5.21525,2.951681521399319,-0.8033610399663448,-0.4710420793704688
1684252445870276900,5.22527685546875,3.340621510013938,-1.4216075046002865,-0.9201327314347029
1684252445880302800,5.235302734375,4.119916322477161,-2.0748761827766895,-1.471129660399258
1684252445890328800,5.245328857421875,5.106286782190203,-2.5918331872344016,-1.7721007120512424
1684252445900356000,5.255356201171875,5.978323298975825,-2.925120554471016,-1.6237508100144564
1684252445910382000,5.265382080078125,6.096642219886183,-2.6832389667779206,-0.4786405716754496
1684252445920408000,5.275407958984375,5.038588041448593,-1.364986622712016,1.2649049308903515
1684252445930434000,5.28543408203125,3.6683614722564815,0.2010164933413267,2.0119291666068135
1684252445940460800,5.295460693359375,2.9882597322121263,1.4649538943737745,2.4725603266000746
1684252445950486800,5.30548681640625,2.731019539606571,2.5452041225284336,2.7872335942596194
1684252445960512800,5.3155126953125,3.0266432388812303,2.932037786513567,3.1321441792726517
1684252445970540000,5.3255400390625,3.099219814792275,2.4302134692579505,3.6566809713348745
1684252445980566000,5.33556591796875,2.1735949156820773,2.588579738396406,4.272424220976233
1684252445990592000,5.345592041015625,1.0781003566443919,3.3117332691818473,5.249321626684069
1684252446000619000,5.355618896484375,-0.2277744441464543,4.277425974786281,6.185953657498955
1684252446010645000,5.36564501953125,-2.1783634452581406,5.481159959268569,7.1832350950658315
1684252446020671000,5.3756708984375,-4.715716854286193,6.646743953576683,7.719903931209444
1684252446030697000,5.385697021484375,-6.635465019193291,7.244735565689206,6.978865199643373
1684252446040724000,5.395723876953125,-6.216582019996642,6.722472271516919,5.80175443367064
1684252446050750000,5.40575,-3.8839895515352487,5.238436660054326,4.097337995444238
1684252446060776000,5.41577587890625,-1.591533717020601,3.2991572807252405,2.082368584358692
1684252446070803000,5.425802978515625,0.6374398254036903,1.425467102637887,0.2799409769743681
1684252446080829000,5.435828857421875,7.8404294222533695,0.26402912209331986,-2.7583634736061096
1684252446090855000,5.44585498046875,27.655058634805677,0.903438786265254,-10.333907449197769
1684252446100882200,5.455882080078125,17.398834144747255,1.0423077432513237,-10.425675047791003
1684252446110908000,5.465907958984375,2.3873843813568354,0.46138300127387044,-6.4320835502862925
1684252446120934000,5.475933837890625,-3.9830794558405875,-0.325671047013998,-5.1556736211717125
1684252446130960000,5.4859599609375,-3.819319803225994,0.3900894509106874,-4.793063713338971
1684252446140987000,5.49598681640625,-4.415366126489639,1.949692052271962,-4.076662579423189
1684252446151012900,5.506012939453125,-5.013506791684031,3.671262162134051,-3.4170167674303054
1684252446161038800,5.516038818359375,-5.656210821226239,5.051230665400624,-3.768835816657543
1684252446171066000,5.526066162109375,-6.3685091959983104,5.894004847344756,-5.371679009330272
1684252446181092000,5.536092041015625,-6.269166778236627,6.215068692824244,-6.63470280264914
1684252446191118000,5.5461181640625,-5.075479555994272,6.424962320104241,-7.608931865930557
1684252446201144000,5.55614404296875,-0.21216507934331894,7.215258126792311,-8.949404225111007
1684252446211171300,5.56617138671875,-1.5536977612316607,5.649978648838401,-8.267377069962023
1684252446221197300,5.576197265625,-4.308065443199872,3.331003202319145,-7.118203527706861
1684252446231223300,5.586223388671875,-3.73204483987689,1.8479712149411438,-5.731096843123436
1684252446241250300,5.596250244140625,-0.8530340024128555,1.0494283889114857,-3.7003032554402946
1684252446251276500,5.606276611328125,3.1560835655257105,1.1942536239534616,-1.2989596145749092
1684252446261302500,5.616302490234375,5.307977813792228,2.346108952638507,1.0915145494908094
1684252446271329300,5.626329345703125,4.218521365875006,3.2425001584798094,3.121383715805411
1684252446281355300,5.636355224609375,1.6692513090819119,3.1347055541932582,4.360526282799244
1684252446291381200,5.64638134765625,-0.7159276711851358,2.510398182085156,4.030851260840892
1684252446301407200,5.6564072265625,-2.4391323965117335,1.9658090743362902,3.0321459279507397
1684252446311434500,5.6664345703125,-3.5088548009112475,1.3396820855855942,1.8841171718165277
1684252446321460500,5.67646044921875,-4.807343875364959,1.005363037213683,1.086157114110887
1684252446331486500,5.686486572265625,-5.736313116466999,0.7997486946880817,0.19509002590179442
1684252446341513500,5.696513427734375,-5.339830749648809,0.4105950633227825,-0.6848880975380539
1684252446351539500,5.70653955078125,-4.354441117666662,-0.038814591562747955,-1.1933739185094834
1684252446361565400,5.7165654296875,-3.9633153094455595,-0.4238333150804043,-1.2680065501675009
1684252446371592200,5.72659228515625,-3.8575992649987336,-0.9802321030884981,-1.4727818115204572
1684252446381618400,5.736618408203125,-4.003695250628889,-1.7013567583948372,-2.0061033830627797
1684252446391644400,5.74664453125,-4.186481967535615,-2.4929706619441507,-2.6865999676436183
1684252446401670400,5.75667041015625,-4.134207590419054,-3.2708143988162277,-3.289622267399728
1684252446411697400,5.766697509765625,-3.9352152963817115,-4.047219627317786,-3.670092533832788
1684252446421723400,5.776723388671875,-3.731338152912259,-4.736026067343354,-3.931740898269415
1684252446431749400,5.786749267578125,-3.6016140408903357,-5.27994355944097,-4.020670058566331
1684252446441776400,5.7967763671875,-3.321108123509586,-5.692130860391259,-3.9748341900646684
1684252446451802400,5.80680224609375,-2.686805719348788,-6.182540049663186,-3.9187212576985355
1684252446461828400,5.816828369140625,-2.4313415965050456,-6.813989694741368,-4.0780490653455255
1684252446471854300,5.826854248046875,-2.563562493778765,-7.341070618328452,-4.365884594962001
1684252446481881300,5.83688134765625,-3.033001375736296,-7.604128849563002,-4.832407297211885
1684252446491907300,5.8469072265625,-3.0335633935332296,-7.602275330650806,-5.23397091281712
1684252446501933300,5.856933349609375,-2.775536726725101,-7.279794604110718,-5.227305609709024
1684252446511960600,5.866960693359375,-2.0069357422336935,-6.70531129335761,-4.764788051447272
1684252446521986600,5.876986572265625,1.0054298188395798,-6.158147366684675,-3.5420144354522227
1684252446532012500,5.887012451171875,8.052371214234828,-5.20905508274734,-0.7185632803857326
1684252446542039300,5.897039306640625,22.1413899061203,-0.12078326519727706,2.268186631785333
1684252446552065300,5.907065185546875,37.0006260777831,12.006242111247778,2.2167028205245733
1684252446562091300,5.91709130859375,18.893674058818817,22.60948906390667,6.747724786195159
1684252446572117200,5.9271171875,-9.888647899729014,18.27815848045349,7.274488898918032
1684252446582144500,5.93714453125,-20.185285064196584,17.627746945273874,4.017761769904196
1684252446592170500,5.94717041015625,-16.481874782651662,19.235959556025264,1.6489672304660081
1684252446602196500,5.957196533203125,-10.788453882449865,13.035100005817412,0.47894291562289
1684252446612223500,5.967223388671875,-6.673292353284358,5.476341745331883,-0.22236849344968795
1684252446622249500,5.97724951171875,-5.097719444853067,0.41880876491665836,0.08113660672456026
1684252446632275500,5.987275390625,-4.291685386285185,-2.7325866427928207,0.8491808341160416
1684252446642302500,5.997302490234375,-4.176364185886085,-4.358835260972381,1.500542801888287
1684252446652328400,6.007328369140625,-1.9097145544096827,-5.198800230714679,2.163007762955129
1684252446662354400,6.0173544921875,4.7962537415519355,-5.461840341770649,5.280722727119922
1684252446672380400,6.02738037109375,1.1409215544775129,-4.128873828175664,5.83939004458189
1684252446682407400,6.037407470703125,-3.9840041694700714,-3.055847706055641,4.240043169592321
1684252446692433400,6.047433349609375,-4.329068191479146,-2.3063608796179293,3.6532422290578483
1684252446702459400,6.05745947265625,-3.235072638827562,-1.5142366884589193,3.567954055611789
1684252446712486400,6.067486328125,-1.1528139445841312,-1.123171670514345,3.539595391611755
1684252446722512400,6.077512451171875,-0.08393734335899353,-1.3382523450434207,2.5150825405091046
1684252446732538400,6.087538330078125,-0.04539528512731194,-1.0868868896901607,1.7180390131264924
1684252446742564400,6.097564453125,0.712466863206774,-0.28984628491699693,1.8050524029299615
1684252446752591400,6.10759130859375,2.4368401939213276,0.3646060500860214,2.1287302303001283
1684252446762617300,6.117617431640625,4.377556912577152,0.8841571626901626,2.271390396262705
1684252446772643300,6.127643310546875,5.860568441689014,1.0606734210252762,2.0172268346235156
1684252446782670600,6.137670654296875,5.622968476837873,0.3264478766053915,1.535688641810417
1684252446792696600,6.147696533203125,3.616446283841133,-0.8170277462691068,1.4245076099559664
1684252446802722600,6.15772265625,1.2183037771046161,-1.5349907226741313,1.7092489729493856
1684252446812749300,6.167749267578125,-0.581798017680645,-1.8955869525969027,1.871824384215474
1684252446822775300,6.177775390625,-1.7466705027185379,-2.0849621079832312,1.8846268749043344
1684252446832801300,6.18780126953125,-2.197135950267315,-1.9845617056012153,1.984142311145365
1684252446842827300,6.1978271484375,-2.1807634921371934,-1.5863164207637308,2.1517779284104703
1684252446852854500,6.2078544921875,-1.915252607053518,-0.9557242692977189,2.5320225693941114
1684252446862880500,6.217880615234375,-1.464033272397518,-0.3416887003570795,2.8620915591061116
1684252446872906500,6.227906494140625,-0.9095699094314128,0.140571084728837,3.012249387347698
1684252446882933500,6.23793359375,-0.287626855301857,0.336059170037508,3.0827041487991806
1684252446892959200,6.247959228515625,0.3139432728845626,0.27471885841190813,3.140369571304321
1684252446902985200,6.257985107421875,0.782979930716753,0.033498949497938156,3.104388157340884
1684252446913011200,6.26801123046875,0.9156324974060058,-0.26449147890806196,2.987782470089197
1684252446923038500,6.27803857421875,0.952840822815895,-0.6518208174556493,2.907962498921156
1684252446933064400,6.288064453125,0.7622387559831142,-1.0408213040858507,2.8801278587952255
1684252446943090400,6.29809033203125,0.4901940852165222,-1.3944599699556828,2.7706135911092162
1684252446953117400,6.308117431640625,0.26642624636292456,-1.642546257507801,2.6305057399779557
1684252446963143400,6.318143310546875,0.09881693258285522,-1.8005355100274085,2.47969383174181
1684252446973169400,6.32816943359375,0.04263268854618072,-1.7795628646254538,2.365790096925199
1684252446983196400,6.338196533203125,0.009484453323698835,-1.6534242098748684,2.320481759428978
1684252446993222400,6.348222412109375,-0.024986557218432424,-1.4668454072088002,2.2948418528683483
1684252447003248400,6.358248291015625,-0.06803367178440094,-1.2560562923938035,2.1607320731081066
1684252447013274400,6.3682744140625,-0.12006899771438911,-1.0007400535881519,1.985300541269779
1684252447023301400,6.37830126953125,-0.20867199479686094,-0.6996598424732685,1.8287265623755753
1684252447033327400,6.388327392578125,-0.3507248242497444,-0.2882411878079176,1.9592391944266854
1684252447043353300,6.398353271484375,-0.5944786720881238,0.08499532797932624,2.336552312003076
1684252447053380600,6.408380615234375,-0.9158476745266467,0.2163099240630865,2.7597242405653
1684252447063406600,6.418406494140625,-1.2983996426045894,0.20291268235146998,3.2223060962349175
1684252447073432300,6.428432373046875,-1.6922960845828054,0.2940110033810139,3.736743226826191
1684252447083458300,6.438458251953125,-1.9753239216566085,0.28782676178812977,3.954751186978817
1684252447093485300,6.4484853515625,-2.2008920879304408,0.012247487154603004,3.8047868354827163
1684252447103511300,6.45851123046875,-2.379126840621233,-0.43864743785262106,3.379752327919006
1684252447113537300,6.468537353515625,-2.5244296300470825,-0.8570423612713813,2.8178832918062806
1684252447123564500,6.478564453125,-2.74653859577775,-1.0680179385691881,2.2444661489799618
1684252447133590500,6.488590576171875,-3.004119856905937,-1.0979162332266568,1.7194672923639416
1684252447143616500,6.498616455078125,-3.212719352722168,-0.9563608136355877,1.2312740255758166
1684252447153643300,6.508643310546875,-3.4204666156232353,-0.6812479874700308,0.8531067753881215
1684252447163669200,6.518669189453125,-3.7281773507937785,-0.23414427143931388,0.5461033117040991
1684252447173695200,6.5286953125,-4.112555730581283,0.3879594531446695,0.24482085601538417
1684252447183722500,6.538722412109375,-4.308816846089065,1.1396113486617803,0.3511535710558295
1684252447193748500,6.54874853515625,-4.338576024536788,1.9237907182961702,0.5066334711030125
1684252447203774500,6.5587744140625,-4.271884415011107,2.6482985863000152,0.5102803031727672
1684252447213800400,6.568800537109375,-3.992774335902929,3.1804683574587105,0.3426014312878251
1684252447223827500,6.578827392578125,-2.5608403753384947,3.5805163078039883,0.10851561203747988
1684252447233853400,6.588853515625,1.1177321098089217,3.771101423501968,0.11150076532810926
1684252447243879400,6.59887939453125,3.6243756155356763,2.99021992636919,0.7896531248703599
1684252447253906400,6.608906494140625,2.7011279669508337,1.786664805585146,1.3854165395393967
1684252447263932400,6.618932373046875,0.28845103116631504,0.7399374923259019,1.435773100335896
1684252447273958400,6.62895849609375,-2.076594969393313,0.2588946818143129,1.2910571708872913
1684252447283984400,6.638984375,-4.12211938547939,0.17010346868336199,1.26540630454123
1684252447294011400,6.649011474609375,-5.679386529630422,0.22931261349916457,1.4720757090777157
1684252447304037400,6.659037353515625,-6.701440589404106,0.3768868549883365,1.8000003802374005
1684252447314063400,6.6690634765625,-7.101361113977432,0.48814007529616354,2.038909966382384
1684252447324090400,6.67909033203125,-7.032672777676582,0.3264829479187727,1.8806936271086334
1684252447334116400,6.689116455078125,-6.738752959710359,0.137822078281641,1.467677474118769
1684252447344142300,6.699142333984375,-6.6403802637636655,-0.024567455023527144,1.194943067522347
1684252447354169300,6.70916943359375,-6.201169346809387,-0.31368542566597457,0.8558201260000466
1684252447364195300,6.7191953125,-5.552670367252826,-0.6376824019879103,0.5717544703111053
1684252447374221300,6.72922119140625,-4.963184717679024,-0.8582312787950038,0.38840719691216946
1684252447384247300,6.739247314453125,-4.50071713603884,-0.8825801226317882,0.35248306609392166
1684252447394274600,6.749274658203125,-4.246870677524805,-0.7113514493107795,0.48189650473147627
1684252447404300500,6.759300537109375,-4.132015925593674,-0.4334177205055952,0.4415560187757015
1684252447414326500,6.769326416015625,-4.143841680204868,-0.15758710145950316,0.2450830140829086
1684252447424353300,6.779353271484375,-4.122488218791783,0.02605038705766201,-0.08959873012155294
1684252447434379300,6.789379150390625,-3.9904631363511083,0.11619067671000957,-0.5803080713838339
1684252447444405200,6.7994052734375,-3.906420579051971,0.17938100011646746,-0.9483616315752267
1684252447454432500,6.8094326171875,-3.8315529695942994,0.17678806101381778,-1.1477204208374023
1684252447464458500,6.81945849609375,-3.854182150031626,0.18024959964454174,-1.265236793193221
1684252447474484500,6.829484375,-3.8918803047850727,0.21907120546996592,-1.3141919627591967
1684252447484510500,6.839510498046875,-3.8609585122987626,0.34341479349732396,-1.2134805947318672
1684252447494537500,6.849537353515625,-3.9281250458598134,0.512962381863594,-1.1032198925927281
1684252447504563500,6.8595634765625,-4.079308125495911,0.7770400192737579,-1.0191484014600514
1684252447514589200,6.869589111328125,-4.084732196371257,1.070056166398525,-1.0195210341647267
1684252447524616400,6.879616455078125,-4.095162404970824,1.416127027362585,-1.0678341064348815
1684252447534642400,6.889642333984375,-4.16672220505476,1.877831515675783,-1.192095276875794
1684252447544668400,6.89966845703125,-4.268329060617089,2.439603813415766,-1.406332194057107
1684252447554694400,6.9096943359375,-4.88079518828392,3.015949410909414,-1.7426999916523693
1684252447564721400,6.919721435546875,-5.692905351895093,3.5540181769788264,-2.546186703824997
1684252447574747400,6.929747314453125,-5.989450842189789,4.087622364854813,-3.5318244653493163
1684252447584773400,6.9397734375,-5.841809965205192,4.509627295464277,-4.389746239803731
1684252447594800400,6.94980029296875,-4.921447516667842,4.765694644898176,-5.034837749004364
1684252447604826400,6.959826416015625,-3.944454249370098,4.846364510893822,-5.791063528308272
1684252447614852400,6.969852294921875,-2.046221750700474,5.032619488433003,-7.8402803691714995
1684252447624879400,6.97987939453125,-0.5676386324901134,4.532061830112338,-8.687152049562334
1684252447634905300,6.9899052734375,-0.15874913097620008,2.753724707889557,-6.682181762182712
1684252447644931300,6.999931396484375,-0.05831307275891304,1.2626005994707346,-5.596413062867522
1684252447654957300,7.009957275390625,-0.00469429529607296,-0.22731004150509834,-4.534751215326786
1684252447664984600,7.019984619140625,0.10000994175970554,-1.5433903022289275,-2.8120979864031073
1684252447675010600,7.030010498046875,0.13148761456310748,-2.226597022551298,-1.4271727375119925
1684252447685036500,7.04003662109375,0.09432371281683444,-2.300794477662444,-0.7441938345961272
1684252447695063300,7.050063232421875,-0.04203530717492103,-1.9794290188878774,-0.3520313768036663
1684252447705089300,7.06008935546875,-0.1759375816643238,-1.2811854729533194,0.028476883552223442
1684252447715115300,7.070115234375,-0.2922504234492779,-0.30186756210029125,0.39897053037211294
1684252447725141200,7.080141357421875,0.06484101322293281,0.7036673245489596,0.8767115228593348
1684252447735168500,7.09016845703125,1.048503163825348,1.6016571977585554,1.5030764120191336
1684252447745194500,7.100194580078125,1.9550714072227477,2.347411851930618,1.8912904244467614
1684252447755220500,7.110220458984375,2.665944133105874,2.617821614971757,1.7832281091347335
1684252447765247200,7.120247314453125,3.422339423757791,2.251711005541682,1.3733837180487811
1684252447775273200,7.130273193359375,4.237071168044209,1.3723223724275826,0.6297329042881726
1684252447785299200,7.14029931640625,4.902012748357653,0.44503450854122634,-0.5817629463672638
1684252447795326500,7.150326416015625,5.109853534761071,0.14536591778993604,-1.8526304389238357
1684252447805352400,7.1603525390625,5.05974247315824,0.5752566332131623,-2.7191046454072
1684252447815378400,7.17037841796875,4.6889428291290995,1.1357301233142614,-3.025413989347219
1684252447825404400,7.180404296875,4.488531900465488,1.5810107155710458,-2.4063589848093687
1684252447835431400,7.190431396484375,4.449453105008602,1.6345090815246104,-1.191984802238643
1684252447845457400,7.20045751953125,4.163640605652332,1.081373094704747,0.29675927917584777
1684252447855483400,7.2104833984375,3.368881974336505,0.5561614721208811,1.5989742422848938
1684252447865510400,7.220510498046875,2.138250046056509,0.47029520652592177,2.6133500225156543
1684252447875536400,7.230536376953125,1.0009523080993443,0.38932898793220516,3.498435405966639
1684252447885562400,7.240562255859375,0.34306649151630697,0.12518939120173453,4.127469222074747
1684252447895589400,7.25058935546875,-0.03913951266817748,-0.2619488086879253,4.50572385828495
1684252447905615400,7.260615478515625,-0.4749420824836939,-0.6236322493255138,4.393511437556147
1684252447915641300,7.270641357421875,-1.0065765046566724,-1.0211182402282952,3.886982303610444
1684252447925667300,7.280667236328125,-1.4838520715892314,-1.4698656318128107,3.329300782315433
1684252447935694300,7.2906943359375,-1.823625293713808,-1.9287614924460648,2.786092899791896
1684252447945720300,7.30072021484375,-1.9811890142977238,-2.2520856840729713,2.3628286167711017
1684252447955746300,7.310746337890625,-1.7899018878102302,-2.4059891285836694,2.307658664343506
1684252447965773300,7.320773193359375,-1.4453355861902235,-2.2853432260304687,2.3286285332664844
1684252447975799300,7.33079931640625,-1.1222703377604484,-1.8743173700749873,2.277384375980496
1684252447985825300,7.3408251953125,-0.8192734793692826,-1.2098936761558055,2.2370174404092134
1684252447995851300,7.350851318359375,-0.5537573335886001,-0.46669396716356276,2.2244626408711072
1684252448005878500,7.36087841796875,-0.29038641967568546,0.14371464345157145,2.0172475851505993
1684252448015904500,7.370904541015625,0.056610433559492225,0.4507330124437809,1.5377183940723538
1684252448025930500,7.380930419921875,0.4887445074627176,0.41218379381895065,0.9100761784531175
1684252448035957200,7.390957275390625,1.294291622763872,0.1485404561728239,0.2595616212904453
1684252448045983200,7.400983154296875,3.9655999132514,-0.04977846864759922,-0.5413400428250432
1684252448056009200,7.41100927734375,5.7280462233811615,-0.34834815824627874,-0.9734802907407283
1684252448066036500,7.421036376953125,5.7145531200796365,-0.5294768788129091,-1.046197444166243
1684252448076062500,7.4310625,5.53149664632082,-0.28854689275622364,-0.9349304875940084
1684252448086088400,7.44108837890625,5.139912572938203,0.2479109309852123,-0.5685702873170375
1684252448096114400,7.451114501953125,3.9153286926507946,0.9384563236325979,-0.16453618994504213
1684252448106141400,7.461141357421875,2.1629694767713548,2.044396873360872,0.29130189055278893
1684252448116167400,7.47116748046875,0.6349577993296086,3.4367911429584024,0.8347808451026678
1684252448126193400,7.481193359375,-0.05204568292722106,4.828310967808962,1.3563826066263018
1684252448136220400,7.491220458984375,0.32831893117427824,5.956384438890218,1.5848308583810924
1684252448146246400,7.501246337890625,1.742752890883386,6.60012541026473,1.4988396512322126
1684252448156272400,7.5112724609375,4.140912933276593,6.531294450622797,1.4446188162229954
1684252448166299400,7.52129931640625,5.240750197693705,5.628876239576935,1.2146601599052547
1684252448176325400,7.531325439453125,3.680154493641853,4.102387387788296,0.3641185588300228
1684252448186351400,7.541351318359375,1.2064356446564197,2.7055104198187587,-0.5023455646507442
1684252448196377300,7.55137744140625,-1.3285986737743019,1.5687614748507737,-0.928494170936197
1684252448206404400,7.561404296875,-3.619497195844352,0.6383955186933279,-1.089355617891252
1684252448216430300,7.571430419921875,-5.966137186619639,0.11339549303352832,-0.7829647331476212
1684252448226456300,7.581456298828125,-8.595115570899843,-0.20296587384343145,-0.4615548507094383
1684252448236483600,7.591483642578125,-9.511265954700113,-0.45198272024393077,-0.36021102999746796
1684252448246509600,7.601509521484375,-8.662854059129954,-0.21205986540317534,-0.2743975175030529
1684252448256535600,7.61153564453125,-4.37262734722048,0.19777298137545585,0.806056416530162
1684252448266562600,7.6215625,-0.4074064964145422,0.8773732016384601,2.074324978634715
1684252448276588500,7.631588623046875,0.48017421098351476,1.670495171663165,2.7322274540916083
1684252448286614500,7.641614501953125,-0.30552520782500503,2.343822303006053,2.9828073120251295
1684252448296640500,7.651640625,-1.7874027644708752,2.7479139757841824,2.166874813646823
1684252448306667500,7.66166748046875,-2.9739266709551213,2.5548744526714087,0.6629729105889797
1684252448316693500,7.671693603515625,-3.312609175233543,1.591603421255946,-1.012037984932959
1684252448326719500,7.681719482421875,-3.437337670925259,0.36934769165515896,-2.0179861285582184
1684252448336746500,7.69174658203125,-3.7975744198858736,-0.8272533722072839,-2.4007652564555406
1684252448346772500,7.7017724609375,-4.066243476739525,-2.0227450135231018,-2.7317928620666265
1684252448356798500,7.711798583984375,-4.069095943561196,-2.8816362175315615,-2.768049293579161
1684252448366824700,7.72182470703125,-3.943168885734677,-3.3799551570147273,-2.7052701813220974
1684252448376851500,7.7318515625,-3.8467888249099254,-3.6341479447484013,-2.625814659552276
1684252448386877400,7.74187744140625,-3.966673095440864,-3.7598680818259713,-2.4983412490665913
1684252448396903400,7.7519033203125,-4.077999965506792,-3.791215990769863,-2.4775413298830387
1684252448406930400,7.761930419921875,-4.098228514543176,-3.8075750048965213,-2.523449679099023
1684252448416956400,7.771956298828125,-4.140168544650078,-3.8249621930271385,-2.624935830891132
1684252448426982400,7.781982421875,-4.248592094489932,-3.7880367762118574,-2.7792417187228797
1684252448437009700,7.792009765625,-4.238220630340278,-3.714101771429181,-3.079440178567171
1684252448447035600,7.80203564453125,-4.017484998789429,-3.650174365919828,-3.3285625311687586
1684252448457061600,7.8120615234375,-3.5775945751383897,-3.573638823249936,-3.546043837098777
1684252448467087600,7.822087646484375,-2.9430981097102165,-3.5151153226107357,-3.662961366778612
1684252448477114400,7.8321142578125,-2.2748954817742106,-3.3859096815049647,-3.717816992560029
1684252448487140400,7.842140380859375,-1.7495467888072131,-3.056625120168924,-3.733620710891485
1684252448497166600,7.85216650390625,-1.2707272073030471,-2.63724936901927,-3.614832711164653
1684252448507193600,7.862193603515625,-0.7995698309898376,-1.9107815991193056,-3.26348098718822
1684252448517219600,7.872219482421875,-0.5850570194765925,-0.8941185847342014,-2.331558156977594
1684252448527245600,7.88224560546875,-0.3696517891682684,0.5727016880333423,-0.88956135982126
1684252448537271600,7.892271484375,0.3408266767002642,2.3242110090851784,1.1406795624151824
1684252448547298300,7.90229833984375,1.8352585944928228,4.751237080478668,3.8716730907976626
1684252448557324300,7.91232421875,4.585446798819303,9.288471929314731,6.883147402119636
1684252448567350500,7.9223505859375,8.402907822436093,16.42662226650715,8.360342938429117
1684252448577377500,7.93237744140625,14.276611640030145,22.695282848787308,10.246461805456876
1684252448587403500,7.942403564453125,9.129746763736009,21.828577171635626,9.638404726403952
1684252448597429500,7.952429443359375,1.3135025191903114,14.08549402489066,5.287897733315825
1684252448607456500,7.96245654296875,-3.1408067936778066,6.952959774014353,1.3385659410372375
1684252448617482500,7.972482421875,-4.1873102350533005,1.680321569150686,-2.0208692827790973
1684252448627508500,7.982508544921875,-1.9625369207978247,-2.65808114464581,-3.7163662092298266
1684252448637534700,7.99253466796875,2.2900527188956734,-7.445509482446313,-4.433274415884911
1684252448647561500,8.0025615234375,4.829635494410992,-10.527973392748832,-5.146891764301062
1684252448657587500,8.01258740234375,2.092333513534069,-9.469036001735924,-4.399920720076561
1684252448667613400,8.022613525390625,-0.10559504841566085,-8.20410315992534,-3.317444632565975
1684252448677640400,8.032640380859375,-0.6285094999730587,-7.42294810654819,-2.763876684069633
1684252448687666400,8.04266650390625,-0.8601251297175884,-6.488045091482997,-2.4620596831128
1684252448697692700,8.052692626953124,-1.3548434143602848,-4.839773442065716,-1.9175895255684852
1684252448707719700,8.0627197265625,-2.0352748247504233,-2.572755561798811,-1.1320574261508882
1684252448717745700,8.07274560546875,-2.699393398243189,-0.05923369473516941,-0.24072262691631913
1684252448727771600,8.082771728515626,-3.118142541927099,2.2067449056118726,0.607352145653963
1684252448737797400,8.09279736328125,-3.350414005231857,3.86593308584094,1.3562136798001825
1684252448747824400,8.102824462890625,-3.6989094629943366,4.671554471954703,1.6076622833922505
1684252448757850400,8.112850341796875,-3.935937765437364,4.508251330935955,1.5962573845416306
1684252448767876600,8.122876708984375,-3.161269735991955,3.4171897859096525,1.6009395510084927
1684252448777903600,8.132903564453125,-1.704891362261772,2.3213573732197283,0.9942277490846813
1684252448787929600,8.1429296875,-0.6384300054848194,1.7216677250176666,0.24207111891582606
1684252448797955600,8.15295556640625,-0.006001861630147323,1.2034931614637374,-0.3049243193224072
1684252448807981600,8.162981689453124,0.5902174709796905,0.5573258397251367,-0.74487407194525
1684252448818008300,8.17300830078125,1.1535421857934445,-0.09189210175573825,-0.9958037662297486
1684252448828034300,8.183034423828126,1.7030547944843768,-0.6806032598257065,-1.1588852273218333
1684252448838060500,8.193060546875,3.9567894148081537,-1.1589712981700897,-1.1255478981263936
1684252448848087600,8.203087646484375,9.727303491562605,-1.291113577249646,-0.5077822027467191
1684252448858113500,8.213113525390625,10.027234532642364,-1.0984072316139937,0.4761056463703513
1684252448868139500,8.223139404296875,5.9115124469846485,-0.4023772700756788,0.6644871145442128
1684252448878166500,8.23316650390625,2.5264292794317007,0.49352585998773574,0.10275690238028765
1684252448888192500,8.243192626953125,0.7967004860986023,0.9882681100279093,-0.469739033947885
1684252448898218800,8.25321875,0.11757080595679581,1.0091448938399552,-0.8158492040090263
1684252448908244700,8.26324462890625,-0.0022228636812418696,0.8144283774256705,-1.065148374482244
1684252448918271500,8.273271484375,-0.11273615234196185,0.6136147131800651,-1.2274262641064821
1684252448928297500,8.28329736328125,-0.22466913507487624,0.4980751938551664,-1.2401250021599233
1684252448938323500,8.293323486328125,-0.45772794936504213,0.3305442060083151,-1.3716780831746755
1684252448948350500,8.3033505859375,-0.7524345703274011,0.04279401658773422,-1.5482779281400143
1684252448958376400,8.31337646484375,-0.8589192610591649,-0.2397936755031347,-1.6336942580103873
1684252448968402700,8.323402587890625,-0.9802093067348003,-0.5059802678912878,-1.6611948438763617
1684252448978429400,8.333429443359375,-1.1477233434468508,-0.6880909852325916,-1.6850021281823515
1684252448988455400,8.343455322265624,-1.2857716316998005,-0.726623252722621,-1.6033040881827472
1684252448998481400,8.3534814453125,-1.4458803605914115,-0.6389069753468036,-1.561232979042083
1684252449008507400,8.36350732421875,-1.6003250723719595,-0.41013329102993007,-1.515415961371362
1684252449018534400,8.373534423828126,-1.6300854198634624,-0.09614508302509785,-1.439706055870652
1684252449028560400,8.383560302734375,-1.630766972386837,0.2700403452068567,-1.3131841008909046
1684252449038586600,8.393586669921875,-1.7043454188168048,0.5469207655668258,-1.3290868956826627
1684252449048613600,8.403613525390625,-1.7305273232996463,0.6089437987595796,-1.4050187733709811
1684252449058639600,8.4136396484375,-1.7139152111947535,0.49929333747327326,-1.5097608582191169
1684252449068665600,8.42366552734375,-1.6319523827791214,0.3647580257773399,-1.4748120021738111
1684252449078691600,8.433691650390625,-1.6453671601474285,0.13476853592991828,-1.2539786093369125
1684252449088718300,8.44371826171875,-1.9025427630841731,-0.14347089782357214,-0.9785479493938386
1684252449098744600,8.45374462890625,-1.9427116918653249,-0.4308247814029455,-0.7507540698945522
1684252449108770600,8.4637705078125,-1.8832932882130144,-0.6291922215402126,-0.48019496151059865
1684252449118797600,8.473797607421876,-1.633793626731634,-0.7233148588269949,-0.16857757429033518
1684252449128823600,8.483823486328125,-1.1449573858648538,-0.6259580619245767,0.13057152263149618
1684252449138849500,8.493849609375,-0.7264537413746118,-0.3981938469111919,0.3489344337016344
1684252449148876500,8.50387646484375,-0.4046504026394337,-0.19306874920725822,0.47951896194517607
1684252449158902500,8.513902587890625,-0.23862404720187186,-0.02837561513483524,0.3885620952129364
1684252449168928500,8.523928466796875,-0.015093012778833508,0.015329671078920363,0.3432185402728617
1684252449178954500,8.53395458984375,0.4191740910977125,-0.06718319243490696,0.6711813514858483
1684252449188981500,8.5439814453125,1.3170681027173996,-0.014618892461061477,1.3063073469892144
1684252449199007500,8.554007568359374,2.4492332270264625,0.14891104305088518,1.814479279705882
1684252449209033500,8.564033447265626,3.0925334688961503,0.2278162374615669,1.8049968733504413
1684252449219060500,8.574060546875,3.4605922897845502,0.27008184626102444,1.4944697655849157
1684252449229086700,8.584086669921875,3.8183746313303706,0.36692543294429775,0.9979676662653684
1684252449239112700,8.59411279296875,4.6537861755520105,0.5944955866903067,0.3207406048744917
1684252449249138700,8.604138671875,8.558862354257702,1.1568038910031317,-0.614790917352587
1684252449259165400,8.61416552734375,10.57564816711545,1.3607254581362007,-1.4887464195020497
1684252449269191400,8.62419140625,6.841282775336504,0.8151929320573806,-1.8990227722644806
1684252449279217400,8.634217529296874,3.36519773286581,0.09663900402188301,-1.750041294325888
1684252449289244400,8.644244384765624,2.103490282842517,-0.4561830945432186,-1.650431165538728
1684252449299270700,8.654270751953124,1.5778407072328031,-0.8086684987246989,-1.9852355132095514
1684252449309296600,8.664296630859376,1.4336194294333457,-0.9227280086249112,-2.588490306547284
1684252449319323600,8.67432373046875,5.749130512464046,-0.18199556652903556,-4.496325915342569
1684252449329349600,8.684349609375,16.667397354263066,2.2305741094887255,-8.95993438695371
1684252449339375600,8.694375732421875,11.654099236893654,3.3405344162523742,-8.897692158052324
1684252449349401600,8.704401611328125,5.654349119007587,4.1257197480589145,-6.1915042773634195
1684252449359428400,8.714428466796875,5.619881032216549,6.214897427910566,-5.391861381137371
1684252449369454600,8.72445458984375,5.329027616083621,9.029385524320602,-4.074583435061574
1684252449379480600,8.73448046875,0.9501146127223968,11.751934172701835,1.2640977061606944
1684252449389507600,8.744507568359374,-6.696103904551268,13.066350884127615,7.318790981981158
1684252449399533600,8.754533447265626,-12.523542814576626,12.465513819456099,11.29714340929985
1684252449409559600,8.7645595703125,-14.558243638831376,11.282741958981752,12.764841633945704
1684252449419586300,8.77458642578125,-13.056909686565398,10.309857880568504,13.749298076730966
1684252449429612500,8.784612548828125,-6.703302876144647,9.300259982264041,14.078733444714546
1684252449439638500,8.794638427734375,-2.5006653080999848,8.369265080553292,13.853909959328174
1684252449449664500,8.80466455078125,-4.455334564262628,6.997250166639685,13.640126923394202
1684252449459691500,8.81469140625,-6.400683618894219,5.060951848948002,14.004799608975649
1684252449469717500,8.824717529296874,-7.403641348531842,2.568165311399102,13.609279365187883
1684252449479743500,8.834743408203124,-7.599516971853375,-0.05392740502059459,11.624299141913651
1684252449489770500,8.8447705078125,-6.991408454874158,-2.3657839594453574,8.763376042065024
1684252449499796700,8.854796630859376,-7.682363597366213,-3.6620652947217223,5.960228254836798
1684252449509822700,8.86482275390625,-7.693110032308101,-4.4057220998317,2.905781647750735
1684252449519848700,8.8748486328125,-5.5565235355496405,-4.475637347579002,0.5727884895339608
1684252449529875500,8.88487548828125,-3.73594243183732,-3.4575878472715615,-0.724519558441639
1684252449539901400,8.8949013671875,-3.2121503206625577,-1.343093355333805,-2.4466388266190884
1684252449549927400,8.904927490234375,-3.100413993012905,0.6493880373507738,-4.230601387508213
1684252449559954400,8.914954345703125,-2.8979239199876785,1.6415046395003794,-4.934148008286953
1684252449569980700,8.924980712890624,-1.8360680111795662,2.2322288909584285,-4.38643930721283
1684252449580006700,8.935006591796874,0.3181815680414438,2.3304168779879806,-2.4660905460640787
1684252449590033400,8.945033447265626,0.6731973674833774,1.8866256475061176,0.2359004674568772
1684252449600059400,8.955059326171876,-0.7466454655319452,1.3455325651794672,1.5950129374384878
1684252449610085400,8.96508544921875,-2.2124878331780433,0.8147568787276744,1.434883458019793
1684252449620111400,8.975111328125,-3.101605833145976,0.19689970567226409,0.5335583029076457
1684252449630138600,8.985138671875,-3.4344022019952534,-0.4824982700169086,-0.3140384768873453
1684252449640164600,8.99516455078125,-3.6930280037403103,-1.286385964205861,-0.6026239480882882
1684252449650190600,9.005190673828125,-4.103120378237962,-2.19748023366034,-0.5986211421877146
1684252449660217600,9.015217529296875,-4.276222444215417,-3.1191321374863383,-0.8869926783770322
1684252449670243600,9.02524365234375,-4.54720270062089,-3.9128602567106485,-1.4973124416649342
1684252449680269600,9.03526953125,-5.338531942009926,-4.596764311647415,-2.0429244627207517
1684252449690295600,9.045295654296876,-5.852933416765928,-5.245555552148819,-2.503560152758658
1684252449700322600,9.055322509765626,-6.257499721318483,-5.793791491967439,-2.6765584661006927
1684252449710348500,9.0653486328125,-6.962853976041078,-6.141714118278026,-2.3448884709328413
1684252449720374500,9.07537451171875,-7.44870447909534,-6.29074031214118,-1.6328902481511234
1684252449730401500,9.085401611328125,-7.501267610025406,-6.501649253943562,-0.953206441257894
1684252449740427500,9.095427490234375,-6.842425515630841,-6.826410784897208,-0.5032876678064465
1684252449750453500,9.10545361328125,-6.148232121869921,-7.310310738405585,-0.5510355074092745
1684252449760480500,9.11548046875,-5.832014547377825,-7.807241438400745,-0.7156278114557266
1684252449770506500,9.125506591796874,-5.670186155086755,-8.253425116977095,-0.9760130240887402
1684252449780532500,9.135532470703126,-5.733840004351735,-8.554589499244093,-1.3761156272307038
1684252449790558500,9.145558349609376,-5.981144201615453,-8.723618032172322,-1.7163468222558498
1684252449800585500,9.15558544921875,-5.9822863573879,-8.804127739170193,-1.71234606218189
1684252449810611500,9.165611572265625,-5.452127341529726,-8.895805905914306,-1.639541814994812
1684252449820637400,9.175637451171875,-4.456462983770669,-9.001350100925563,-1.4174839949294924
1684252449830664700,9.185664794921875,2.4477505872532723,-8.893948879870772,-0.3863166543737054
1684252449840690700,9.195690673828125,60.968780160164826,-0.018344634985923765,14.944955137741564
1684252449850716700,9.205716552734375,31.593903812122342,24.561319881772995,23.138320046031474
1684252449860742700,9.21574267578125,-45.171267113089556,20.73989112356901,10.293414110767841
1684252449870769400,9.225769287109374,-20.337005903971193,22.61531090192795,-4.442952052551508
1684252449880795400,9.23579541015625,45.14647870879173,30.914665995430944,-12.99194826183319
1684252449890821400,9.2458212890625,23.69452769538164,20.88732157267332,-13.240940558314323
1684252449900848600,9.2558486328125,-15.037662647533416,8.92815743894279,-4.939917239338159
1684252449910874600,9.26587451171875,-14.111815045583247,3.7726591743379827,-4.9121705697566265
1684252449920900600,9.275900634765625,-10.536676923686265,1.5441063415437937,-8.495721715211868
1684252449930927600,9.285927734375,-3.9328342464640733,2.5175199967890975,-10.626683942347764
1684252449940953600,9.29595361328125,5.402428367859125,6.634438014233112,-12.030887892204522
1684252449950979600,9.3059794921875,4.6345115662395955,11.082455533480644,-9.330075274813174
1684252449961005600,9.316005615234374,-4.561998118692636,12.104177584820984,-5.607526577556133
1684252449971032600,9.326032470703124,-6.453212847554683,10.664148288345336,-3.6462633299559353
1684252449981058600,9.33605859375,-2.9333927082538604,7.564955361559987,-2.7866084480985998
1684252449991084500,9.34608447265625,1.7774596087358892,4.019010016399622,-2.5294509653404353
1684252450001111600,9.356111572265625,2.6418378658533093,1.7628677504122257,-2.780487334869802
1684252450011137500,9.366137451171875,0.44819384935498235,0.68031684409976,-3.228446498686075
1684252450021163500,9.37616357421875,-0.3547451658070087,0.3227788327038288,-3.2331118601486084
1684252450031190500,9.3861904296875,0.14201193118691444,0.5312614241421222,-2.336770630928874
1684252450041216500,9.396216552734375,0.3466447153292596,0.9020470396459103,-1.2819237240999937
1684252450051242500,9.406242431640624,0.2680616655450314,1.1412059243768453,-0.439001950378716
1684252450061268500,9.4162685546875,0.528410089831613,1.4515812025815247,0.4860309741877019
1684252450071295500,9.42629541015625,1.089879641765356,1.6985568985432384,1.7523168380424379
1684252450081321500,9.436321533203126,1.8509516920566558,2.0013450826197863,3.1854853088378903
1684252450091347500,9.446347412109375,2.167021382510662,1.990696262833476,4.331991385449469
1684252450101374700,9.456374755859375,2.1829741539239884,1.6626374439001081,5.134185427463055
1684252450111400700,9.466400634765625,2.0980559828341008,1.1060673909783363,5.41703907701373
1684252450121426700,9.4764267578125,1.9602689758658407,0.281425662574172,5.206975938385725
1684252450131452700,9.48645263671875,2.1582325113773346,-0.8459861297279596,4.844405778041482
1684252450141479400,9.4964794921875,2.3723569080948828,-1.8794190771281718,4.161102611607313
1684252450151505400,9.50650537109375,2.43401987580359,-2.638332488080859,3.556383152544498
1684252450161531400,9.516531494140626,2.436305356392264,-3.0739673001140355,2.986176496197283
1684252450171558700,9.52655859375,2.336662494379282,-3.353582698395848,2.4930229766532777
1684252450181584600,9.536584716796876,2.235213459727168,-3.5926200025737285,2.107262494857609
1684252450191610600,9.546610595703125,2.1541607318937777,-3.6259026789724826,1.7828604448661207
1684252450201637600,9.5566376953125,1.931877578639984,-3.43183498185575,1.525037776197493
1684252450211663600,9.56666357421875,1.67583828625679,-3.0069074417978525,1.3778798604242504
1684252450221689600,9.576689697265625,1.3869494481950997,-2.4065485160320996,1.2802170663125811
1684252450231715600,9.586715576171875,1.0822352644920348,-1.5969821916848421,1.1711913127958773
1684252450241742600,9.59674267578125,0.8792641299515962,-0.8008405815780162,1.0562938907667994
1684252450251768600,9.6067685546875,0.6401835711538791,-0.029151860204339027,1.040362892793864
1684252450261794600,9.616794677734376,0.37423308907654135,0.5767085855871439,1.0855132632493971
1684252450271821800,9.62682177734375,0.18034133304860442,1.027459718209505,1.2072269411645828
1684252450281847800,9.636847900390626,0.17286182748079298,1.0992378372192382,1.0048116869412362
1684252450291873800,9.646873779296875,0.2658096123019233,1.0810346565306186,0.7533269891224801
1684252450301899800,9.656899658203125,0.3722258774399757,0.9778975226610899,0.5241241196081042
1684252450311926500,9.666926513671875,0.5084013210257515,0.6970891152024269,0.2459733870513737
1684252450321952500,9.676952392578125,0.5372563537079841,0.20325755026638506,-0.053904316405951974
1684252450331978500,9.686978515625,0.20729433150179682,-0.4103799592673778,-0.561479598403722
1684252450342005800,9.697005859375,0.1168646304488182,-0.8689303674638271,-0.8580962542384862
1684252450352031700,9.70703173828125,0.3343290583092719,-1.1592734959870576,-0.7425022282473742
1684252450362057700,9.7170576171875,0.17426533760316668,-1.3588976581871508,-0.7141622689478099
1684252450372084700,9.727084716796876,0.10904080495536327,-1.4998627106696367,-0.7385331784859299
1684252450382110700,9.73711083984375,0.46503516710586845,-1.5508552312821149,-0.7428660931237041
1684252450392136400,9.747136474609375,0.8349450957536697,-1.5132371560275555,-0.7515089799150824
1684252450402162400,9.757162353515625,0.9669366412509233,-1.4274842876791953,-0.8097441651321947
1684252450412189700,9.767189697265625,1.0875679307568817,-1.2296329803705215,-1.0287537035427987
1684252450422215700,9.777215576171875,1.3756694908984004,-0.9408055171072482,-1.2148040984205901
1684252450432241700,9.78724169921875,1.8839539440788327,-0.6692734720379113,-1.3659016917303204
1684252450442268700,9.7972685546875,2.832598922640085,-0.45196284649968144,-1.53012998476997
1684252450452294700,9.807294677734374,4.133984303057193,-0.421340329220891,-1.570183178216964
1684252450462320600,9.817320556640626,5.30950341592431,-0.5864461357474327,-1.3953224320039153
1684252450472346600,9.8273466796875,5.598815447834133,-0.377525737413764,-0.8495426531657576
1684252450482373600,9.83737353515625,4.593597956570982,0.24034195703566072,0.06499181987047195
1684252450492399600,9.847399658203125,2.9651193873822685,0.6526145981818438,0.8681710735291243
1684252450502425600,9.857425537109375,2.0205529103063045,0.3669885613083839,1.2599845717534421
1684252450512452600,9.86745263671875,1.8504450577087699,-0.4572445862948894,1.2219140765562653
1684252450522478600,9.877478515625,1.9942409497030078,-1.2176911981642244,1.0984876033738256
1684252450532504600,9.887504638671874,2.307299621772766,-2.0284633911699057,0.6816980693250894
1684252450542531800,9.89753173828125,2.583396782800555,-2.507171036732197,0.10450096956863998
1684252450552557800,9.907557861328126,2.623479786863923,-2.5429303323775527,-0.41360111327096816
1684252450562583800,9.917583740234376,2.5676997397139667,-2.518202133834362,-0.7081357021346688
1684252450572609500,9.927609619140625,2.4883669675409794,-2.7292116134017705,-0.7827218643024564
1684252450582636500,9.937636474609375,2.321085132149607,-2.8359458949804304,-0.47734541729837654
1684252450592662500,9.94766259765625,2.0448669750906525,-2.337549798607826,0.317960180375725
1684252450602688500,9.9576884765625,1.7809524192877113,-1.152555001387,1.505693608780205
1684252450612715800,9.9677158203125,1.3955818135924636,0.5952274080961942,2.818218515110016
1684252450622741800,9.97774169921875,0.7403916658341885,2.9460972915261983,3.946156377112865
1684252450632767700,9.987767822265624,3.843504980933666,6.128421505984663,4.051898725044727
1684252450642793700,9.997793701171876,11.116694487690925,10.428744956755638,1.6106884993456303
1684252450652820500,10.007820556640626,8.041361159920692,10.939142456567287,-0.2927604187980294
1684252450662846500,10.017846435546875,2.924092964988947,8.553522162273525,-0.6603864012271166
1684252450672872400,10.02787255859375,-1.1787903896227478,5.8489019692927595,-1.2118936178013682
1684252450682899700,10.037899658203125,-3.410838371056318,3.236908622083068,-2.0055144772589206
1684252450692925700,10.04792578125,-4.289145638674498,1.5570523323565721,-1.808960808545351
1684252450702951700,10.05795166015625,-4.9180549516201015,0.5215612833827734,-1.7036188581079243
1684252450712978700,10.067978759765625,-4.827962885023653,0.1236135201871395,-1.4847060580700635
1684252450723004700,10.078004638671874,-4.882814419151842,0.3659481123447418,-0.8778764749854803
1684252450733030700,10.08803076171875,-5.31364533803463,1.101685230371356,-0.4463692642763257
1684252450743056600,10.098056640625,-6.311527079582214,2.282556810182333,-0.39176410612463947
1684252450753083600,10.108083740234376,-8.105636355954408,3.7470179526031013,-0.3746773622453213
1684252450763109600,10.118109619140625,-9.790761525994538,4.624689844927191,-0.4012827528372407
1684252450773135600,10.128135498046875,-9.782033445137738,4.300831984815002,-1.357524908529222
1684252450783162600,10.13816259765625,-6.374263814002275,3.2581139071971177,-1.654433971439302
1684252450793188600,10.148188720703125,0.9887143924906849,2.608617733296752,-0.1552110199779272
1684252450803214600,10.158214599609375,4.395656048369408,2.0643577113717795,0.6697685620784759
1684252450813240600,10.168240478515624,4.285699882134795,1.597383173701167,1.369102533598244
1684252450823267600,10.178267578125,1.9036635838076472,1.1002858849674462,1.5053990097478032
1684252450833293600,10.18829345703125,-1.0443857185691594,0.9166916510701179,1.338647189579904
1684252450843319600,10.198319580078126,-2.886811282081902,1.2474059529483317,1.0103513470202683
1684252450853346600,10.2083466796875,-3.4184228348359462,1.7481559189707039,0.41169776386767626
1684252450863372500,10.21837255859375,-3.0285052333608267,2.0897405744314193,-0.7614762471780181
1684252450873398500,10.2283984375,-2.4462384291246533,1.7908014669984578,-2.884934966816008
1684252450883424800,10.2384248046875,-2.7536323534309863,1.1057961728215218,-4.763000875769555
1684252450893451800,10.24845166015625,-3.1059482462644574,0.1369587394505739,-6.070803429752588
1684252450903477800,10.258477783203125,-2.9348671647205946,-0.9422656527876854,-6.552793750247359
1684252450913503700,10.268503662109374,-2.176395067794621,-2.0062509748399258,-6.1954264192432165
1684252450923530500,10.278530517578124,-1.0471914236396551,-2.753906494197249,-5.168764573413133
1684252450933556500,10.288556396484376,-0.4989169053763151,-2.8101901069551705,-3.835761234939098
1684252450943582500,10.29858251953125,-1.1760025124698876,-2.2718021919339892,-2.5865666450083253
1684252450953609700,10.308609619140626,-2.405812602972984,-1.5583037937223911,-1.8633119919359682
1684252450963635700,10.3186357421875,-3.058327540172636,-1.1465694972366094,-1.727855473741889
1684252450973661700,10.32866162109375,-3.1781945673078296,-1.0149725770801306,-1.7692565746664999
1684252450983687700,10.338687744140625,-3.749402217391133,-1.025633671826124,-2.140793885320425
1684252450993714700,10.348714599609375,-4.355045221039653,-1.2639794866085052,-2.7148656926631927
1684252451003740700,10.35874072265625,-3.9742645734831687,-1.657240553292632,-3.1114895137786864
1684252451013766400,10.368766357421874,-3.4008582443118094,-2.0043968714058398,-3.258773832410574
1684252451023793700,10.378793701171874,-3.403032958002388,-2.3424779026597737,-3.537507771682739
1684252451033819600,10.388819580078126,-4.074072562929988,-2.7449674009382723,-4.24915440454781
1684252451043845600,10.398845703125,-4.297977764427662,-3.259537802520394,-4.688586270776391
1684252451053871600,10.40887158203125,-3.8033299146726725,-3.8319758711814877,-4.700613393178582
1684252451063898600,10.418898681640625,-3.1886893655762076,-4.3082396307229995,-4.831385552948713
1684252451073924600,10.428924560546875,-3.4384006239816545,-4.700382507032156,-5.248508556735516
1684252451083950800,10.438950927734375,-4.153021011960506,-5.103869784176349,-5.890562013414502
1684252451093977600,10.4489775390625,-4.571830653659999,-5.57204083815515,-6.238833014771342
1684252451104003600,10.459003662109374,-0.2759080681964755,-5.906957267898321,-6.215246972000599
1684252451114029600,10.469029541015624,59.931506319427484,-4.395995655587315,6.022237844026089
1684252451124056600,10.479056640625,37.12655781178474,16.553704339587686,4.807450842870772
1684252451134082600,10.48908251953125,-31.7311355232954,13.974126238292454,-3.4748072776198384
1684252451144108500,10.499108642578125,-36.66911565709114,14.911798718070983,-2.4337495344296096
1684252451154134800,10.509134765625,-31.18888391858339,19.17153121525645,-1.0307368401840329
1684252451164161800,10.519161865234375,-17.72786853071451,14.69721839427948,-2.01890645827353
1684252451174187800,10.529187744140625,17.591680775636434,6.624529783681035,2.3141034565687177
1684252451184213800,10.5392138671875,31.644981672930715,0.8168833693623543,10.44470474243164
1684252451194240500,10.549240478515625,-16.387163531821965,1.0413368523925541,3.256013135525584
1684252451204266500,10.5592666015625,-13.323684307974576,0.7603016504406929,-0.030019875210523603
1684252451214292500,10.56929248046875,-10.58452354748845,0.7045838548719883,-1.4662120777413248
1684252451224318500,10.579318359375,-7.1736091885864735,2.1052444330334663,-0.21711685653179882
1684252451234345700,10.589345703125,8.94895063612461,5.277509025770425,5.1745139307200905
1684252451244371700,10.599371826171875,5.476964261144399,6.846856776076555,4.036485759596526
1684252451254397700,10.609397705078125,-1.1330547666251658,6.343109966325759,-0.5236193849563598
1684252451264424400,10.619424560546875,0.22116671644449232,5.876493740573525,-1.335957512104511
1684252451274450400,10.629450439453125,2.4544623598515987,4.144164920809865,-0.9656237320214509
1684252451284476400,10.639476318359375,2.156359703242779,0.9779086285769939,-0.6792384012132883
1684252451294502400,10.64950244140625,2.0773264985382554,-0.9960223774164915,0.30539106005132194
1684252451304529700,10.65952978515625,2.397933247900009,-2.0554683024734257,1.5283683819249272
1684252451314555600,10.6695556640625,3.1761417264312506,-2.909462966611981,2.032590407972038
1684252451324581600,10.67958154296875,3.8555835412621495,-3.0596067663282156,1.8259069749101995
1684252451334608600,10.689608642578126,3.5786546055853363,-2.2756939386755226,1.457615806570649
1684252451344634600,10.699634521484375,2.838731141784787,-1.2780161952674387,1.087824755062163
1684252451354660600,10.70966064453125,2.382234158986807,-0.8581874396532774,1.0887751876547933
1684252451364687400,10.719687255859375,2.5796692867100237,-1.0825959144979715,1.3655696832969784
1684252451374713600,10.729713623046875,3.195944743531942,-1.5439356611520052,1.45440619687438
1684252451384739600,10.739739501953125,3.7774323800891634,-1.9260428811371326,1.4958359393715857
1684252451394765600,10.749765625,4.270609280508756,-2.0670558644145727,1.7426926851287483
1684252451404792600,10.75979248046875,4.465623903086781,-1.9979449187874794,2.0999884122014043
1684252451414818600,10.769818603515626,4.0102661534518,-1.5734487558841705,2.383600771164894
1684252451424844500,10.779844482421876,3.079313337317109,-0.9024030134767294,2.8337299724966285
1684252451434871600,10.78987158203125,2.4244027371525765,-0.17748656467199325,3.3856583370923996
1684252451444897500,10.7998974609375,2.465149758082628,0.3027577889382839,3.702545773670077
1684252451454923500,10.809923583984375,2.791270886951685,0.5336036033540964,3.6619296856433152
1684252451464949500,10.819949462890625,2.643455822443962,0.7348790398925542,3.6720389917254446
1684252451474976500,10.8299765625,1.949388100889325,0.8448118252515793,3.8484444831624627
1684252451485002500,10.84000244140625,0.9645125559091567,0.7807552404046059,3.992190690796077
1684252451495028500,10.850028564453124,0.22614154571499676,0.3308136705994606,3.80266297519654
1684252451505055700,10.8600556640625,-0.07360705146994441,-0.3004997808784246,3.222308434322476
1684252451515081700,10.870081787109376,-0.11740644570793955,-0.9333598772764206,2.1524863689407705
1684252451525107700,10.880107666015626,-0.014350560381077229,-1.4739707290440798,1.2386691042631863
1684252451535133700,10.8901337890625,0.24107903913855552,-1.8570698826760053,0.5745014309316874
1684252451545160400,10.900160400390625,0.5427221448332071,-1.9115595977544784,0.12876885712370276
1684252451555186400,10.9101865234375,0.8015127817511558,-1.8137509654313324,-0.25003303770571944
1684252451565212400,10.92021240234375,1.2005325580924748,-1.7038216872036456,-0.6828375947490334
1684252451575239700,10.93023974609375,1.8664274936079979,-1.44827047059834,-1.1252034686028958
1684252451585265700,10.940265625,2.918860909554362,-1.179506136676669,-1.6887636726729571
1684252451595291600,10.950291748046874,4.479549552586675,-1.043668510210514,-2.3991209963798523
1684252451605318700,10.960318603515624,6.346397901955246,-0.8758172043681144,-3.208017458641529
1684252451615344600,10.9703447265625,7.98975956749916,-0.5912637651622294,-3.830037304334342
1684252451625370600,10.98037060546875,8.904394286039471,-0.15570552549660205,-3.6306805608987807
1684252451635396600,10.990396728515625,8.608510474523902,0.2926245174586773,-2.979323269301653
1684252451645423600,11.000423583984375,7.34060826151371,0.6174994456589221,-2.16229756885916
1684252451655449600,11.01044970703125,5.12305963781476,0.8059142315804958,-1.0201648850262164
1684252451665475600,11.0204755859375,2.3547312350332734,0.44851241378486156,0.14748385979197917
1684252451675502600,11.030502685546875,1.1913128943264484,-0.7921458184689283,0.4413970288217067
1684252451685528600,11.040528564453124,2.3134230730891225,-2.744650590074062,-0.051933600854873654
1684252451695554600,11.050554443359376,5.062238966149091,-4.9395402227193115,-0.9312824864804744
1684252451705580500,11.06058056640625,6.708477648434043,-6.304795140978694,-1.4957619973525405
1684252451715607600,11.070607666015626,4.632074694481492,-6.216160579714178,-0.9672861122757196
1684252451725633500,11.080633544921875,0.1777086647237651,-4.427509568747878,1.0353118930146097
1684252451735659500,11.090659423828125,-3.3477497544586656,-1.9528765275269746,3.284037453004718
1684252451745686500,11.1006865234375,-3.574371229177713,-0.1366197167545557,5.737696679779887
1684252451755712500,11.11071240234375,-4.464117590177059,3.548428978669643,8.305574406409264
1684252451765738500,11.120738525390625,-7.942401603996753,9.758132345068454,11.334100390297174
1684252451775765800,11.130765869140625,-11.95810205745697,17.210785269528625,12.858071706306934
1684252451785791700,11.140791748046874,-13.92599904398322,23.49532029728889,13.079630052417516
1684252451795817700,11.150817626953126,-12.521207065105438,24.50684711782932,11.257913807195424
1684252451805843700,11.16084375,-8.405373335766791,20.521181737148762,8.790332438051701
1684252451815870500,11.170870361328125,-2.929060524268448,11.344537613159417,5.9257531537830825
1684252451825896400,11.180896484375,0.24539397972822188,3.6505800241112705,3.9768478679746386
1684252451835922400,11.19092236328125,1.8738956375315785,-0.6679939536213875,3.4652643732488153
1684252451845949700,11.20094970703125,2.3391516808465123,-2.992064677453041,4.3442756974831225
1684252451855975700,11.2109755859375,-0.1338613579571247,-3.5448610570549963,5.4290474947154514
1684252451866001700,11.221001708984375,-4.620492100976407,-3.479207558405399,6.160958332452178
1684252451876027600,11.231027587890624,-6.409781702107191,-3.5398663175076246,5.767427801176905
1684252451886054400,11.241054443359374,-3.0598934743151065,-3.9171716901689764,3.760621530541777
1684252451896080400,11.251080322265626,0.20842180116176603,-4.079596879309416,1.030856082649529
1684252451906106400,11.2611064453125,0.5332195724725723,-4.109514463189244,-1.6080226411372422
1684252451916133600,11.271133544921875,-1.539338688750565,-3.8081250399947164,-3.353109235665202
1684252451926159600,11.28115966796875,-3.5603979411438105,-3.474224509295821,-4.130921992877125
1684252451936185600,11.291185546875,-4.671928273703157,-3.399846436920762,-4.499886530433595
1684252451946211600,11.301211669921875,-5.10230209646821,-3.463914127683639,-4.288726828740537
1684252451956238600,11.311238525390625,-5.196640422332287,-3.2679742069542406,-3.2608465470314023
1684252451966264600,11.3212646484375,-5.149545493680239,-2.9641040728598833,-1.966255356799066
1684252451976290600,11.33129052734375,-5.208557070097327,-2.482180972382426,-0.9547960485368967
1684252451986317600,11.341317626953124,-5.356224250566959,-1.7460422878175972,-0.16242080522626637
1684252451996343600,11.351343505859376,-4.887819095571339,-0.8929775980055331,0.7357686822086572
1684252452006369500,11.36136962890625,-3.428930492585897,0.04168167143166065,1.7953206979885696
1684252452016395500,11.3713955078125,-2.7980408194780346,0.9143132315009832,2.5410943491220475
1684252452026422500,11.381422607421875,-3.3413118303656577,1.6616250519871711,2.8489012381434438
1684252452036448500,11.391448486328125,-3.9123581524074074,2.4009259999752044,2.6748563383579254
1684252452046474500,11.401474609375,-3.4505005193591116,3.1189550273537634,2.0129984032735226
1684252452056501500,11.41150146484375,-2.3507623314023016,3.717101537767052,0.5952692014113068
1684252452066527500,11.421527587890624,-1.0494900559708475,3.8708208578824994,-1.3235659403041005
1684252452076553500,11.431553466796874,0.06953384721428156,3.5650469359934327,-2.8072598987221715
1684252452086580500,11.44158056640625,0.4684779279708862,3.063326663634181,-3.6266929525673386
1684252452096606500,11.4516064453125,-0.041325113078951835,2.3688567910194394,-4.121469981659948
1684252452106632400,11.461632568359375,-0.7936004011914134,1.5585001930773257,-4.433829711680114
1684252452116658400,11.471658447265625,-1.0249296152099967,0.782269152098894,-4.623952178302407
1684252452126685700,11.481685791015625,-0.3708285778626799,0.14767711734175681,-5.070357975196838
1684252452136711700,11.491711669921875,0.09005494945645331,-0.43199908587932584,-5.34658080843091
1684252452146737700,11.501737548828125,-0.829666570828855,-0.9860147781431674,-5.215557888770103
1684252452156764400,11.511764404296875,-2.2374892957046626,-1.5011778849214314,-4.926532857108116
1684252452166790400,11.521790283203124,-2.9182839864492416,-1.9530366865247486,-4.75122392873615
1684252452176816400,11.53181640625,-2.8610420500531792,-2.2308523419082165,-4.750236963525414
1684252452186842400,11.54184228515625,-2.681060453695059,-2.4484821163982153,-4.884034608596563
1684252452196869600,11.55186962890625,-2.8758494508236643,-2.849570515707135,-5.100439225205779
1684252452206895600,11.5618955078125,-3.328836087413132,-3.4478882910341024,-5.263266565406322
1684252452216920800,11.5719208984375,-4.042199168807268,-4.119177194547653,-5.399011252892017
1684252452226947800,11.58194775390625,-4.604832759551703,-4.7782367310851805,-5.550654935777187
1684252452236974000,11.59197412109375,-4.541197614987194,-5.412700755548477,-5.707947438204288
1684252452247000000,11.602,-3.8846272649168965,-6.083026366987824,-5.990291384667158
1684252452257026000,11.612026123046874,-3.531784133338928,-6.665678371149301,-5.999482406860589
1684252452267052800,11.622052734375,-3.5890111644268035,-7.060065811514854,-5.576139505645632
1684252452277078800,11.632078857421876,-3.716395727585256,-7.315719319450855,-5.0364440151572225
1684252452287104800,11.642104736328125,-4.085480968911946,-7.407348386356234,-4.4505102128461
1684252452297131800,11.6521318359375,-4.449420956304669,-7.387310975977778,-3.7104642917096613
1684252452307158000,11.662157958984375,-4.9924599120020865,-7.2999495033890005,-2.731941330626607
1684252452317184000,11.67218408203125,-5.405515812480449,-6.702102268183231,-1.4266573353357612
1684252452327210000,11.6822099609375,-5.8009179828464985,-3.8453094000071286,1.161919334320724
1684252452337237000,11.692237060546875,19.260338795000315,15.859837109041212,15.29318054639101
1684252452347263000,11.702262939453124,15.484859302544592,30.673800891304015,18.91664109290838
1684252452357289000,11.7122890625,-20.68434751552343,32.25894943733215,7.583594011056423
1684252452367316000,11.72231591796875,-7.644614589208364,36.7789613486886,4.995430452245474
1684252452377342000,11.732342041015626,8.661462897032498,24.3266530477643,5.0947109106868504
1684252452387368000,11.742367919921875,-0.2656279355920851,10.690952124118803,2.7738693780347705
1684252452397395000,11.75239501953125,-3.7987659677579995,5.124083135643601,0.7634986929163337
1684252452407421000,11.7624208984375,1.1755343104362488,-1.5228712458133697,-0.011454583211243152
1684252452417447000,11.772447021484375,3.678810093295574,-6.614091391775012,0.48438408376350994
1684252452427473000,11.782472900390625,0.14986439825296402,-5.98394581503272,1.4893448237866163
1684252452437500000,11.7925,-1.5031237582921981,-4.8836622681528326,2.594753458595276
1684252452447526000,11.80252587890625,-0.8515196523271501,-5.005305949571729,3.3773417596459385
1684252452457552000,11.8125517578125,1.3216717971205711,-5.06213024507761,3.8617251127570866
1684252452467579000,11.822578857421876,4.153886104357242,-4.550659563076496,4.275155399505794
1684252452477604900,11.83260498046875,5.082343012022972,-3.2877310468256473,3.9237414239481088
1684252452487630800,11.842630859375,3.7996576559007167,-2.074139100673795,3.16280761308372
1684252452497656800,11.85265673828125,1.707832676410675,-1.2368781291931867,2.6400346158236263
1684252452507684000,11.86268408203125,-0.13809570759125053,-0.701798023545742,2.214140276560187
1684252452517710000,11.8727099609375,-1.684045119718462,0.40582770279049873,1.5309543067649005
1684252452527736000,11.882736083984375,-2.6878362314403055,2.1682231595158576,0.3149450338056311
1684252452537762800,11.8927626953125,-2.8814348497405646,3.4057050998210907,-0.6215238788694143
1684252452547788800,11.902788818359374,-3.6974165940880774,3.2340678456991907,-0.2208101580917835
1684252452557814800,11.912814697265626,-5.167865578746795,1.799006985285878,0.9754226569801568
1684252452567840800,11.9228408203125,-5.290059879785776,-0.5967325519621371,2.016053553060442
1684252452577868000,11.932867919921875,-5.097011004322767,-0.8411392742186784,1.4308486495457589
1684252452587894000,11.94289404296875,-4.49473835389018,-1.1366449000716208,0.5755338427193463
1684252452597920000,11.952919921875,-3.798578628492355,-1.7482617174327373,0.03340396469086408
1684252452607946800,11.96294677734375,-3.297634308941662,-2.836631539157033,-0.3136476874714717
1684252452617972700,11.97297265625,-2.8050565434589982,-4.069792693653702,-0.3682733038892969
1684252452627998700,11.982998779296874,-2.139644715285301,-4.1530245190918444,-1.2541620030798017
1684252452638026000,11.99302587890625,-0.7344084997713566,-3.69267436799705,-2.6329373510390517
1684252452648052000,12.003052001953124,1.3857155224859714,-3.5619109760552643,-3.1776433631658554
1684252452658078000,12.013077880859376,2.690077288365364,-3.1455951969981193,-3.2301278759017586
1684252452668104000,12.02310400390625,2.792165205442905,-2.3632746069729325,-2.8558786759406325
1684252452678131000,12.033130859375,1.8723147980809212,-1.0343377872854471,-2.1913174732469023
1684252452688157000,12.043156982421875,0.6925812823891639,0.6599070932775736,-1.9079697565689682
1684252452698183000,12.053182861328125,-0.021651823305152355,1.8016507777929305,-1.5203757757358252
1684252452708210000,12.0632099609375,-0.06699837391991167,2.412698855355382,-1.040534084642306
1684252452718236000,12.07323583984375,1.0714449904084205,2.569247261416912,-0.5778691903317347
1684252452728262000,12.083261962890624,2.82824423456192,1.9604314729511736,-0.03637527211923152
1684252452738287900,12.093287841796876,4.323579238674045,0.8984878858596086,0.923780805613473
1684252452748315000,12.10331494140625,4.451568489727378,0.1233259354174137,1.8775345785558222
1684252452758340900,12.1133408203125,3.4028403580397364,-0.3160264358341694,2.819184437532723
1684252452768366800,12.123366943359375,2.487947865346074,-0.46484278633892534,3.515353807541728
1684252452778393900,12.133393798828125,2.0131892496705053,-0.24163959563076495,3.718702250961959
1684252452788419800,12.143419921875,1.9991748989738523,0.01521393574476242,3.6217768312141296
1684252452798445800,12.15344580078125,2.2505881389915943,0.0971358476281166,3.244013485652208
1684252452808471800,12.163471923828125,2.8056992252767086,0.8402841186940669,2.101923179656267
1684252452818498800,12.173498779296875,3.9023990684509275,2.294128590032458,1.0282966804903
1684252452828524800,12.18352490234375,5.446923927667736,2.524899001124501,0.6393094186678528
1684252452838550800,12.19355078125,6.192469323003292,2.0166034420281647,0.7574267525915056
1684252452848578000,12.203578125,5.723326209121942,1.1796657111525535,1.3378411338940261
1684252452858604000,12.21360400390625,4.429107651594281,-0.22965163619518278,2.6940222265988587
1684252452868630000,12.223630126953125,2.8398288738936186,-1.2945838837087154,4.185343318894505
1684252452878656000,12.233656005859375,1.3211439738541841,-1.681185492503643,5.574795689821243
1684252452888682800,12.243682861328125,0.1838368104815483,-1.477250481367111,6.436104476365447
1684252452898708700,12.253708740234375,-0.7031891856431961,-0.921969299212098,7.059373153075575
1684252452908734700,12.263734619140624,-1.2960253146886824,-0.4175578880727291,7.185920388627052
1684252452918762000,12.273761962890624,-1.9045967730045317,-3.877741012534499,8.799665499064325
1684252452928788000,12.2837880859375,-2.882913397860527,-8.288895658808945,9.820802443993092
1684252452938814000,12.29381396484375,-3.4263246940016745,-8.458158585014939,9.85489643677473
1684252452948840000,12.30383984375,-3.70382763017416,-3.0408102959215637,8.061668034890294
1684252452958867000,12.313866943359375,-3.9536908642709254,5.732827027916908,3.9106978179797527
1684252452968893000,12.323892822265625,-4.735802195459604,14.28458568764925,-2.3185041757456957
1684252452978919000,12.3339189453125,-5.539296506416798,17.972756314486265,-6.447704313266277
1684252452988946000,12.34394580078125,-4.9338148308098315,18.009583531624077,-8.497934130564332
1684252452998972000,12.353971923828125,-2.475929510772228,22.404845612239836,-14.45310802462101
1684252453008998000,12.363997802734374,-0.5570042065553367,23.46949378211498,-18.63601797888875
1684252453019024000,12.37402392578125,1.4628762113168834,13.113795356869696,-14.703888958084583
1684252453029051000,12.38405078125,1.832994887344539,4.695099013671278,-9.842910230904817
1684252453039076900,12.394076904296876,0.4271345485828817,1.2011258478105067,-7.583512762513756
1684252453049102800,12.404102783203125,0.08891746985912323,-0.5629021785527467,-6.665663173580169
1684252453059129900,12.4141298828125,0.13574907139986753,-2.00331492138803,-7.112939908090233
1684252453069155800,12.42415576171875,0.17411854954361913,-2.9891520048767326,-7.646065957060456
1684252453079181800,12.434181884765625,0.1975532011449337,-2.907576129952073,-6.390478451222181
1684252453089208800,12.444208740234375,-0.6117801912292837,-3.5400247229397297,-3.368471055448055
1684252453099234800,12.45423486328125,-1.6260335141241549,-3.8460365452378986,-0.6796773771524429
1684252453109260800,12.4642607421875,-2.495618546104431,-4.1749376602143045,1.5563789631396532
1684252453119286800,12.474286865234374,-3.4848461488142606,-7.006070601955056,4.020554615493118
1684252453129314000,12.48431396484375,-3.828420516787469,-7.162604979491233,5.121031931379437
1684252453139340000,12.494340087890626,-3.9411201365113255,-8.094359175136685,6.39460225315392
1684252453149366000,12.504365966796875,-4.020029422575235,-9.518902148666978,7.840826312616467
1684252453159392800,12.514392822265625,-3.50415056874305,-8.33676215635538,8.176945103886723
1684252453169418800,12.524418701171875,-2.8028476352378724,-5.623924170127511,7.004945981839299
1684252453179444700,12.53444482421875,-2.743990957121551,-3.2459108437061306,3.6933205569460985
1684252453189471000,12.544470947265625,-6.168938809812069,-2.319669858524203,-0.16249971568137406
1684252453199498000,12.554498046875,-6.4740685885787,-1.4609949276149272,-2.41033387978971
1684252453209524000,12.56452392578125,-6.770940242087841,0.4269517393618822,-3.47970907818675
1684252453219550500,12.574550537109374,-7.165757890564203,3.4714316637068987,-4.035871427090465
1684252453229577200,12.5845771484375,-6.848554227644205,6.671378044095635,-3.9634804368793963
1684252453239603200,12.594603271484376,-5.503616121226549,8.968972264412045,-2.6340508652389047
1684252453249629400,12.60462939453125,-3.2309576047241686,10.00428386516571,-0.7282718967124819
1684252453259655400,12.614655517578125,-1.051222724982351,9.66809726935625,0.25158231297433375
1684252453269682400,12.624682373046875,3.5294495529115197,8.000814629998803,1.0503846667230128
1684252453279708400,12.63470849609375,17.874671203309298,4.571351637971401,2.510872813859582
1684252453289734400,12.644734375,13.91691674286127,2.4854706615775823,2.118003376841545
1684252453299761400,12.654761474609375,8.652039235126972,2.1564888825803994,1.667981143015623
1684252453309787400,12.664787353515624,7.123914306569099,1.8106448161095379,1.1696680487513542
1684252453319813400,12.6748134765625,4.376542182576656,1.3116051611363888,0.10946750593483448
1684252453329839400,12.68483935546875,0.6801952635467052,0.8801163628667592,-2.5477161053493615
1684252453339866400,12.694866455078126,-2.5989748756825923,0.6419026500314474,-4.713593286260962
