time,seconds_elapsed,z,y,x
1684252475883772200,0.014772216796875,-0.03844751181602478,3.9787539938569068,2.9684961703389883
1684252475893798100,0.024798095703125,1.2565829466164111,5.241350501674414,1.640321274934709
1684252475903824400,0.034824462890625,1.8945429965019225,4.528828255018592,0.8229932305447757
1684252475913850400,0.044850341796875,2.617829213756323,3.136794050905108,-0.3836010387394577
1684252475923876400,0.05487646484375,4.521303704732656,2.387507715475559,-0.8375653612546622
1684252475933902300,0.06490234375,4.956436996984482,3.4179864892452954,-0.23952472236864267
1684252475943929000,0.07492919921875,5.803748237836361,3.7385710267752406,0.2955800062634051
1684252475953955000,0.084955078125,5.186233010086417,2.9518635999679566,0.5299739050822332
1684252475963981000,0.09498095703125,3.592525894549489,2.4194079976052043,0.2790680300647393
1684252475974007000,0.105007080078125,-0.03352583750486374,1.318085755327344,-1.163892387959361
1684252475984033300,0.115033203125,-11.797122390949726,-6.494397090858221,-13.200705578559637
1684252475994060300,0.125060302734375,-5.321852609887719,-5.442333677268028,-10.451284120821953
1684252476004086300,0.135086181640625,0.9066524876147508,2.284652905678749,-0.007322853701375425
1684252476014112300,0.1451123046875,0.4550748410403728,5.286132477208971,1.8987784421145915
1684252476024138200,0.15513818359375,0.011923077505826949,6.881753901934624,1.4126630045138298
1684252476034164200,0.165164306640625,0.6783996123015881,5.980537467893957,-0.8643709505937993
1684252476044191200,0.175191162109375,2.3722288978010413,4.772780219244956,-1.3959868872620165
1684252476054217200,0.18521728515625,3.5338843204885717,4.594164942803979,0.23433511783629654
1684252476064243200,0.1952431640625,5.046629893606901,5.036716402357817,2.271575981962681
1684252476074269200,0.205269287109375,5.922823530071973,5.344370731166005,3.7021868772298094
1684252476084295200,0.215295166015625,6.3467971304059025,6.033234454336762,4.2864971699923275
1684252476094322200,0.225322265625,6.322673327496648,7.276175244569778,3.4588284949824213
1684252476104348200,0.23534814453125,7.303842419174313,8.22525408450365,-4.370111857268214
1684252476114374100,0.2453740234375,5.894437978065014,9.78169442244172,-13.2473235373497
1684252476124400000,0.255400146484375,7.304183195436001,15.54122591741085,-4.810703414925933
1684252476134426000,0.265426025390625,4.754045123636723,15.699148534435032,-3.571258650115132
1684252476144452400,0.275452392578125,3.957324544598162,12.965207554423808,-3.719107616892457
1684252476154479400,0.285479248046875,4.196479629936814,12.122656659841537,-2.6862971853047606
1684252476164505300,0.29550537109375,3.4505563411995768,11.99802957869768,-2.2747762393087148
1684252476174531300,0.30553125,2.227944930028915,11.230015746444463,-1.3297721014678479
1684252476184557300,0.315557373046875,0.9988485407531261,10.305139619874954,-0.36642858933806416
1684252476194583300,0.325583251953125,0.1929356243468821,10.242063862758874,0.47351942926943297
1684252476204610300,0.3356103515625,-0.5611484667532146,10.43577207891345,1.9214917937040328
1684252476214636300,0.34563623046875,-1.7369839520931243,10.019543393617868,3.3321441890478134
1684252476224662300,0.355662353515625,-3.1358535551846027,9.863375511306524,5.258064320588112
1684252476234688300,0.365688232421875,-4.559184814837574,9.59616425204575,7.880566202330589
1684252476244714200,0.37571435546875,-5.561937377291917,8.644800516045093,10.721008239686489
1684252476254741200,0.3857412109375,-6.374337463760376,7.102297518044709,13.306826696676016
1684252476264767200,0.395767333984375,-6.340866571313143,5.503189420247078,14.6331734998703
1684252476274793200,0.405793212890625,-4.445982214027643,4.7990272979184985,15.436783546161651
1684252476284819200,0.415819091796875,-2.352423542612791,4.009934145018458,16.654924826180935
1684252476294845400,0.425845458984375,0.04709255403187126,2.197545700111985,18.843558321040867
1684252476304871400,0.435871337890625,1.6357821702003479,-0.09497311663627624,22.04337727565765
1684252476314898200,0.445898193359375,2.348407877230644,-2.4936855322152374,24.67535542627573
1684252476324924200,0.455924072265625,3.9391882916659116,-4.739290037575364,25.79886962661743
1684252476334950100,0.4659501953125,4.695108366021514,-6.158341427952051,24.758144768643376
1684252476344976100,0.47597607421875,4.96207295704484,-6.8214230596125125,22.3057387567997
1684252476355002000,0.486002197265625,5.151560925155878,-7.22796037197709,19.12229576744437
1684252476365029400,0.496029296875,4.620695222333073,-7.115252276685833,15.992158836340904
1684252476375055400,0.506055419921875,3.1691157733172175,-7.049818558266758,13.349177645671366
1684252476385081300,0.516081298828125,1.7278917140990495,-7.428836580064893,11.14909804316759
1684252476395107300,0.526107421875,0.8265877479054033,-7.683568881502747,9.465083464717864
1684252476405133300,0.53613330078125,0.2510826198238879,-7.817643005427717,8.163829601725935
1684252476415160000,0.54616015625,0.6740919051703065,-8.17577606010735,6.99062168841064
1684252476425186000,0.55618603515625,2.2404116128921507,-8.571805422461033,5.482759795680642
1684252476435212000,0.5662119140625,4.0342444104105235,-8.454263331142068,4.433443634971976
1684252476445238000,0.576238037109375,5.126120194429159,-7.885958416762947,3.099899613749981
1684252476455264300,0.58626416015625,5.249494645163416,-6.798873958674073,0.5409715017735958
1684252476465290200,0.596290283203125,4.091512358030677,-4.813239655405282,-2.3460627754092216
1684252476475317200,0.606317138671875,2.327748389431089,-1.9948715026915071,-4.310406453368067
1684252476485343200,0.61634326171875,3.254405115807056,1.2500097057059407,-6.911971345543861
1684252476495369200,0.626369140625,5.742720645421743,3.350322819817066,-9.356804291784762
1684252476505395200,0.636395263671875,-0.021982662694714963,3.867880420516431,-10.639733978056906
1684252476515421200,0.646421142578125,-5.52103428901732,5.536833331173658,-12.142355047523974
1684252476525448400,0.656448486328125,-5.305348634332418,6.953238006433844,-12.73273384654522
1684252476535474200,0.66647412109375,-0.008562656595441512,5.5037528993487355,-11.109302623873948
1684252476545500200,0.676500244140625,5.093924728745222,4.1754488246068355,-8.90081467398703
1684252476555526100,0.686526123046875,5.939277821266651,2.2767875791311263,-5.832486841064691
1684252476565552000,0.69655224609375,4.383443048006296,-1.9386106862872838,-4.257845076003671
1684252476575579100,0.7065791015625,-0.6920669031262398,0.7134294246286154,-1.0762965220928191
1684252476585605000,0.716605224609375,1.082303653553128,-3.7263258777081965,-1.0876333241432905
1684252476595631000,0.726631103515625,6.102731768932938,-7.235752633288502,0.827851922622323
1684252476605657300,0.7366572265625,6.3618427238464355,-1.845343204525113,5.429902065718173
1684252476615683300,0.746683349609375,1.2390975588083266,0.6310615225434303,5.789323991164565
1684252476625709300,0.756709228515625,-4.651093283206224,4.186794686746597,3.624971535602212
1684252476635736300,0.766736328125,-7.951746939969063,6.552600858023762,1.248587856209278
1684252476645762300,0.77676220703125,-7.820175738775729,4.646543364816904,-2.8577514840751883
1684252476655788300,0.786788330078125,-6.081780750840902,1.8327888433784245,-3.6807004370868204
1684252476665814300,0.796814208984375,-3.7476913218200205,0.2996779431015253,-2.0044184987157583
1684252476675840300,0.80684033203125,-1.4314187045186757,-0.40472880163788794,0.7658756511807441
1684252476685867300,0.8168671875,-1.3081336856335402,-0.8692939400792121,1.9233330376565456
1684252476695893200,0.826893310546875,-1.4552876558840273,0.23667700478732584,3.183199243727326
1684252476705919200,0.836919189453125,-1.3946692287921905,2.589413851132989,5.48791060257256
1684252476715945200,0.8469453125,-1.9086282204777,4.039201156035065,7.165104979613423
1684252476725971200,0.85697119140625,-3.3331150799065825,4.617247712227702,8.179518753767013
1684252476735997200,0.8669970703125,-3.8123376892536878,4.454377701929212,7.430400760641693
1684252476746024200,0.877024169921875,-1.1222867043733595,4.736284426018595,4.182715893000364
1684252476756050400,0.887050537109375,3.4036370613753792,4.734929504278302,0.25625848809182644
1684252476766076400,0.897076416015625,4.523566388967633,3.03110138733387,-1.8241987096875905
1684252476776102400,0.907102294921875,4.657830482506752,0.8269505898684263,-2.5209675068944692
1684252476786128400,0.91712841796875,4.0374037512242795,-1.6088538312643765,-3.009496289247274
1684252476796155100,0.927155029296875,3.281602919334173,-4.112176375874877,-2.904797312888503
1684252476806181000,0.93718115234375,2.0233868185579778,-3.293445917341113,-1.6705705749869346
1684252476816207000,0.94720703125,0.6137411160387098,-0.920999577397108,0.2251590009510517
1684252476826233000,0.957233154296875,0.026241671846061944,0.8440425944447517,1.7044570624977349
1684252476836259000,0.967259033203125,-0.3352151934940368,1.0030494995743036,1.7228250783592463
1684252476846286300,0.977286376953125,-1.6624853220783173,-0.0234235456854105,0.9839952550143003
1684252476856312300,0.987312255859375,-2.47118903824687,-0.9891355405122041,-1.1377817951470612
1684252476866338300,0.99733837890625,-2.472379124814272,-0.7203004794418811,-4.542100993567705
1684252476876364300,1.0073642578125,-2.5694226179838178,-0.43873862326741214,-7.2895520280152555
1684252476886390300,1.017390380859375,-2.371543253624439,-0.9774100314050912,-7.8845152322173115
1684252476896416300,1.027416259765625,-1.363985336714983,-2.1096131496369837,-7.256012746506929
1684252476906443000,1.037443115234375,-0.7214145781636238,-2.514520230451226,-7.121779632627963
1684252476916469200,1.04746923828125,-0.9406208081901073,-2.5053502510458228,-7.45597651592493
1684252476926495200,1.0574951171875,-1.3956453803479671,-2.3097318173557517,-7.635225998616218
1684252476936521200,1.067521240234375,-2.5361148071438073,-3.100400549009442,-6.772904820159077
1684252476946547200,1.077547119140625,-3.653712476918101,-1.804637684649229,-7.421112123292684
1684252476956574200,1.08757421875,-3.189747642457485,2.8272680830061434,-8.423980421081184
1684252476966600200,1.09760009765625,-3.9046483086824413,4.484615019282699,-5.003520819720626
1684252476976626200,1.107626220703125,-5.86385929992795,4.118230269086361,0.08489069856107234
1684252476986652200,1.117652099609375,-5.397911767217517,5.349890371370315,3.0834716260403394
1684252476996678100,1.12767822265625,-4.692331887045502,5.2885962369740005,5.862344219189882
1684252477006705400,1.137705322265625,-3.1743472442299128,4.992109783390164,6.408841790908575
1684252477016731100,1.147731201171875,1.8485531064823268,3.302109116268158,5.186772523790598
1684252477026757000,1.157757080078125,28.92452561291456,3.154548903304338,14.308300909757614
1684252477036783000,1.167783203125,15.294267757105827,1.6431249341785907,12.007099020338059
1684252477046809000,1.17780908203125,0.4802981296241283,-0.11010171218514442,4.966895262634754
1684252477056835000,1.1878349609375,-0.05326506865434348,0.0016109423279762267,6.34739918795228
1684252477066862300,1.1978623046875,0.27801676744613796,0.2593102768778801,7.242175944334268
1684252477076888300,1.207888427734375,1.0143909777998923,0.8836673333466053,6.597036796599626
1684252477086914300,1.217914306640625,1.0987573602259157,1.7830618126571178,5.957917055284977
1684252477096940300,1.227940185546875,0.7598083139657974,1.8841051891177891,5.757586206120252
1684252477106966300,1.23796630859375,0.9565747486472129,1.5971832672148942,5.454232204854488
1684252477116993300,1.2479931640625,1.4051356777489183,0.8501777361989021,4.944660049951076
1684252477127019300,1.258019287109375,1.9080735092043875,-0.3778624220222235,4.174155569925904
1684252477137045200,1.268045166015625,2.0111703110635277,-1.7766612979650496,3.139441058282554
1684252477147071200,1.2780712890625,1.7392659255504608,-2.6491245157301426,2.1833843421600756
1684252477157097200,1.28809716796875,1.178652150195837,-2.690144508382678,1.2815274182587861
1684252477167123200,1.298123291015625,0.4817442367792129,-2.3257494706988333,0.3719116969242692
1684252477177150200,1.308150146484375,-0.10420153909749351,-2.182946681395173,-0.37443902344480157
1684252477187176200,1.31817626953125,-0.5417728812843561,-2.549679806637764,-0.9575298574149608
1684252477197202200,1.3282021484375,-1.0311047967135905,-2.6845664159893987,-2.172858418101072
1684252477207228200,1.338228271484375,-1.5504536647439002,-2.044089414846897,-4.186097644393146
1684252477217254100,1.348254150390625,-1.5829811388611792,-1.7683301074713467,-5.730502968883514
1684252477227281400,1.358281494140625,-1.0419424901355057,-0.7814239334464073,-7.635434088408947
1684252477237306600,1.368306640625,-0.26067630453407764,2.077532834765315,-10.089462733018397
1684252477247332600,1.37833251953125,0.3361994918236509,4.684340888291597,-11.317950050485134
1684252477257358600,1.388358642578125,-0.189081725397706,5.769186627542973,-11.877896301841735
1684252477267384600,1.398384521484375,-0.3162134828388691,6.337414969554543,-12.861315802794694
1684252477277410600,1.40841064453125,1.1026513719897717,11.369167027503252,-16.570063938236235
1684252477287437300,1.418437255859375,-0.41475810128636653,8.777169005095958,-12.58347501296997
1684252477297463300,1.42846337890625,-2.6720225762367247,5.11311925855875,-5.984508125090599
1684252477307489300,1.4384892578125,-3.9934652407765387,3.319272432515025,-0.5052554607480764
1684252477317515300,1.448515380859375,-4.224166678285599,1.7467156570345161,3.486175936113298
1684252477327541500,1.45854150390625,-3.8409751701951023,1.221338614755869,5.2946296719193455
1684252477337568500,1.468568603515625,-3.0778631385087967,0.5816957263499498,6.3919362488150595
1684252477347594500,1.478594482421875,-2.3531043644838032,-0.91635204385221,6.62209583453238
1684252477357620500,1.488620361328125,-1.9570637500837444,-2.7139070767641065,5.973982054901123
1684252477367646500,1.498646484375,-1.4759306309401987,-4.637330715313554,4.8049862063229085
1684252477377672400,1.50867236328125,-1.2069058925166725,-5.914069730252027,3.313134660412371
1684252477387698400,1.518698486328125,-0.9473812422357499,-6.382592666408419,1.4750246220111847
1684252477397725700,1.5287255859375,-0.6675310853499918,-6.587905980160832,-0.29780893435925243
1684252477407751700,1.538751708984375,-0.3884183028280735,-6.888470642969012,-1.420700034366548
1684252477417777700,1.548777587890625,0.14186412021405995,-6.248229204148053,-2.209140568576753
1684252477427803400,1.558803466796875,1.4461042324751614,-4.873269468954205,-3.1456302683115003
1684252477437829400,1.568829345703125,2.5540415089786053,-3.2140888875097033,-3.8477015558406706
1684252477447856400,1.5788564453125,3.5978491353988646,-1.366441497695446,-2.293677631394565
1684252477457882400,1.58888232421875,3.3872353771507737,0.3696826226979494,1.4537284437432885
1684252477467908400,1.598908447265625,3.935174964371323,3.7322026607871055,8.23778564929664
1684252477477934600,1.6089345703125,7.8263745934158555,8.490650987818837,14.591221194803714
1684252477487960600,1.618960693359375,8.36044932141304,10.726025775587559,16.807405544412134
1684252477497986600,1.628986572265625,8.176879052913188,12.073370943146942,15.879662922495603
1684252477508013600,1.639013671875,7.563500486576557,11.68793720908761,12.632944269537925
1684252477518039600,1.64903955078125,5.744525064495206,7.596310284766554,7.9412144400388
1684252477528065500,1.6590654296875,3.9858863299548624,3.6231951735794543,4.062535269871354
1684252477538091500,1.669091552734375,2.2413854263603685,0.8892904339253902,1.4539537769317625
1684252477548117500,1.679117431640625,0.7967046508170664,-1.0956880357831715,-0.05191606519818306
1684252477558144500,1.68914453125,0.2694394567042589,-2.3331062632024286,-0.6312628903344273
1684252477568170500,1.69917041015625,0.10861761110723019,-3.184614371222257,-0.8461544720321893
1684252477578196500,1.709196533203125,-0.2643897720992565,-3.373170611441135,-0.6011810558035969
1684252477588222500,1.719222412109375,-1.0235398413520305,-2.6974896104484793,-0.1603147728577256
1684252477598248400,1.72924853515625,-1.5809411574661731,-1.5987994702398776,0.7925412475273013
1684252477608274400,1.7392744140625,-1.642480791056156,-0.3603133213281631,2.0846099335446953
1684252477618301400,1.749301513671875,-1.8999147526681421,1.031643141373992,2.8310332807585596
1684252477628327400,1.759327392578125,-2.0243068560123443,2.5612504174441098,3.076295158539712
1684252477638353700,1.769353759765625,-1.6986416542172431,4.133032701420784,2.9872721824795008
1684252477648379600,1.779379638671875,2.0159692357778547,6.046296180483698,2.8799174309149382
1684252477658405600,1.789405517578125,9.326067792737483,7.324154554840922,2.121515184354782
1684252477668432400,1.799432373046875,13.84962775196433,7.2662611687988035,0.8479606446713208
1684252477678458400,1.809458251953125,10.112923103582858,5.664404649075865,-0.2768950334072113
1684252477688484400,1.819484375,3.7443954951450227,3.586474923947453,-0.7401137256756425
1684252477698510300,1.82951025390625,-1.48045103097409,2.077058787512779,-0.6176335934326053
1684252477708536300,1.839536376953125,-5.632650497418641,1.0269587829500437,-0.12136924839168786
1684252477718562300,1.849562255859375,-9.0851547578156,0.3082850279271602,0.42911271678805346
1684252477728589600,1.859589599609375,-11.357616874963044,0.05880465566813945,1.007071594697237
1684252477738615600,1.869615478515625,-12.900122211050986,-0.01001812066733837,1.6941896432444452
1684252477748641500,1.8796416015625,-13.12248018310666,-0.0010819500178098679,1.7160823261007665
1684252477758667500,1.88966748046875,-11.979689619886875,-0.05413432576954364,1.7389646045163272
1684252477768693500,1.899693603515625,-10.21101990519762,-0.09078910894989967,2.0563974000170826
1684252477778720300,1.90972021484375,-5.668980870950222,0.061465983831882474,3.9230338602006434
1684252477788746500,1.91974658203125,1.085522907860577,0.4706880052357912,7.853139266222715
1684252477798772500,1.9297724609375,1.8386241254031657,0.6636749213784933,11.044238323289155
1684252477808798500,1.939798583984375,-0.9778551448240875,1.0850152505993842,11.690569895678758
1684252477818824400,1.949824462890625,-2.764474357701838,1.6773200492471456,8.868385984069109
1684252477828850400,1.959850341796875,-3.9719028127878904,1.9503426251351832,5.756976549789309
1684252477838877400,1.96987744140625,-4.115789890196919,2.3550129745841026,2.761296019926667
1684252477848903400,1.9799033203125,-3.6252196651443835,2.666483062288165,0.5195166258126497
1684252477858929400,1.989929443359375,-3.7376226400092243,2.627559749653935,-0.6730465608358382
1684252477868955400,1.999955322265625,-4.355384243735671,2.470081369265914,-1.1440011080533266
1684252477878981600,2.009981689453125,-4.583304233832657,2.216796344026923,-1.5331266823679208
1684252477889008600,2.020008544921875,-4.6018271479949355,1.7807745785027742,-2.0584441034138203
1684252477899034600,2.03003466796875,-4.320868226149678,0.9447738362163305,-2.6814859856307507
1684252477909060400,2.040060302734375,-3.964375924414396,0.010149638092517852,-3.357249404209852
1684252477919086300,2.05008642578125,-3.773638833025098,-0.6313344942659139,-4.065439759141206
1684252477929112300,2.0601123046875,-3.6042531572222707,-0.9330652782440185,-4.727388587379456
1684252477939138300,2.07013818359375,-3.60809580412507,-0.9698188456237316,-5.276971850153804
1684252477949165600,2.08016552734375,-3.533880813357234,-0.94790804258883,-5.667206847015023
1684252477959191600,2.090191650390625,-3.5169852081358433,-0.8445891224116087,-5.885920325088501
1684252477969217500,2.100217529296875,-3.5892490648359057,-0.6362433090955019,-6.0119666253805155
1684252477979243500,2.110243408203125,-3.8208892444998024,-0.38237668457627294,-5.807687330850959
1684252477989269500,2.12026953125,-4.1830899870097635,-0.37037352757155895,-5.056554490771889
1684252477999295500,2.13029541015625,-4.680546756705642,-0.5636240630865097,-4.241002077752351
1684252478009322500,2.140322509765625,-5.158047364565729,-0.8787298769444226,-3.8811867690742012
1684252478019348500,2.150348388671875,-5.53438535349965,-1.2587421704769133,-3.922023806375265
1684252478029374700,2.160374755859375,-5.410225889867544,-1.6706775424927471,-4.101170413213968
1684252478039400700,2.170400634765625,-4.980112471604347,-2.116235198125243,-4.373603206515312
1684252478049426400,2.180426513671875,-4.5206788508325815,-2.5508055957973004,-4.63060520645082
1684252478059453400,2.190453369140625,-3.926742651590705,-2.851692914688587,-4.930965871119499
1684252478069479400,2.2004794921875,-3.268513136136532,-3.0436709460496902,-5.2812090493321415
1684252478079505400,2.21050537109375,-2.571764797195792,-3.386214801931381,-5.63390312782824
1684252478089531400,2.220531494140625,-2.511064537039399,-3.918157778596878,-5.995791735649108
1684252478099557400,2.230557373046875,-3.1203102413550017,-4.5394683069765565,-6.2638411992996925
1684252478109583400,2.240583251953125,-3.34471959298253,-5.078113411629199,-6.210742646318674
1684252478119610600,2.250610595703125,-3.1978447319343686,-5.652302123349905,-6.06923340395689
1684252478129636600,2.26063671875,-2.6943241321548816,-6.229366098245978,-5.715917394170165
1684252478139662600,2.27066259765625,-1.1120485112145542,-6.914855376547575,-5.32604655444622
1684252478149688600,2.2806884765625,26.381782912063596,-9.256296337375044,-5.2169075498133894
1684252478159714600,2.290714599609375,67.10933224892617,3.6401404631614684,14.862583144003152
1684252478169741300,2.3007412109375,-30.640635119283196,16.725348023450373,20.566199275004863
1684252478179767300,2.310767333984375,-47.81126256594658,23.56662729165554,15.029556497967242
1684252478189793500,2.32079345703125,-15.20186887487173,28.63179471247196,0.2309539509654045
1684252478199819500,2.330819580078125,36.71287998001575,16.822492054384945,-11.919074699926375
1684252478209845500,2.340845458984375,10.21801078699827,7.460999312523007,-1.3061407582506537
1684252478219871500,2.35087158203125,-16.957392692261934,2.793650475564599,4.5215109177425505
1684252478229898500,2.3608984375,-1.3490005335509776,-4.913052613288164,-0.18176351133882998
1684252478239925200,2.37092529296875,4.126901943580806,-5.957663372784853,-3.9267224855855103
1684252478249951200,2.380951171875,-6.268765796220302,2.1323662487149235,-5.5261739899933335
1684252478259977200,2.390977294921875,-6.855085675239563,6.59061465459764,-6.141862586838006
1684252478270003200,2.401003173828125,-4.73891448226124,9.808651402950286,-5.765473744499683
1684252478280029200,2.411029296875,-2.1692226919472217,12.419686134260893,-4.985755445927381
1684252478290056200,2.42105615234375,0.2934193210981786,13.35373925449848,-2.606644095136225
1684252478300082200,2.431082275390625,-0.29029592838063834,11.067487096929549,-0.23653730405569076
1684252478310108200,2.441108154296875,-2.3051918358385564,7.692842321282625,0.01750964546650648
1684252478320134100,2.451134033203125,-2.5914929954946038,5.3376013831615445,-1.0139335894212127
1684252478330160000,2.46116015625,-1.6535785236537455,3.148132021999359,-1.8822464095085858
1684252478340187400,2.4711875,-0.7900316027939319,1.459327871185541,-2.3933327683672307
1684252478350213400,2.48121337890625,-0.5005857153713703,0.509618332132697,-2.334376137007773
1684252478360239400,2.4912392578125,-0.48802536287531256,0.00954933411180973,-1.9185159927636384
1684252478370265300,2.501265380859375,-0.5369512332815677,-0.41714229300916195,-1.3163777823656797
1684252478380291300,2.511291259765625,-0.4412416921295225,-0.8390092764526605,-0.6247481016129255
1684252478390317300,2.5213173828125,-0.08491700204610825,-1.3378876033842564,-0.010392214676737784
1684252478400344000,2.531343994140625,0.3240530538907274,-1.8386662109792231,0.686449793896824
1684252478410370300,2.541370361328125,0.7804021891832351,-2.1473808624953032,1.4428424542002378
1684252478420396300,2.551396240234375,1.2093863111555576,-2.239407988807559,2.1029599753580985
1684252478430422300,2.56142236328125,1.4140005367279052,-2.3049340616852043,2.5397622237354516
1684252478440448300,2.5714482421875,1.5201356833696364,-2.5846084966778755,2.6362054129242893
1684252478450474200,2.58147412109375,1.6336305451244115,-3.0947154891103503,2.666270296320319
1684252478460501200,2.591501220703125,1.7202110964685677,-3.756955409249663,2.4057540046535433
1684252478470527200,2.60152734375,1.5489461827903985,-4.370692872026562,2.224651295311004
1684252478480553200,2.61155322265625,1.270485215240717,-4.907291565543413,2.2543128586031496
1684252478490579200,2.6215791015625,1.3110136249840258,-5.275733248269558,2.3025763926431537
1684252478500605400,2.63160546875,1.3083318385541438,-5.290523990166187,2.5263158821851013
1684252478510632200,2.641632080078125,1.4578800104647873,-5.03038836838007,2.7918367041409016
1684252478520658200,2.651658203125,1.9539567239791154,-4.300136403766274,3.0234383053600786
1684252478530684200,2.66168408203125,2.6314783844023943,-2.785285967323184,3.482790093067288
1684252478540710100,2.671710205078125,3.3188445624917744,-1.196645487526059,3.834606804206967
1684252478550736100,2.681736083984375,3.7953234260886903,0.1325584586650133,3.949827466841042
1684252478560762000,2.69176220703125,3.6243308996111154,1.088499585583806,3.8827033111169933
1684252478570789400,2.701789306640625,3.1551679119855165,1.6391951935142277,3.6413238277271387
1684252478580815400,2.7118154296875,2.7079502141863108,1.5682394968032836,3.1194556703522798
1684252478590841300,2.72184130859375,2.1151719528079034,0.9304618177473545,2.915509845560789
1684252478600867300,2.731867431640625,1.56490772203207,-0.03226093213558197,2.6425246790736914
1684252478610893300,2.741893310546875,1.1908389201391487,-0.9454764315277338,2.3732735845483837
1684252478620920000,2.751920166015625,0.9791127436697482,-1.65233933724761,2.3628026055470106
1684252478630946000,2.761946044921875,0.9419178622633219,-2.1806395734965798,2.439839667998254
1684252478640972000,2.771971923828125,0.9678198538262397,-2.4415081857323644,2.5874083565294743
1684252478650998000,2.781998046875,1.1497317606598139,-2.3922774140954015,2.7106141726985573
1684252478661024300,2.792024169921875,1.4293401446789502,-2.1317010628044604,2.8519427977964282
1684252478671050200,2.80205029296875,1.7978402795940636,-1.804236702632904,2.931944263011217
1684252478681077200,2.8120771484375,2.3203648550510407,-1.5163094030797482,2.8689617371365426
1684252478691103200,2.822103271484375,2.893180524852872,-1.220277123004198,2.7249232685580846
1684252478701129200,2.832129150390625,3.305260858297348,-0.9818816238611936,2.387527150828391
1684252478711155200,2.8421552734375,3.381257471784949,-0.7757394580692052,1.9331272864401339
1684252478721181200,2.85218115234375,3.045966363510489,-0.7640805844575166,1.394367907758057
1684252478731207200,2.862207275390625,2.382921118337661,-0.9347171371042727,0.8930138383626938
1684252478741234200,2.872234130859375,1.7143693847030401,-1.1601754132628441,0.3608145488485694
1684252478751260200,2.88226025390625,1.1359610825259239,-1.2092787591278553,0.11323153464347123
1684252478761286100,2.8922861328125,0.540783724116534,-0.7934241678416728,0.4141080398797989
1684252478771312000,2.90231201171875,-0.06144895963184535,0.1972825675100088,1.387457982239127
1684252478781338000,2.912338134765625,-0.7492202844560146,1.7644126417666672,2.877060580179095
1684252478791365000,2.922365234375,-1.5295768809318542,3.927566242933273,4.110178772316873
1684252478801391000,2.93239111328125,-1.9866706605792044,6.372451796144246,4.762513384513556
1684252478811417300,2.942417236328125,-2.205203521388769,8.649924434930085,4.511211934307218
1684252478821443300,2.952443359375,-2.081327112481743,9.859581964242457,3.393730584388971
1684252478831469300,2.96246923828125,-1.9387353355802595,9.287742445996404,1.261893035723269
1684252478841495300,2.972495361328125,-1.8640870679616928,7.537612012082338,-1.132038283059001
1684252478851522300,2.982522216796875,-0.6567900572355836,5.699615078666806,-3.158272015480697
1684252478861548300,2.99254833984375,6.3757192735075945,4.731279749599099,-6.723653590255975
1684252478871574300,3.00257421875,8.948402354592085,3.7225919518768786,-10.005855060005187
1684252478881600300,3.012600341796875,3.0355577822208404,1.8291086935609577,-9.43128114835918
1684252478891626200,3.022626220703125,-1.1303263645745814,0.08162380571961403,-8.105977716737986
1684252478901652200,3.03265234375,-3.708980482892692,-0.9211638280481099,-6.729893361428379
1684252478911679200,3.04267919921875,-4.8962163370385765,-1.113055934691429,-5.5728258510529995
1684252478921705200,3.052705322265625,-5.560036512106657,-0.5279565373778343,-4.563514368474483
1684252478931731200,3.062731201171875,-5.944158579045534,0.481923100477457,-3.8519177122309802
1684252478941757200,3.072757080078125,-6.663121672403812,1.6831863109320402,-3.1721582097530363
1684252478951783200,3.082783203125,-7.214077977097034,2.9052234293460844,-2.3379496115803717
1684252478961809200,3.09280908203125,-6.505444554573297,4.00230262722671,-1.6846452775686978
1684252478971836400,3.10283642578125,-5.4073138018131255,4.728139698007703,-1.5223970524303614
1684252478981862400,3.1128623046875,-3.296551189880073,4.480353854706883,-1.8166347041741013
1684252478991888400,3.122888427734375,0.7510606516256928,3.6257214771866795,-1.8183818401023744
1684252479001914400,3.132914306640625,3.11937179146111,2.5617209575653073,-1.145317889740318
1684252479011940400,3.1429404296875,2.3169129610314965,1.5762848560929297,-0.6063426763504743
1684252479021967000,3.152967041015625,-0.04063450046628713,0.5935013149559497,-0.6116751234196126
1684252479031993000,3.1629931640625,-1.148832473732531,-0.2319774487942457,-1.216340368077159
1684252479042019000,3.17301904296875,-1.2321569458901882,-0.6432698467314243,-1.6738608487039803
1684252479052045300,3.18304541015625,-1.7418039195954798,-0.7312205173850059,-1.8713386465251445
1684252479062071300,3.1930712890625,-2.6155887413531542,-0.8585521813124418,-1.9931806269951164
1684252479072097300,3.20309716796875,-3.0583161419957876,-1.1066174260765314,-2.3207819114193318
1684252479082124300,3.213124267578125,-2.779297540563345,-1.011708022326231,-3.1071546994447705
1684252479092150300,3.223150390625,-1.9863529729321598,-0.6779822636723518,-4.198140256625414
1684252479102176300,3.23317626953125,-1.379188458804786,-0.27459143263995645,-4.311389911447465
1684252479112202200,3.2432021484375,-1.2799044932320713,-0.07864917382299899,-3.6063705877676604
1684252479122228200,3.253228271484375,-1.1710250163182616,0.04215571868419647,-2.7834540757209063
1684252479132254200,3.263254150390625,-1.2771595784381031,0.23964345337748527,-1.8834398570768534
1684252479142281200,3.27328125,-2.316013089582324,0.2512058808773756,-0.6480114883005619
1684252479152307200,3.28330712890625,-3.3334020801544186,0.16860943073332307,0.6462380488872528
1684252479162333200,3.293333251953125,-3.5180753414601087,-0.21911738269925116,1.0522386240266264
1684252479172359200,3.303359130859375,-3.0901310839295384,-0.6859393601566552,0.8856986930437386
1684252479182385200,3.31338525390625,-2.9849416937053204,-1.1519891841977834,0.6469524807669222
1684252479192411100,3.3234111328125,-3.6906735495686527,-1.8331781349569558,0.3403296869635582
1684252479202438100,3.333438232421875,-4.601891737663745,-2.6360212885290384,-0.11464841570407151
1684252479212464400,3.34346435546875,-5.315464954677224,-3.4257875183850524,-0.6810267459347844
1684252479222490400,3.353490478515625,-5.727613092660904,-4.097954958298802,-1.392871385589987
1684252479232516400,3.363516357421875,-5.594150378632545,-4.469028158572316,-1.9665996401920913
1684252479242542300,3.373542236328125,-4.839800914594531,-4.5578971131145956,-2.399117781509459
1684252479252568300,3.383568359375,-3.873088218292594,-4.2941544067472215,-2.8242764999747276
1684252479262595300,3.39359521484375,-2.8725188450962302,-3.6790965090215204,-3.713957979044318
1684252479272621300,3.403621337890625,-2.0958763007074594,-3.168294520062208,-4.490448547741771
1684252479282647300,3.413647216796875,-2.4687340463101863,-2.98486687490344,-4.574112334856391
1684252479292673300,3.42367333984375,-3.702221948543191,-2.838382182216644,-4.298189361351728
1684252479302699300,3.43369921875,-5.048042098492384,-2.7743390413731337,-3.8267175122618675
1684252479312725200,3.443725341796875,-5.884757126528024,-2.663969033640623,-3.141718063303828
1684252479322752300,3.453752197265625,-5.948654721421003,-2.2097458409935236,-2.169539502811432
1684252479332778500,3.463778564453125,-5.290419945269822,-1.3960551301926374,-1.435258867203444
1684252479342804500,3.473804443359375,-0.9041264762684702,-0.32590894742310045,-1.3430164907053113
1684252479352830500,3.48383056640625,46.997397667622565,2.2386744138360024,-3.1543188939407467
1684252479362856400,3.4938564453125,50.05145439860821,21.431347785842416,-4.618237892308831
1684252479372883200,3.50388330078125,5.087043737059831,30.600251670968532,-6.249095465588569
1684252479382909200,3.5139091796875,-19.516656319802998,22.23758350446224,-4.632893609648943
1684252479392935200,3.52393505859375,-18.661309072011708,16.63751542621851,-3.549980592025816
1684252479402961200,3.533961181640625,-11.443234134232997,9.086267102971673,0.017690993382781742
1684252479412987400,3.5439873046875,-6.593851152300834,1.698080513203144,2.7158506120473147
1684252479423013400,3.554013427734375,-5.336497805833816,-2.852353424423933,4.178176788266003
1684252479433040400,3.564040283203125,-0.8542495156824589,-7.1756275426715606,5.243303389307856
1684252479443066400,3.57406640625,0.3091217710122466,-10.167614478713274,7.080434645804762
1684252479453092400,3.58409228515625,-3.9335631452605124,-9.098511667516828,5.776345851647854
1684252479463118300,3.594118408203125,-4.068820926012099,-6.364889251935482,4.007725821319222
1684252479473144300,3.604144287109375,-4.581163714672625,-4.000112423706055,3.3636066642820834
1684252479483170300,3.61417041015625,-6.071600717610121,-0.9378758933961391,3.1935926274478432
1684252479493197600,3.624197509765625,-6.628366000843048,2.7327514779657123,2.6108266415178774
1684252479503223300,3.634223388671875,-6.540629265201091,5.827457030203938,2.0626789645045993
1684252479513249300,3.644249267578125,-4.734122279548645,7.576518958103656,1.7063139424107967
1684252479523275300,3.654275146484375,1.7208873882949351,8.726352425572276,3.221322345894575
1684252479533301200,3.66430126953125,3.827659761548042,7.843869333574175,3.6785534881860014
1684252479543327200,3.6743271484375,3.22595643543601,4.694131629943848,2.861312975949049
1684252479553354200,3.684354248046875,2.868052513337135,1.1671066738307476,2.0918442687124013
1684252479563380200,3.694380126953125,2.919122190839052,-1.5499837091445923,1.9562271531291304
1684252479573406500,3.704406494140625,3.081730335330963,-3.1968945916026827,2.3191722842656075
1684252479583432400,3.714432373046875,3.0765444571256637,-2.6653134339869022,2.3812293658584354
1684252479593458400,3.72445849609375,3.496710481870174,-1.216782266625762,1.6387927501931785
1684252479603484400,3.734484375,4.1368227413535115,-0.359341845947504,0.3531814236216247
1684252479613511400,3.744511474609375,4.285453798419237,-0.21182371855974197,-0.8853846586585045
1684252479623537400,3.754537353515625,3.9921325308680533,-0.512442157381773,-1.5808001415602861
1684252479633563400,3.7645634765625,2.9788848778843877,-0.9864712897390127,-1.8602499740168452
1684252479643589400,3.77458935546875,1.8614029434442518,-1.540188875839114,-1.461837369788438
1684252479653615400,3.784615478515625,1.134302136337757,-1.927860159692168,-0.7107033606655895
1684252479663642400,3.794642333984375,0.7773720277070999,-1.9730834492534397,0.13381357329264282
1684252479673668400,3.80466845703125,0.5933540154397487,-1.1720493909299372,1.0957188693128526
1684252479683694300,3.8146943359375,0.6868564750015735,-0.20459142921864984,1.8493591621682046
1684252479693720300,3.82472021484375,0.9898100787729024,0.38485096573531624,2.312608687966317
1684252479703746300,3.834746337890625,1.7141747389137745,0.5167091671764851,2.787333547502756
1684252479713772300,3.844772216796875,2.62480957416296,0.3703630061775446,3.107958124782145
1684252479723799600,3.854799560546875,2.9861048922657965,0.24393910474479197,3.272407220965624
1684252479733825500,3.864825439453125,2.5057050558328626,0.2888192799568176,3.4005981320708987
1684252479743851500,3.8748515625,1.6395254483819006,0.3364151438683271,3.746877082827687
1684252479753877500,3.88487744140625,0.880283682257682,0.1724614299863577,3.8858115062654015
1684252479763903500,3.894903564453125,0.40645262975580987,-0.09263561359941959,3.762155315980315
1684252479773929500,3.904929443359375,0.2636890034187585,-0.39623511405885214,3.4234204969927666
1684252479783956200,3.914956298828125,0.2815127563357353,-0.6725497172296047,3.0662682700440285
1684252479793982200,3.924982177734375,0.3136947780162096,-0.8817927716463804,2.732823374158144
1684252479804008200,3.93500830078125,0.3613620266634971,-1.0476520268887282,2.423701603145897
1684252479814034400,3.945034423828125,0.3863222803968936,-1.0970417884796857,2.179741017221659
1684252479824060400,3.955060302734375,0.3674993603747338,-1.1071101780295372,2.0434328506343067
1684252479834086400,3.96508642578125,0.3248229057520628,-1.015602107155323,1.9172525486990808
1684252479844113400,3.975113525390625,0.31561493242383004,-0.919531842932105,1.6908296652920543
1684252479854139400,3.985139404296875,0.41725386362485584,-0.83915949857831,1.4084053470693527
1684252479864165400,3.995165283203125,0.5889286002129316,-0.6102998895436526,1.0718851353913545
1684252479874191400,4.00519140625,0.7733002482235432,-0.166914317253232,0.625809154973179
1684252479884217300,4.01521728515625,1.0522564519442617,0.4515396526515484,0.16645473691746593
1684252479894243300,4.025243408203125,2.3935312135487794,1.3113181608885527,-0.4325599346324801
1684252479904270300,4.035270263671875,7.011953230252861,2.4157138192623853,-1.2549794569425283
1684252479914296300,4.04529638671875,11.49498185712695,2.7624212245643136,-1.2223355168387293
1684252479924322300,4.055322265625,11.722073287445307,2.115670549979806,-0.6574754822164773
1684252479934348300,4.065348388671875,8.495761462700367,1.0866466511934996,-0.6296306129574776
1684252479944374300,4.075374267578125,5.3319525636196134,0.05375263297557831,-0.7875526454597711
1684252479954400300,4.085400146484375,4.212343554022908,-0.8607330324828624,-1.0515914121642709
1684252479964427500,4.095427490234375,3.6242724474221464,-1.62466281029284,-1.5535843639850615
1684252479974453500,4.10545361328125,3.3482688098967075,-2.441484804856777,-1.8565591566748916
1684252479984479500,4.1154794921875,4.292299718791246,-3.4353263311028477,-2.2597464279592034
1684252479994505500,4.12550537109375,6.154067403894662,-4.311482558166981,-2.876590040057897
1684252480004531500,4.135531494140625,6.663541359120607,-4.263522537118196,-3.0118945825606582
1684252480014557400,4.145557373046875,3.7839036219298836,-2.9300930821865796,-1.67348368595466
1684252480024584200,4.155584228515625,0.39515199499726295,-1.1909914072871208,0.8480173432946204
1684252480034610200,4.165610107421875,-3.5160791992068288,1.0870394499033689,3.1116955577448007
1684252480044636200,4.17563623046875,-6.496737516504526,5.209398781618476,4.904186585265398
1684252480054662400,4.185662353515625,-7.885520609867572,10.766311024224757,4.98689526361227
1684252480064688400,4.1956884765625,-8.72682997995615,16.466598887586592,3.552459257099032
1684252480074714400,4.20571435546875,-4.882367552167177,22.762970483613014,4.82712088124156
1684252480084741400,4.215741455078125,0.5212590855658054,27.23518954718113,8.442911916044354
1684252480094767400,4.225767333984375,-0.11456219872534275,23.7013478967905,10.762088438093661
1684252480104793300,4.23579345703125,0.18668226304054258,16.20014575321674,11.676182473886012
1684252480114819300,4.2458193359375,0.028708792611956593,10.044329459828138,11.49179621282816
1684252480124845300,4.25584521484375,-1.3310314538791774,5.702269977089762,10.308236416846514
1684252480134871300,4.265871337890625,-2.950189529275894,2.918461681103706,8.73109932783842
1684252480144898300,4.275898193359375,-4.298212449966371,1.611773518103361,6.362962083265185
1684252480154924300,4.28592431640625,-5.3567263548702,1.1480512602269648,3.7846149850696325
1684252480164950300,4.2959501953125,-6.681117932343483,0.8712515038877725,1.460034850411117
1684252480174976300,4.305976318359375,-8.31128810788095,0.6614490620225667,0.05742693757414818
1684252480185002200,4.316002197265625,-8.54322113301158,0.2286141098409891,-0.6071487685689703
1684252480195028200,4.3260283203125,-6.898671134465933,-0.6914432182699441,-1.9000686280556023
1684252480205055200,4.33605517578125,-5.669333337649703,-1.777309532740712,-3.0495602963492274
1684252480215081500,4.34608154296875,-5.143771001932024,-2.856071568164229,-3.5627982802838085
1684252480225107500,4.356107421875,-4.715080309948325,-3.886646203523874,-3.728881407409906
1684252480235133400,4.366133544921875,-4.7533705853760235,-4.852785483852029,-3.3138983382612466
1684252480245159000,4.376158935546875,-4.978882053026557,-5.479142189705372,-2.5641043455705046
1684252480255185000,4.386184814453125,-4.9420425609290595,-5.670850756475329,-2.030566208668053
1684252480265212000,4.3962119140625,-4.870469024580717,-5.638150263878702,-2.1942041345991194
1684252480275238000,4.40623779296875,-6.252865047255158,-5.6749330573529,-3.086504125604033
1684252480285264000,4.416263916015625,-7.675001544165611,-5.446290305939317,-4.486710530257225
1684252480295289900,4.426289794921875,-7.6667954413563,-5.055543852424622,-5.327534162655472
1684252480305316000,4.436316162109375,-8.0551669824332,-4.933745272704958,-5.003803143793344
1684252480315341800,4.446341796875,-9.145659203138948,-5.090386617746949,-3.589649462330341
1684252480325368800,4.456368896484375,-9.954101491892338,-5.236879493740201,-1.5341542718499899
1684252480335394800,4.466394775390625,-10.24238651884198,-5.0721191396504635,0.032027854032069446
1684252480345420800,4.4764208984375,-9.673930213293433,-4.681749702754616,0.9990633525475859
1684252480355446800,4.48644677734375,-8.672453077602386,-4.264629621577263,1.8271045141316948
1684252480365472800,4.49647265625,-7.755490792897343,-4.0777357616126535,1.9803262599885463
1684252480375498800,4.506498779296875,-7.0127247991472474,-4.241830929791927,1.5742501353949307
1684252480385526000,4.516526123046875,-6.25845599913001,-4.493291077691317,1.1165032986663281
1684252480395552000,4.526552001953125,-5.095143456885219,-4.7354076431840655,0.38414091776981946
1684252480405578000,4.536577880859375,-3.762657128022611,-4.936529350465536,-0.6555340658251195
1684252480415604000,4.54660400390625,-2.646083832859993,-4.815712182998657,-1.858177113265544
1684252480425630000,4.5566298828125,-1.1951213466987014,-4.4514235282987356,-2.3885690610967574
1684252480435656000,4.566656005859375,-0.0036567689418792724,-3.730464877209067,-1.7074107977367936
1684252480445682700,4.5766826171875,0.5126528775230049,-1.7973539573818444,-0.3458329605549574
1684252480455708700,4.586708740234375,0.08366247194036841,1.8856641089975832,1.0948429632611572
1684252480465735000,4.59673486328125,3.932077582877874,8.089767171171307,4.0228561704337595
1684252480475761000,4.606760986328125,61.43478439149856,32.78587487809658,17.996853813910484
1684252480485787000,4.616786865234375,23.109421283805368,51.15064079790115,10.248007281333207
1684252480495812900,4.626812744140625,-19.092551786565778,40.443770973682405,0.20868658957779407
1684252480505839900,4.63683984375,-11.291694496244192,25.63918993679285,-8.63102391962707
1684252480515865900,4.646865966796875,-5.351887098145484,12.999410268276929,-8.602624339094758
1684252480525891800,4.656891845703125,-0.2590919579520821,1.4053724091142414,-3.8386937812596558
1684252480535917800,4.666917724609375,1.4402408933997153,-4.800823241424561,-1.6176729514054953
1684252480545943800,4.67694384765625,-1.4288628825560212,-7.36231623545289,-0.037264658707007764
1684252480555970000,4.686969970703125,-3.5659450538769364,-8.662768134412168,0.8348070024572313
1684252480565996800,4.696996826171875,-3.423468135526776,-8.848358510562777,0.848007114161551
1684252480576022800,4.707022705078125,-3.7700288258343932,-8.07957953915596,0.2544296652294695
1684252480586048800,4.717048828125,-4.767620936785638,-7.007821245014667,-0.6876711523853242
1684252480596074800,4.72707470703125,-5.5504445078969,-5.871876602166891,-1.4996312400013208
1684252480606100700,4.737100830078125,-5.945664307433367,-4.495548501229286,-2.6097949603825805
1684252480616126700,4.747126708984375,-6.6469923753798,-3.1393624400883913,-4.1061815193742515
1684252480626154000,4.757154052734375,-7.355594233721495,-1.8976146590322256,-5.500158674249053
1684252480636180000,4.767179931640625,-7.741240733748674,-0.60993164075315,-6.209696352136135
1684252480646206000,4.7772060546875,-7.770262245571613,0.3680617434978485,-6.314297713339329
1684252480656232000,4.78723193359375,-7.548059756338596,0.596619154715538,-5.919399400842189
1684252480666258000,4.7972578125,-6.673294691371917,1.0525146644890309,-5.275238158228993
1684252480676284000,4.807283935546875,-5.177753935554623,1.1433446899712085,-4.168972614330053
1684252480686310700,4.817310546875,-3.8981791126683354,0.7511082901597023,-2.8316870684921738
1684252480696336600,4.827336669921875,-2.849166611081362,0.1886556089401245,-1.9281696640327572
1684252480706363000,4.83736279296875,-2.0684452729463576,-0.2688847454309463,-1.4822683095291256
1684252480716388900,4.847388916015625,-1.107736785495281,-0.5636497820496559,-1.2445780360460281
1684252480726414800,4.857414794921875,0.1445791513264179,-0.5326379731923342,-1.3354491241909563
1684252480736440800,4.86744091796875,10.099632244855165,-0.17456278617978094,0.17112141355425117
1684252480746467800,4.8774677734375,18.716683168709277,0.18617840517163275,1.043850442648679
1684252480756493800,4.887493896484375,13.747428775727748,0.7155418867379426,0.5240691745504736
1684252480766519800,4.897519775390625,6.282924085432291,1.5978198115527629,0.36857268869467075
1684252480776545800,4.9075458984375,1.7867220887303352,2.7030308779627084,0.24347879375666379
1684252480786571800,4.91757177734375,-0.7482417948126793,3.479145599085092,0.8705117914363741
1684252480796598000,4.927597900390625,-1.1161661756664514,3.0749691706329583,1.7378965368933974
1684252480806624800,4.937624755859375,-0.6810475695271044,1.963189247226715,2.3649631445817647
1684252480816650800,4.947650634765625,-0.409124406248331,0.9667354926556349,2.6166455569297074
1684252480826676700,4.9576767578125,-0.20911745527572928,0.007960603615641593,2.5774390434399246
1684252480836702700,4.96770263671875,0.020576266495510934,-0.9944371540516614,2.3975115153566002
1684252480846728700,4.977728759765625,-0.009845613644644617,-1.9017869762808084,2.102344619938731
1684252480856754700,4.987754638671875,0.1271879446078092,-2.5116063888311384,1.7820912140592933
1684252480866782000,4.997781982421875,0.14878997395448385,-2.8510055169463158,1.5288029739499092
1684252480876808000,5.007807861328125,-0.007068038690090179,-2.846264459899068,1.4984950755782425
1684252480886834000,5.017833984375,-0.3800917885094881,-2.3942659575641154,1.4230708551511169
1684252480896860000,5.02785986328125,-0.943702407592535,-1.5769272456496952,0.9316856604538858
1684252480906886000,5.037885986328125,-0.9948410586774349,-0.579901244148612,0.40282603675648565
1684252480916911900,5.047911865234375,-0.4475340702719986,0.390858681717515,-0.027093539435043928
1684252480926939000,5.05793896484375,0.20465631114840507,1.0683265661269425,-0.5896663399029523
1684252480936964900,5.06796484375,0.9835732302099466,1.4401140521496534,-1.1041176451500505
1684252480946990800,5.077990966796875,1.8190617851905524,1.5161930832237005,-1.470363059940934
1684252480957016800,5.088016845703125,2.6085043360501525,1.322645610588789,-1.5879586350128054
1684252480967042800,5.098042724609375,5.026267489057779,0.7588000137060881,-1.5202217542178929
1684252480977068800,5.10806884765625,10.784861410915852,-0.08339256895780563,-1.2925802888013422
1684252480987095800,5.118095703125,11.886661792099476,-0.6514952387630939,-0.8982412176221608
1684252480997121800,5.128121826171875,8.589327635148168,-0.5772896003454924,-0.9199603705424815
1684252481007147800,5.138147705078125,4.21181748432219,0.0786620333045721,-1.120843665958196
1684252481017173800,5.148173828125,1.31126672296226,0.6936614788413047,-0.9385130222558975
1684252481027199700,5.15819970703125,0.7513591961808502,0.7963204738050699,-0.24025771281830965
1684252481037226000,5.16822607421875,1.0787117665410042,0.7371569216966629,0.28798692078590393
1684252481047253000,5.1782529296875,1.3180623744517563,0.555133882638812,0.5516371996294707
1684252481057279000,5.188279052734375,1.604015159061551,0.013904022189974784,0.4967040516324341
1684252481067305000,5.198304931640625,1.9395657950550316,-0.724208008274436,0.1817237638503313
1684252481077331000,5.2083310546875,2.5095497485622764,-1.2437696422725915,-0.1646387004714459
1684252481087357000,5.21835693359375,3.4155633537515997,-1.371316410255432,-0.4470580502580851
1684252481097382700,5.228382568359375,3.745395904359221,-1.2927321183621883,-0.4434687205292284
1684252481107408600,5.23840869140625,3.1121678514316677,-1.3008879522889851,0.18444931635670364
1684252481117436000,5.248435791015625,2.734893750691414,-1.4291180263608694,0.8671154269963502
1684252481127462000,5.2584619140625,2.15845550647825,-1.3123662086367607,1.3434715409964322
1684252481137488000,5.26848779296875,1.475837838090211,-0.28481179788112637,1.5124410372138022
1684252481147513900,5.278513916015625,0.5027876093298197,1.7512679135113953,1.3183296470858157
1684252481157539800,5.288539794921875,-1.011749596445635,4.34414096518755,0.9109013041656464
1684252481167566800,5.29856689453125,-2.8439222806870936,7.363123460182547,0.579745615195483
1684252481177592800,5.3085927734375,-4.180244534450769,10.186280600738526,0.43288080061729994
1684252481187619000,5.318619140625,-4.665443295598029,11.9521890340209,-0.17103669441286473
1684252481197645000,5.32864501953125,-5.017980137705803,11.502111855137347,-1.1748775270279497
1684252481207671000,5.338671142578125,-4.66051928319931,8.754491893863678,-1.5660878717273472
1684252481217697000,5.348697021484375,-2.943492077463865,5.763929437667131,-1.9555922162264585
1684252481227723000,5.358722900390625,-1.91851307015419,3.1594372598677873,-2.4397274397954343
1684252481237749800,5.368749755859375,-1.3885048609435557,0.7997451875567436,-2.7489994329333305
1684252481247775700,5.378775634765625,-0.8787351376414299,-1.2923878349691629,-3.3615804191514846
1684252481257801700,5.3888017578125,3.802290342491865,-3.3635464585274457,-5.870578379049896
1684252481267827700,5.39882763671875,5.951997017586231,-4.671743272525072,-8.417728959470987
1684252481277853700,5.408853759765625,0.6594353110473603,-4.464219881507754,-7.356412564367055
1684252481287879700,5.418879638671875,-2.370903786677122,-3.984574662834406,-6.809615717440844
1684252481297907000,5.428906982421875,-3.4387679959893225,-3.6133775439202784,-7.295932084441184
1684252481307933000,5.438932861328125,-4.206373831963539,-3.1991707198411223,-8.321499705293775
1684252481317959000,5.448958984375,-5.085534501540661,-2.766864759969711,-9.70319663978815
1684252481327985000,5.45898486328125,-4.290142833018303,-2.4239573314726353,-9.951453607732057
1684252481338011000,5.469010986328125,-2.3498376177728173,-2.1159452752679586,-8.7611840849787
1684252481348036900,5.479036865234375,-2.520873983392119,-1.8722639446765184,-6.922804874247312
1684252481358063600,5.489063720703125,-4.137723197324574,-1.8639917908936738,-5.232213255494833
1684252481368089600,5.499089599609375,-6.067642919895053,-1.6693185290992258,-3.4504853217899796
1684252481378115600,5.509115478515625,-7.507551220339536,-1.1634183407068253,-1.5916729793608189
1684252481388141800,5.519141845703125,-9.051924688386917,0.19710721094310282,0.7291188689306378
1684252481398167800,5.529167724609375,-9.59496948930323,1.814943390086293,2.5411729673162102
1684252481408193800,5.53919384765625,-8.940476822289824,2.9892677402108907,3.453797807338834
1684252481418220800,5.549220703125,-5.020506441313028,4.142842732295394,4.1839425121858715
1684252481428246800,5.559246826171875,0.11849456973820924,5.146995809197426,5.052184605124593
1684252481438272800,5.569272705078125,0.7214733226135372,4.967339499270916,4.60529716219306
1684252481448298800,5.579298828125,-1.5884601547941564,3.7382191445976494,3.385509284010529
1684252481458324700,5.58932470703125,-3.2473338622465726,1.7860837908267975,2.160800023777783
1684252481468351000,5.59935107421875,-3.673917937339842,-0.4976180977374315,1.775390547376871
1684252481478377000,5.609376953125,-3.9308299209043382,-2.5776854194164276,1.6666956332497298
1684252481488403700,5.61940380859375,-4.128691165085137,-4.017511302274466,1.5102331519059835
1684252481498429700,5.6294296875,-4.314329472030699,-4.7053994584113354,1.3199053719699383
1684252481508455700,5.63945556640625,-4.514005072157085,-4.669609183105826,1.2525973841115832
1684252481518481700,5.649481689453125,-4.746503037694096,-4.163109275254607,1.4480077280089259
1684252481528507600,5.659507568359375,-4.764572362869978,-3.5006314547061916,1.7823171317696571
1684252481538533600,5.66953369140625,-4.451465613874793,-2.7656384330451487,2.076759950696677
1684252481548561000,5.679560791015625,-3.987259664134681,-1.9419436301022768,2.1496391628161073
1684252481558587000,5.6895869140625,-3.4948540403485295,-1.0105419011563062,1.9199992170587181
1684252481568612900,5.69961279296875,-1.8666706547141074,-0.08451309742033482,1.0373220637932419
1684252481578638800,5.709638916015625,3.4575580366551875,0.8384393676102161,-0.7366054252937436
1684252481588664800,5.719664794921875,7.59717596168518,2.633746913856268,0.503411878708005
1684252481598690800,5.72969091796875,10.521253729104995,4.295664226788282,3.2647628436923024
1684252481608717600,5.739717529296875,10.095069466984272,5.285805144950747,3.5395512602090835
1684252481618743600,5.74974365234375,4.603769221973419,5.280214777597784,1.9749860680043696
1684252481628769800,5.759769775390625,0.8202290265284479,4.711144139543175,0.8391605214916169
1684252481638795800,5.769795654296875,-0.8002654120385646,4.468894887581468,0.21030863782167433
1684252481648821800,5.77982177734375,-1.1417057636577634,4.847621232956648,-0.3797439979851246
1684252481658847700,5.78984765625,-1.373105047237873,5.576185682874917,-1.058735730960965
1684252481668874800,5.799874755859375,-0.8932792113006115,6.126943834647536,-2.1338547337070106
1684252481678900700,5.809900634765625,5.617643482422828,5.777318496072292,-4.162362256279588
1684252481688926700,5.8199267578125,9.743563721489906,3.8988556967556476,-5.9164966651380055
1684252481698952700,5.82995263671875,5.550147570776939,1.1071908420503138,-5.597586198300123
1684252481708979000,5.83997900390625,0.6353915876369923,-1.008290907359123,-4.672871984294057
1684252481719005000,5.8500048828125,-2.2801368895590306,-2.140204102733731,-3.4183719814315436
1684252481729031000,5.860031005859375,-2.6423019762337208,-3.118306792578101,-2.7765917887359857
1684252481739057700,5.8700576171875,-2.1304794120550152,-3.950755979862809,-2.4418434090360996
1684252481749083600,5.880083740234375,-1.7729320483088493,-4.56130078407824,-2.008030697863549
1684252481759109600,5.890109619140625,-1.4883751019716263,-5.044899124291539,-1.498761763690412
1684252481769135600,5.900135498046875,-1.2230904268592595,-5.396725772303342,-1.1327112138845026
1684252481779161600,5.91016162109375,-0.989514310696721,-5.454229866766929,-1.116776708780229
1684252481789187600,5.9201875,-0.7393652453958988,-5.059713831585645,-1.3722494533218443
1684252481799214800,5.93021484375,-0.580501511596702,-4.127866112437844,-1.896665980005264
1684252481809240800,5.94024072265625,-0.5359311329862102,-2.6951363253206013,-2.6789924152493474
1684252481819266800,5.950266845703125,-0.5050228210359812,-0.9783891055703162,-3.3574504797399043
1684252481829292800,5.960292724609375,-0.51528234924376,0.7238824295818805,-3.681963588890433
1684252481839318800,5.97031884765625,-0.8705261122226715,2.0795646328538653,-3.5497730867549775
1684252481849344800,5.9803447265625,-1.4458207393586635,2.9732945105314252,-3.195844498027861
1684252481859371800,5.990371826171875,-2.0790087525367738,3.4644413664281366,-2.9854426289647815
1684252481869397800,6.000397705078125,-2.786302450889349,3.630516894769668,-2.809998968297243
1684252481879423700,6.010423828125,-3.34138197299242,3.5527807441383596,-2.4232220029354092
1684252481889449700,6.02044970703125,-3.9931320632994174,3.4087644873917102,-1.6380232271254063
1684252481899475700,6.030475830078125,-4.804649521714449,3.233753957444429,-0.8983614830009639
1684252481909501700,6.040501708984375,-4.667267003893852,2.7971523462057113,-0.7904419371604919
1684252481919528700,6.05052880859375,-4.42103365073204,2.076809196665883,-0.47533232391029595
1684252481929554700,6.0605546875,-4.217307898432016,1.2047931381464003,-0.06906608357205987
1684252481939580700,6.07058056640625,-3.8782884172841903,0.47180035039186474,0.3599548632793128
1684252481949606700,6.080606689453125,-3.6262966467261313,-0.16617723515033722,0.7058322474978864
1684252481959633000,6.0906328125,-3.4532083170130847,-0.7126333058148622,1.0220780251711605
1684252481969659000,6.100658935546875,-3.302904942820966,-1.1183481958806514,1.3070534891813992
1684252481979684900,6.110684814453125,-3.230018862569332,-1.2569389204472303,1.5351121570967137
1684252481989712000,6.1207119140625,-3.249047388166189,-1.1403905163407324,1.5820307062685488
1684252481999737900,6.13073779296875,-3.198487413752079,-0.8272907816082239,1.591578140684217
1684252482009763800,6.140763916015625,-3.0179572436004873,-0.38080607425868507,1.678642383892089
1684252482019789600,6.15078955078125,-2.827235349780321,0.19357202255427836,1.7942656359776854
1684252482029815600,6.160815673828125,-2.6916613426864147,0.7597802569150924,1.8747513775780795
1684252482039841800,6.170841796875,-2.5970132202208043,1.2245464708864688,1.9363363116145134
1684252482049868800,6.180868896484375,-2.581439218991995,1.5015513944089411,2.101689955422282
1684252482059894800,6.190894775390625,-2.555999657309055,1.513383286499977,2.2464605376675726
1684252482069920800,6.200920654296875,-2.5472239379182455,1.301203594109416,2.3439923988759515
1684252482079946800,6.21094677734375,-2.57687877920866,0.9842898540467023,2.3889815874204037
1684252482089972700,6.22097265625,-2.5866508161604402,0.7063502800226211,2.4040052612900733
1684252482099998700,6.230998779296875,-2.596718621188402,0.5479185444325209,2.4108882988020777
1684252482110024700,6.241024658203125,-2.617192084896564,0.5171107337146997,2.481647596158087
1684252482120052000,6.251052001953125,-2.6095734265863895,0.5854501104474067,2.5963199772596357
1684252482130078000,6.261077880859375,-2.606246327990293,0.753576141577959,2.733889834345877
1684252482140104000,6.27110400390625,-2.552628135049343,0.9925532400012016,2.932626692317426
1684252482150130000,6.2811298828125,-2.7216940773785114,1.2595388738125561,3.112603904761374
1684252482160155600,6.29115576171875,-3.1192402740359304,1.5047832159370182,3.3126638280302285
1684252482170181600,6.301181640625,-2.8796166944026944,1.8045938455075023,3.7570690987572073
1684252482180208600,6.311208740234375,-1.9040017297208307,2.1758470785230397,4.397424227085709
1684252482190234600,6.321234619140625,-0.9456091910619289,2.322591298928857,4.8498152358695865
1684252482200260900,6.3312607421875,-0.3149451068708673,2.1963369088441134,4.977074126821756
1684252482210286800,6.341286865234375,0.16842296825051306,1.9493559521853923,4.91535329144597
1684252482220312800,6.351312744140625,0.6375029537677764,1.671203612193465,4.8339299767345185
1684252482230338800,6.3613388671875,4.061016097480058,1.5110411072880028,5.039394097134471
1684252482240365800,6.37136572265625,13.440996682190894,1.4621119489461183,5.3833261925041676
1684252482250392300,6.381392333984375,8.465558047616481,0.6142459968209266,5.384326893979311
1684252482260418300,6.391418212890625,2.6531507025063035,0.032739071041345595,5.484979225295782
1684252482270444300,6.4014443359375,0.40229361038021744,-0.4029471789181232,5.409870500558615
1684252482280470300,6.41147021484375,-0.4714976411182433,-1.0207640199631451,5.276126046979427
1684252482290496300,6.421496337890625,-0.8319104042328893,-1.6419108822137116,4.720961184680462
1684252482300522200,6.431522216796875,-1.477303088337183,-2.035778682619333,3.5672570132583377
1684252482310549200,6.44154931640625,-1.536311742144823,-1.909902478197217,2.291765221901983
1684252482320575200,6.4515751953125,-0.278196325264126,-1.277616966816783,1.4664562617607413
1684252482330601500,6.4616015625,1.4864998096190392,-0.38653263521194453,0.6961581179626286
1684252482340627500,6.47162744140625,2.1567991175733505,1.0422101280957459,-0.7549475760616362
1684252482350653400,6.4816533203125,2.4569468701437116,2.816753703254461,-2.2690302430026232
1684252482360679400,6.491679443359375,3.0427357110261917,4.466937908294796,-3.370435048997402
1684252482370706400,6.50170654296875,3.582150338746607,5.332652236321568,-4.208391893787682
1684252482380732400,6.511732421875,4.202629384738207,5.098994871616363,-4.889391167193651
1684252482390758400,6.52175830078125,4.770321720176935,3.839261936536431,-5.636584914258122
1684252482400784100,6.5317841796875,4.45130370131135,1.3131155656993387,-5.670906870576739
1684252482410810400,6.541810302734375,3.524979129499197,-1.225599779331684,-4.849470660215616
1684252482420836400,6.55183642578125,2.242132153074443,-3.089959234493971,-3.9197178675204514
1684252482430863400,6.56186328125,0.5535911832414567,-4.354415106442571,-2.9711662663310765
1684252482440889300,6.571889404296875,-1.2719466660954057,-5.017283387613296,-1.9470710561186073
1684252482450915300,6.581915283203125,-3.2723157432898877,-5.226570865693688,-0.9917900005437433
1684252482460941300,6.59194140625,-4.754214342723786,-5.034441443163156,-0.14139292250573635
1684252482470967300,6.60196728515625,-5.225289009189606,-4.510176161518693,0.48116117619425053
1684252482480993300,6.6119931640625,-5.196593660581112,-3.708008715251088,0.5766932418875396
1684252482491019300,6.622019287109375,-5.281982956314087,-2.695653042671084,0.4805000088717788
1684252482501046500,6.632046630859375,-5.2287248288571835,-1.7157897728949785,0.3638846039436757
1684252482511072500,6.642072509765625,-4.754411034339666,-0.8793103071808814,0.3506073353499174
1684252482521098500,6.652098388671875,-3.8115059146046635,-0.28662440026104447,0.5125878494627774
1684252482531124500,6.66212451171875,-2.6486007841169834,0.13432079216241835,1.114020395809412
1684252482541150200,6.672150146484375,-1.4267277702234684,0.49574938125610346,2.045936650148779
1684252482551176200,6.68217626953125,-0.03940130540952086,0.9361299265116453,3.0398750608980656
1684252482561203200,6.692203125,1.1864788252335041,1.550233884513378,3.9143390970915553
1684252482571229400,6.7022294921875,2.0281950956225394,2.2668092059522866,4.275441522970795
1684252482581255400,6.71225537109375,2.841304791665077,2.76151404659152,3.8195369531080123
1684252482591281400,6.722281494140625,3.754232121765613,3.464377069020271,2.8360876415386795
1684252482601307400,6.732307373046875,4.273558777964115,4.471577843055129,1.8789564280524849
1684252482611333400,6.74233349609375,4.0402971345782275,5.70037261903584,0.9279949892424046
1684252482621359400,6.752359375,3.9433787290930744,6.6982830021560185,-0.182221338108927
1684252482631386400,6.762386474609375,4.662040793678164,7.099113627311587,-1.6473836145363747
1684252482641412400,6.772412353515625,5.850801665434241,6.392492713654041,-3.2143010689556597
1684252482651438600,6.7824384765625,6.4482064175695175,4.347503719618916,-3.816178874851763
1684252482661464600,6.792464599609375,5.7433133506178855,1.8008856386393308,-3.190012723134458
1684252482671490300,6.802490234375,4.317857938417792,0.06164075587689876,-1.5631035952195524
1684252482681516300,6.812516357421875,2.7479847029328344,-0.6933452524989843,0.380226228544116
1684252482691543300,6.822543212890625,1.3056471295148133,-1.301947690474987,1.53708637977913
1684252482701569300,6.8325693359375,1.048083477108553,-2.358290973341465,2.101605784270167
1684252482711595300,6.84259521484375,1.2552104892194271,-3.871568461379409,2.508019177994132
1684252482721621200,6.852621337890625,1.141303539532423,-5.2128579821616405,2.6482909875154492
1684252482731647200,6.862647216796875,0.8248948994476347,-6.052483344686031,2.4948195046812294
1684252482741673500,6.872673583984375,0.3450813384700566,-6.172095812538266,2.186146646480262
1684252482751699500,6.882699462890625,-0.26976039575431493,-5.306191514897346,1.665709690952301
1684252482761726500,6.8927265625,-0.9233762434005737,-3.6203818697243926,1.1312164452821016
1684252482771752400,6.90275244140625,-1.7510060477048157,-1.5010358461022375,0.6939068319045006
1684252482781778400,6.9127783203125,-2.5498276906758544,0.753645115160942,0.40100656624436376
1684252482791804400,6.922804443359375,-3.335064460408687,2.658797183960676,0.19919220052361486
1684252482801830400,6.932830322265625,-2.824325599813461,3.72544266513288,0.38217297869771716
1684252482811856400,6.9428564453125,-2.5740298195183278,4.145743714433908,0.43964740867540236
1684252482821883400,6.95288330078125,-2.0493594642043114,4.053594423046708,0.6933075508370995
1684252482831909400,6.962909423828125,-1.7548609695672988,3.668271163624525,0.6345512643553316
1684252482841935400,6.972935302734375,-1.5884978564560412,2.962800589045882,0.5499839525297284
1684252482851961300,6.98296142578125,-1.38784435120821,2.08884450237453,0.37659400952160355
1684252482861987300,6.9929873046875,-1.297524028813839,1.168674361538887,0.18066285662055015
1684252482872013300,7.003013427734375,-1.2213503051936625,0.4149374764412641,-0.009207973328232765
1684252482882039300,7.013039306640625,-1.2312234644323587,-0.2340776359438896,-0.20205299678221345
1684252482892066300,7.02306640625,-0.8247101174652576,-0.5619651899635791,-0.4646852576896548
1684252482902092500,7.033092529296875,0.08112922713570296,-0.31657705545425413,-0.6248416251152753
1684252482912118500,7.043118408203125,0.8431820320926606,-0.02832593077421188,-0.48792350993603467
1684252482922144500,7.05314453125,1.611728509917855,0.08921382245719432,-0.23855258940085766
1684252482932170500,7.06317041015625,2.1486824466131624,-0.04482172302305698,0.04777779634967446
1684252482942196500,7.073196533203125,2.4414443267159163,-0.3906225348740816,0.3576829728245735
1684252482952223200,7.08322314453125,2.5778976008623835,-0.8392916005253791,0.6675790892101824
1684252482962249200,7.093249267578125,3.741565532416105,-1.146422782242298,1.225387305624783
1684252482972275200,7.103275146484375,7.88015352987647,-1.0061457120239734,2.3991750646546484
1684252482982301400,7.113301513671875,8.27958188701868,-0.6339648427695036,2.5367554431349038
1684252482992327400,7.123327392578125,5.595566090649366,-0.30825813992023465,1.781366114655137
1684252483002353400,7.133353515625,3.0759377234041687,-0.19690555089116096,0.9233864725336431
1684252483012379400,7.14337939453125,1.8007244567282497,-0.055980830419063564,0.3864575241491198
1684252483022406400,7.153406494140625,1.3909535692699253,0.23415829996466636,0.04318959177657961
1684252483032432400,7.163432373046875,1.2785358352273701,0.3862468040078878,-0.18757775057554243
1684252483042458400,7.173458251953125,1.2409762121617793,0.3333803062170744,-0.34273762488812204
1684252483052484400,7.183484375,1.241228725618124,0.14771335769891739,-0.38398879594802854
1684252483062510300,7.19351025390625,1.2421287431977688,-0.08674129486382007,-0.3811808989204466
1684252483072536600,7.20353662109375,1.2588812866866588,-0.30616672059893607,-0.3942114992767572
1684252483082563300,7.213563232421875,1.3787252252072095,-0.4796013795316219,-0.3585802139252424
1684252483092589300,7.22358935546875,1.5447196511365473,-0.4265419895172119,-0.4060584428064525
1684252483102615300,7.233615234375,1.8850265417464076,-0.15081307727992535,-0.5937791089840233
1684252483112641300,7.243641357421875,2.535596920749545,0.15845511646568775,-0.7812742958426475
1684252483122667300,7.253667236328125,4.114745934101939,0.44367958680093283,-0.9357619699820876
1684252483132693200,7.263693359375,5.9079532931983465,0.7687719571441411,-0.7277147012211382
1684252483142719200,7.27371923828125,6.656732848149538,0.9597223990231751,-0.1357272979594767
1684252483152746500,7.28374658203125,6.559884000769257,1.0370300951093434,0.41269145108014343
1684252483162772500,7.2937724609375,6.15339987989664,1.1563684221953152,0.7938514533430338
1684252483172798500,7.303798583984375,5.477683223068714,1.2442927893638611,1.1115648193508385
1684252483182824400,7.313824462890625,4.5525908234000205,1.2671680535167456,1.2857681245684622
1684252483192850400,7.323850341796875,3.529773378038406,1.3956857123583555,1.2264109495840967
1684252483202876400,7.33387646484375,2.488070614942908,1.8827771553844213,1.0346621969342231
1684252483212903200,7.343903076171875,1.5019691814295946,2.6792010895639655,0.811758865955472
1684252483222929200,7.35392919921875,0.676295918020606,3.4546471176445483,0.40121699412465095
1684252483232955400,7.363955322265625,-0.19288287124633788,4.060817360037565,-0.05953560029119253
1684252483242980600,7.373980712890625,-1.0229377838056535,4.515611630570889,-0.39245983330383893
1684252483253006600,7.384006591796875,-1.590708518242836,4.888928225857019,-0.7287798462346196
1684252483263032600,7.394032470703125,-2.360359011787176,4.90871370730102,-1.0914198569446802
1684252483273058600,7.40405859375,-0.9141688545942306,4.739946455657482,-0.6696864367529749
1684252483283085800,7.4140859375,7.134571309661865,4.912247142124175,0.6428615581914782
1684252483293111800,7.42411181640625,11.008448047983645,3.850580618408322,0.9273004311069846
1684252483303137800,7.4341376953125,7.07368750963211,2.4490327360183,0.40813130355775357
1684252483313163800,7.444163818359375,3.432908748567104,1.2218582547158001,0.23838848488032816
1684252483323189800,7.454189697265625,1.3835422701001165,0.4368599699139595,0.5900850767716765
1684252483333215700,7.4642158203125,-1.5111223558306692,0.11797639108300208,1.1851783370941877
1684252483343241700,7.47424169921875,-5.101912804889679,0.31673195375502106,2.079891672851145
1684252483353268700,7.484268798828125,-8.39045867522955,1.040203464448452,3.3034593618333337
1684252483363294700,7.494294677734375,-11.396320407366751,2.2945786718875167,4.426490747094154
1684252483373320700,7.50432080078125,-14.390065000730752,4.251204322814941,6.091037239485979
1684252483383346700,7.5143466796875,-17.668883257782458,6.523536676102876,7.295383802908659
1684252483393372700,7.52437255859375,-17.620717485028504,7.531102191796898,7.23208300486505
1684252483403398700,7.534398681640625,-6.166264037644863,8.973366699978708,8.999035978764296
1684252483413425700,7.54442578125,1.7577450005710125,10.044724596625565,12.099881348931788
1684252483423451600,7.55445166015625,-0.4383426096871495,9.485498476237058,12.063683077347278
1684252483433477600,7.5644775390625,-2.268802133335173,8.934885870414972,10.385911192679405
1684252483443503600,7.574503662109375,-3.0583687489658593,7.8586010387599465,7.131503738784789
1684252483453529900,7.58452978515625,-3.331666926924884,6.389203024458885,2.8683459433257577
1684252483463555800,7.594555908203125,-3.5330700814962386,5.172314959371089,-0.2947776038393378
1684252483473581800,7.604581787109375,-4.223755467136204,3.5316935324460266,-2.1659981769427654
1684252483483608800,7.61460888671875,-5.559177849450707,1.6284937667578459,-3.1097745265543457
1684252483493634800,7.624634765625,-5.727280499705672,-0.4520552009582519,-3.9836312445044517
1684252483503660800,7.634660888671875,-5.67512127340138,-2.31527483843565,-4.608613154873252
1684252483513686800,7.644686767578125,-5.866847375828027,-3.9664457164257763,-5.409385347390175
1684252483523712500,7.65471240234375,-5.20980151720047,-5.213446595704555,-6.236932149586081
1684252483533738500,7.664738525390625,-3.899430866295099,-5.718120457172393,-7.025893492799997
1684252483543765800,7.674765869140625,-2.015193575230241,-5.993143266966938,-8.215228365051745
1684252483553791700,7.684791748046875,-2.36557294704318,-6.496269898992776,-9.59588251249492
1684252483563817700,7.694817626953125,-3.484543658736348,-6.643009443223476,-10.14244028996825
1684252483573843700,7.70484375,-2.3722429263263938,-5.768094156131148,-8.695076412820816
1684252483583869700,7.71486962890625,-3.565585280653834,-4.671897586303949,-6.576554565063119
1684252483593895700,7.724895751953125,-6.190229435122013,-3.7631963494658467,-5.190957115998864
1684252483603921700,7.734921630859375,-7.777702040183543,-3.2503555481553077,-3.8153424240276217
1684252483613949000,7.744948974609375,-7.935959588250517,-3.635502866488695,-2.545706811353564
1684252483623975000,7.754974853515625,-7.6588032735586165,-4.678605559509992,-1.8452546494588256
1684252483634001000,7.7650009765625,-7.541652811905741,-5.69479569568634,-1.7253166029140352
1684252483644027000,7.77502685546875,-7.501689634829759,-6.479300059491395,-1.4404600891083479
1684252483654052600,7.785052490234375,-7.422782102331519,-7.08448655154407,-1.15370212559551
1684252483664078600,7.79507861328125,-7.500152926781773,-7.4279925304561845,-0.9453757476322352
1684252483674104600,7.8051044921875,-7.598776382619142,-7.478833075377344,-0.811554429424554
1684252483684131600,7.815131591796875,-7.446062440153956,-7.434278478857874,-0.6671230160057544
1684252483694157800,7.82515771484375,-6.945317734828591,-7.346546419391036,-0.6342405909709632
1684252483704183800,7.835183837890625,-6.118346102172136,-7.236887774798274,-0.5040819965219124
1684252483714209800,7.845209716796875,-4.5721679227903484,-7.193657704880833,-0.3066750354472548
1684252483724235800,7.85523583984375,-2.247356609724462,-7.032063705867529,-0.3201259801074862
1684252483734261800,7.86526171875,2.2702830195426937,-5.311929766288399,0.7193036504242569
1684252483744288800,7.875288818359375,6.841887170970439,-1.3340315124779938,3.827782511144876
1684252483754314800,7.885314697265625,5.940541557592153,6.036407239153981,6.394347986131906
1684252483764340700,7.8953408203125,17.096518254357576,20.130487306082248,7.260407766595482
1684252483774366700,7.90536669921875,47.00137709264755,48.98803138661384,2.058632903984189
1684252483784393000,7.91539306640625,3.102000385421514,60.18548809475898,-9.464759055069088
1684252483794418700,7.925418701171875,-23.232421056008338,40.32465008873939,-13.252503570336103
1684252483804444700,7.935444580078125,-11.969471008211373,19.594693499207494,-8.364535129421949
1684252483814471700,7.9454716796875,4.640910911887884,1.1131348451465368,-1.1893678977385163
1684252483824497700,7.95549755859375,9.65478302975297,-8.339079201126099,3.124875649574399
1684252483834523600,7.965523681640625,6.221859083616733,-11.760514954042433,4.4822386455401775
1684252483844549600,7.975549560546875,0.8847123123548924,-11.496966893464327,3.7226761230289935
1684252483854575600,7.98557568359375,-2.4342637675620615,-10.194725773000716,2.637746504886448
1684252483864601600,7.9956015625,-2.9417434802308677,-9.593228198593854,1.929083856268227
1684252483874627800,8.0056279296875,-2.598957047764957,-8.578141639745235,1.027133262734115
1684252483884654800,8.01565478515625,-3.05055310677886,-6.342790817373991,0.5370253944963217
1684252483894680800,8.025680908203125,-4.130517211468518,-4.740633268877864,0.9507467731460928
1684252483904706800,8.035706787109374,-4.29197472462058,-3.5053000310391185,1.524586525298655
1684252483914732800,8.04573291015625,-3.3647640176236626,-1.8171604816138742,2.131958544696867
1684252483924758800,8.0557587890625,1.397307906732708,1.0151233837276696,2.6513477447375653
1684252483934784800,8.06578466796875,7.131087559199333,4.051884696519375,1.6273250152394174
1684252483944810800,8.075810791015625,6.898401085352897,5.384872837424278,0.9465756249412893
1684252483954837800,8.085837646484375,4.4118379523634905,5.998393442580103,1.1630100521668791
1684252483964863700,8.09586376953125,2.191850703340769,5.664715030199289,1.7609931887120007
1684252483974889700,8.1058896484375,0.9317442587733268,4.510559607878327,2.730292394375801
1684252483984915700,8.115915771484374,0.6743535517811775,3.1097417933285234,2.91272869040966
1684252483994941700,8.125941650390626,0.4480874663710594,1.833311990469694,2.4646041068986055
1684252484004967700,8.1359677734375,-0.0061608607172966,0.7304004331737757,1.8199819687753915
1684252484014994700,8.14599462890625,-0.5374059182465076,0.016501637467741966,1.1778975324362515
1684252484025021000,8.15602099609375,-1.0856921269476414,-0.6342822381556034,0.6642427843943238
1684252484035047000,8.166046875,-1.5539596270382403,-1.2508388500064611,0.3404465913414955
1684252484045073000,8.176072998046875,-1.7656839768767356,-1.6279378864407539,-0.0042677404470741745
1684252484055099000,8.186098876953125,-1.8258529066354034,-1.8084382459759711,-0.5876942361123859
1684252484065124900,8.196124755859374,-1.5956547424733638,-1.7831886539071797,-1.4057920958310366
1684252484075150800,8.20615087890625,-0.8709095585823059,-1.4919564675897359,-2.245939874794334
1684252484085177600,8.216177490234376,0.27647534669041635,-1.0227812050044536,-3.0764845436319708
1684252484095203600,8.22620361328125,1.7293331450790166,-0.6347948638528585,-3.852129016894102
1684252484105229600,8.2362294921875,2.8138328473716974,-0.24551848289072511,-4.2325034217372535
1684252484115255800,8.246255859375,3.617544015949964,-0.03775193076729774,-4.333234955769777
1684252484125281800,8.25628173828125,3.4541368300348516,-0.03475917869210243,-3.9744612650990483
1684252484135307800,8.266307861328125,2.423748657158017,0.004161795854568481,-3.385862042970955
1684252484145333800,8.276333740234374,1.409376530189067,-0.033528175592422486,-2.7445459606558082
1684252484155360800,8.28636083984375,0.7543273983366787,-0.11183481958806514,-2.323482840941101
1684252484165386800,8.29638671875,0.3916847572781145,-0.20222470008730886,-1.7384601621255278
1684252484175412700,8.306412841796876,0.6123527304202318,-0.32430209674835203,-1.0914181033790111
1684252484185438700,8.316438720703125,0.8980633768372237,-0.4661959545135498,-0.6794232562609016
1684252484195465000,8.32646484375,1.2786108001597225,-0.6088485216915607,-0.35308176263943314
1684252484205491000,8.336490966796875,1.9130375613525508,-0.6340180342614651,-0.007443155612796544
1684252484215517700,8.346517578125,2.690002469563484,-0.4557043711155653,0.2683786956049502
1684252484225543700,8.356543701171875,3.3053310009241104,-0.1473281577736139,0.30141748024523257
1684252484235569700,8.366569580078124,3.4469729297548533,0.31213994978964327,0.31945261089056726
1684252484245595600,8.376595703125,3.09059460978806,0.6868564750015735,0.3314234730608761
1684252484255621600,8.38662158203125,2.5639830572783944,0.7577905444025993,0.32115006245821714
1684252484265647600,8.396647705078125,2.0769816306233406,0.5289999089509249,0.42522593848258256
1684252484275673600,8.406673583984375,1.7363015227869152,0.08523205934464931,0.5487175858557224
1684252484285700900,8.416700927734375,1.5707427117958663,-0.35306817250549793,0.6676460169665515
1684252484295726800,8.426726806640625,1.5378469888880848,-0.6251484991073608,0.6927838192239403
1684252484305752800,8.4367529296875,1.7453712566882371,-0.9502642503261566,0.8120349064178765
1684252484315778800,8.44677880859375,2.0985009501226246,-1.281000179514289,0.9537110297791659
1684252484325804800,8.4568046875,2.6215216385334728,-1.4267980589807032,1.0435152193449437
1684252484335830800,8.466830810546876,3.3863112480431794,-1.372691205739975,1.1822037051975727
1684252484345856800,8.476856689453125,4.153956246984005,-1.058126074630022,1.3436005742035806
1684252484355883800,8.4868837890625,4.294094200992584,-0.5650327608406543,1.3852937899425626
1684252484365909800,8.49690966796875,3.7121675884962078,-0.05139174906313419,1.282657152941078
1684252484375935700,8.506935791015625,3.0565944327697157,0.10395955616831778,1.20740478194952
1684252484385961700,8.516961669921875,2.735385625861585,-0.1808224310964346,1.2193440799377857
1684252484395987700,8.52698779296875,2.5470582259625196,-0.671933631157875,1.2351648955345154
1684252484406013700,8.537013671875,2.2896368315711615,-1.0877765320062636,1.3762711100533604
1684252484416039700,8.547039794921876,2.1141233205378054,-1.376833127850294,1.5204519097119569
1684252484426066700,8.557066650390626,2.0561133223786947,-1.318960200074315,1.7351069061748683
1684252484436092700,8.5670927734375,1.9266345634199677,-0.5775596494585276,2.173328227569908
1684252484446119000,8.577118896484375,1.7164285091899334,0.9694494277894496,2.467555650180578
1684252484456145000,8.587144775390625,1.3404279355168343,2.8518729474306106,2.4008755849622188
1684252484466171000,8.5971708984375,0.7608142761379479,4.638860409098863,1.8358612365610896
1684252484476196900,8.60719677734375,0.9483451918970793,6.33193799944818,0.297965440095216
1684252484486222800,8.617222900390624,3.8299206922173497,7.272856329280137,-2.813484472325444
1684252484496249600,8.62724951171875,2.577859606939554,5.555736769086122,-4.520032369622588
1684252484506275600,8.637275634765626,1.3971733205676078,3.6185973243951794,-4.379934163102507
1684252484516301600,8.647301513671875,1.264201604926586,2.0737761125802994,-4.219503070388734
1684252484526327800,8.657327880859375,1.0332405666332691,0.9463561369717121,-3.961002064067125
1684252484536353800,8.667353759765625,-0.6680735947288572,-0.004297404932975769,-3.014702041196823
1684252484546379800,8.6773798828125,-2.960452564615011,-0.7292208680003881,-1.5962066772677004
1684252484556405800,8.68740576171875,-5.22093432111144,-1.1584627641260623,-0.6527842556603253
1684252484566432800,8.697432861328124,-6.300902809715271,-1.1755080069512127,-0.1538506914101541
1684252484576458800,8.707458740234374,-5.967113922697306,-0.8979740911185741,0.39024741795137524
1684252484586484700,8.717484619140626,-5.7515779056161636,-0.28630408226549625,0.37019334869906306
1684252484596510700,8.7275107421875,-5.917093461987376,0.9128630326926708,0.20510756204724312
1684252484606536700,8.73753662109375,-6.2598693730592725,2.338452884927392,0.3330356574978679
1684252484616563000,8.74756298828125,-5.357213261604309,3.6096003634691236,0.4578879256997257
1684252484626589700,8.757589599609375,-1.0643380810126661,4.948941672793031,1.2400303096137941
1684252484636615700,8.76761572265625,3.0200062850847837,5.8661950493991375,2.165522814515978
1684252484646641700,8.7776416015625,2.812219859217107,5.463997227543592,1.9840899964362382
1684252484656667600,8.787667724609374,0.7642220387548208,4.160064500731229,1.2310190279014408
1684252484666693600,8.797693603515626,-1.3600886215373873,2.7406027759879827,0.6416877651717513
1684252484676719600,8.8077197265625,-2.3763024308502674,1.6080559588849543,0.43192269617486745
1684252484686745600,8.81774560546875,-1.978599874587357,0.859107477107644,0.060652676421310746
1684252484696772900,8.82777294921875,-1.5174012899696827,0.41703766359090805,-0.9808973620641976
1684252484706798800,8.837798828125,-1.8192650526776908,-0.06884440364539623,-2.524096452569961
1684252484716824800,8.847824951171875,-2.6406819738164544,-0.7877607352524996,-3.09227335665524
1684252484726850800,8.857850830078124,-3.6904298039406536,-1.629282286787033,-2.890309645591676
1684252484736876800,8.867876708984374,-4.433379045303166,-2.591951845178008,-2.7894436715245243
1684252484746902800,8.87790283203125,-4.662810901267826,-3.360596961072087,-2.6777760251969096
1684252484756928800,8.8879287109375,-4.566604443444311,-3.8092058209687467,-2.62226368907243
1684252484766955500,8.89795556640625,-4.429145937778055,-4.091276211187243,-2.613744282530248
1684252484776981800,8.907981689453125,-4.317398504212498,-4.280905049073696,-2.626954477237165
1684252484787007700,8.9180078125,-4.271564973798394,-4.2755496595203875,-2.456397419567406
1684252484797033700,8.92803369140625,-4.4471144329279655,-3.9807723479419943,-1.9540949634060263
1684252484807059700,8.938059814453124,-4.810356793445348,-3.5602339827537532,-1.1136306658394635
1684252484817085700,8.948085693359374,-5.026492529985308,-3.260895062348246,-0.36468784661795944
1684252484827111700,8.958111572265626,-5.234581153669953,-3.0585271543979644,0.1860889002572745
1684252484837138700,8.968138671875,-5.3004263754993675,-2.9210172108054158,0.46042102437391874
1684252484847164700,8.97816455078125,-5.110708690285683,-2.872191512838006,0.5609540766922757
1684252484857191000,8.98819091796875,-4.593887587167322,-2.8475889865010977,0.6865750277116894
1684252484867217000,8.998216796875,-3.9544367142021652,-2.843288658958673,0.9349562796223908
1684252484877243000,9.008242919921875,-3.515406999033689,-2.7533710721462965,1.298859076809883
1684252484887268900,9.018268798828124,-3.337662075686455,-2.433706572070718,1.8226874283418057
1684252484897294800,9.028294921875,-3.655864394254982,-1.9682640662729738,2.284916232790053
1684252484907321600,9.038321533203124,-3.8886069822028277,-1.509841668370366,2.4278674906536937
1684252484917347600,9.04834765625,-3.68106430196315,-0.9852443782925605,2.4089260588183996
1684252484927373600,9.05837353515625,-3.408506713238358,-0.1669219160377979,2.4687021898671984
1684252484937399600,9.068399658203125,-1.4406491819396614,1.019108069449663,3.0055589497983455
1684252484947425800,9.07842578125,10.65804003459811,4.651720475193858,5.688042714294791
1684252484957451800,9.08845166015625,21.298420493865013,13.803138387989996,3.7175253161370754
1684252484967477800,9.098477783203125,11.443559128403663,16.655630928623676,-2.0101935749858617
1684252484977504800,9.1085048828125,-0.521899429295957,13.059130869746207,-5.035452666032314
1684252484987530800,9.11853076171875,-4.8733869578540325,9.361599124845862,-6.815770732939243
1684252484997556700,9.128556640625,-0.8799816305711865,5.654821997216343,-8.037766350299119
1684252485007582700,9.138582763671875,1.309601420098543,0.13031155652105808,-8.684358619451523
1684252485017608700,9.148608642578125,-1.5059866003774105,-2.741741424629092,-8.505904671052098
1684252485027634700,9.158634765625,-3.2565093946099277,-3.3205092808336016,-7.116773202642798
1684252485037661000,9.168660888671875,-4.071124819040298,-3.552446397617459,-6.2438037889212366
1684252485047687700,9.178687744140625,-3.935791634964943,-3.436512910538912,-7.1034268143355845
1684252485057713700,9.188713623046874,-0.9901869492612778,-3.1324440390020607,-9.639347560212016
1684252485067739600,9.19873974609375,2.5649030947327613,-2.480885087352991,-12.306349677938222
1684252485077765600,9.208765625,2.7817022636175155,-1.4706734410643576,-10.049281529277563
1684252485087791600,9.21879150390625,1.9162265666522085,0.1926549077093601,-4.5381782671660185
1684252485097817600,9.228817626953125,1.2095488082408905,1.6198066024333238,-0.8463897420927882
1684252485107843600,9.238843505859375,0.5288787667892872,2.581035898888111,1.3177921792082488
1684252485117870800,9.248870849609375,0.6198714354872703,2.9637820012986658,2.653675895424187
1684252485127896800,9.258896728515625,0.3900514569878578,3.000262596955895,2.95987622603178
1684252485137922800,9.2689228515625,-0.06921908217668533,3.2685862013727425,2.762266034002602
1684252485147948800,9.27894873046875,-0.24162859931271521,3.4772026483237743,2.4935171899110076
1684252485157974800,9.288974853515626,-0.01171738059958443,3.4945395675718784,1.9615698293313384
1684252485168000800,9.299000732421876,0.6534767679691315,3.1373312265217304,1.4724961264468728
1684252485178026800,9.30902685546875,1.6354057381033897,2.256537987306714,1.129530538021773
1684252485188053800,9.3190537109375,2.8226743254750963,1.0147083731859923,1.2074144265606999
1684252485198079700,9.329079833984375,3.835414613458514,-0.20004794057011605,1.4820013291560112
1684252485208105700,9.339105712890625,4.660298333925009,-1.1643389626830816,1.9712083030313252
1684252485218131700,9.349131591796874,5.198351902425289,-1.7969132278770208,2.620932440468669
1684252485228157700,9.35915771484375,5.169577058839797,-1.9250614688843488,2.994839402863383
1684252485238183700,9.36918359375,4.750951833796501,-1.6495815629720687,3.0958120521754027
1684252485248210400,9.37921044921875,4.128263002800941,-1.3179934008687735,3.104583679912984
1684252485258237400,9.389237548828126,3.5650276467710733,-1.1125865636140106,3.022276860365271
1684252485268263700,9.399263671875,3.2892747691363096,-1.1711661783546208,2.9793074872106313
1684252485278289700,9.40928955078125,3.3130981277942655,-1.376959969100356,3.0404227579087015
1684252485288315600,9.419315673828125,3.7626413459315895,-1.8013614394575357,3.1316087572216986
1684252485298341600,9.429341552734375,4.862618895602226,-2.2188842562168833,3.0507535977870224
1684252485308367600,9.43936767578125,6.649698127207159,-2.4969074168711898,3.0014409930855033
1684252485318393300,9.449393310546874,8.123937736320496,-2.2448832053482533,3.0357009900838134
1684252485328420400,9.45942041015625,7.794702859345078,-1.4913959110975266,2.9427570411875843
1684252485338446300,9.4694462890625,5.905873564314842,-0.7435971838772296,2.50001210488826
1684252485348472600,9.47947265625,3.7791561351418492,-0.45472062077522274,2.0543619486667213
1684252485358498600,9.48949853515625,2.5172666065499185,-0.6746814685612916,1.6280286334641276
1684252485368524500,9.499524658203125,2.083050867534429,-0.7824953620702028,1.0826510056860745
1684252485378550500,9.509550537109375,1.9537994875907896,-0.6742623663663864,0.4689727257505059
1684252485388576500,9.519576416015624,1.868115008303523,-0.6530857228249312,-0.21203984552845356
1684252485398603500,9.529603515625,2.0507541334331036,-0.9327496364235878,-0.85723598414734
1684252485408629500,9.53962939453125,10.070904163020849,-1.6521838544249534,-3.0980554471880195
1684252485418655500,9.549655517578126,25.808988869571685,-2.122729820841551,-7.191085808566212
1684252485428681500,9.559681396484375,12.868078721058367,0.35539749223589895,-5.136494873449206
1684252485438707700,9.569707763671875,-1.453908184224367,4.4372249070763585,1.7270605239719152
1684252485448733700,9.579733642578125,-1.326696347284317,8.48604027915299,4.372809425789118
1684252485458759400,9.589759521484375,-2.524505617892742,12.898775472617148,3.665614511635899
1684252485468786400,9.599786376953125,-4.213689707934856,17.363384061181545,1.4534372057117522
1684252485478812400,9.6098125,-6.2274798461079595,20.926966185319422,-1.4057564399957656
1684252485488838400,9.61983837890625,-7.810187428724765,22.005902408266067,-4.054759082911908
1684252485498864400,9.629864501953126,-9.32437735543251,19.877980864000317,-3.919204072779417
1684252485508890400,9.639890380859375,-8.230804704368113,14.076671251487731,-1.4182894660934806
1684252485518916400,9.649916259765625,-6.53003889760375,8.470675536760687,1.090925205295533
1684252485528942600,9.659942626953125,-4.41100939258486,3.859180104449391,3.6688483789905906
1684252485538969600,9.669969482421875,-1.1876868127837776,0.9161164815306663,6.185490131640434
1684252485548995600,9.67999560546875,0.9172256118163465,-0.4505857129275799,8.067833571782709
1684252485559021600,9.690021484375,-0.1358496091648936,-1.4962211392968892,8.028139859297871
1684252485569047600,9.700047607421874,-3.719151748295128,-1.3631044622272253,7.891094610607624
1684252485579073500,9.710073486328126,-6.832807207936048,-0.4007148898214102,7.811537674289942
1684252485589099500,9.720099609375,-7.100030742156505,0.6640911009639501,6.8302008248299355
1684252485599125500,9.73012548828125,-3.42876711871773,1.2789204506307839,4.776350478947163
1684252485609152500,9.740152587890625,0.14809914214611053,1.4591840788006782,2.625484112423658
1684252485619178500,9.750178466796875,0.41529228122830386,0.9321364729613065,0.4535714507400989
1684252485629204500,9.76020458984375,-1.5641399525299668,-0.8334744386792182,-0.7905515350148081
1684252485639230500,9.77023046875,-3.3209628698199984,-3.189522017008066,-1.410888249926269
1684252485649256400,9.78025634765625,-4.283535982099175,-4.860445643216371,-1.4499939333900809
1684252485659282400,9.790282470703126,-4.839488195383549,-5.7869642762959,-1.2597712212637067
1684252485669308400,9.800308349609375,-4.961833887591958,-6.057506725805998,-1.2057292499527335
1684252485679335700,9.810335693359375,-5.008047357234359,-5.843668744814395,-1.1717229354545473
1684252485689361700,9.820361572265625,-5.142128495422005,-5.128049701187014,-0.97364512591362
1684252485699387600,9.8303876953125,-5.39963961392343,-3.861486043304205,-0.5763344550451264
1684252485709413600,9.84041357421875,-5.669443812286853,-2.301077970778942,-0.035744938326440746
1684252485719439600,9.850439697265625,-5.808420321300625,-0.7627262472391129,0.7359937231361866
1684252485729465600,9.860465576171874,-5.643696792089939,0.5745049380630255,1.608155327606201
1684252485739491600,9.87049169921875,-5.327954433894157,1.594302158820629,2.3367545565769077
1684252485749517600,9.880517578125,-4.895469025802612,2.0180273373514415,2.450694239489734
1684252485759544300,9.89054443359375,-4.692767355853319,1.9218688103228807,2.220997448978573
1684252485769570600,9.900570556640625,-4.425315273573994,1.5257470935106276,1.4676304201066492
1684252485779596500,9.910596435546875,-3.8574054959923028,1.0908832658499479,0.6397254521228373
1684252485789622500,9.92062255859375,-3.0027137895002958,0.7238736617535352,-0.10002149520018137
1684252485799648500,9.9306484375,-2.392726034645736,0.44767596296072004,-0.5955913095051423
1684252485809674500,9.940674560546874,-2.0061480989873406,0.12940262498259544,-0.9165528271213174
1684252485819700500,9.950700439453126,-1.9705016160666942,-0.2871089689075947,-1.2172589442268014
1684252485829727500,9.9607275390625,-2.250674648231268,-0.7068249117970467,-1.5390492042846977
1684252485839753500,9.97075341796875,-2.709059052211046,-1.0621294650524855,-1.8473333554290234
1684252485849779500,9.980779541015625,-3.2696731198266145,-1.3193009763360022,-2.079553965329379
1684252485859805700,9.9908056640625,-3.6380902526333925,-1.4387597149312494,-2.2816944942645727
1684252485869831700,10.000831787109375,-3.7468724066525696,-1.516111834681034,-2.4203857565961777
1684252485879857700,10.010857666015625,-3.66911988940835,-1.5607307286083698,-2.5694401536405085
1684252485889883400,10.02088330078125,-3.5622464916199443,-1.660946422073245,-2.7056191408902404
1684252485899910400,10.030910400390624,-3.45617330429852,-2.0045278043091295,-2.8643741170853376
1684252485909936400,10.040936279296876,-3.36400472368896,-2.519149643817544,-2.9595062236756084
1684252485919962400,10.05096240234375,-3.3107673467591403,-3.0013661742836235,-2.9530890501096843
1684252485929988400,10.06098828125,-3.2418425713539123,-3.329291722226143,-2.9459137516528364
1684252485940014300,10.071014404296875,-3.1053669392451644,-3.4212013596385717,-2.909972669699788
1684252485950040600,10.08104052734375,-2.8808517891556025,-3.4668349835664034,-2.795616222679615
1684252485960066600,10.091066650390625,-2.788700451941788,-3.4830969670593737,-2.513520990280807
1684252485970093600,10.101093505859374,-2.8078829990565777,-3.3964152934283014,-2.1025451109468936
1684252485980119600,10.11111962890625,-2.7051114836290475,-3.3686657012373207,-1.584967928764224
1684252485990145500,10.1211455078125,-2.436951253080368,-3.3997651883780953,-1.0488041195333004
1684252486000171500,10.131171630859376,-2.0549284965083,-3.401809845948219,-0.4574102251853794
1684252486010197500,10.141197509765625,-1.7025950680181383,-3.2486224407523867,0.08388342121466993
1684252486020223500,10.151223388671875,-1.311767512091249,-2.8721137714266773,0.5445927610106766
1684252486030249500,10.16124951171875,-0.8853669768713414,-2.1253473098635673,0.9858027428276837
1684252486040276500,10.1712763671875,-0.40824645437002177,-0.31315175718069077,1.2537030072659254
1684252486050302500,10.181302490234375,0.08938274928331374,3.4078877045571803,0.6237026842132211
1684252486060328400,10.191328369140624,23.018212488138673,16.671088025474546,-4.13760892329514
1684252486070354400,10.2013544921875,37.591722669684884,33.14634718937874,-11.904814703905581
1684252486080380400,10.21138037109375,5.308108746695519,31.02854956424236,-8.6527517673105
1684252486090406400,10.221406494140625,0.36808030206784603,23.039456351697442,-2.5420614405885336
1684252486100432400,10.231432373046875,-4.136925617206097,13.611152173322438,-0.4852124974116683
1684252486110459600,10.241459716796875,-4.168862724214792,5.128775677374005,0.472277320253849
1684252486120485600,10.251485595703125,-2.7757413093864916,-2.2123270896583795,1.5819643630340694
1684252486130511600,10.26151171875,-0.6885971811890602,-5.545566088205575,0.9237576439335942
1684252486140537600,10.27153759765625,-1.3111597554564476,-6.517834080547094,0.8688891586706041
1684252486150563600,10.2815634765625,-1.378597214913368,-8.110008579689264,1.5439575807228683
1684252486160589600,10.291589599609376,-1.2089000620085746,-9.287383549556136,1.9112661677658558
1684252486170615600,10.301615478515625,-1.2214941706437616,-9.76688497584462,1.8051418347790835
1684252486180641500,10.3116416015625,-1.5892133112490177,-9.700600778076051,1.5465131104245782
1684252486190668500,10.32166845703125,-2.1239105550587176,-9.106074796247482,1.1171391123518346
1684252486200694500,10.331694580078125,-2.74135388661623,-7.946053112241625,0.5578174226343632
1684252486210720500,10.341720458984375,-3.085897976404428,-6.357158365422487,0.25514409710913893
1684252486220746500,10.35174658203125,-2.846586531460285,-4.883662852674722,0.24213030175715683
1684252486230772500,10.3617724609375,-2.7859669353246685,-3.140640789461136,0.41721389694064853
1684252486240798500,10.371798583984376,-3.115855892294645,-0.8580570912718772,1.182954523564875
1684252486250823400,10.381823486328125,-3.88822090549469,1.710596295905113,2.210179263974726
1684252486260850400,10.391850341796875,-4.830578912740946,4.282123777213692,3.0781691357180474
1684252486270876400,10.40187646484375,-5.503514414417744,6.364729092937708,3.2899864245370027
1684252486280902400,10.41190234375,-6.569425151574611,7.438512755426764,3.1423756504297256
1684252486290928400,10.421928466796874,-6.4308560543179505,7.154336917361617,2.6512974758550523
1684252486300954600,10.43195458984375,-5.537886639618873,5.696913418492675,2.268366372266412
1684252486310980600,10.441980712890626,-4.460173236465454,3.513775013917684,2.145420668338239
1684252486321006600,10.452006591796875,-3.6485505641102787,1.4943196895897388,1.9228519761413334
1684252486331033300,10.462033447265625,-2.9752094042420385,-0.009587328034639358,1.8185607038006186
1684252486341059300,10.472059326171875,-2.55334242079854,-1.0954144795387983,1.7156150008499622
1684252486351085300,10.482085205078125,-2.3100386913478372,-1.6586521736562252,1.550933264954388
1684252486361111300,10.492111328125,-2.137776583325863,-1.5979945835977791,1.366200674676895
1684252486371137300,10.50213720703125,-1.9498504577040672,-1.0866653558939694,1.0771540157049895
1684252486381163500,10.51216357421875,-1.66959091629982,-0.3989665848493576,0.8026376941278577
1684252486391189500,10.522189453125,-1.3759481617093086,0.23259470390975473,0.5627455266863107
1684252486401216500,10.532216552734376,-0.983124901920557,0.7423299404203891,0.31550562683045863
1684252486411242500,10.542242431640625,-0.38769291116297244,1.10369189401865,-0.07679419360607861
1684252486421268500,10.5522685546875,0.34724392333142456,1.3748323094218968,-0.48026919579058885
1684252486431294500,10.56229443359375,1.1033014333963393,1.3903893595159054,-0.5040820330545306
1684252486441320400,10.572320556640625,1.7851871342480181,1.203374503520131,-0.5062491479605437
1684252486451346400,10.582346435546874,2.5627318881735204,0.8736562269419431,-0.5926078732475638
1684252486461372400,10.592372314453126,4.355778211489319,0.4366670776903629,-1.1585973502911626
1684252486471398700,10.602398681640626,9.552098900347948,-0.1933960814654827,-3.1661960864782333
1684252486481425400,10.61242529296875,10.762738426434993,-0.7769903349131345,-4.525051951350272
1684252486491451400,10.622451416015625,7.903284230095148,-0.9617103579699993,-4.235695788037777
1684252486501477400,10.632477294921875,4.663516419188678,-0.6303454832285642,-2.805745110245049
1684252486511503400,10.64250341796875,2.8300878166019916,-0.44112288805544375,-2.210890188723057
1684252486521529300,10.652529296875,1.9761182869046925,-0.640142654621601,-2.101423997962475
1684252486531555300,10.662555419921874,1.8237942205399273,-0.8337976792842149,-2.033171422730386
1684252486541581300,10.672581298828124,2.301108073656261,-0.7026853277742863,-2.2261964789263904
1684252486551608600,10.682608642578124,3.2651620721429584,-0.10346446612775326,-2.434227965596318
1684252486561634600,10.692634521484376,4.614419503064453,0.668908730378747,-2.434832361230254
1684252486571660500,10.70266064453125,6.2009887295454735,1.1963754384130239,-2.074253959225118
1684252486581686500,10.7126865234375,7.363866387504339,1.3757137684315441,-1.3671473078772425
1684252486591712500,10.72271240234375,7.558568290871381,1.2867653189122676,-0.6701666214853524
1684252486601738500,10.732738525390625,6.781635823625326,0.9515057748198509,-0.2852253471180796
1684252486611764500,10.742764404296874,5.266820458495617,0.3482680787473917,-0.2338441194489598
1684252486621790500,10.75279052734375,3.5444705964326855,-0.5091816942811012,-0.4633925875306129
1684252486631817500,10.7628173828125,2.8697710076928136,-1.3838129037350415,-0.6292167714595794
1684252486641843500,10.772843505859376,3.6708787157744167,-2.0290619415849447,-0.8494868313252926
1684252486651869400,10.782869384765625,6.209751881715655,-1.5430448497921228,-1.9116338320344686
1684252486661895400,10.7928955078125,8.541462306645512,0.5958616143465042,-3.5488325910344716
1684252486671921400,10.80292138671875,6.838055629983544,2.664498610472679,-4.11163832347542
1684252486681947400,10.812947509765625,3.5187446190237996,3.6403678421765564,-3.6421368976756927
1684252486691973400,10.822973388671874,0.7642448351085186,4.8992286705970765,-3.5115178826406597
1684252486702000400,10.83300048828125,-0.7641082031168043,7.181437105733155,-3.8513869663551445
1684252486712026600,10.843026611328124,-1.7672237536646425,10.368207193684578,-4.458201936392486
1684252486722052600,10.853052490234376,-2.5927643306046724,12.134788996183872,-4.313948071497679
1684252486732078600,10.86307861328125,-1.9447744696140288,11.998287937372922,-2.631036778114736
1684252486742104600,10.8731044921875,-1.9029107196137307,10.26432011823058,-0.27118425454497336
1684252486752130600,10.883130615234375,-2.723957053874433,7.641869089892507,1.9080285010188818
1684252486762156500,10.893156494140625,-3.7583085774242875,5.413965076395869,3.306694398231804
1684252486772183300,10.903183349609375,-3.4249522366046903,3.5984371644198894,3.736977620103955
1684252486782209300,10.913209228515624,-2.9129610378608106,2.5191671794742345,4.467567730630934
1684252486792235300,10.9232353515625,-3.2869600624531508,2.3022891001343724,4.968138540694118
1684252486802261500,10.933261474609376,-4.9593151827692985,2.8658582181632517,5.459323975035548
1684252486812287500,10.94328759765625,-5.870229419481754,3.7089509645372627,5.243915383726358
1684252486822313500,10.9533134765625,-4.383338418588042,3.9776036547780036,3.8958044924914836
1684252486832339500,10.96333935546875,-1.9876050188198684,4.155501722860336,3.4408582462668416
1684252486842365400,10.973365478515625,-1.3467808116748927,4.138512009614706,3.0066888306111097
1684252486852392400,10.983392333984375,-1.9664502948492764,3.6220775677263735,2.1786448925480246
1684252486862418400,10.99341845703125,-2.3791928915947675,3.0291116748213764,1.9483856458485125
1684252486872444400,11.0034443359375,-2.604132112315297,2.613985397809744,1.278448449204862
1684252486882470400,11.013470458984376,-1.8475807543188332,0.6695768388986587,-0.2810103597715497
1684252486892496600,11.02349658203125,-2.1174594792231916,-0.5035346283048391,-3.005199761097133
1684252486902522600,11.033522705078125,-1.94097712315768,-1.8967916522115469,-2.6922113777846097
1684252486912548600,11.043548583984375,-2.653864403733611,-2.8478537749171253,-2.933068590866029
1684252486922575400,11.053575439453125,-3.287300254192948,-3.1497289358019827,-4.163887566150724
1684252486932601300,11.063601318359375,-3.861768951898813,-3.839944658103585,-5.067083483570814
1684252486942627300,11.07362744140625,-5.746760276201367,-5.034188345184922,-5.080680631768703
1684252486952653300,11.0836533203125,-6.2357975925982,-6.578302285513281,-3.5097876978471874
1684252486962679300,11.09367919921875,-5.958558860319853,-7.738443211984634,-1.7794202412843703
1684252486972705300,11.103705322265625,-5.550153415995836,-8.163661259421705,-0.31340076350569723
1684252486982731500,11.1137314453125,-4.6106502136588094,-7.916470459404588,0.6459110088899731
1684252486992757500,11.123757568359375,-3.5541041016966104,-7.126164131322502,1.3240677523463964
1684252487002784500,11.133784423828125,-2.886400655454397,-6.114930740770697,1.5672133686259389
1684252487012810500,11.143810546875,-3.1331431271821257,-5.331387915474176,1.8875071065157651
1684252487022836500,11.15383642578125,-3.685917294952273,-4.725614563444257,2.5155679859384894
1684252487032862500,11.163862548828124,-4.335575965937972,-4.216920944941044,3.148691117186844
1684252487042888400,11.173888427734376,-5.038242004489899,-3.998811277979612,3.0603783352226017
1684252487052914400,11.18391455078125,-5.333831801494956,-4.136493071007728,2.1294234732612964
1684252487062940700,11.193940673828125,-5.350058713674545,-4.401154061263799,1.1833718721941113
1684252487072967400,11.203967529296875,-5.2380806862235065,-4.623745842075348,0.6324778190821408
1684252487082993400,11.213993408203125,-5.056929753825068,-4.676387883460522,0.4843929977223277
1684252487093019400,11.224019287109375,-4.800585925537347,-4.542752735474705,0.5559001908361911
1684252487103045400,11.23404541015625,-4.389892954798042,-4.037511887773872,0.6946618880555033
1684252487113071400,11.2440712890625,-3.6033041859343644,-3.0932535998642443,0.9466717787921428
1684252487123097300,11.254097412109376,-2.5540441393271087,-1.7163386389493942,1.2128341135218739
1684252487133123300,11.264123291015625,-1.55539638184309,0.09407353744804858,1.2324831091046333
1684252487143149300,11.2741494140625,0.20558336286544798,2.4749434223443267,1.0655039099216461
1684252487153176600,11.284176513671875,4.097726410239935,5.230405913811921,1.027405357673764
1684252487163202600,11.29420263671875,9.458924942088126,8.826430171871184,1.3567793508589268
1684252487173228500,11.304228515625,10.528644423878193,12.59846916848421,0.8792936483070254
1684252487183254500,11.314254638671875,10.238562576639652,17.060770064628123,-1.033599243877828
1684252487193280500,11.324280517578124,6.544374881470203,21.460576218414307,-5.024711491787433
1684252487203306500,11.334306396484376,-0.370854589086771,25.03919692173004,-8.197322121483086
1684252487213332500,11.34433251953125,-1.89775552880764,24.403629904460907,-9.555366377711296
1684252487223358500,11.3543583984375,4.137656269568205,17.206909889400006,-6.558625525140762
1684252487233385500,11.364385498046875,1.388327166289091,8.213244497758149,-2.255574110710621
1684252487243411500,11.374411376953125,-1.7950421733081339,1.7975597090870141,-0.5030690566197037
1684252487253438500,11.3844384765625,-1.8920120167195795,-2.436653146916628,0.14427432316094635
1684252487263464400,11.39446435546875,-1.6281050597012041,-4.911221306207776,0.8518333944514394
1684252487273490400,11.404490478515624,-1.2496318123042582,-6.64673109409511,1.1136106459647417
1684252487283516400,11.414516357421874,-1.095114619809389,-7.6773086520642035,1.3113310203701256
1684252487293542700,11.424542724609376,-1.1124737508893012,-8.204995140329002,0.9135314334735274
1684252487303569700,11.434569580078126,-1.0585223804712296,-8.79283302269578,0.22955402103960512
1684252487313595600,11.444595703125,-1.0439233617544175,-9.453628589245676,-0.3994114060074091
1684252487323621600,11.45462158203125,-0.9765969614565372,-9.591418518823385,-0.5662763311609625
1684252487333647600,11.464647705078125,-1.2004080549299716,-9.4556165481925,-1.0813532209604977
1684252487343673300,11.47467333984375,-1.7270920881539582,-8.8929271356076,-2.107650325131416
1684252487353699300,11.48469921875,-2.2684558041155336,-8.00007579433024,-3.264071938818693
1684252487363725300,11.494725341796874,-2.5649060173422096,-6.877716024720669,-4.245318771907687
1684252487373751600,11.50475146484375,-2.59733762986958,-5.3792602582395075,-5.16209517865181
1684252487383778600,11.514778564453126,-1.7323083614975212,-3.527343520542979,-5.299018262267112
1684252487393804500,11.524804443359375,-0.32397293785922227,-1.2839917625457047,-4.3980034882783885
1684252487403830500,11.53483056640625,0.7574662078190595,1.222617548650503,-3.198058374685049
1684252487413856500,11.5448564453125,0.9503845887701958,3.2890865530878304,-2.8040803919032213
1684252487423882500,11.554882568359375,0.5748778630286455,4.896425303614139,-2.925483250303566
1684252487433908500,11.564908447265625,-0.4928496046939864,5.9367246296525,-3.220243610747158
1684252487443934500,11.5749345703125,-1.9612264227211473,6.140718092978,-3.5826346151322124
1684252487453961700,11.584961669921874,-2.9797359417557714,5.512108055239915,-3.7107094986423848
1684252487463987700,11.59498779296875,-3.0193723710954186,4.175013648059964,-2.5897575500041246
1684252487474013400,11.605013427734375,-2.71514977030158,3.0108646549910305,-0.5864908516719937
1684252487484039400,11.615039306640625,-2.1827133110307155,2.0959090339332818,1.1309966650515795
1684252487494065400,11.6250654296875,-1.3867023415662347,1.6035428653746842,2.227986431083083
1684252487504091400,11.63509130859375,-0.9815057762861251,1.2527975828588007,3.2664600029990076
1684252487514117400,11.645117431640625,-1.3439748143434525,0.7136375144213437,3.9226863619372248
1684252487524143400,11.655143310546874,-2.1060158557973803,-0.4922597855746746,4.766989068622887
1684252487534170600,11.665170654296874,-0.24462606409564613,-0.9864484933853149,5.68603078995049
1684252487544196600,11.675196533203126,2.4296179875828323,-1.2819839298546314,8.704028950083256
1684252487554222600,11.68522265625,4.216481384479999,-1.7319143937438726,10.532703343880176
1684252487564248600,11.69524853515625,4.936300217884779,-1.2263351078689098,11.374341215270757
1684252487574274600,11.705274658203125,4.279153821492195,0.8803373121410608,9.72592869607806
1684252487584300500,11.715300537109375,2.285489648763835,2.8755887540608644,5.876621750867367
1684252487594326500,11.725326416015625,-0.2987666734755039,3.497934470707178,2.4144246562346816
1684252487604352500,11.7353525390625,-2.9324340923547743,2.7467607140958306,-1.403870187857747
1684252487614379500,11.745379638671874,-7.072239064389467,0.12182020702958106,-6.2568602543711656
1684252487624405500,11.755405517578126,-8.456239599651099,-0.692228815689683,-8.405629356354474
1684252487634431500,11.765431396484376,-8.267617892980574,-0.5711340003252029,-8.193498179280757
1684252487644457500,11.77545751953125,-8.125415407657623,-1.0393085614353417,-6.978844156855344
1684252487654483500,11.7854833984375,-8.24170486856699,-1.7461054161816834,-5.113303967475891
1684252487664509400,11.795509521484375,-8.924944322115183,-2.740851782312989,-3.454133030642569
1684252487674535400,11.805535400390625,-9.744697693955898,-2.8843402157932516,-3.0038410399645565
1684252487684562400,11.8155625,-10.964437056821584,-2.181170903894305,-4.333605834908783
1684252487694588400,11.82558837890625,-10.055899486112594,-0.8521545892298221,-5.251604184663296
1684252487704614700,11.83561474609375,-0.2666097131710499,1.1634721167206763,-3.404905766136944
1684252487714640600,11.845640625,24.780394009852408,1.6636112573683262,-0.09765344176143408
1684252487724666600,11.85566650390625,18.09671119545698,0.5294914918601512,0.6527040300309658
1684252487734692600,11.865692626953125,9.440244791537523,-1.3916297149658203,0.07063713228106498
1684252487744718600,11.875718505859375,2.2572616254061457,-0.6528519140690565,-2.6139579252809284
1684252487754744600,11.88574462890625,-3.0988018816411493,0.3214589822769165,-4.948226802521944
1684252487764771600,11.895771484375,-4.476957198005914,0.589078822338581,-4.950907419908046
1684252487774797300,11.90579736328125,-3.008722966787219,0.6040507660210133,-2.415030513173342
1684252487784823300,11.9158232421875,-2.8667595509171484,0.22113106060922144,-0.30400282056331634
1684252487794849500,11.925849609375,-3.093082919472456,0.11319675559103488,1.3468231895118952
1684252487804875500,11.93587548828125,-2.201835506260395,0.022790508478879926,3.088835783421993
1684252487814901500,11.945901611328125,-1.0547966379463671,-0.386007734555006,4.99276970860362
1684252487824927500,11.955927490234375,0.49574302458055314,-1.2681950584769248,6.72206018358469
1684252487834953500,11.965953369140625,0.7039543247967958,-1.2343927421182392,4.324676678521931
1684252487844980500,11.97598046875,0.07236972822733223,0.8537702077329158,1.5250623261168599
1684252487855006500,11.98600634765625,-1.1765712522685527,1.7615590059012174,-0.7116752744376659
1684252487865032400,11.996032470703126,-1.8429460802555082,1.8862497999310492,-1.900234193880856
1684252487875058400,12.006058349609376,-1.3670482314169405,1.72815182633996,-2.1191966782793403
1684252487885084700,12.016084716796875,-0.3289771028220653,1.1599988876521587,-1.8018562372371554
1684252487895110700,12.026110595703125,1.7791940313130616,-1.4150164357721804,-1.6763021043762563
1684252487905136600,12.03613671875,4.095452620089054,-3.484889111173153,-1.360057349616289
1684252487915162600,12.04616259765625,3.4583062246739864,-0.4755465511828661,0.524046085935831
1684252487925189400,12.056189453125,1.1774778457194566,2.867068178474903,1.9840499566867946
1684252487935215400,12.06621533203125,-0.2087719297736883,3.868154853543639,3.1512825949847696
1684252487945241300,12.076241455078126,-0.5734451268117875,3.76595120113194,4.584467724654078
1684252487955267300,12.086267333984376,-0.8904453761141746,3.726334061014652,5.085032981759309
1684252487965293300,12.096293212890625,-0.6780266142707317,4.066974713623523,4.495425459371507
1684252487975319600,12.106319580078125,-0.7905471511006354,5.873002391326427,3.009105244103074
1684252487985345500,12.116345458984375,0.17600947785675525,6.908891499707102,2.6443328975394365
1684252487995371500,12.12637158203125,1.9292517601810395,5.9718549797445535,1.3518857335984706
1684252488005398500,12.1363984375,3.5715655241072177,5.568730690693855,1.2940221581727265
1684252488015424500,12.146424560546874,3.4002889199912545,5.59673338086307,3.004678952093422
1684252488025450500,12.156450439453126,2.928424272191524,5.082108618745208,4.3600928598180415
1684252488035476500,12.1664765625,2.436818566611409,4.929774030986428,4.294822515267134
1684252488045502500,12.17650244140625,1.3338210845977068,5.454679948621988,3.0251430634513494
1684252488055528700,12.18652880859375,0.08030159893883392,6.431556896063685,1.4110430020965634
1684252488065554700,12.1965546875,-0.642145811137557,7.50937142150402,0.796456375144422
1684252488075581400,12.20658154296875,-1.0597720882713795,8.697931217730044,-0.12766484140455722
1684252488085607400,12.216607421875,-1.0840063658177852,9.852595758616923,-2.1181854554101824
1684252488095633400,12.22663330078125,-3.134845839446783,10.610470474171638,-3.589336743119359
1684252488105659400,12.236659423828126,-3.897144216662645,9.923539180368184,-6.139122348219156
1684252488115685400,12.246685302734376,-4.181992839422822,8.869286147779226,-8.156413772511481
1684252488125711400,12.25671142578125,-4.395846602505445,8.072616129884123,-9.00960296548605
1684252488135737300,12.2667373046875,-4.721889405441284,6.621518911427259,-9.192288852366804
1684252488145763600,12.276763671875,-5.433162528818846,4.3128228668600315,-9.046255995100736
1684252488155790600,12.28679052734375,-5.81203091301322,1.5275672946751118,-9.1054616327852
1684252488165816600,12.296816650390625,-3.6240000602215527,0.28391689486801625,-8.81383138706088
1684252488175842600,12.306842529296874,5.129394686055183,0.7936930479109287,-6.531619444793463
1684252488185868500,12.31686865234375,15.715736096620558,-0.3754916012376547,-6.19659429397881
1684252488195894500,12.32689453125,7.310458037921786,-1.3324164784967898,-9.081530137577653
1684252488205920500,12.33692041015625,3.784988494557142,2.1961194667011497,-7.432808406305313
1684252488215946500,12.346946533203125,1.7981839784651994,3.0912907753586767,-6.974555519750714
1684252488225972500,12.356972412109375,0.2809633788246661,2.1816034500926733,-6.194639652779698
1684252488235999500,12.36699951171875,0.6627221506983041,3.632132513272762,-4.219792116463184
1684252488246025500,12.377025390625,-0.06036876317970454,2.597283853855729,-3.729119307819009
1684252488256051000,12.387051025390624,-0.034874914026260376,0.086905545514822,-3.2448540281295775
1684252488266077000,12.397076904296876,1.159924141915515,-1.3462678937166928,-1.7785896356791258
1684252488276103000,12.40710302734375,3.1793104195952413,-2.9515187320530414,0.6406535267531871
1684252488286129000,12.41712890625,5.280051111468673,-4.439097715210915,2.905056256085634
1684252488296155100,12.427155029296875,7.275594229811429,-5.148354238069057,5.680912131762504
1684252488306181000,12.43718115234375,8.623094295671581,-4.788025134649873,8.274298978179694
1684252488316208000,12.4472080078125,8.596601425543428,-3.5158225940972563,10.260438892883062
1684252488326234000,12.457234130859375,6.997645303437113,-3.4670933422416446,10.954446408683062
1684252488336260000,12.467260009765624,5.582040254122019,-3.3769489609360694,11.099764395678042
1684252488346286000,12.4772861328125,4.509727833229303,-3.1202737087368964,11.297148085474968
1684252488356312000,12.48731201171875,2.714299875473976,-2.781758962240815,10.943755503320693
1684252488366338000,12.497338134765625,0.7846104545280337,-2.023765004220605,10.095152469092607
1684252488376364000,12.507364013671875,-1.1728224211290479,-1.5491197857916355,9.155875476726889
1684252488386390300,12.517390380859375,-2.4260531347081065,-1.1110033860757946,8.466871468302607
1684252488396417000,12.5274169921875,-2.686206584411859,-0.5082227861210703,7.712077183106541
1684252488406443000,12.537443115234375,-2.8525457321256398,-0.06389788715392351,6.821918149653077
1684252488416469000,12.547468994140624,-2.5496467811509964,0.7463710325047374,5.966206160202622
1684252488426495000,12.557494873046876,-3.173016580148041,1.0431120453715323,4.8190322673320765
1684252488436521000,12.56752099609375,-4.334622026214003,1.627159887805581,3.719222767704725
1684252488446547000,12.577546875,-3.8781127684563397,3.9591120125368233,2.8843682728439566
1684252488456573000,12.587572998046875,-3.227221340805292,6.720643302524089,1.9831740506350992
1684252488466600200,12.59760009765625,-2.078474207268655,8.790787196081876,0.8340729890942573
1684252488476626200,12.607626220703125,-0.648305795072019,9.556830020523071,-1.2859902428865433
1684252488486652200,12.617652099609375,0.8131029740408062,9.50724035244584,-3.924800869873166
1684252488496678100,12.62767822265625,2.573079679186642,9.181768042874335,-6.174445006012916
1684252488506704100,12.6377041015625,3.7022371461123225,9.195126706141233,-6.889321706840396
1684252488516730000,12.647730224609376,4.057706826801597,9.970731139653921,-6.858155584204196
1684252488526756000,12.657756103515625,3.974128672143817,10.896115800267458,-6.798103558823466
1684252488536782000,12.667781982421875,3.702749771809578,11.354164688682555,-6.858136879503727
1684252488546809000,12.67780908203125,3.2520150058001276,10.841181264030933,-6.857600288408994
1684252488556835000,12.6878349609375,2.1109774237275123,9.889834479165076,-7.537294032174349
1684252488566861000,12.697861083984375,0.06649521017074585,8.188190720522403,-9.75459540311396
1684252488576887000,12.707886962890624,0.43559740263223645,5.779531495946645,-10.113084431624412
