time,seconds_elapsed,z,y,x
1684200491742048300,0.03204833984375,-0.5619765520095825,1.6341816186904907,0.7311411499977112
1684200491752074500,0.042074462890625,-0.7636814713478088,1.9029337167739868,1.0412836074829102
1684200491762100500,0.0521005859375,-0.9842408895492554,2.3751816749572754,1.3331807851791382
1684200491772126500,0.06212646484375,-1.1976295709609985,3.0145485401153564,1.5291444063186646
1684200491782151400,0.0721513671875,-1.4379785060882568,3.76524019241333,1.6482895612716675
1684200491792177400,0.082177490234375,-1.7825100421905518,4.644837856292725,1.760771632194519
1684200491802203400,0.092203369140625,-2.1703999042510986,5.584069728851318,1.9658790826797485
1684200491812228400,0.102228271484375,-2.565575361251831,6.339631080627441,2.076362371444702
1684200491822254300,0.11225439453125,-2.9717462062835693,6.652737140655518,2.049678325653076
1684200491832280300,0.1222802734375,-3.367511034011841,6.443581581115723,2.0119991302490234
1684200491842306300,0.132306396484375,-3.7329118251800537,6.026760101318359,2.0158302783966064
1684200491852331500,0.14233154296875,-4.059394836425781,5.483353137969971,2.085589647293091
1684200491862357500,0.152357421875,-4.3613176345825195,4.813640117645264,2.2058162689208984
1684200491872383200,0.16238330078125,-4.677426338195801,4.250550270080566,2.307835102081299
1684200491882409200,0.1724091796875,-5.104894161224365,3.491298198699951,2.3269436359405518
1684200491892434400,0.182434326171875,-5.780547142028809,2.695729970932007,2.269193410873413
1684200491902460400,0.19246044921875,-6.5365800857543945,1.9181835651397705,2.1627357006073
1684200491912486400,0.202486328125,-7.124082088470459,0.615236759185791,1.8619270324707031
1684200491922512400,0.212512451171875,-7.447482585906982,-0.6277056336402893,1.3043935298919678
1684200491932537300,0.222537353515625,-7.531688690185547,-0.3028718829154968,0.3319070339202881
1684200491942563300,0.232563232421875,-7.5775885581970215,0.5548062920570374,-0.414459228515625
1684200491952589300,0.24258935546875,-7.691378116607666,0.12731143832206726,-0.36051318049430847
1684200491962614300,0.2526142578125,-7.919949531555176,-0.5141963958740234,0.07812103629112244
1684200491972640300,0.26264013671875,-8.03253173828125,-0.5870307087898254,0.5373415946960449
1684200491982666200,0.272666259765625,-7.977588176727295,-0.2823525667190552,0.9547175765037537
1684200491992692500,0.2826923828125,-7.820405006408691,-0.20229767262935638,1.1874783039093018
1684200492002717200,0.29271728515625,-7.703988552093506,-0.2241332232952118,1.2566930055618286
1684200492012743400,0.302743408203125,-7.538270950317383,-0.1919313371181488,1.3208882808685303
1684200492022769400,0.312769287109375,-7.3082499504089355,-0.11179618537425995,1.4726483821868896
1684200492032795400,0.32279541015625,-7.130461692810059,-0.09315405786037445,1.5613024234771729
1684200492042820400,0.3328203125,-7.019495487213135,-0.09008970856666565,1.4676872491836548
1684200492052846300,0.342846435546875,-6.859063148498535,-0.1275356262922287,1.1415510177612305
1684200492062872300,0.352872314453125,-6.523867607116699,-0.28335440158843994,0.6592849493026733
1684200492072897500,0.3628974609375,-5.933387756347656,-0.5541728734970093,0.2719199061393738
1684200492082923500,0.372923583984375,-4.956916332244873,-0.802915632724762,-0.04833485558629036
1684200492092949500,0.382949462890625,-3.753957509994507,-1.118803858757019,-0.20978525280952454
1684200492102975500,0.3929755859375,-2.4910426139831543,-1.4138660430908203,-0.16249684989452362
1684200492113000400,0.40300048828125,-1.3774170875549316,-1.6792165040969849,0.16108788549900055
1684200492123026400,0.4130263671875,-0.47320255637168884,-2.2155535221099854,0.5915835499763489
1684200492133052400,0.423052490234375,0.20967429876327515,-2.7795865535736084,0.9229356646537781
1684200492143078400,0.433078369140625,0.7216237783432007,-3.311704635620117,1.030559778213501
1684200492153103400,0.443103271484375,1.20413076877594,-3.71315336227417,0.9025751352310181
1684200492163129300,0.45312939453125,1.5618762969970703,-4.101085186004639,0.5804330110549927
1684200492173155300,0.4631552734375,1.7407317161560059,-4.2164764404296875,0.24189089238643646
1684200492183180300,0.47318017578125,1.7509350776672363,-3.9389350414276123,0.1847529411315918
1684200492193206300,0.483206298828125,1.7608108520507812,-3.3813540935516357,0.4208435118198395
1684200492203232300,0.493232177734375,1.8082958459854126,-2.6438488960266113,0.8670128583908081
1684200492213258200,0.50325830078125,1.7259738445281982,-1.7609535455703735,1.3016242980957031
1684200492223283200,0.513283203125,1.6272960901260376,-0.8021190166473389,1.5625826120376587
1684200492233309200,0.52330908203125,1.578554391860962,-0.3732786476612091,1.392513394355774
1684200492243335400,0.53333544921875,1.3664579391479492,-0.26454290747642517,0.5018768310546875
1684200492253361400,0.543361328125,1.2691028118133545,0.06124105677008629,-0.41038793325424194
1684200492263386000,0.55338623046875,1.3884685039520264,0.5909913182258606,-0.7618727684020996
1684200492273412400,0.563412353515625,1.6879132986068726,1.3682445287704468,-0.5942033529281616
1684200492283438000,0.57343798828125,1.9600924253463745,1.9649384021759033,-0.16805844008922577
1684200492293463300,0.58346337890625,2.175319194793701,2.050924777984619,0.19902582466602325
1684200492303489300,0.5934892578125,2.421627998352051,1.8645540475845337,0.2936299443244934
1684200492313515300,0.603515380859375,2.158402681350708,1.698516845703125,0.01786573976278305
1684200492323541200,0.613541259765625,2.418997049331665,1.7957738637924194,0.10370756685733795
1684200492333566200,0.623566162109375,2.5709428787231445,1.7723051309585571,0.1363224983215332
1684200492343592200,0.63359228515625,2.6093063354492188,1.7325019836425781,0.16362309455871582
1684200492353618200,0.6436181640625,2.725815534591675,2.320632219314575,0.4703180491924286
1684200492363644200,0.65364404296875,1.6370784044265747,3.0723578929901123,0.5172379612922668
1684200492373669000,0.663669189453125,0.5738986730575562,2.6043007373809814,0.3203888535499573
1684200492383695000,0.673695068359375,0.016636120155453682,2.6489675045013428,0.006220961920917034
1684200492393721000,0.68372119140625,0.3506186306476593,2.927328109741211,0.03781777247786522
1684200492403746000,0.69374609375,1.3385875225067139,3.2819910049438477,0.07677458971738815
1684200492413772000,0.70377197265625,2.7130753993988037,3.3805348873138428,0.051812514662742615
1684200492423798000,0.713798095703125,3.21073842048645,2.7604269981384277,0.26130029559135437
1684200492433824000,0.723823974609375,3.7664754390716553,1.4659173488616943,0.029676644131541252
1684200492443849000,0.733848876953125,4.163275718688965,0.3486175835132599,-0.7535750865936279
1684200492453875000,0.743875,3.3962721824645996,-0.5669580101966858,-1.648686170578003
1684200492463901000,0.75390087890625,2.475277900695801,-1.1451160907745361,-2.1547040939331055
1684200492473927000,0.763927001953125,1.1598587036132812,-1.298579454421997,-2.1768112182617188
1684200492483952000,0.7739521484375,-0.5821462273597717,-0.47287118434906006,-1.9464420080184937
1684200492493978000,0.78397802734375,-1.997554063796997,0.4349042773246765,-1.5785844326019287
1684200492504004000,0.794004150390625,-2.556306838989258,0.961637020111084,-1.7631033658981323
1684200492514029000,0.804029052734375,-2.867088556289673,1.68259596824646,-2.4592485427856445
1684200492524055000,0.814054931640625,-2.9485723972320557,1.9518969058990479,-2.828511953353882
1684200492534081300,0.824081298828125,-3.2099268436431885,1.4442805051803589,-2.8120040893554688
1684200492544107300,0.834107177734375,-3.823955774307251,0.9894052147865295,-2.4965193271636963
1684200492554132200,0.84413232421875,-4.426570415496826,0.9161126613616943,-1.8840787410736084
1684200492564158200,0.854158203125,-4.929365634918213,1.8055142164230347,-1.2825802564620972
1684200492574184200,0.86418408203125,-5.2761549949646,3.2537097930908203,-1.0313719511032104
1684200492584210200,0.874210205078125,-5.452175617218018,4.189645290374756,-1.2060891389846802
1684200492594235100,0.884235107421875,-5.333323001861572,4.786027431488037,-1.6926326751708984
1684200492604261000,0.89426123046875,-4.643280982971191,5.4707112312316895,-2.1071648597717285
1684200492614287000,0.904287109375,-3.6031723022460938,5.83305549621582,-2.3628764152526855
1684200492624312000,0.91431201171875,-2.7429020404815674,4.293671607971191,-2.220771551132202
1684200492634338000,0.924338134765625,-2.3174009323120117,1.5320292711257935,-1.6370073556900024
1684200492644364000,0.934364013671875,-2.878587245941162,-0.45656004548072815,0.010308215394616127
1684200492654390000,0.94439013671875,-3.885972023010254,0.5561074614524841,1.9152699708938599
1684200492664415200,0.954415283203125,-4.607143402099609,2.099651575088501,3.5171186923980713
1684200492674441200,0.964441162109375,-4.981049060821533,3.1076529026031494,4.426799297332764
1684200492684467200,0.97446728515625,-4.85492467880249,2.7353410720825195,4.434924602508545
1684200492694493000,0.984492919921875,-4.27065896987915,1.5210930109024048,3.680654764175415
1684200492704518100,0.99451806640625,-3.52170467376709,1.3175119161605835,2.432426929473877
1684200492714544000,1.004544189453125,-2.414501428604126,1.7109378576278687,1.0672850608825684
1684200492724570000,1.014570068359375,-0.513816773891449,1.4754197597503662,0.11511655151844025
1684200492734595000,1.024594970703125,1.1820602416992188,0.28189724683761597,-0.34963488578796387
1684200492744621000,1.03462109375,2.1501097679138184,-1.0367481708526611,-0.5309172868728638
1684200492754647000,1.04464697265625,2.451856851577759,-1.5424152612686157,-0.6661302447319031
1684200492764673300,1.05467333984375,2.2694365978240967,-1.7203260660171509,-0.6749134659767151
1684200492774698000,1.064697998046875,1.5959299802780151,-1.6365855932235718,-0.5482072234153748
1684200492784724200,1.07472412109375,0.6318302750587463,-1.29029381275177,-0.378557026386261
1684200492794750200,1.084750244140625,-0.0980747789144516,-0.7531952261924744,-0.2004016786813736
1684200492804776200,1.094776123046875,-0.28396186232566833,0.0361512266099453,-0.03864867240190506
1684200492814801200,1.10480126953125,-0.2072921246290207,0.7767376899719238,-0.0017212817911058664
1684200492824827100,1.1148271484375,-0.13980333507061005,1.1605777740478516,-0.12840966880321503
1684200492834853000,1.12485302734375,-0.23524756729602814,1.3739161491394043,-0.38593387603759766
1684200492844878000,1.134878173828125,-0.3077916204929352,1.6424826383590698,-0.6624090075492859
1684200492854904000,1.144904052734375,-0.11799212545156479,1.453872799873352,-0.7698987126350403
1684200492864930000,1.154929931640625,0.2764786183834076,0.33762645721435547,-0.731758713722229
1684200492874956000,1.1649560546875,0.6457637548446655,-0.5548643469810486,-0.5423392653465271
1684200492884981200,1.174981201171875,0.7723085284233093,-0.9070483446121216,-0.3733196556568146
1684200492895007200,1.18500732421875,0.9011730551719666,-0.9772082567214966,-0.2578423321247101
1684200492905033200,1.195033203125,1.0807770490646362,-1.0034213066101074,-0.09560351073741913
1684200492915059200,1.20505908203125,1.151567816734314,-1.0473551750183105,0.15949402749538422
1684200492925084200,1.215084228515625,1.0925151109695435,-1.313132643699646,0.3580164611339569
1684200492935110100,1.225110107421875,0.988980233669281,-1.415952205657959,0.4912152588367462
1684200492945136000,1.23513623046875,0.9812563061714172,-1.2064162492752075,0.5729413032531738
1684200492955161000,1.2451611328125,0.8331291675567627,-0.750662088394165,0.560143768787384
1684200492965187000,1.25518701171875,0.5300728678703308,-0.11278337985277176,0.4077848196029663
1684200492975213000,1.265213134765625,0.21961939334869385,0.2089635133743286,0.2623237669467926
1684200492985239000,1.275239013671875,-0.17621098458766937,0.22124582529067993,0.2350798100233078
1684200492995264000,1.285263916015625,-0.47052595019340515,1.143538475036621,0.15809448063373566
1684200493005290000,1.2952900390625,-0.26457396149635315,2.8156509399414062,-0.06754860281944275
1684200493015316000,1.30531591796875,0.16376006603240967,3.732102394104004,0.030042674392461777
1684200493025342200,1.31534228515625,0.49871134757995605,4.912142276763916,0.3689582645893097
1684200493035367000,1.325366943359375,0.7488932013511658,5.079834938049316,0.4597632586956024
1684200493045393200,1.33539306640625,0.6624065637588501,5.090369701385498,0.20749734342098236
1684200493055419100,1.345419189453125,0.22981202602386475,5.261539459228516,-0.21266666054725647
1684200493065444400,1.3554443359375,-0.0662170797586441,5.258133888244629,-0.35228174924850464
1684200493075470300,1.36547021484375,-1.1977393627166748,5.010082244873047,-0.21051742136478424
1684200493085496000,1.37549609375,-2.1878387928009033,3.6657214164733887,0.42624157667160034
1684200493095522000,1.38552197265625,-1.9192067384719849,0.12885449826717377,2.345993995666504
1684200493105547300,1.39554736328125,-1.960748553276062,-0.3844158947467804,3.804940938949585
1684200493115573200,1.4055732421875,-2.332254648208618,0.5139504075050354,4.115761756896973
1684200493125599200,1.41559912109375,-2.5198798179626465,1.2321274280548096,3.640617847442627
1684200493135625200,1.425625244140625,-2.462386131286621,1.4999032020568848,2.8838307857513428
1684200493145650200,1.435650146484375,-2.0637569427490234,1.675053596496582,2.08040189743042
1684200493155676200,1.44567626953125,-1.4296596050262451,1.689562201499939,1.282598853111267
1684200493165702100,1.4557021484375,-0.8155152201652527,1.422097086906433,0.5183923840522766
1684200493175727000,1.46572705078125,-0.35878393054008484,0.9624615907669067,-0.185878187417984
1684200493185753000,1.475753173828125,0.11720208823680878,0.5999993681907654,-0.6487063765525818
1684200493195779000,1.485779052734375,0.5874420404434204,0.455853670835495,-0.8345255255699158
1684200493205805000,1.49580517578125,0.7512649893760681,0.21457141637802124,-0.9276736378669739
1684200493215830000,1.505830078125,0.5596380233764648,-0.18788762390613556,-0.9640612006187439
1684200493225856000,1.51585595703125,0.3588520884513855,-0.41110679507255554,-0.8907939791679382
1684200493235882000,1.525882080078125,0.20598851144313812,-0.653130829334259,-0.734874963760376
1684200493245908000,1.535907958984375,0.06967747211456299,-0.9331367611885071,-0.44100895524024963
1684200493255933000,1.545932861328125,0.015491199679672718,-1.1188067197799683,-0.1776135414838791
1684200493265959000,1.555958984375,0.06405763328075409,-1.207037329673767,-0.03763198107481003
1684200493275985000,1.56598486328125,0.12521979212760925,-1.2926616668701172,-0.09618956595659256
1684200493286010000,1.576010009765625,0.01916172355413437,-1.279608130455017,-0.2469257116317749
1684200493296036000,1.5860361328125,-0.1691938042640686,-1.1887788772583008,-0.3521959185600281
1684200493306062000,1.59606201171875,-0.4082880914211273,-1.0608606338500977,-0.3278158903121948
1684200493316088000,1.606088134765625,-0.5559936761856079,-1.4495296478271484,-0.34859785437583923
1684200493326113000,1.616113037109375,-0.45939159393310547,-2.227144479751587,-0.4097764194011688
1684200493336139000,1.626138916015625,-0.28569623827934265,-2.6419036388397217,-0.33367446064949036
1684200493346165000,1.6361650390625,-0.2748687267303467,-2.503983974456787,-0.11308248341083527
1684200493356191000,1.64619091796875,-0.33891400694847107,-1.5959904193878174,0.30127689242362976
1684200493366216000,1.6562158203125,-0.4784255921840668,-1.5157233476638794,0.4487841725349426
1684200493376242000,1.666241943359375,-0.6375142931938171,-1.7264106273651123,0.37997713685035706
1684200493386268000,1.676267822265625,-0.8748564720153809,-1.9333784580230713,0.12412718683481216
1684200493396294000,1.6862939453125,-1.1303335428237915,-1.700067162513733,0.028844613581895828
1684200493406318800,1.69631884765625,-1.0704901218414307,-0.5159618258476257,0.5373625159263611
1684200493416344800,1.7063447265625,-0.6901184916496277,0.2979646325111389,0.8967193365097046
1684200493426371000,1.71637109375,-0.48741284012794495,0.7805777788162231,0.7550780773162842
1684200493436395800,1.726395751953125,-0.5748886466026306,1.6890486478805542,0.39480993151664734
1684200493446422000,1.736422119140625,-0.6151354312896729,2.1975314617156982,-0.09698442369699478
1684200493456448000,1.746447998046875,-0.6866546273231506,2.387316942214966,-0.532636284828186
1684200493466474000,1.756473876953125,-0.7598487138748169,2.0044326782226562,-0.9286282658576965
1684200493476499200,1.766499267578125,-0.8481261134147644,1.306273102760315,-1.1642717123031616
1684200493486525200,1.776525146484375,-0.8737174272537231,0.36616286635398865,-1.2051423788070679
1684200493496551000,1.786551025390625,-0.5092513561248779,-0.37548327445983887,-1.3051209449768066
1684200493506576100,1.796576171875,-0.08135572075843811,-1.011063575744629,-1.2768183946609497
1684200493516602000,1.80660205078125,0.5112812519073486,-1.1452679634094238,-1.1129117012023926
1684200493526628000,1.816628173828125,0.8184495568275452,-1.1810083389282227,-1.010713815689087
1684200493536654000,1.826654052734375,0.7576759457588196,-1.2187116146087646,-0.9856687188148499
1684200493546679000,1.836678955078125,0.3807903826236725,-1.3546181917190552,-0.9851076602935791
1684200493556705000,1.846705078125,-0.12393563985824585,-1.562046766281128,-0.945436954498291
1684200493566731000,1.85673095703125,-0.4193548262119293,-1.5467538833618164,-0.6669870615005493
1684200493576757000,1.866757080078125,-0.6043968796730042,-1.1786797046661377,-0.1314927488565445
1684200493586782000,1.876781982421875,-0.6431644558906555,-1.3199498653411865,0.2726719379425049
1684200493596808000,1.886807861328125,-0.5787026286125183,-1.992667555809021,0.5155423879623413
1684200493606834000,1.896833984375,-0.49010470509529114,-2.460198163986206,0.8565519452095032
1684200493616860000,1.90685986328125,-0.439008504152298,-2.485680341720581,1.169638752937317
1684200493626884900,1.916884765625,-0.41860899329185486,-2.3425300121307373,1.2984094619750977
1684200493636910800,1.926910888671875,-0.38784441351890564,-2.187654733657837,1.2421592473983765
1684200493646936800,1.936936767578125,-0.4091245234012604,-1.9239962100982666,1.0910351276397705
1684200493656961800,1.9469619140625,-0.467134028673172,-1.5040271282196045,0.9053012728691101
1684200493666987800,1.95698779296875,-0.5446984767913818,-0.8855903744697571,0.7660397291183472
1684200493677014000,1.967013916015625,-0.6647297739982605,-0.09430019557476044,0.7351700067520142
1684200493687040000,1.9770400390625,-0.8700927495956421,0.5432314276695251,0.7976672649383545
1684200493697065000,1.98706494140625,-1.046806812286377,0.8848196864128113,0.9337822198867798
1684200493707091200,1.99709130859375,-1.005380392074585,1.0207417011260986,1.1659042835235596
1684200493717117200,2.0071171875,-0.8222280740737915,0.6825393438339233,1.4382092952728271
1684200493727142100,2.01714208984375,-0.63694828748703,-0.20297925174236298,1.705864429473877
1684200493737168100,2.027168212890625,-0.39965611696243286,-1.1498233079910278,1.8048133850097656
1684200493747194000,2.037194091796875,-0.051135119050741196,-1.9695208072662354,1.636373519897461
1684200493757220000,2.04722021484375,0.4267837703227997,-2.5659914016723633,1.4117110967636108
1684200493767245000,2.0572451171875,0.9957011938095093,-2.699852466583252,1.3706609010696411
1684200493777271000,2.06727099609375,1.4732387065887451,-2.612513303756714,1.3928829431533813
1684200493787297000,2.077297119140625,1.668791651725769,-2.7035889625549316,1.2713322639465332
1684200493797323000,2.087322998046875,1.7303296327590942,-2.4620418548583984,1.124756932258606
1684200493807348000,2.097347900390625,1.87790846824646,-1.85049569606781,1.0223640203475952
1684200493817374000,2.1073740234375,2.0909650325775146,-1.301459550857544,0.8818978667259216
1684200493827400000,2.11739990234375,2.4164175987243652,-0.7582792043685913,0.7861660718917847
1684200493837426000,2.127426025390625,2.6244559288024902,-0.20447461307048798,0.6392155289649963
1684200493847451000,2.137450927734375,2.640948534011841,0.13544414937496185,0.34542495012283325
1684200493857476900,2.147476806640625,2.7474799156188965,0.4648931324481964,0.1598156839609146
1684200493867502800,2.1575029296875,2.8012897968292236,0.6025531888008118,0.015095619484782219
1684200493877528000,2.167528076171875,2.647286891937256,0.3171696960926056,-0.19827045500278473
1684200493887554000,2.177553955078125,2.0781564712524414,-0.35030660033226013,-0.5062681436538696
1684200493897580000,2.187580078125,1.4047359228134155,-1.004189372062683,-0.8346289992332458
1684200493907605800,2.197605712890625,1.0120906829833984,-1.3837153911590576,-1.038430094718933
1684200493917631000,2.207630859375,0.8818219304084778,-1.520557165145874,-1.1405601501464844
1684200493927657000,2.217656982421875,0.8775215148925781,-1.5136741399765015,-1.1521995067596436
1684200493937683200,2.22768310546875,0.8982954621315002,-1.4294847249984741,-1.1217851638793945
1684200493947709200,2.237709228515625,0.8145717978477478,-1.3616410493850708,-1.0714821815490723
1684200493957734100,2.247734130859375,0.6374796032905579,-1.277647614479065,-1.0119602680206299
1684200493967760100,2.257760009765625,0.5148764848709106,-1.2521334886550903,-0.8688719272613525
1684200493977786000,2.2677861328125,0.5786162614822388,-1.8541865348815918,-0.546215295791626
1684200493987811000,2.27781103515625,0.6655962467193604,-2.0058138370513916,-0.3684713840484619
1684200493997837000,2.287837158203125,0.5597129464149475,-1.1529695987701416,-0.5774698853492737
1684200494007863000,2.297863037109375,0.37386032938957214,-0.07073578238487244,-0.8795171976089478
1684200494017889000,2.307888916015625,0.22831273078918457,0.7532480955123901,-1.0635161399841309
1684200494027914000,2.3179140625,0.13065199553966522,1.2409539222717285,-1.1123883724212646
1684200494037940000,2.32793994140625,0.11320535838603973,1.4116487503051758,-1.1434639692306519
1684200494047966000,2.337966064453125,0.23842711746692657,1.3304604291915894,-1.2720043659210205
1684200494057992000,2.347991943359375,0.4852083921432495,1.0292448997497559,-1.547874093055725
1684200494068017000,2.358016845703125,0.7973396182060242,0.651914656162262,-1.892693281173706
1684200494078043000,2.36804296875,1.0377253293991089,0.4480310082435608,-2.1401591300964355
1684200494088068900,2.37806884765625,1.1401365995407104,0.35872942209243774,-2.2593679428100586
1684200494098094000,2.388093994140625,1.1696289777755737,0.25909602642059326,-2.302680492401123
1684200494108120000,2.3981201171875,1.1858197450637817,0.3237758278846741,-2.1771163940429688
1684200494118146000,2.40814599609375,1.1894161701202393,0.5191373825073242,-1.8839874267578125
1684200494128172000,2.418172119140625,1.2018370628356934,0.7473903894424438,-1.5106195211410522
1684200494138197000,2.428197021484375,1.1693133115768433,1.007526159286499,-1.0659600496292114
1684200494148223000,2.438222900390625,1.1400871276855469,1.0287455320358276,-0.6302652359008789
1684200494158249000,2.4482490234375,1.0593866109848022,0.6060382127761841,-0.3287467062473297
1684200494168275000,2.45827490234375,1.0340977907180786,0.046052489429712296,-0.1741630882024765
1684200494178300000,2.4682998046875,1.0632327795028687,-0.14736011624336243,-0.1311836540699005
1684200494188326000,2.478325927734375,1.1265157461166382,0.11215710639953613,-0.18711042404174805
1684200494198352100,2.48835205078125,1.1997689008712769,0.5698143839836121,-0.2644640803337097
1684200494208376800,2.498376953125,1.2935792207717896,1.0315539836883545,-0.31382063031196594
1684200494218403000,2.508403076171875,1.3722329139709473,1.3589533567428589,-0.3157389163970947
1684200494228429000,2.518428955078125,1.4010645151138306,1.5531840324401855,-0.22873403131961823
1684200494238455000,2.528455078125,1.3647652864456177,1.6832258701324463,-0.09670648723840714
1684200494248480000,2.53847998046875,1.3087579011917114,1.7006052732467651,-0.005509680137038231
1684200494258505500,2.54850537109375,1.259416937828064,1.6778185367584229,0.05521385744214058
1684200494268531500,2.558531494140625,1.2070006132125854,1.6094551086425781,0.101115882396698
1684200494278557400,2.568557373046875,1.188956618309021,1.4239810705184937,0.1251823455095291
1684200494288582700,2.578582763671875,1.153303623199463,1.2255420684814453,0.13667674362659454
1684200494298608600,2.588608642578125,1.096935510635376,1.0876901149749756,0.17126774787902832
1684200494308634600,2.598634521484375,1.0564026832580566,0.9765796661376953,0.20861954987049103
1684200494318659600,2.60865966796875,0.9911966323852539,0.9255460500717163,0.23074482381343842
1684200494328685600,2.618685546875,0.8899125456809998,0.94020015001297,0.2407526671886444
1684200494338711600,2.628711669921875,0.7576301097869873,0.9987074136734009,0.21316471695899963
1684200494348737800,2.63873779296875,0.6342700719833374,1.0485597848892212,0.1621406227350235
1684200494358762500,2.648762451171875,0.5290840268135071,0.9982832074165344,0.13411271572113037
1684200494368788700,2.658788818359375,0.47779253125190735,0.8163060545921326,0.14684779942035675
1684200494378814700,2.668814697265625,0.4729567766189575,0.564181387424469,0.16288349032402039
1684200494388840700,2.6788408203125,0.47397321462631226,0.3336285948753357,0.16935816407203674
1684200494398865700,2.68886572265625,0.45388951897621155,0.15290196239948273,0.15195654332637787
1684200494408891600,2.6988916015625,0.413826048374176,0.05007633566856384,0.11963901668787003
1684200494418917600,2.708917724609375,0.3647298514842987,0.057740114629268646,0.13068421185016632
1684200494428942600,2.718942626953125,0.32037994265556335,0.06890404224395752,0.1604079157114029
1684200494438968600,2.728968505859375,0.294589102268219,0.06227542832493782,0.20695731043815613
1684200494448994600,2.73899462890625,0.27287930250167847,0.06165176257491112,0.2758009433746338
1684200494459020500,2.7490205078125,0.24591639637947083,0.0907212346792221,0.3529151678085327
1684200494469045800,2.759045654296875,0.19507721066474915,0.1511382758617401,0.43164709210395813
1684200494479071700,2.76907177734375,0.12534154951572418,0.20393438637256622,0.49558132886886597
1684200494489097500,2.779097412109375,0.05416487529873848,0.17668595910072327,0.5538537502288818
1684200494499123500,2.78912353515625,-0.021604720503091812,0.060464538633823395,0.6030258536338806
1684200494509148700,2.799148681640625,-0.08919697999954224,-0.05917537957429886,0.6211383938789368
1684200494519174700,2.809174560546875,-0.12905916571617126,-0.1556912660598755,0.6218827366828918
1684200494529200600,2.81920068359375,-0.1508457213640213,-0.23061130940914154,0.6239601969718933
1684200494539226600,2.8292265625,-0.16166028380393982,-0.3000263273715973,0.6204922199249268
1684200494549251600,2.83925146484375,-0.1821926385164261,-0.3470796048641205,0.6309189200401306
1684200494559277600,2.849277587890625,-0.22390253841876984,-0.3790452480316162,0.6554083228111267
1684200494569303600,2.859303466796875,-0.2791217863559723,-0.3982340395450592,0.677298903465271
1684200494579328500,2.86932861328125,-0.32326874136924744,-0.38994282484054565,0.7001893520355225
1684200494589354500,2.8793544921875,-0.3583064079284668,-0.4087534248828888,0.7283011674880981
1684200494599380700,2.889380615234375,-0.42992785573005676,-0.4261648952960968,0.7841585874557495
1684200494609406700,2.89940673828125,-0.45106711983680725,-0.5300812125205994,0.8446751236915588
1684200494619431700,2.909431640625,-0.45901134610176086,-0.6734330654144287,0.9139468669891357
1684200494629457700,2.919457763671875,-0.4573498070240021,-0.7923815846443176,0.9984602928161621
1684200494639483600,2.929483642578125,-0.4537803828716278,-0.8628149628639221,1.101218819618225
1684200494649509600,2.939509521484375,-0.4760585129261017,-0.882091760635376,1.183703064918518
1684200494659534600,2.94953466796875,-0.5359913110733032,-0.8016733527183533,1.207318663597107
1684200494669560600,2.959560546875,-0.6315883994102478,-0.625569760799408,1.1517542600631714
1684200494679586600,2.969586669921875,-0.7175666689872742,-0.41720566153526306,1.0272215604782104
1684200494689611800,2.97961181640625,-0.7756035923957825,-0.18829211592674255,0.8690838813781738
1684200494699637800,2.9896376953125,-0.8520488142967224,0.03314492851495743,0.7121245861053467
1684200494709663700,2.999663818359375,-0.9418506622314453,0.15840180218219757,0.6370621919631958
1684200494719689700,3.009689697265625,-1.035887360572815,0.11972443014383316,0.683530330657959
1684200494729714700,3.019714599609375,-1.1115559339523315,-0.06862185895442963,0.8303515911102295
1684200494739740700,3.02974072265625,-1.11428964138031,-0.2729678153991699,1.0285539627075195
1684200494749766700,3.0397666015625,-1.061152696609497,-0.4286114275455475,1.2110588550567627
1684200494759792600,3.049792724609375,-1.0135740041732788,-0.4994067847728729,1.2593563795089722
1684200494769817600,3.059817626953125,-0.975540041923523,-0.5275272130966187,1.1693849563598633
1684200494779843600,3.069843505859375,-0.8819589614868164,-0.509490966796875,0.9770341515541077
1684200494789869600,3.07986962890625,-0.7617418169975281,-0.47888538241386414,0.7315319180488586
1684200494799894500,3.08989453125,-0.6321244239807129,-0.49181050062179565,0.49352601170539856
1684200494809920500,3.09992041015625,-0.46767452359199524,-0.5336215496063232,0.2948269844055176
1684200494819946500,3.109946533203125,-0.3100460171699524,-0.5139642357826233,0.15418358147144318
1684200494829972500,3.119972412109375,-0.21211396157741547,-0.39594927430152893,0.04142991453409195
1684200494839997400,3.12999755859375,-0.17511652410030365,-0.21287105977535248,-0.055904895067214966
1684200494850023400,3.1400234375,-0.18079468607902527,-0.02155299298465252,-0.09303393959999084
1684200494860049700,3.150049560546875,-0.17762978374958038,0.14261384308338165,-0.020642561838030815
1684200494870075600,3.16007568359375,-0.17033129930496216,0.28152865171432495,0.10915830731391907
1684200494880100600,3.1701005859375,-0.19945590198040009,0.37595900893211365,0.22698506712913513
1684200494890126600,3.180126708984375,-0.2818007469177246,0.42560145258903503,0.29121991991996765
1684200494900152600,3.190152587890625,-0.38779374957084656,0.41641461849212646,0.31203681230545044
1684200494910177800,3.200177734375,-0.46740883588790894,0.35385867953300476,0.31297940015792847
1684200494920203800,3.210203857421875,-0.5097179412841797,0.25888022780418396,0.3182556629180908
1684200494930229800,3.220229736328125,-0.5232723355293274,0.116607166826725,0.31585901975631714
1684200494940255700,3.230255859375,-0.5157625079154968,-0.09598126262426376,0.2906913459300995
1684200494950280700,3.24028076171875,-0.49683886766433716,-0.35194429755210876,0.2318830043077469
1684200494960306700,3.250306640625,-0.4707276523113251,-0.5543439984321594,0.14987681806087494
1684200494970332700,3.260332763671875,-0.4516812562942505,-0.6457700133323669,0.07403510063886642
1684200494980358700,3.270358642578125,-0.42431139945983887,-0.6188379526138306,-0.005781433079391718
1684200494990383600,3.280383544921875,-0.3900590240955353,-0.4715352952480316,-0.07754292339086533
1684200495000409600,3.29040966796875,-0.36262232065200806,-0.25072088837623596,-0.11638379842042923
1684200495010435600,3.300435546875,-0.3369201719760895,-0.05483300983905792,-0.13297384977340698
1684200495020460500,3.31046044921875,-0.3152143359184265,0.08653824031352997,-0.12255262583494186
1684200495030486500,3.320486572265625,-0.28708311915397644,0.16599813103675842,-0.09080065786838531
1684200495040512500,3.330512451171875,-0.2454906851053238,0.17558471858501434,-0.04746757075190544
1684200495050538500,3.34053857421875,-0.2045827955007553,0.10126590728759766,-0.007001738995313644
1684200495060563500,3.3505634765625,-0.1663624346256256,0.08174839615821838,0.054978806525468826
1684200495070589400,3.36058935546875,-0.1325959712266922,0.23515519499778748,0.17446467280387878
1684200495080615400,3.370615478515625,-0.10809008777141571,0.4706047475337982,0.33148783445358276
1684200495090641700,3.3806416015625,-0.13749441504478455,0.6257739067077637,0.46840834617614746
1684200495100666600,3.39066650390625,-0.17486362159252167,0.5461715459823608,0.5117691159248352
1684200495110692600,3.400692626953125,-0.12779217958450317,0.33686986565589905,0.44579437375068665
1684200495120718600,3.410718505859375,-0.02039116807281971,0.16379529237747192,0.31116172671318054
1684200495130744600,3.42074462890625,0.07128211855888367,0.08794919401407242,0.15955954790115356
1684200495140769800,3.430769775390625,0.11491721868515015,0.04206479340791702,0.029640957713127136
1684200495150795800,3.440795654296875,0.1412736028432846,0.008959257043898106,-0.04629828408360481
1684200495160821800,3.45082177734375,0.11964767426252365,-0.0635029599070549,-0.07033731043338776
1684200495170846700,3.4608466796875,0.09166400134563446,-0.2114042341709137,-0.03793185576796532
1684200495180872700,3.470872802734375,0.10920730978250504,-0.40299391746520996,0.022017762064933777
1684200495190898700,3.480898681640625,0.14924734830856323,-0.5843456983566284,0.06998081505298615
1684200495200924700,3.490924560546875,0.16792382299900055,-0.6798836588859558,0.10581977665424347
1684200495210949600,3.50094970703125,0.14866037666797638,-0.7049939036369324,0.11746774613857269
1684200495220975600,3.5109755859375,0.11577565968036652,-0.629034698009491,0.11676786839962006
1684200495231001600,3.521001708984375,0.08016517758369446,-0.4632687568664551,0.11689846962690353
1684200495241027600,3.531027587890625,0.043313685804605484,-0.26042404770851135,0.15762431919574738
1684200495251052500,3.541052490234375,-0.009522868320345879,-0.033852625638246536,0.2371498942375183
1684200495261078800,3.551078857421875,-0.06723277270793915,0.1490388959646225,0.29945695400238037
1684200495271104800,3.561104736328125,-0.09454113990068436,0.29311999678611755,0.33244553208351135
1684200495281129700,3.571129638671875,-0.11415132880210876,0.3611997067928314,0.3532205820083618
1684200495291155700,3.58115576171875,-0.10826364904642105,0.33582422137260437,0.3600527346134186
1684200495301181700,3.591181640625,-0.09439310431480408,0.2798437774181366,0.3418489694595337
1684200495311207700,3.601207763671875,-0.09162572771310806,0.23325444757938385,0.3062314987182617
1684200495321233000,3.61123291015625,-0.07605422288179398,0.23054680228233337,0.2645024061203003
1684200495331259000,3.6212587890625,-0.06017879396677017,0.20715448260307312,0.21087081730365753
1684200495341284900,3.631284912109375,-0.02887147292494774,0.13286587595939636,0.15118113160133362
1684200495351310800,3.641310791015625,0.003560071811079979,0.019698629155755043,0.10347991436719894
1684200495361335800,3.651335693359375,0.03637580946087837,-0.07367606461048126,0.08914145827293396
1684200495371361800,3.66136181640625,0.05898946523666382,-0.12305529415607452,0.08861356973648071
1684200495381387800,3.6713876953125,0.062397781759500504,-0.1643281728029251,0.07238586246967316
1684200495391412700,3.681412841796875,0.04912569746375084,-0.17847058176994324,0.0604102686047554
1684200495401438700,3.691438720703125,0.03704320266842842,-0.21221229434013367,0.04699859023094177
1684200495411464700,3.701464599609375,0.04436548799276352,-0.2971837520599365,0.01581275649368763
1684200495421490700,3.71149072265625,0.04027540236711502,-0.40999603271484375,-0.03411538898944855
1684200495431515600,3.721515625,0.028553728014230728,-0.4901558458805084,-0.08517888933420181
1684200495441541600,3.731541748046875,0.006362405605614185,-0.49715569615364075,-0.1261412352323532
1684200495451567900,3.74156787109375,-0.013218083418905735,-0.43787381052970886,-0.14921417832374573
1684200495461593900,3.75159375,-0.030146202072501183,-0.362700492143631,-0.16857482492923737
1684200495471618800,3.761618896484375,-0.02749227173626423,-0.28935372829437256,-0.17402119934558868
1684200495481644800,3.771644775390625,-0.019462041556835175,-0.23168987035751343,-0.17430908977985382
1684200495491670800,3.7816708984375,-0.024475254118442535,-0.2138383835554123,-0.1566644161939621
1684200495501696800,3.79169677734375,-0.03679370880126953,-0.24743574857711792,-0.1146160364151001
1684200495511721700,3.8017216796875,-0.044667795300483704,-0.32431384921073914,-0.05810258537530899
1684200495521747700,3.811747802734375,-0.05349564179778099,-0.404238224029541,-0.007020758930593729
1684200495531773700,3.821773681640625,-0.07460064440965652,-0.4029805660247803,0.026810068637132645
1684200495541799000,3.831798828125,-0.08874575793743134,-0.3393009305000305,0.03213825449347496
1684200495551825000,3.841824951171875,-0.11692333221435547,-0.26651352643966675,0.020198769867420197
1684200495561851000,3.851850830078125,-0.14400100708007812,-0.21371449530124664,0.004911693744361401
1684200495571876900,3.861876953125,-0.1695631742477417,-0.2298162430524826,-0.017428390681743622
1684200495581901800,3.87190185546875,-0.19406931102275848,-0.29357123374938965,-0.05171579122543335
1684200495591927800,3.881927734375,-0.21540862321853638,-0.35888880491256714,-0.08115320652723312
1684200495601953800,3.891953857421875,-0.2313052862882614,-0.3940867483615875,-0.11329622566699982
1684200495611979800,3.901979736328125,-0.24624153971672058,-0.37443113327026367,-0.13129088282585144
1684200495622004700,3.912004638671875,-0.25675302743911743,-0.34923869371414185,-0.132385715842247
1684200495632030700,3.92203076171875,-0.2661367952823639,-0.3701774775981903,-0.11147899180650711
1684200495642056700,3.932056640625,-0.2620304822921753,-0.40663427114486694,-0.08025556057691574
1684200495652081700,3.94208154296875,-0.24811318516731262,-0.43804699182510376,-0.038077957928180695
1684200495662107600,3.952107666015625,-0.2329467386007309,-0.4767051935195923,-0.007663329131901264
1684200495672133600,3.962133544921875,-0.21721994876861572,-0.5008041262626648,0.0019838111475110054
1684200495682159900,3.972159912109375,-0.2036098688840866,-0.4856696128845215,-0.009043273515999317
1684200495692184600,3.9821845703125,-0.1989266723394394,-0.42783498764038086,-0.05147019401192665
1684200495702210800,3.9922109375,-0.20563890039920807,-0.3533136248588562,-0.09257422387599945
1684200495712236800,4.00223681640625,-0.2063269168138504,-0.3092934787273407,-0.1161314845085144
1684200495722262800,4.0122626953125,-0.19668546319007874,-0.3206840753555298,-0.11436447501182556
1684200495732288000,4.0222880859375,-0.18087807297706604,-0.37546616792678833,-0.08916372805833817
1684200495742314000,4.03231396484375,-0.16819795966148376,-0.4496868848800659,-0.06223783642053604
1684200495752339700,4.042339599609375,-0.1553926318883896,-0.48642829060554504,-0.05116633325815201
1684200495762365000,4.052364990234375,-0.13376057147979736,-0.4510151743888855,-0.05767057090997696
1684200495772391000,4.062390869140625,-0.10991225391626358,-0.3629690110683441,-0.09250748157501221
1684200495782417000,4.0724169921875,-0.08378797769546509,-0.2507766783237457,-0.13052624464035034
1684200495792443000,4.08244287109375,-0.05212363228201866,-0.09841880947351456,-0.17504970729351044
1684200495802467800,4.0924677734375,0.0021057853009551764,0.05881555750966072,-0.20686089992523193
1684200495812493800,4.102493896484375,0.08320042490959167,0.1852792352437973,-0.2189570963382721
1684200495822519800,4.112519775390625,0.17406614124774933,0.20658878982067108,-0.19007565081119537
1684200495832545800,4.1225458984375,0.2681354582309723,0.051736027002334595,-0.10854499042034149
1684200495842570800,4.13257080078125,0.3465980589389801,-0.29976794123649597,0.015497065149247646
1684200495852596700,4.1425966796875,0.385972797870636,-0.6575050950050354,0.07587678730487823
1684200495862622700,4.152622802734375,0.38544151186943054,-0.8396512269973755,0.0035381419584155083
1684200495872648700,4.162648681640625,0.3860478699207306,-0.7830483317375183,-0.23660235106945038
1684200495882673700,4.172673583984375,0.38433465361595154,-0.5419310927391052,-0.583855926990509
1684200495892699600,4.18269970703125,0.3871280252933502,-0.24047526717185974,-0.93706876039505
1684200495902725600,4.1927255859375,0.3989740312099457,0.030081646516919136,-1.2124660015106201
1684200495912750800,4.202750732421875,0.40290284156799316,0.195301815867424,-1.405690312385559
1684200495922776600,4.212776611328125,0.4332072138786316,0.2578544020652771,-1.5563653707504272
1684200495932802600,4.222802490234375,0.5022313594818115,0.23117472231388092,-1.7318651676177979
1684200495942828800,4.232828857421875,0.6099613308906555,0.13222257792949677,-1.9724860191345215
1684200495952853800,4.242853759765625,0.7505355477333069,0.008431775495409966,-2.2395660877227783
1684200495962880000,4.2528798828125,0.9140810370445251,-0.05279163643717766,-2.43290114402771
1684200495972906000,4.262906005859375,1.054616928100586,-0.013551466166973114,-2.4925525188446045
1684200495982932000,4.272931884765625,1.1346728801727295,0.09025988727807999,-2.3891122341156006
1684200495992957000,4.28295703125,1.2273491621017456,0.10452201217412949,-2.1946985721588135
1684200496002983000,4.29298291015625,1.297703504562378,0.12288876622915268,-1.9309648275375366
1684200496013009000,4.3030087890625,1.2731540203094482,0.1862378567457199,-1.6298089027404785
1684200496023033900,4.313033935546875,1.1529227495193481,0.3911300003528595,-1.3062279224395752
1684200496033059800,4.323059814453125,1.0258244276046753,0.6291549801826477,-1.117400884628296
1684200496043085800,4.3330859375,0.9167208075523376,0.9278711080551147,-1.0197625160217285
1684200496053111800,4.34311181640625,0.9205803275108337,1.2257719039916992,-0.9881805777549744
1684200496063136800,4.35313671875,1.0333471298217773,1.3327876329421997,-1.0099446773529053
1684200496073162800,4.363162841796875,1.2906094789505005,1.1676892042160034,-1.0486294031143188
1684200496083188700,4.373188720703125,1.5200601816177368,1.010435938835144,-0.9811148047447205
1684200496093214700,4.383214599609375,1.5931057929992676,0.9673893451690674,-0.792261004447937
1684200496103239700,4.39323974609375,1.5482277870178223,1.0596257448196411,-0.6044501066207886
1684200496113265700,4.403265625,1.4455209970474243,1.211556077003479,-0.4378713369369507
1684200496123291600,4.413291748046875,1.333471417427063,1.420703649520874,-0.2913362383842468
1684200496133316900,4.42331689453125,1.21346914768219,1.5861610174179077,-0.15995460748672485
1684200496143342800,4.4333427734375,1.1102045774459839,1.6765875816345215,-0.034222498536109924
1684200496153368800,4.443368896484375,1.0529963970184326,1.6009727716445923,0.06679471582174301
1684200496163394800,4.453394775390625,1.0440635681152344,1.406570553779602,0.1376265436410904
1684200496173419800,4.463419677734375,1.0380271673202515,1.0986324548721313,0.18040911853313446
1684200496183445800,4.47344580078125,1.0374809503555298,0.7843093872070312,0.20597918331623077
1684200496193471700,4.4834716796875,1.0495522022247314,0.5928490161895752,0.22553306818008423
1684200496203498000,4.493498046875,1.0563204288482666,0.5438175797462463,0.2656650245189667
1684200496213522700,4.503522705078125,1.0179264545440674,0.5575032830238342,0.34859418869018555
1684200496223549000,4.513548828125,0.9394354224205017,0.5201090574264526,0.4517940878868103
1684200496233575000,4.523574951171875,0.8397177457809448,0.5018050074577332,0.5555259585380554
1684200496243601000,4.533600830078125,0.732422947883606,0.4880303740501404,0.6065592765808105
1684200496253625900,4.5436259765625,0.6379356980323792,0.46902135014533997,0.6210871934890747
1684200496263651800,4.55365185546875,0.5300388336181641,0.41843754053115845,0.6337308287620544
1684200496273677800,4.563677734375,0.4491685628890991,0.25275906920433044,0.669958233833313
1684200496283702800,4.573702880859375,0.3456466794013977,0.10019885003566742,0.7162532806396484
1684200496293728800,4.583728759765625,0.24034260213375092,0.01378961093723774,0.7341139316558838
1684200496303754800,4.593754638671875,0.14759881794452667,-0.008640597574412823,0.7479296326637268
1684200496313780700,4.60378076171875,0.05337435007095337,0.04860036447644234,0.7338983416557312
1684200496323805700,4.6138056640625,-0.040944695472717285,0.15352384746074677,0.7195396423339844
1684200496333831700,4.623831787109375,-0.11697665601968765,0.24509215354919434,0.7259184122085571
1684200496343857700,4.633857666015625,-0.16409115493297577,0.2409197837114334,0.7551710605621338
1684200496353883600,4.643883544921875,-0.1963464319705963,0.14075511693954468,0.793372631072998
1684200496363908900,4.653908935546875,-0.22670726478099823,-0.02789248898625374,0.8177839517593384
1684200496373934800,4.663934814453125,-0.24810810387134552,-0.24791942536830902,0.8131942749023438
1684200496383960800,4.6739609375,-0.2619570791721344,-0.46292680501937866,0.7676230669021606
1684200496393985800,4.68398583984375,-0.26375022530555725,-0.6430346965789795,0.7018358707427979
1684200496404011800,4.69401171875,-0.2551141381263733,-0.7556350231170654,0.6217415928840637
1684200496414037800,4.704037841796875,-0.23599107563495636,-0.7652002573013306,0.5460474491119385
1684200496424063700,4.714063720703125,-0.2165987342596054,-0.7098438143730164,0.5013313889503479
1684200496434088700,4.724088623046875,-0.20521867275238037,-0.6081972122192383,0.4825783669948578
1684200496444114700,4.73411474609375,-0.20801976323127747,-0.4942064583301544,0.4848122298717499
1684200496454140700,4.744140625,-0.2283407747745514,-0.39357224106788635,0.5041613578796387
1684200496464166700,4.754166748046875,-0.2536922097206116,-0.3240930438041687,0.5375683307647705
1684200496474191600,4.764191650390625,-0.28963038325309753,-0.29604965448379517,0.5743098855018616
1684200496484217600,4.774217529296875,-0.3354300856590271,-0.300210565328598,0.6256140470504761
1684200496494243800,4.784243896484375,-0.3769615590572357,-0.3370564579963684,0.6955816745758057
1684200496504268500,4.7942685546875,-0.4146518111228943,-0.44935235381126404,0.7628329396247864
1684200496514294800,4.804294677734375,-0.43869999051094055,-0.705383837223053,0.8280319571495056
1684200496524320800,4.81432080078125,-0.42347949743270874,-0.9391303062438965,0.8811226487159729
1684200496534346800,4.8243466796875,-0.36187732219696045,-0.9706746339797974,0.8533838391304016
1684200496544372000,4.8343720703125,-0.2754492163658142,-0.7715785503387451,0.6635050177574158
1684200496554397700,4.844397705078125,-0.26503539085388184,-0.49403536319732666,0.4190487861633301
1684200496564423700,4.854423583984375,-0.3497374951839447,-0.2674885094165802,0.27818435430526733
1684200496574449700,4.86444970703125,-0.4716058075428009,-0.15696784853935242,0.2931362986564636
1684200496584475000,4.874474853515625,-0.574680507183075,-0.2003057301044464,0.4446280896663666
1684200496594500900,4.8845009765625,-0.6133913397789001,-0.3319520652294159,0.6496622562408447
1684200496604526800,4.89452685546875,-0.5861109495162964,-0.464164674282074,0.7882526516914368
1684200496614552800,4.904552734375,-0.5553285479545593,-0.46676740050315857,0.7634305953979492
1684200496624577800,4.914577880859375,-0.5681758522987366,-0.18543772399425507,0.6117811799049377
1684200496634603800,4.924603759765625,-0.5724634528160095,0.13735778629779816,0.368946373462677
1684200496644629800,4.934629638671875,-0.48169195652008057,0.2498723417520523,0.058828722685575485
1684200496654654700,4.94465478515625,-0.32187405228614807,0.147614985704422,-0.15651677548885345
1684200496664680700,4.9546806640625,-0.19123587012290955,-0.071710966527462,-0.18646588921546936
1684200496674706700,4.964706787109375,-0.15307460725307465,-0.272630512714386,-0.07425780594348907
1684200496684732700,4.974732666015625,-0.20649096369743347,-0.31493911147117615,0.08288467675447464
1684200496694757600,4.984757568359375,-0.26726245880126953,-0.22551065683364868,0.19673822820186615
1684200496704783600,4.99478369140625,-0.30785784125328064,-0.16608621180057526,0.2904399633407593
1684200496714809600,5.0048095703125,-0.3540586531162262,-0.10410391539335251,0.36998629570007324
1684200496724835600,5.014835693359375,-0.4101181924343109,-0.02053365483880043,0.3582364320755005
1684200496734860500,5.024860595703125,-0.43027621507644653,-0.0020085573196411133,0.23886485397815704
1684200496744886500,5.034886474609375,-0.38233184814453125,0.024714134633541107,0.12039253860712051
1684200496754912800,5.044912841796875,-0.3036096692085266,0.014332925900816917,0.04956619441509247
1684200496764938800,5.054938720703125,-0.24210745096206665,-0.057638201862573624,0.013605000451207161
1684200496774964000,5.0649638671875,-0.22455129027366638,-0.11052682250738144,-0.00789257138967514
1684200496784990000,5.074989990234375,-0.2592962384223938,-0.08983432501554489,-0.022729573771357536
1684200496795016000,5.085015869140625,-0.3183726966381073,-0.03579358756542206,-0.02789030410349369
1684200496805041000,5.095041015625,-0.36954987049102783,-0.010482636280357838,-0.015120446681976318
1684200496815067000,5.10506689453125,-0.40560346841812134,-0.028144601732492447,0.009965358301997185
1684200496825092900,5.1150927734375,-0.45298856496810913,-0.09516625106334686,0.03857037052512169
1684200496835118800,5.125118896484375,-0.5254203677177429,-0.21156343817710876,0.0721973180770874
1684200496845143800,5.135143798828125,-0.6190856099128723,-0.4081808924674988,0.07098584622144699
1684200496855169800,5.145169677734375,-0.7025814056396484,-0.6590968370437622,0.030897274613380432
1684200496865195800,5.15519580078125,-0.7572475671768188,-0.8689347505569458,0.0157603956758976
1684200496875221800,5.1652216796875,-0.7643351554870605,-0.9891914129257202,0.11488384008407593
1684200496885246700,5.175246826171875,-0.756467342376709,-1.0850918292999268,0.42115962505340576
1684200496895272700,5.185272705078125,-0.8019173741340637,-1.261178970336914,0.918452799320221
1684200496905298700,5.195298583984375,-0.9250549674034119,-1.5954989194869995,1.3741638660430908
1684200496915323600,5.20532373046875,-1.0631396770477295,-2.037166118621826,1.5770728588104248
1684200496925349600,5.215349609375,-1.0583581924438477,-2.1689767837524414,1.3960716724395752
1684200496935375600,5.225375732421875,-0.23070743680000305,-1.3604720830917358,0.26236650347709656
1684200496945401600,5.235401611328125,0.8485162258148193,-0.37702471017837524,-1.1946319341659546
1684200496955426800,5.2454267578125,1.183672308921814,0.1873376965522766,-2.151360273361206
1684200496965452500,5.25545263671875,0.7964285016059875,0.7026005387306213,-2.696272373199463
1684200496975478500,5.265478515625,0.2063908874988556,0.9188759922981262,-2.5973129272460938
1684200496985504500,5.27550439453125,-0.2805526852607727,0.829160749912262,-1.6494007110595703
1684200496995529700,5.28552978515625,-0.6937291622161865,0.6134496331214905,-0.1359662264585495
1684200497005555700,5.2955556640625,-1.0527647733688354,0.820606529712677,0.9770409464836121
1684200497015582000,5.30558203125,-1.273707389831543,1.009491205215454,1.5433074235916138
1684200497025608000,5.31560791015625,-1.3760169744491577,0.7747690081596375,1.7360219955444336
1684200497035633000,5.3256328125,-1.2982815504074097,0.3205443322658539,1.6640666723251343
1684200497045659000,5.335658935546875,-1.0883111953735352,-0.09433834254741669,1.428950548171997
1684200497055684900,5.345684814453125,-0.9138508439064026,-0.19937816262245178,1.1350682973861694
1684200497065709800,5.355709716796875,-0.820197343826294,-0.05470193922519684,0.8363215923309326
1684200497075735800,5.36573583984375,-0.7732453942298889,0.16477569937705994,0.6006935238838196
1684200497085761800,5.37576171875,-0.7203395366668701,0.3739534318447113,0.4708934724330902
1684200497095787800,5.385787841796875,-0.6397812366485596,0.4957910180091858,0.4192582666873932
1684200497105812700,5.395812744140625,-0.5240660905838013,0.42978429794311523,0.36962974071502686
1684200497115838700,5.405838623046875,-0.3778764307498932,0.21411308646202087,0.29150262475013733
1684200497125864700,5.41586474609375,-0.21262118220329285,-0.22235797345638275,0.10071507841348648
1684200497135890700,5.425890625,-0.022107604891061783,-0.879321277141571,-0.26581940054893494
1684200497145915600,5.43591552734375,0.14190185070037842,-1.393375277519226,-0.6375271677970886
1684200497155941600,5.445941650390625,0.22200246155261993,-1.1458743810653687,-0.7860153317451477
1684200497165967600,5.455967529296875,0.18916168808937073,-0.23870906233787537,-0.678684651851654
1684200497175992800,5.465992919921875,0.008308593183755875,0.4934926927089691,-0.4996708631515503
1684200497186018800,5.476018798828125,-0.11555289477109909,0.62198406457901,-0.3528585433959961
1684200497196044800,5.486044921875,-0.08472607284784317,0.5430574417114258,-0.15120796859264374
1684200497206070800,5.49607080078125,-0.07271308451890945,0.5017417073249817,0.09199482202529907
1684200497216095700,5.506095703125,-0.11879332363605499,0.5778083801269531,0.32468047738075256
1684200497226121700,5.516121826171875,-0.18283621966838837,0.7024877071380615,0.4922255277633667
1684200497236147700,5.526147705078125,-0.20935656130313873,0.7035208344459534,0.5887433290481567
1684200497246174000,5.536174072265625,-0.17597970366477966,0.5268893837928772,0.6136044263839722
1684200497256198700,5.54619873046875,-0.1291932463645935,0.2721739411354065,0.6069809198379517
1684200497266225000,5.556224853515625,-0.07218214869499207,0.0878075510263443,0.5572261214256287
1684200497276251000,5.5662509765625,-0.01340034045279026,0.054517317563295364,0.46745744347572327
1684200497286276900,5.57627685546875,0.02035229653120041,0.08228743076324463,0.343443363904953
1684200497296301800,5.5863017578125,0.05922563001513481,0.0904635563492775,0.2262953221797943
1684200497306327800,5.596327880859375,0.08408517390489578,0.08247380703687668,0.14353066682815552
1684200497316353800,5.606353759765625,0.1142234280705452,0.12020289152860641,0.07329826056957245
1684200497326378800,5.616378662109375,0.1250489205121994,0.20262719690799713,0.017918355762958527
1684200497336404700,5.62640478515625,0.11595459282398224,0.2681967318058014,0.007996806874871254
1684200497346430700,5.6364306640625,0.109583780169487,0.2976641058921814,0.055308666080236435
1684200497356456700,5.646456787109375,0.1236511692404747,0.30772271752357483,0.12688298523426056
1684200497366481700,5.656481689453125,0.1304241269826889,0.2898617088794708,0.18918922543525696
1684200497376507600,5.666507568359375,0.12186077982187271,0.22714869678020477,0.23801429569721222
1684200497386534000,5.676533935546875,0.11200655251741409,0.16552262008190155,0.2783401310443878
1684200497396560000,5.686559814453125,0.09194274246692657,0.1800614893436432,0.3139457404613495
1684200497406585000,5.696585205078125,0.06709731370210648,0.18608716130256653,0.31360912322998047
1684200497416611000,5.706611083984375,0.04478485509753227,0.15645518898963928,0.28372371196746826
1684200497426637000,5.716636962890625,0.0431014709174633,0.08637464791536331,0.22594937682151794
1684200497436663000,5.7266630859375,0.06527020782232285,0.005985422991216183,0.14161957800388336
1684200497446688000,5.73668798828125,0.07934687286615372,-0.09007399529218674,0.06316658109426498
1684200497456714000,5.7467138671875,0.08514844626188278,-0.17657463252544403,-0.0037014996632933617
1684200497466740000,5.756739990234375,0.0792042687535286,-0.24612069129943848,-0.06010272353887558
1684200497476765000,5.766764892578125,0.08069612085819244,-0.3399026095867157,-0.11735281348228455
1684200497486791000,5.776791015625,0.09852465242147446,-0.4341289699077606,-0.15593747794628143
1684200497496817000,5.78681689453125,0.09124888479709625,-0.5134556293487549,-0.19015046954154968
1684200497506843000,5.7968427734375,0.0716986209154129,-0.5372459292411804,-0.2029656022787094
1684200497516867800,5.806867919921875,0.0312250554561615,-0.5286844372749329,-0.19354456663131714
1684200497526893800,5.816893798828125,-0.017641287297010422,-0.48472896218299866,-0.16706421971321106
1684200497536919800,5.826919921875,-0.06359679996967316,-0.4190419018268585,-0.13940122723579407
1684200497546945800,5.83694580078125,-0.09812654554843903,-0.35124021768569946,-0.127435103058815
1684200497556970800,5.846970703125,-0.12171512097120285,-0.3113289773464203,-0.12469524890184402
1684200497566996700,5.856996826171875,-0.14201666414737701,-0.30655285716056824,-0.12413065880537033
1684200497577022700,5.867022705078125,-0.15083107352256775,-0.34183168411254883,-0.10923159867525101
1684200497587048000,5.8770478515625,-0.1607407033443451,-0.40554648637771606,-0.09554241597652435
1684200497597074000,5.887073974609375,-0.17257057130336761,-0.4803442656993866,-0.07781956344842911
1684200497607099600,5.897099609375,-0.1826770007610321,-0.5171792507171631,-0.08919765800237656
1684200497617126000,5.9071259765625,-0.18567658960819244,-0.5038385391235352,-0.11454929411411285
1684200497627150800,5.91715087890625,-0.17839975655078888,-0.46387457847595215,-0.1488388180732727
1684200497637176800,5.9271767578125,-0.1760813295841217,-0.427755206823349,-0.1875302940607071
1684200497647203000,5.937203125,-0.16530725359916687,-0.41362422704696655,-0.21096956729888916
1684200497657229000,5.94722900390625,-0.1552826464176178,-0.4306943118572235,-0.2139599323272705
1684200497667254000,5.95725390625,-0.1382639855146408,-0.46012598276138306,-0.1976075917482376
1684200497677280000,5.967280029296875,-0.12567897140979767,-0.4752728044986725,-0.17049704492092133
1684200497687306000,5.977305908203125,-0.12457669526338577,-0.4409734308719635,-0.14355410635471344
1684200497697332000,5.98733203125,-0.1293366402387619,-0.38596397638320923,-0.1161801666021347
1684200497707357000,5.99735693359375,-0.13671652972698212,-0.351009726524353,-0.0909523069858551
1684200497717383000,6.0073828125,-0.14680589735507965,-0.35813581943511963,-0.06941532343626022
1684200497727409000,6.017408935546875,-0.16839641332626343,-0.3821045458316803,-0.06172570586204529
1684200497737433900,6.027433837890625,-0.20266607403755188,-0.3807069659233093,-0.0705476924777031
1684200497747459800,6.0374599609375,-0.22743426263332367,-0.34524059295654297,-0.10298020392656326
1684200497757485800,6.04748583984375,-0.22774715721607208,-0.2666274309158325,-0.1348934918642044
1684200497767511800,6.05751171875,-0.20870555937290192,-0.1757800579071045,-0.14566704630851746
1684200497777536800,6.067536865234375,-0.18349742889404297,-0.1309865564107895,-0.11898543685674667
1684200497787562800,6.077562744140625,-0.15033307671546936,-0.1450003832578659,-0.04992354288697243
1684200497797588700,6.087588623046875,-0.12306813150644302,-0.13512898981571198,0.03087426908314228
1684200497807614700,6.09761474609375,-0.0978594496846199,0.026396512985229492,0.06820832192897797
1684200497817640000,6.107639892578125,-0.0389796607196331,0.32774361968040466,0.05491217225790024
1684200497827666000,6.117666015625,0.04006189480423927,0.6343680024147034,0.0017072749324142933
1684200497837692000,6.12769189453125,0.13182325661182404,0.8044073581695557,-0.049260254949331284
1684200497847718000,6.1377177734375,0.23229287564754486,0.7241689562797546,-0.07145263999700546
1684200497857742800,6.147742919921875,0.33862534165382385,0.4429842233657837,-0.07601101696491241
1684200497867768800,6.157768798828125,0.41325643658638,0.14748971164226532,-0.09728594124317169
1684200497877795000,6.167795166015625,0.4552629590034485,-0.046661317348480225,-0.1639457643032074
1684200497887819800,6.17781982421875,0.48673221468925476,-0.20120614767074585,-0.3225039839744568
1684200497897846000,6.187845947265625,0.527727484703064,-0.35463470220565796,-0.6175081729888916
1684200497907872000,6.1978720703125,0.5896427631378174,-0.47272804379463196,-1.0809229612350464
1684200497917898000,6.20789794921875,0.6640896201133728,-0.5218112468719482,-1.639225959777832
1684200497927923000,6.2179228515625,0.7156563997268677,-0.45531323552131653,-2.1876652240753174
1684200497937949000,6.227948974609375,0.7686216831207275,-0.27214351296424866,-2.5890846252441406
1684200497947975000,6.237974853515625,0.7820847630500793,-0.025124412029981613,-2.7362163066864014
1684200497958001000,6.2480009765625,0.791828453540802,0.2604627311229706,-2.6493420600891113
1684200497968025900,6.25802587890625,0.8011921644210815,0.5703215003013611,-2.4127211570739746
1684200497978051800,6.2680517578125,0.777846097946167,0.8607539534568787,-2.076556921005249
1684200497988077800,6.278077880859375,0.686387836933136,0.9992066025733948,-1.6855049133300781
1684200497998103800,6.288103759765625,0.6030037999153137,0.9832203388214111,-1.2716631889343262
1684200498008128800,6.298128662109375,0.5281630754470825,0.8653397560119629,-0.7921473979949951
1684200498018154800,6.30815478515625,0.5482865571975708,0.5940277576446533,-0.3321389853954315
1684200498028180700,6.3181806640625,0.6819993853569031,0.29680967330932617,0.017971353605389595
1684200498038206000,6.3282060546875,0.822071373462677,0.17591187357902527,0.3259976804256439
1684200498048232000,6.33823193359375,0.846290111541748,0.01959151402115822,0.5476285815238953
1684200498058258000,6.3482578125,0.8619503974914551,-0.18860988318920135,0.608482301235199
1684200498068284000,6.358283935546875,0.9627542495727539,-0.22282537817955017,0.5290492177009583
1684200498078308900,6.368308837890625,1.1280485391616821,-0.02347552962601185,0.42305126786231995
1684200498088334800,6.3783349609375,1.224000334739685,0.3673068583011627,0.48583394289016724
1684200498098360800,6.38836083984375,1.2463781833648682,0.8462865352630615,0.6730569005012512
1684200498108386800,6.39838671875,1.1654479503631592,1.3490186929702759,0.8349315524101257
1684200498118411800,6.408411865234375,1.0101075172424316,1.8471983671188354,0.9193409085273743
1684200498128437800,6.418437744140625,0.8447326421737671,2.278543710708618,0.9743388891220093
1684200498138464000,6.428464111328125,0.7564061284065247,2.583940267562866,1.090578317642212
1684200498148490000,6.438489990234375,0.7399691343307495,2.61427640914917,1.2910882234573364
1684200498158515000,6.448514892578125,0.7928177714347839,2.4603068828582764,1.57816481590271
1684200498168541000,6.458541015625,0.8445438146591187,2.2143521308898926,1.900477647781372
1684200498178567000,6.46856689453125,0.8515984416007996,1.9402883052825928,2.220449209213257
1684200498188591900,6.478591796875,0.796560525894165,1.7394756078720093,2.4241628646850586
1684200498198617900,6.488617919921875,0.6734396815299988,1.722843050956726,2.4119279384613037
1684200498208643800,6.498643798828125,0.526155948638916,1.9509207010269165,2.210476875305176
1684200498218669800,6.508669921875,0.43322888016700745,2.3980462551116943,1.8838247060775757
1684200498228695000,6.518695068359375,0.4070659875869751,2.89756441116333,1.517388939857483
1684200498238720800,6.528720703125,0.4273012578487396,3.1679904460906982,1.2835562229156494
1684200498248746800,6.538746826171875,0.48927512764930725,3.051499366760254,1.2616477012634277
1684200498258772700,6.548772705078125,0.5754157900810242,2.6082804203033447,1.4221465587615967
1684200498268798000,6.5587978515625,0.6572182178497314,2.099264621734619,1.6895779371261597
1684200498278824000,6.568823974609375,0.6599767208099365,1.7411481142044067,1.8941320180892944
1684200498288850000,6.578849853515625,0.5759567022323608,1.557390570640564,1.9433294534683228
1684200498298876000,6.5888759765625,0.485755056142807,1.546854019165039,1.9066665172576904
1684200498308900900,6.59890087890625,0.41716188192367554,1.6651537418365479,1.8322850465774536
1684200498318926800,6.6089267578125,0.367039293050766,1.8124028444290161,1.7534154653549194
1684200498328952800,6.618952880859375,0.32697442173957825,1.9489891529083252,1.6899100542068481
1684200498338977800,6.628977783203125,0.28727978467941284,2.0453147888183594,1.6469138860702515
1684200498349003800,6.639003662109375,0.2456308752298355,2.077012777328491,1.633785605430603
1684200498359029800,6.64902978515625,0.20308829843997955,2.03926944732666,1.6628388166427612
1684200498369056000,6.659055908203125,0.15979142487049103,1.9771296977996826,1.6995741128921509
1684200498379080700,6.669080810546875,0.10637325793504715,1.9347457885742188,1.7252707481384277
1684200498389106700,6.679106689453125,0.04326912760734558,1.8973902463912964,1.7155334949493408
1684200498399133000,6.6891328125,-0.035540804266929626,1.8654145002365112,1.6947001218795776
1684200498409159000,6.699158935546875,-0.12339848279953003,1.8507803678512573,1.6788612604141235
1684200498419183900,6.709183837890625,-0.2245817333459854,1.8269857168197632,1.6653170585632324
1684200498429209900,6.7192099609375,-0.3353431224822998,1.8186838626861572,1.6393903493881226
1684200498439235800,6.72923583984375,-0.41446757316589355,1.7938323020935059,1.5764904022216797
1684200498449261800,6.73926171875,-0.4751005470752716,1.7680917978286743,1.492382287979126
1684200498459287000,6.749287109375,-0.5346054434776306,1.764599084854126,1.394595742225647
1684200498469313000,6.75931298828125,-0.6040111184120178,1.806587815284729,1.278113603591919
1684200498479339000,6.769339111328125,-0.6702243089675903,1.9319900274276733,1.1362154483795166
1684200498489364000,6.779364013671875,-0.7111160755157471,2.1754343509674072,0.9703341126441956
1684200498499390000,6.789389892578125,-0.7241618037223816,2.508786916732788,0.7933239936828613
1684200498509416000,6.799416015625,-0.7225532531738281,2.8878695964813232,0.6901360750198364
1684200498519442000,6.80944189453125,-0.7060022354125977,3.242684841156006,0.6802692413330078
1684200498529467000,6.819466796875,-0.6562104225158691,3.4209978580474854,0.7967793345451355
1684200498539492900,6.829492919921875,-0.5295294523239136,3.3749709129333496,1.007746934890747
1684200498549518800,6.839518798828125,-0.35774433612823486,3.084840774536133,1.2697972059249878
1684200498559544800,6.849544921875,-0.22388498485088348,2.60184907913208,1.4894239902496338
1684200498569569800,6.85956982421875,-0.11735907942056656,2.054842948913574,1.5965958833694458
1684200498579595800,6.869595703125,0.009682351723313332,1.7142765522003174,1.6505674123764038
1684200498589621800,6.879621826171875,0.038831181824207306,1.5150814056396484,1.609360694885254
1684200498599646700,6.889646728515625,-0.006419049110263586,1.4295072555541992,1.584502100944519
1684200498609672700,6.899672607421875,-0.05609872192144394,1.432047963142395,1.6990153789520264
1684200498619698700,6.90969873046875,-0.133989617228508,1.4306763410568237,1.845070242881775
1684200498629725000,6.919724853515625,-0.30187317728996277,1.4319096803665161,1.9276961088180542
1684200498639750000,6.92975,-0.5127202272415161,1.538530707359314,1.9079835414886475
1684200498649775900,6.93977587890625,-0.6698701977729797,1.8335726261138916,1.7704826593399048
1684200498659801900,6.9498017578125,-0.7480685114860535,2.124837636947632,1.4903451204299927
1684200498669827800,6.959827880859375,-0.7234464883804321,1.931893229484558,1.1409344673156738
1684200498679853000,6.96985302734375,-0.3771896958351135,0.8208341002464294,1.1046890020370483
1684200498689879000,6.979879150390625,-0.03717938810586929,-0.05810654163360596,1.2892396450042725
1684200498699905000,6.989905029296875,0.17334140837192535,0.22878983616828918,1.1757948398590088
1684200498709931000,6.999930908203125,0.14730234444141388,1.2424284219741821,0.6509526968002319
1684200498719956000,7.0099560546875,-0.1008465588092804,2.088674545288086,0.31609928607940674
1684200498729982000,7.01998193359375,-0.32028651237487793,2.273660898208618,0.3643725514411926
1684200498740008000,7.030008056640625,-0.378970205783844,2.088327646255493,0.6560767889022827
1684200498750033000,7.040032958984375,-0.33572712540626526,2.1467339992523193,1.1583393812179565
1684200498760059000,7.050058837890625,-0.312410444021225,2.3984811305999756,1.6496576070785522
1684200498770084900,7.0600849609375,-0.3299066126346588,2.6221094131469727,2.0087647438049316
1684200498780110800,7.07011083984375,-0.3480969965457916,2.820749521255493,2.2623374462127686
1684200498790135800,7.0801357421875,-0.33739084005355835,2.84820556640625,2.4024746417999268
1684200498800161800,7.090161865234375,-0.3162608742713928,2.719271183013916,2.435250997543335
1684200498810187800,7.100187744140625,-0.38670095801353455,2.5534050464630127,2.2871344089508057
1684200498820213800,7.1102138671875,-0.45971378684043884,2.57523512840271,1.9853291511535645
1684200498830238700,7.12023876953125,-0.42286017537117004,2.8289976119995117,1.6779918670654297
1684200498840264700,7.1302646484375,-0.3199864625930786,3.1055989265441895,1.4485610723495483
1684200498850290700,7.140290771484375,-0.24073344469070435,3.228684902191162,1.3041255474090576
1684200498860316700,7.150316650390625,-0.20890580117702484,3.079378128051758,1.1838539838790894
1684200498870342000,7.160341796875,-0.1647130399942398,2.815053939819336,1.0855871438980103
1684200498880367900,7.170367919921875,-0.12954260408878326,2.631011724472046,1.0143111944198608
1684200498890393900,7.180393798828125,-0.11133138090372086,2.527702569961548,0.9554745554924011
1684200498900418800,7.190418701171875,-0.08520901203155518,2.540081739425659,0.9196253418922424
1684200498910445000,7.200445068359375,-0.07179012894630432,2.6495978832244873,0.9377084970474243
1684200498920471000,7.210470947265625,-0.09540605545043945,2.811112880706787,0.9939213395118713
1684200498930497000,7.2204970703125,-0.12497033923864365,2.9292752742767334,1.050755500793457
1684200498940522000,7.23052197265625,-0.1695159524679184,2.972902536392212,1.1189799308776855
1684200498950548000,7.2405478515625,-0.21656841039657593,2.928462028503418,1.1852394342422485
1684200498960574000,7.250573974609375,-0.23504513502120972,2.8079726696014404,1.2199753522872925
1684200498970600000,7.260599853515625,-0.21942409873008728,2.690370798110962,1.224219799041748
1684200498980625000,7.270625,-0.20763099193572998,2.6019232273101807,1.198830246925354
1684200498990651000,7.28065087890625,-0.21905195713043213,2.5102877616882324,1.1413060426712036
1684200499000676900,7.2906767578125,-0.24169394373893738,2.415025234222412,1.0901808738708496
1684200499010702800,7.300702880859375,-0.25721219182014465,2.3023245334625244,1.054427146911621
1684200499020727800,7.310727783203125,-0.2565849721431732,2.208568811416626,1.038949966430664
1684200499030753800,7.32075390625,-0.2505182921886444,2.151885509490967,1.033896803855896
1684200499040779800,7.33077978515625,-0.24796776473522186,2.0996456146240234,1.0200234651565552
1684200499050804700,7.3408046875,-0.2468300610780716,2.0380241870880127,0.9881159067153931
1684200499060830700,7.350830810546875,-0.22445976734161377,1.9790120124816895,0.9463058710098267
1684200499070856700,7.360856689453125,-0.20555409789085388,1.8969796895980835,0.8818382620811462
1684200499080882700,7.370882568359375,-0.18810662627220154,1.8282808065414429,0.8006079196929932
1684200499090908000,7.380907958984375,-0.17321529984474182,1.7942129373550415,0.7190731167793274
1684200499100934000,7.390933837890625,-0.1575665920972824,1.7593538761138916,0.6319119930267334
1684200499110959900,7.4009599609375,-0.1453501433134079,1.7038359642028809,0.5565072298049927
1684200499120986000,7.410986083984375,-0.12964464724063873,1.6245501041412354,0.5074783563613892
1684200499131010800,7.4210107421875,-0.11827588826417923,1.5358684062957764,0.4703778624534607
1684200499141037000,7.431037109375,-0.09816532582044601,1.491442322731018,0.41456082463264465
1684200499151063000,7.44106298828125,-0.0799461081624031,1.4861661195755005,0.35537979006767273
1684200499161089000,7.451089111328125,-0.07060898095369339,1.4974240064620972,0.3013758063316345
1684200499171114000,7.461114013671875,-0.06611037254333496,1.5050231218338013,0.2724437415599823
1684200499181140000,7.471139892578125,-0.05733977258205414,1.4973623752593994,0.2612834572792053
1684200499191166000,7.481166015625,-0.03377559036016464,1.4600285291671753,0.27196353673934937
1684200499201192000,7.49119189453125,-0.007727028802037239,1.4013770818710327,0.29775160551071167
1684200499211217000,7.501216796875,0.008523846976459026,1.3656941652297974,0.31005194783210754
1684200499221243000,7.511242919921875,0.007388382218778133,1.3523441553115845,0.3028601408004761
1684200499231268900,7.521268798828125,0.001994948135688901,1.3073604106903076,0.2852425277233124
1684200499241293800,7.5312939453125,-0.002881009131669998,1.1776090860366821,0.2791873514652252
1684200499251319800,7.54131982421875,-0.0005422208923846483,1.0691989660263062,0.2850164771080017
1684200499261345300,7.55134521484375,-0.0033073509112000465,1.0330218076705933,0.3083288073539734
1684200499271371500,7.56137158203125,-0.013171698898077011,1.0738587379455566,0.34041404724121094
1684200499281396500,7.571396484375,-0.005749957635998726,1.1558873653411865,0.3623519539833069
1684200499291422700,7.581422607421875,-0.010111948475241661,1.263505458831787,0.37367358803749084
1684200499301448700,7.59144873046875,-0.010853271931409836,1.3868929147720337,0.3399102985858917
1684200499311474700,7.601474609375,0.029031824320554733,1.4955507516860962,0.2620474696159363
1684200499321499600,7.611499755859375,0.0649389997124672,1.437696933746338,0.158534973859787
1684200499331525600,7.621525634765625,0.11384608596563339,1.2230887413024902,0.04998079314827919
1684200499341551600,7.631551513671875,0.16857320070266724,0.9980011582374573,-0.06055823713541031
1684200499351577600,7.64157763671875,0.24119865894317627,0.8865273594856262,-0.16579437255859375
1684200499361602600,7.6516025390625,0.33250775933265686,0.8572081327438354,-0.27817821502685547
1684200499371628500,7.661628662109375,0.42397645115852356,0.7871382236480713,-0.43330949544906616
1684200499381654500,7.671654541015625,0.5368825197219849,0.6721484661102295,-0.6428436636924744
1684200499391679500,7.681679443359375,0.6936617493629456,0.5945274233818054,-0.871499240398407
1684200499401705500,7.69170556640625,0.8444394469261169,0.5117875933647156,-1.1094558238983154
1684200499411731500,7.7017314453125,0.9851169586181641,0.4045465886592865,-1.3126840591430664
1684200499421757400,7.71175732421875,1.1121410131454468,0.27425268292427063,-1.4156525135040283
1684200499431782400,7.721782470703125,1.2151206731796265,0.08091943711042404,-1.3849071264266968
1684200499441808400,7.731808349609375,1.247617483139038,-0.12834466993808746,-1.1983187198638916
1684200499451834400,7.74183447265625,1.1848076581954956,-0.3615449070930481,-0.876406192779541
1684200499461860400,7.7518603515625,1.0171892642974854,-0.6046143770217896,-0.46510422229766846
1684200499471885600,7.761885498046875,0.7800248265266418,-0.8344882726669312,-0.03235892578959465
1684200499481911300,7.771911376953125,0.5842611789703369,-0.9880452752113342,0.29400673508644104
1684200499491937300,7.781937255859375,0.4834008812904358,-1.0014897584915161,0.47296154499053955
1684200499501963300,7.79196337890625,0.5023026466369629,-0.8073261380195618,0.49747008085250854
1684200499511988500,7.801988525390625,0.629077672958374,-0.41302329301834106,0.4109248220920563
1684200499522014500,7.812014404296875,0.7960933446884155,-0.0464506521821022,0.29447656869888306
1684200499532040700,7.822040771484375,1.005566954612732,0.3005041182041168,0.235850527882576
1684200499542065400,7.8320654296875,1.186598539352417,0.6195454001426697,0.16288204491138458
1684200499552091600,7.842091552734375,1.2318000793457031,0.8747419714927673,0.16262505948543549
1684200499562117600,7.85211767578125,1.1312862634658813,1.087714672088623,0.32131823897361755
1684200499572143600,7.8621435546875,0.9693895578384399,1.2885862588882446,0.5480416417121887
1684200499582168600,7.87216845703125,0.8789345026016235,1.571508765220642,0.7371522188186646
1684200499592194600,7.882194580078125,0.8072965145111084,1.720064640045166,0.7506166100502014
1684200499602220500,7.892220458984375,0.7572667002677917,1.740029215812683,0.6666851043701172
1684200499612246500,7.90224658203125,0.7399591207504272,1.687135934829712,0.5477837920188904
1684200499622271500,7.912271484375,0.7366385459899902,1.5726919174194336,0.4294476807117462
1684200499632297500,7.92229736328125,0.7503144145011902,1.4422398805618286,0.31287768483161926
1684200499642323500,7.932323486328125,0.7463282346725464,1.2255407571792603,0.23794583976268768
1684200499652348400,7.942348388671875,0.6824831962585449,0.9109122157096863,0.24705040454864502
1684200499662374400,7.95237451171875,0.5866048336029053,0.6582204103469849,0.30049726366996765
1684200499672400400,7.962400390625,0.47753962874412537,0.5351706147193909,0.34589883685112
1684200499682426400,7.97242626953125,0.39469799399375916,0.48403674364089966,0.33963730931282043
1684200499692451600,7.98245166015625,0.36091235280036926,0.4768107831478119,0.29873648285865784
1684200499702477600,7.9924775390625,0.3698142170906067,0.5204819440841675,0.2643261253833771
1684200499712503600,8.002503662109374,0.3767155408859253,0.5524124503135681,0.27312201261520386
1684200499722529500,8.012529541015626,0.3879908621311188,0.558350682258606,0.32490989565849304
1684200499732554500,8.022554443359375,0.38968250155448914,0.5670275688171387,0.387718141078949
1684200499742580500,8.03258056640625,0.37440967559814453,0.6360634565353394,0.42795035243034363
1684200499752606500,8.0426064453125,0.3406139016151428,0.7820925712585449,0.4668008089065552
1684200499762632700,8.0526328125,0.2861845791339874,0.9427790641784668,0.5291678309440613
1684200499772657400,8.062657470703124,0.20172694325447083,1.028251051902771,0.6135668754577637
1684200499782683600,8.07268359375,0.11363453418016434,0.9607553482055664,0.6838405728340149
1684200499792709600,8.082709716796876,0.07108121365308762,0.7469999194145203,0.7279486656188965
1684200499802734300,8.092734375,0.043494634330272675,0.5126646161079407,0.7310448288917542
1684200499812760600,8.102760498046875,-0.0033684789668768644,0.3000541031360626,0.7020305395126343
1684200499822786600,8.11278662109375,-0.08014246821403503,0.09923999011516571,0.6555972695350647
1684200499832812500,8.1228125,-0.15557943284511566,-0.032734282314777374,0.5850285291671753
1684200499842837500,8.13283740234375,-0.23410950601100922,-0.04678476229310036,0.5200390219688416
1684200499852863500,8.142863525390625,-0.3114445209503174,0.01397179625928402,0.5107054710388184
1684200499862889500,8.152889404296875,-0.391192764043808,0.08582785725593567,0.5680238008499146
1684200499872915500,8.16291552734375,-0.4542662501335144,0.14796552062034607,0.6575602889060974
1684200499882940400,8.1729404296875,-0.4967440366744995,0.15906716883182526,0.7758582830429077
1684200499892966400,8.18296630859375,-0.5100494027137756,0.07946289330720901,0.9064285755157471
1684200499902992400,8.192992431640626,-0.5069908499717712,-0.06391486525535583,1.0191797018051147
1684200499913018400,8.203018310546875,-0.4997713267803192,-0.240910142660141,1.095457911491394
1684200499923043600,8.213043701171875,-0.5035070776939392,-0.3833926022052765,1.111520528793335
1684200499933069600,8.223069580078125,-0.5088080763816833,-0.43741562962532043,1.0659804344177246
1684200499943095600,8.233095458984375,-0.5083273649215698,-0.43176722526550293,0.9930721521377563
1684200499953121500,8.24312158203125,-0.5084275007247925,-0.40197497606277466,0.9020612835884094
1684200499963146500,8.253146484375,-0.49670830368995667,-0.37200143933296204,0.7966209053993225
1684200499973172500,8.26317236328125,-0.45526793599128723,-0.3654117286205292,0.7156161069869995
1684200499983198500,8.273198486328125,-0.41055870056152344,-0.38181525468826294,0.6689512133598328
1684200499993223400,8.283223388671875,-0.3754206895828247,-0.4064710736274719,0.6338257193565369
1684200500003249400,8.29324951171875,-0.3614926338195801,-0.39260873198509216,0.6063249111175537
1684200500013275400,8.303275390625,-0.37489017844200134,-0.34458979964256287,0.5763968229293823
1684200500023301600,8.313301513671876,-0.4024575650691986,-0.2752625048160553,0.5294783711433411
1684200500033326300,8.323326416015625,-0.41025370359420776,-0.15928049385547638,0.44520288705825806
1684200500043352600,8.3333525390625,-0.3795911371707916,0.04216332733631134,0.31386399269104004
1684200500053378600,8.343378662109375,-0.310676246881485,0.27696382999420166,0.15307830274105072
1684200500063404500,8.353404541015625,-0.21916745603084564,0.4068952798843384,0.04836297407746315
1684200500073429500,8.363429443359376,-0.15487448871135712,0.31986159086227417,0.03927120938897133
1684200500083455500,8.37345556640625,-0.12339557707309723,0.1158687099814415,0.11584092676639557
1684200500093481500,8.3834814453125,-0.13056986033916473,-0.054093167185783386,0.19396847486495972
1684200500103507500,8.393507568359375,-0.19409175217151642,-0.07504858076572418,0.25165238976478577
1684200500113532400,8.403532470703125,-0.294412761926651,0.09095210582017899,0.2983520030975342
1684200500123558400,8.413558349609374,-0.3722105026245117,0.32625749707221985,0.32037195563316345
1684200500133584400,8.42358447265625,-0.4105653464794159,0.48118290305137634,0.33556634187698364
1684200500143610400,8.4336103515625,-0.43815529346466064,0.493467777967453,0.38399121165275574
1684200500153635600,8.443635498046875,-0.4536471664905548,0.40337225794792175,0.46211397647857666
1684200500163661600,8.45366162109375,-0.4426644444465637,0.26572781801223755,0.5143440961837769
1684200500173687600,8.4636875,-0.4075176417827606,0.1012461930513382,0.5132927298545837
1684200500183712500,8.47371240234375,-0.3549756705760956,-0.11688661575317383,0.4392452538013458
1684200500193738500,8.483738525390624,-0.27715596556663513,-0.3952854871749878,0.28919345140457153
1684200500203764500,8.493764404296876,-0.17135325074195862,-0.6791369915008545,0.07803314924240112
1684200500213790500,8.50379052734375,-0.08774837106466293,-0.8614162802696228,-0.1328764259815216
1684200500223815400,8.5138154296875,-0.039404500275850296,-0.9146166443824768,-0.292572021484375
1684200500233841400,8.52384130859375,-0.017476297914981842,-0.8479787707328796,-0.3702718913555145
1684200500243867400,8.533867431640624,-0.03423279523849487,-0.7104513049125671,-0.3825578987598419
1684200500253893400,8.543893310546874,-0.08197662234306335,-0.5713754296302795,-0.360992968082428
1684200500263919000,8.553919189453126,-0.15372152626514435,-0.44478413462638855,-0.32295769453048706
1684200500273945000,8.563945068359375,-0.22555282711982727,-0.3553898334503174,-0.28195273876190186
1684200500283971000,8.57397119140625,-0.28108781576156616,-0.30541205406188965,-0.26008111238479614
1684200500293997000,8.5839970703125,-0.3131570816040039,-0.2150544822216034,-0.24674664437770844
1684200500304022000,8.59402197265625,-0.32867106795310974,-0.06877447664737701,-0.21854089200496674
1684200500314048000,8.604048095703124,-0.3180503845214844,0.12544479966163635,-0.17322933673858643
1684200500324074000,8.614073974609376,-0.3114573061466217,0.37827038764953613,-0.07686807215213776
1684200500334099000,8.624098876953125,-0.29621416330337524,0.7175257205963135,0.08809424936771393
1684200500344125000,8.634125,-0.27566099166870117,1.0767384767532349,0.324275404214859
1684200500354151000,8.64415087890625,-0.25281426310539246,1.1749849319458008,0.545264482498169
1684200500364177000,8.654177001953125,-0.22835971415042877,1.0018117427825928,0.6777365803718567
1684200500374202000,8.6642021484375,-0.19890809059143066,0.7218749523162842,0.6900896430015564
1684200500384228000,8.67422802734375,-0.14886856079101562,0.4512483477592468,0.6160468459129333
1684200500394254000,8.684254150390625,-0.083088219165802,0.30713456869125366,0.5149601697921753
1684200500404280000,8.694280029296875,-0.0306460689753294,0.2311778962612152,0.39151209592819214
1684200500414305000,8.704304931640625,0.009794828481972218,0.18863388895988464,0.27087727189064026
1684200500424331000,8.7143310546875,0.03431761637330055,0.18733204901218414,0.17025868594646454
1684200500434357000,8.72435693359375,0.03599940240383148,0.16070948541164398,0.10354995727539062
1684200500444383200,8.73438330078125,0.050941936671733856,0.11715962737798691,0.08195427805185318
1684200500454408000,8.744407958984375,0.013272324576973915,0.11485972255468369,0.08305735886096954
1684200500464434200,8.75443408203125,-0.05023115500807762,0.2194852977991104,0.11957792937755585
1684200500474460200,8.764460205078125,-0.08430257439613342,0.4563031792640686,0.22126300632953644
1684200500484485000,8.774485107421874,-0.10553989559412003,0.6445955038070679,0.3482292592525482
1684200500494511000,8.784510986328126,-0.12749232351779938,0.6751276254653931,0.45798054337501526
1684200500504537000,8.794537109375,-0.11366738379001617,0.5994370579719543,0.5496867895126343
1684200500514563000,8.80456298828125,-0.08064978569746017,0.4821285009384155,0.6140646934509277
1684200500524588000,8.814588134765625,-0.047938961535692215,0.3347953259944916,0.6271284222602844
1684200500534614000,8.824614013671875,-0.022524947300553322,0.14496970176696777,0.586293637752533
1684200500544640000,8.834639892578124,0.010350845754146576,-0.05264013633131981,0.5057893991470337
1684200500554666000,8.844666015625,0.031953610479831696,-0.23481179773807526,0.39272621273994446
1684200500564691000,8.85469091796875,0.05272480472922325,-0.3978029787540436,0.2649817168712616
1684200500574717000,8.864717041015625,0.04969146475195885,-0.5032241940498352,0.12823054194450378
1684200500584743000,8.874742919921875,0.04643819481134415,-0.4934816360473633,0.014572948217391968
1684200500594769000,8.884768798828125,0.03357512876391411,-0.3997943103313446,-0.044470131397247314
1684200500604794000,8.894794189453124,0.013037513941526413,-0.26017066836357117,-0.04823318123817444
1684200500614820000,8.904820068359374,-0.014082786627113819,-0.11771766096353531,-0.012324448674917221
1684200500624846000,8.91484619140625,-0.03633258491754532,-0.018329503014683723,0.05422794818878174
1684200500634871000,8.92487109375,-0.026069028303027153,0.025452332571148872,0.12548722326755524
1684200500644897000,8.93489697265625,-0.017046505585312843,0.016916900873184204,0.1918710321187973
1684200500654923000,8.944923095703125,0.0021876441314816475,-0.09167695045471191,0.2039540559053421
1684200500664949000,8.954948974609374,0.03560357913374901,-0.23896940052509308,0.16614186763763428
1684200500674974000,8.964973876953126,0.07409344613552094,-0.3752012848854065,0.10554322600364685
1684200500685000000,8.975,0.09143628925085068,-0.506075382232666,0.02176753245294094
1684200500695026000,8.98502587890625,0.0937039703130722,-0.5961818695068359,-0.061679691076278687
1684200500705052200,8.99505224609375,0.0717606469988823,-0.6363645792007446,-0.1271495670080185
1684200500715076900,9.005076904296875,0.05258775129914284,-0.6096293926239014,-0.16375099122524261
1684200500725103000,9.01510302734375,0.02066817879676819,-0.5134256482124329,-0.1740654706954956
1684200500735129000,9.025129150390624,-0.020037971436977386,-0.3599621057510376,-0.17067286372184753
1684200500745155000,9.035155029296876,-0.06428021937608719,-0.22361157834529877,-0.16281439363956451
1684200500755180000,9.045179931640625,-0.08757462352514267,-0.16783273220062256,-0.16149507462978363
1684200500765206000,9.0552060546875,-0.10966832935810089,-0.1797327697277069,-0.16520348191261292
1684200500775232000,9.06523193359375,-0.1278230845928192,-0.23402664065361023,-0.16660936176776886
1684200500785258000,9.075258056640624,-0.15049973130226135,-0.310275137424469,-0.14878349006175995
1684200500795283200,9.085283203125,-0.16702385246753693,-0.3878415524959564,-0.10979480296373367
1684200500805309200,9.09530908203125,-0.18435628712177277,-0.4472539722919464,-0.04290344938635826
1684200500815335000,9.1053349609375,-0.20591804385185242,-0.4716341495513916,0.03057502955198288
1684200500825360100,9.115360107421875,-0.23270896077156067,-0.4402473568916321,0.08600766211748123
1684200500835386000,9.12538623046875,-0.24976304173469543,-0.370988130569458,0.10444579273462296
1684200500845412000,9.135412109375,-0.2601245939731598,-0.31459543108940125,0.08196072280406952
1684200500855438000,9.14543798828125,-0.25425365567207336,-0.3138987421989441,0.04611750692129135
1684200500865463000,9.155463134765625,-0.23421354591846466,-0.3576764464378357,0.02053150162100792
1684200500875489000,9.165489013671875,-0.20946186780929565,-0.4204964339733124,-0.00019028782844543457
1684200500885515000,9.175514892578125,-0.1917952299118042,-0.4969545602798462,-0.007357967086136341
1684200500895541000,9.185541015625,-0.16336305439472198,-0.5541350245475769,-0.017464663833379745
1684200500905566000,9.19556591796875,-0.14552919566631317,-0.5635021328926086,-0.0365012064576149
1684200500915592000,9.205592041015626,-0.12590888142585754,-0.528574526309967,-0.06866366416215897
1684200500925618000,9.215617919921876,-0.11579921096563339,-0.4745391607284546,-0.09632091224193573
1684200500935644200,9.22564404296875,-0.10550688952207565,-0.41979601979255676,-0.12212109565734863
1684200500945668900,9.2356689453125,-0.08037362992763519,-0.3209940493106842,-0.15534381568431854
1684200500955695000,9.245695068359375,-0.030127767473459244,-0.14859643578529358,-0.1997126191854477
1684200500965721000,9.25572119140625,0.02445390075445175,0.0630495622754097,-0.2429821640253067
1684200500975747000,9.2657470703125,0.07795654237270355,0.26494354009628296,-0.27207931876182556
1684200500985772000,9.27577197265625,0.12981955707073212,0.42145052552223206,-0.28044793009757996
1684200500995798000,9.285798095703125,0.18492142856121063,0.4818965494632721,-0.24448488652706146
1684200501005824000,9.295823974609375,0.23745480179786682,0.36372244358062744,-0.15585072338581085
1684200501015849200,9.30584912109375,0.287504106760025,0.06337031722068787,-0.026125214993953705
1684200501025875200,9.315875244140624,0.30323347449302673,-0.3411397635936737,0.10018425434827805
1684200501035901200,9.325901123046876,0.29403412342071533,-0.7998213171958923,0.16896437108516693
1684200501045927200,9.33592724609375,0.30957189202308655,-1.267372488975525,0.1302640289068222
1684200501055952100,9.3459521484375,0.34570565819740295,-1.604933738708496,-0.07903247326612473
1684200501065978000,9.35597802734375,0.4008089005947113,-1.6252096891403198,-0.5299177765846252
1684200501076004000,9.366004150390625,0.4583885669708252,-1.3268076181411743,-1.147770881652832
1684200501086030000,9.376030029296874,0.4857575297355652,-0.9398013949394226,-1.7028876543045044
1684200501096055000,9.386054931640626,0.5007479786872864,-0.6238244771957397,-2.050604820251465
1684200501106081000,9.3960810546875,0.5095266699790955,-0.3986319303512573,-2.2176599502563477
1684200501116107000,9.40610693359375,0.4890238344669342,-0.2936197519302368,-2.269803047180176
1684200501126133000,9.416133056640625,0.5211626291275024,-0.3349279463291168,-2.24127197265625
1684200501136158000,9.426157958984374,0.6630523800849915,-0.4326324164867401,-2.1691524982452393
1684200501146184000,9.436183837890624,0.822554349899292,-0.5496839284896851,-2.095487356185913
1684200501156210000,9.4462099609375,1.0439515113830566,-0.5577746033668518,-2.0895228385925293
1684200501166235000,9.45623486328125,1.2902930974960327,-0.2064417004585266,-2.031708002090454
1684200501176260900,9.4662607421875,1.441423773765564,0.4885525405406952,-1.8217759132385254
1684200501186286800,9.476286865234375,1.438503623008728,1.020365834236145,-1.6071014404296875
1684200501196313000,9.48631298828125,1.3518544435501099,1.0706548690795898,-1.455664873123169
1684200501206338000,9.496338134765624,1.3384217023849487,0.8051843047142029,-1.3121867179870605
1684200501216364000,9.506364013671876,1.333620309829712,0.36842429637908936,-1.1506409645080566
1684200501226390000,9.51639013671875,1.35094153881073,0.021670827642083168,-0.9609671235084534
1684200501236416000,9.526416015625,1.4397339820861816,-0.16758166253566742,-0.8315593600273132
1684200501246441200,9.536441162109375,1.614444375038147,-0.0769372209906578,-0.8022171258926392
1684200501256467200,9.54646728515625,1.8033429384231567,0.24234382808208466,-0.8183721303939819
1684200501266493000,9.556492919921874,1.9364113807678223,0.6382807493209839,-0.7874175310134888
1684200501276519000,9.566518798828126,1.986497402191162,0.9466361403465271,-0.6708991527557373
1684200501286544000,9.5765439453125,1.983411192893982,1.1973906755447388,-0.4962816536426544
1684200501296569900,9.58656982421875,1.9462473392486572,1.4727632999420166,-0.3749088943004608
1684200501306595800,9.596595947265625,1.860336184501648,1.7955958843231201,-0.32935822010040283
1684200501316621800,9.606621826171875,1.710013747215271,2.030972957611084,-0.3526283800601959
1684200501326646800,9.616646728515626,1.5814831256866455,2.1900179386138916,-0.3934141993522644
1684200501336672800,9.6266728515625,1.5364874601364136,2.2216336727142334,-0.3540617525577545
1684200501346698800,9.63669873046875,1.5432775020599365,1.89310884475708,-0.12552887201309204
1684200501356723700,9.6467236328125,1.5488914251327515,1.4098436832427979,0.24296340346336365
1684200501366749700,9.656749755859375,1.4727791547775269,1.2414628267288208,0.42069926857948303
1684200501376776000,9.66677587890625,1.3458507061004639,1.255218267440796,0.3533812165260315
1684200501386802000,9.676802001953124,1.1996020078659058,1.117422342300415,0.22816427052021027
1684200501396827000,9.686826904296876,1.0544989109039307,0.9056731462478638,0.141605943441391
1684200501406852900,9.696852783203125,0.9030054807662964,0.7506785988807678,0.12500527501106262
1684200501416878800,9.70687890625,0.8127091526985168,0.6966473460197449,0.12783488631248474
1684200501426904800,9.71690478515625,0.7352280616760254,0.6930043697357178,0.15386538207530975
1684200501436930000,9.726929931640624,0.6522189378738403,0.6504755020141602,0.20074687898159027
1684200501446956000,9.7369560546875,0.5741352438926697,0.517767608165741,0.2788412868976593
1684200501456982000,9.74698193359375,0.5046552419662476,0.3269007205963135,0.3484339416027069
1684200501467008000,9.757008056640625,0.424532026052475,0.13299091160297394,0.3711090087890625
1684200501477033000,9.767032958984375,0.3288763463497162,-0.02723764441907406,0.347984254360199
1684200501487059000,9.777058837890625,0.20797359943389893,-0.16858074069023132,0.32656532526016235
1684200501497085000,9.7870849609375,0.08356455713510513,-0.25264984369277954,0.3616143763065338
1684200501507110000,9.79710986328125,-0.052429843693971634,-0.28555551171302795,0.4421069622039795
1684200501517136000,9.807135986328126,-0.1941414475440979,-0.28087475895881653,0.5657407641410828
1684200501527161900,9.817161865234375,-0.33826395869255066,-0.23296502232551575,0.6929847598075867
1684200501537187800,9.827187744140625,-0.47319620847702026,-0.17884400486946106,0.7728859782218933
1684200501547212800,9.837212890625,-0.5842027068138123,-0.2676110863685608,0.7999294996261597
1684200501557238800,9.84723876953125,-0.6445070505142212,-0.4351247251033783,0.784951388835907
1684200501567264800,9.8572646484375,-0.6718119978904724,-0.6396418809890747,0.7375221252441406
1684200501577290800,9.867290771484376,-0.6754038333892822,-0.8801149129867554,0.6994096636772156
1684200501587315700,9.877315673828125,-0.6660280227661133,-1.099145531654358,0.6550824642181396
1684200501597341700,9.887341796875,-0.6718962788581848,-1.246845006942749,0.6021406650543213
1684200501607367700,9.89736767578125,-0.6894271373748779,-1.326263666152954,0.5366877913475037
1684200501617394000,9.907393798828124,-0.7182992696762085,-1.3448575735092163,0.47348248958587646
1684200501627419000,9.9174189453125,-0.7429689168930054,-1.3047986030578613,0.4441549479961395
1684200501637444900,9.92744482421875,-0.7689257860183716,-1.2102288007736206,0.4736984968185425
1684200501647470800,9.937470947265625,-0.7899360656738281,-1.1021629571914673,0.5457022786140442
1684200501657496000,9.94749609375,-0.810728132724762,-1.0461955070495605,0.632472038269043
1684200501667522000,9.95752197265625,-0.8228309154510498,-1.0060311555862427,0.7169216275215149
1684200501677548000,9.967548095703124,-0.8371192812919617,-0.9805052280426025,0.7934105396270752
1684200501687574000,9.977573974609374,-0.8689444065093994,-1.0242356061935425,0.8769780397415161
1684200501697599000,9.987598876953125,-0.9102955460548401,-1.092201590538025,0.9548113346099854
1684200501707625000,9.997625,-0.9357378482818604,-1.1234697103500366,1.0162878036499023
1684200501717651000,10.00765087890625,-0.9476318359375,-1.0845098495483398,1.0426373481750488
1684200501727677000,10.017677001953125,-0.9355365037918091,-0.9407608509063721,1.0092476606369019
1684200501737702000,10.027701904296874,-0.9407240748405457,-0.6970152854919434,0.9182606935501099
1684200501747728000,10.037727783203126,-0.9548940658569336,-0.4295711815357208,0.7892211079597473
1684200501757753900,10.04775390625,-0.9833589792251587,-0.18310600519180298,0.6364653706550598
1684200501767779800,10.05777978515625,-1.0331324338912964,-0.010905589908361435,0.5055924654006958
1684200501777804800,10.0678046875,-1.0793737173080444,0.016010180115699768,0.4327845275402069
1684200501787830800,10.077830810546875,-1.1318632364273071,-0.06768132746219635,0.443148672580719
1684200501797856800,10.087856689453124,-1.1750304698944092,-0.21962319314479828,0.5082448720932007
1684200501807882800,10.0978828125,-1.2097300291061401,-0.35478144884109497,0.5676466226577759
1684200501817907700,10.10790771484375,-1.2301300764083862,-0.449440598487854,0.5718714594841003
1684200501827933700,10.11793359375,-1.215783715248108,-0.4630090594291687,0.5136359930038452
1684200501837959700,10.127959716796875,-1.1203815937042236,-0.34065064787864685,0.3420485258102417
1684200501847986000,10.13798583984375,-0.9423254132270813,-0.08815062791109085,0.078919917345047
1684200501858011000,10.148010986328124,-0.7326400876045227,0.1470099538564682,-0.15918105840682983
1684200501868036900,10.158036865234376,-0.5411322712898254,0.169663205742836,-0.2337871640920639
1684200501878062800,10.168062744140625,-0.42106547951698303,0.01587923988699913,-0.12382018566131592
1684200501888088000,10.178088134765625,-0.3869486153125763,-0.14409013092517853,0.05467487871646881
1684200501898114000,10.188114013671875,-0.4054107069969177,-0.10921789705753326,0.22671562433242798
1684200501908140000,10.19814013671875,-0.4379241466522217,0.09764184802770615,0.365517795085907
1684200501918166000,10.208166015625,-0.46276453137397766,0.3002908527851105,0.42314034700393677
1684200501928191000,10.21819091796875,-0.4434443712234497,0.39812105894088745,0.3862132728099823
1684200501938217000,10.228217041015625,-0.40358108282089233,0.357243150472641,0.2932223677635193
1684200501948243000,10.238242919921875,-0.38421139121055603,0.17851585149765015,0.20210859179496765
1684200501958269000,10.24826904296875,-0.38978591561317444,-0.11090823262929916,0.13294443488121033
1684200501968294000,10.2582939453125,-0.39335188269615173,-0.38620835542678833,0.0866851732134819
1684200501978320000,10.26831982421875,-0.38810041546821594,-0.6423503756523132,0.044449299573898315
1684200501988345900,10.278345947265626,-0.36744415760040283,-0.8653244376182556,-0.02889239601790905
1684200501998371800,10.288371826171876,-0.3551509976387024,-0.9763500094413757,-0.13693764805793762
1684200502008396800,10.298396728515625,-0.36446255445480347,-0.9376780390739441,-0.25604987144470215
1684200502018422800,10.3084228515625,-0.3717782497406006,-0.7312702536582947,-0.34031015634536743
1684200502028448800,10.31844873046875,-0.36859583854675293,-0.42047473788261414,-0.37230563163757324
1684200502038474800,10.328474853515624,-0.37017136812210083,-0.08023781329393387,-0.3548635244369507
1684200502048499700,10.338499755859376,-0.4245206415653229,0.19588926434516907,-0.3026968836784363
1684200502058525700,10.348525634765625,-0.49246934056282043,0.41894713044166565,-0.21606692671775818
1684200502068551700,10.3585517578125,-0.5585245490074158,0.5865106582641602,-0.09485767781734467
1684200502078577000,10.368576904296875,-0.5880491733551025,0.7621331214904785,0.029696239158511162
1684200502088603000,10.378602783203124,-0.5564302206039429,0.9888507723808289,0.1576901525259018
1684200502098628900,10.38862890625,-0.48702743649482727,1.3564053773880005,0.3137687146663666
1684200502108654800,10.39865478515625,-0.4470018446445465,1.590772271156311,0.44442951679229736
1684200502118679800,10.4086796875,-0.3921489715576172,1.3801300525665283,0.5502039194107056
1684200502128706000,10.4187060546875,-0.32582607865333557,0.8711456656455994,0.6507539749145508
1684200502138732000,10.42873193359375,-0.24127578735351562,0.43954578042030334,0.6846994161605835
1684200502148758000,10.438758056640625,-0.15660406649112701,0.20101945102214813,0.5930154919624329
1684200502158783000,10.448782958984374,-0.07328920811414719,0.09809572994709015,0.42679107189178467
1684200502168809000,10.45880908203125,-0.018258389085531235,0.03747241571545601,0.24941252171993256
1684200502178835000,10.4688349609375,0.06456858664751053,-0.00945887342095375,0.0893607959151268
1684200502188861000,10.47886083984375,0.10867403447628021,-0.06587051600217819,-0.015562638640403748
1684200502198886000,10.488885986328125,0.10097510367631912,-0.14489848911762238,-0.036852750927209854
1684200502208912000,10.498911865234374,0.09388838708400726,-0.17503425478935242,0.034266650676727295
1684200502218937900,10.508937744140624,0.07749743014574051,-0.13065746426582336,0.16558845341205597
1684200502228963800,10.5189638671875,0.012665541842579842,-0.007521369028836489,0.3190877437591553
1684200502238988800,10.52898876953125,-0.07116304337978363,0.2003074586391449,0.4709542393684387
1684200502249014800,10.539014892578125,-0.11302242428064346,0.40191414952278137,0.5782986283302307
1684200502259040800,10.549040771484375,-0.09750498831272125,0.5059362053871155,0.6104525923728943
1684200502269066000,10.55906591796875,-0.05910104513168335,0.5007079839706421,0.5819908976554871
1684200502279091700,10.569091796875,-0.028803329914808273,0.40815967321395874,0.4987240135669708
1684200502289117700,10.57911767578125,-0.012955346144735813,0.28553175926208496,0.3993924856185913
1684200502299143700,10.589143798828125,0.00040147185791283846,0.19064494967460632,0.31057366728782654
1684200502309169000,10.5991689453125,-0.001888906816020608,0.11451653391122818,0.2366877794265747
1684200502319195000,10.60919482421875,-0.013915210030972958,0.06909552216529846,0.1825965791940689
1684200502329220900,10.619220947265624,-0.016987884417176247,0.05056944489479065,0.15881837904453278
1684200502339246800,10.629246826171874,-0.04163011536002159,0.09266123920679092,0.1656070351600647
1684200502349271800,10.639271728515626,-0.07244686782360077,0.15814270079135895,0.20317141711711884
1684200502359297800,10.6492978515625,-0.09942415356636047,0.26449552178382874,0.26576074957847595
1684200502369324000,10.659323974609375,-0.1356641799211502,0.38183140754699707,0.34751948714256287
1684200502379350000,10.66935009765625,-0.16114290058612823,0.44417041540145874,0.4240366220474243
1684200502389375000,10.679375,-0.16973471641540527,0.4333730936050415,0.4628041088581085
1684200502399401000,10.68940087890625,-0.1789282262325287,0.3632166385650635,0.44748881459236145
1684200502409427000,10.699427001953126,-0.19493281841278076,0.23152294754981995,0.3949156403541565
1684200502419452000,10.709451904296875,-0.1957099288702011,0.07484306395053864,0.31886693835258484
1684200502429478000,10.719477783203125,-0.18379853665828705,-0.09381122142076492,0.22039759159088135
1684200502439504000,10.72950390625,-0.16606801748275757,-0.21591103076934814,0.1200997456908226
1684200502449529900,10.73952978515625,-0.15143902599811554,-0.26732632517814636,0.030934879556298256
1684200502459554800,10.749554931640626,-0.13884307444095612,-0.3019106686115265,-0.03918987885117531
1684200502469580800,10.759580810546876,-0.12688152492046356,-0.3468334376811981,-0.0615064799785614
1684200502479606800,10.769606689453125,-0.1255592703819275,-0.38182711601257324,-0.03960597515106201
1684200502489632800,10.7796328125,-0.13603191077709198,-0.34903484582901,-0.007636963855475187
1684200502499658000,10.789657958984375,-0.14619746804237366,-0.23834189772605896,0.023238128051161766
1684200502509684000,10.79968408203125,-0.14683526754379272,-0.12360389530658722,0.043151963502168655
1684200502519710000,10.8097099609375,-0.1366311013698578,-0.07233511656522751,0.05227542296051979
1684200502529735700,10.819735595703126,-0.11458461731672287,-0.07571782171726227,0.04977482184767723
1684200502539761000,10.829760986328125,-0.08489330112934113,-0.1297253966331482,0.03837782144546509
1684200502549787000,10.839786865234375,-0.061000339686870575,-0.2006986141204834,0.022787731140851974
1684200502559812900,10.849812744140625,-0.03216895833611488,-0.26895996928215027,-0.003869712818413973
1684200502569838800,10.8598388671875,0.0019489505793899298,-0.29782992601394653,-0.034125033766031265
1684200502579863800,10.86986376953125,0.019749252125620842,-0.27333390712738037,-0.06314310431480408
1684200502589889800,10.879889892578126,0.01953871175646782,-0.2273397445678711,-0.0629231184720993
1684200502599916000,10.889916015625,0.016555704176425934,-0.20011664927005768,-0.03975095599889755
1684200502609940700,10.899940673828125,0.005150706972926855,-0.19933733344078064,0.008613965474069118
1684200502619967000,10.909967041015625,0.00502766901627183,-0.24039022624492645,0.062002625316381454
1684200502629993000,10.919992919921874,0.005094615742564201,-0.3431450128555298,0.09125318378210068
1684200502640019000,10.93001904296875,0.010108815506100655,-0.4641422927379608,0.06443887948989868
1684200502650044000,10.9400439453125,0.027149513363838196,-0.5955650210380554,-0.004964321851730347
1684200502660070000,10.95006982421875,0.06082624942064285,-0.728214681148529,-0.09733472764492035
1684200502670096000,10.960095947265625,0.0894637182354927,-0.8545920848846436,-0.21045680344104767
1684200502680121900,10.970121826171875,0.08829458802938461,-0.923145055770874,-0.31584104895591736
1684200502690146800,10.980146728515624,0.06498865783214569,-0.8977038860321045,-0.37041521072387695
1684200502700172800,10.9901728515625,0.06939299404621124,-0.7849991321563721,-0.37373536825180054
1684200502710198800,11.00019873046875,0.09421020746231079,-0.6253623962402344,-0.3413447439670563
1684200502720224800,11.010224853515625,0.15435130894184113,-0.4539549648761749,-0.2908157706260681
1684200502730250000,11.02025,0.23853746056556702,-0.2500496506690979,-0.2358788102865219
1684200502740276000,11.03027587890625,0.3272430896759033,-0.02095733769237995,-0.18114446103572845
1684200502750302000,11.040302001953124,0.40941736102104187,0.20303966104984283,-0.09646003693342209
1684200502760328000,11.050327880859374,0.4910387098789215,0.30425307154655457,0.0722336396574974
1684200502770353000,11.060352783203125,0.5711492300033569,-0.02498544380068779,0.30613619089126587
1684200502780379000,11.07037890625,0.5947456359863281,-0.7354153394699097,0.4733307957649231
1684200502790404900,11.08040478515625,0.5195205807685852,-1.538402795791626,0.4086809456348419
1684200502800430800,11.090430908203125,0.46899962425231934,-2.1755428314208984,0.03307030349969864
1684200502810455800,11.100455810546874,0.527675449848175,-2.45395827293396,-0.6356186270713806
1684200502820481800,11.110481689453126,0.6964474320411682,-2.2471024990081787,-1.4237459897994995
1684200502830507800,11.1205078125,0.9170660376548767,-1.795728087425232,-2.1514556407928467
1684200502840532700,11.13053271484375,1.1281276941299438,-1.481986165046692,-2.6633293628692627
1684200502850558700,11.140558837890625,1.2123734951019287,-1.3457132577896118,-2.8885273933410645
1684200502860585000,11.1505849609375,1.2217425107955933,-1.166648507118225,-2.873561382293701
1684200502870611000,11.16061083984375,1.2241597175598145,-0.8328132033348083,-2.67038631439209
1684200502880636000,11.170635986328126,1.1567665338516235,-0.42143821716308594,-2.322554111480713
1684200502890662000,11.180661865234375,1.0886561870574951,-0.014528702013194561,-1.9208101034164429
1684200502900688000,11.19068798828125,1.1082274913787842,0.3470337688922882,-1.5335654020309448
1684200502910713900,11.2007138671875,1.123828411102295,0.5028336644172668,-1.2463970184326172
1684200502920738800,11.21073876953125,1.1487412452697754,0.51402747631073,-1.001964807510376
1684200502930764800,11.220764892578124,1.1753121614456177,0.6183863282203674,-0.6982409358024597
1684200502940790800,11.230790771484376,1.108434796333313,0.66115802526474,-0.5229870676994324
1684200502950816800,11.240816650390625,1.1027623414993286,0.5254457592964172,-0.6603338718414307
1684200502960842000,11.250842041015625,1.1791939735412598,0.3318704664707184,-0.9887951016426086
1684200502970868000,11.260867919921875,1.3288809061050415,0.4976019859313965,-1.242806315422058
1684200502980894000,11.27089404296875,1.4498121738433838,0.8392724990844727,-1.3811091184616089
1684200502990920000,11.280919921875,1.484982967376709,1.0312421321868896,-1.4443104267120361
1684200503000945000,11.29094482421875,1.4754642248153687,1.0971602201461792,-1.356537938117981
1684200503010971000,11.300970947265625,1.4666706323623657,1.0608537197113037,-1.138645052909851
1684200503020996900,11.310996826171875,1.4372243881225586,1.0535521507263184,-0.8629652261734009
1684200503031021800,11.321021728515625,1.3717371225357056,1.1550136804580688,-0.568331778049469
1684200503041047800,11.3310478515625,1.304326057434082,1.2460049390792847,-0.36206939816474915
1684200503051073800,11.34107373046875,1.2303918600082397,1.3497954607009888,-0.28205931186676025
1684200503061099800,11.351099853515626,1.1766612529754639,1.4386316537857056,-0.29605287313461304
1684200503071124700,11.361124755859375,1.1399134397506714,1.4611563682556152,-0.33776432275772095
1684200503081150700,11.371150634765625,1.1061735153198242,1.4061322212219238,-0.32952582836151123
1684200503091177000,11.381177001953125,1.0795481204986572,1.2988250255584717,-0.2592654228210449
1684200503101203000,11.391202880859375,1.0418659448623657,1.260840892791748,-0.16973048448562622
1684200503111227600,11.4012275390625,0.9716106653213501,1.2919009923934937,-0.11550398916006088
1684200503121254000,11.41125390625,0.8823721408843994,1.269068956375122,-0.10251149535179138
1684200503131280000,11.42127978515625,0.8080151081085205,1.2190021276474,-0.07732794433832169
1684200503141305900,11.431305908203125,0.7472987771034241,1.1144208908081055,-0.028543096035718918
1684200503151331000,11.4413310546875,0.7056899666786194,0.8467996120452881,0.04819338396191597
1684200503161356800,11.451356689453124,0.6619678139686584,0.5274538397789001,0.17965181171894073
1684200503171382800,11.4613828125,0.598799467086792,0.37129896879196167,0.2810516655445099
1684200503181408800,11.47140869140625,0.5153594017028809,0.38630110025405884,0.3078009784221649
1684200503191434000,11.48143408203125,0.43058091402053833,0.43282103538513184,0.29774239659309387
1684200503201460000,11.4914599609375,0.35875704884529114,0.4059404134750366,0.31633099913597107
1684200503211486000,11.50148583984375,0.30043721199035645,0.2975000739097595,0.41394996643066406
1684200503221512000,11.511511962890625,0.20330268144607544,0.18890567123889923,0.5420895218849182
1684200503231537000,11.521536865234374,0.06077242270112038,0.15438398718833923,0.6298266053199768
1684200503241563000,11.53156298828125,-0.04355637729167938,0.16339319944381714,0.6841180920600891
1684200503251588900,11.5415888671875,-0.1344873309135437,0.09907151013612747,0.7324961423873901
1684200503261613800,11.55161376953125,-0.21720431745052338,-0.02928033284842968,0.7911242842674255
1684200503271640300,11.561640380859375,-0.2770894169807434,-0.12826202809810638,0.8057025671005249
1684200503281666300,11.571666259765625,-0.3292658030986786,-0.25794118642807007,0.7613681554794312
1684200503291692300,11.5816923828125,-0.3645682632923126,-0.43181607127189636,0.6646220684051514
1684200503301717200,11.59171728515625,-0.37469494342803955,-0.6147251725196838,0.5594570636749268
1684200503311743200,11.6017431640625,-0.36215853691101074,-0.7839593887329102,0.4699799418449402
1684200503321769200,11.611769287109375,-0.36657965183258057,-0.8685059547424316,0.39098817110061646
1684200503331795200,11.621795166015625,-0.39251086115837097,-0.8995347023010254,0.3234906792640686
1684200503341820200,11.631820068359374,-0.41781675815582275,-0.8849136829376221,0.29984235763549805
1684200503351846100,11.64184619140625,-0.44328513741493225,-0.7828258872032166,0.3102208971977234
1684200503361872100,11.6518720703125,-0.46881285309791565,-0.6344148516654968,0.35232093930244446
1684200503371898000,11.661898193359375,-0.5114882588386536,-0.508039116859436,0.44398364424705505
1684200503381923000,11.671923095703125,-0.5529220104217529,-0.4524246156215668,0.5523668527603149
1684200503391949000,11.681948974609375,-0.5963163375854492,-0.47742971777915955,0.64413982629776
1684200503401975000,11.69197509765625,-0.6428170204162598,-0.5275242924690247,0.7101033926010132
1684200503412001000,11.7020009765625,-0.6881725192070007,-0.5403822064399719,0.7475650906562805
1684200503422026200,11.712026123046876,-0.7088444828987122,-0.5598496794700623,0.7791491150856018
1684200503432052200,11.72205224609375,-0.7046392560005188,-0.6488105654716492,0.8391629457473755
1684200503442078500,11.732078369140625,-0.698354959487915,-0.7530011534690857,0.9265532493591309
1684200503452103200,11.742103271484375,-0.7191162705421448,-0.8164607286453247,1.0140584707260132
1684200503462129400,11.75212939453125,-0.7819892764091492,-0.8324969410896301,1.091709852218628
1684200503472155400,11.7621552734375,-0.8820695281028748,-0.803763210773468,1.151057243347168
1684200503482181400,11.772181396484376,-0.9983679056167603,-0.7138469219207764,1.189306378364563
1684200503492206300,11.782206298828125,-1.1093885898590088,-0.5745438933372498,1.166973352432251
1684200503502232300,11.792232421875,-1.203087329864502,-0.4003787338733673,1.0826787948608398
1684200503512258300,11.80225830078125,-1.280762791633606,-0.22100551426410675,0.9657158255577087
1684200503522284300,11.8122841796875,-1.341193675994873,-0.08891990780830383,0.8455726504325867
1684200503532309200,11.822309326171874,-1.382568597793579,-0.011999480426311493,0.7299072742462158
1684200503542335200,11.832335205078126,-1.4051854610443115,-0.002276545623317361,0.636284351348877
1684200503552361200,11.842361328125,-1.3876893520355225,-0.0591098889708519,0.5822157859802246
1684200503562387200,11.85238720703125,-1.3353395462036133,-0.17401224374771118,0.5657699704170227
1684200503572412200,11.862412109375,-1.2764559984207153,-0.2963779866695404,0.5768781900405884
1684200503582438100,11.872438232421874,-1.1984871625900269,-0.4110819399356842,0.5406386852264404
1684200503592464100,11.882464111328124,-1.0387388467788696,-0.4400811195373535,0.40972378849983215
1684200503602490000,11.892489990234376,-0.7790694832801819,-0.3053898811340332,0.16607864201068878
1684200503612515300,11.902515380859375,-0.5090553164482117,-0.01416118536144495,-0.11887314915657043
1684200503622541300,11.912541259765625,-0.3147076964378357,0.150154247879982,-0.31825894117355347
1684200503632567000,11.922567138671875,-0.2216072380542755,0.03620341792702675,-0.35549843311309814
1684200503642593000,11.932593017578125,-0.18567374348640442,-0.2579056918621063,-0.27568110823631287
1684200503652618200,11.9426181640625,-0.18406590819358826,-0.4490058422088623,-0.13903109729290009
1684200503662644200,11.952644287109376,-0.19929039478302002,-0.4096304774284363,-0.014962948858737946
1684200503672670200,11.962670166015625,-0.2067357301712036,-0.13420496881008148,0.08067580312490463
1684200503682695200,11.972695068359375,-0.22801919281482697,0.2677672207355499,0.15035368502140045
1684200503692721200,11.98272119140625,-0.2983272671699524,0.6753580570220947,0.18920259177684784
1684200503702747400,11.992747314453124,-0.41891252994537354,0.9956740140914917,0.21398517489433289
1684200503712773400,12.0027734375,-0.5411616563796997,1.1872755289077759,0.23228077590465546
1684200503722798300,12.01279833984375,-0.6298081874847412,1.1959267854690552,0.24122527241706848
1684200503732824300,12.02282421875,-0.6579800844192505,1.0463001728057861,0.23969857394695282
1684200503742850300,12.032850341796875,-0.6184742450714111,0.7772181630134583,0.22836150228977203
1684200503752876300,12.042876220703125,-0.517371654510498,0.41000571846961975,0.20866668224334717
1684200503762901200,12.0529013671875,-0.39960184693336487,0.047609418630599976,0.19006957113742828
1684200503772927200,12.06292724609375,-0.3088352382183075,-0.2485097497701645,0.18023984134197235
1684200503782953200,12.072953125,-0.2730138599872589,-0.41287073493003845,0.17339152097702026
1684200503792979200,12.082979248046875,-0.27510032057762146,-0.411720871925354,0.16156618297100067
1684200503803004200,12.093004150390625,-0.24315011501312256,-0.21391698718070984,0.13873223960399628
1684200503813030100,12.103030029296875,-0.14178870618343353,-0.25762152671813965,-0.4005129933357239
1684200503823056100,12.11305615234375,-0.04704355448484421,0.06207472085952759,-0.960595428943634
1684200503833082000,12.12308203125,-0.001594064524397254,-0.041552383452653885,-1.6933236122131348
1684200503843107300,12.133107421875,0.051792994141578674,-0.8415276408195496,-1.8721064329147339
1684200503853133300,12.14313330078125,0.030408062040805817,-1.1356302499771118,-0.4285263419151306
1684200503863159300,12.1531591796875,0.11857306957244873,0.259042352437973,1.0718320608139038
1684200503873184300,12.163184326171875,-0.267549067735672,1.6268224716186523,1.7799532413482666
1684200503883210200,12.173210205078124,-0.5895324349403381,0.8537124395370483,0.1342925727367401
1684200503893236200,12.183236328125,-0.004655391909182072,1.0881710052490234,0.028647644445300102
1684200503903262200,12.19326220703125,0.11179159581661224,0.11033815145492554,-0.04230828955769539
1684200503913287200,12.203287109375,0.009196048602461815,-0.5632423162460327,0.12151680886745453
1684200503923313200,12.213313232421875,0.017440928146243095,-0.5029387474060059,0.37047019600868225
1684200503933339400,12.22333935546875,-0.12945251166820526,0.4288018047809601,1.0740766525268555
1684200503943365400,12.233365478515625,-0.2679201066493988,1.1375101804733276,1.436646580696106
1684200503953390300,12.243390380859376,-0.1642155945301056,1.6338438987731934,1.6103142499923706
1684200503963416300,12.253416259765626,-0.2843547761440277,1.6390395164489746,1.5381181240081787
1684200503973442300,12.2634423828125,-0.4808768928050995,1.325936198234558,1.1714503765106201
1684200503983468300,12.27346826171875,-0.5181246399879456,0.9721772074699402,0.733806848526001
1684200503993493200,12.2834931640625,-0.34242409467697144,0.6178808808326721,0.38748273253440857
1684200504003519200,12.293519287109374,-0.10636841505765915,0.2551405429840088,0.16825342178344727
1684200504013545200,12.303545166015626,0.012990416958928108,-0.09523848444223404,0.030614284798502922
1684200504023571200,12.3135712890625,0.17857617139816284,-0.23115557432174683,-0.025574686005711555
1684200504033596200,12.32359619140625,0.20103541016578674,-0.3370569050312042,-0.04947836697101593
1684200504043622100,12.3336220703125,-0.02006315067410469,-0.4981163442134857,-0.09051794558763504
1684200504053648100,12.343648193359375,-0.18631742894649506,-0.5556223392486572,-0.11289083957672119
1684200504063673300,12.35367333984375,-0.30488428473472595,-0.5189372897148132,-0.10472133010625839
1684200504073699300,12.36369921875,-0.35676905512809753,-0.29553356766700745,-0.03508691117167473
1684200504083725300,12.373725341796876,-0.25966063141822815,0.15180903673171997,0.1454799324274063
1684200504093751300,12.383751220703125,-0.22225593030452728,0.5935249924659729,0.3386954069137573
1684200504103776300,12.3937763671875,-0.3429889976978302,0.9041302800178528,0.48063924908638
1684200504113802200,12.40380224609375,-0.495225727558136,1.0792367458343506,0.5266003608703613
1684200504123828200,12.413828125,-0.5961877703666687,1.1027793884277344,0.4735691249370575
1684200504133854200,12.423854248046876,-0.6136817932128906,1.1708641052246094,0.3696388900279999
1684200504143879200,12.433879150390625,-0.7208088040351868,1.2876392602920532,0.17359934747219086
1684200504153905200,12.4439052734375,-1.1342835426330566,1.4498224258422852,-0.08396263420581818
1684200504163931100,12.45393115234375,-1.672088384628296,1.949898600578308,-0.1765815168619156
1684200504173957400,12.463957275390625,-2.077843427658081,2.2765965461730957,-0.14405052363872528
1684200504183982000,12.473982177734374,-1.9236462116241455,1.8438313007354736,-0.19572143256664276
1684200504194008300,12.48400830078125,-1.3203387260437012,1.1725705862045288,-0.38517364859580994
