time,seconds_elapsed,z,y,x
1684200439538529300,0.027529296875,0.05051349848508835,1.6502807140350342,0.811974823474884
1684200439548554500,0.037554443359375,0.10131107270717621,1.9145680665969849,0.827764630317688
1684200439558580500,0.04758056640625,0.054654352366924286,2.244955539703369,0.8199178576469421
1684200439568606500,0.0576064453125,-0.09186284989118576,2.773327112197876,0.9006186127662659
1684200439578631400,0.06763134765625,-0.26002201437950134,3.318859338760376,1.0749073028564453
1684200439588657400,0.077657470703125,-0.4666939973831177,3.7000246047973633,1.29349684715271
1684200439598682400,0.087682373046875,-0.5624082684516907,3.483081817626953,1.3503713607788086
1684200439608708400,0.097708251953125,-0.46484190225601196,2.754962205886841,0.9292939901351929
1684200439618733300,0.1077333984375,-0.518868088722229,2.7582173347473145,0.45508670806884766
1684200439628759300,0.11775927734375,-0.6403600573539734,3.0761752128601074,-0.2311994880437851
1684200439638785300,0.127785400390625,-1.2705612182617188,3.8844194412231445,-0.925855278968811
1684200439648810500,0.137810546875,-2.3982388973236084,5.379940509796143,-1.2032262086868286
1684200439658836500,0.14783642578125,-3.446367025375366,6.655272006988525,-1.183258295059204
1684200439668861400,0.157861328125,-4.20966100692749,6.801400184631348,-1.1359606981277466
1684200439678887400,0.167887451171875,-4.643328666687012,6.257697105407715,-1.0582005977630615
1684200439688913400,0.177913330078125,-4.674935340881348,5.1488847732543945,-0.9047570824623108
1684200439698938400,0.1879384765625,-4.354428291320801,3.3736679553985596,-0.7122339606285095
1684200439708964400,0.19796435546875,-4.026326656341553,0.9647005200386047,-0.49979233741760254
1684200439718989300,0.2079892578125,-3.879129409790039,-1.7380704879760742,-0.2925747036933899
1684200439729015300,0.218015380859375,-3.93082857131958,-4.097512722015381,-0.24413906037807465
1684200439739040300,0.228040283203125,-4.0753326416015625,-4.254760265350342,-0.4747413992881775
1684200439749066200,0.238066162109375,-3.6587982177734375,-0.36611032485961914,-1.6713314056396484
1684200439759092200,0.24809228515625,-2.91412353515625,1.6006641387939453,-2.8135483264923096
1684200439769117400,0.258117431640625,-3.584235429763794,1.8702234029769897,-2.905141830444336
1684200439779143400,0.268143310546875,-4.710824012756348,2.245565891265869,-2.581737756729126
1684200439789168400,0.27816845703125,-5.638978481292725,3.0151100158691406,-2.1197152137756348
1684200439799194400,0.2881943359375,-6.151514053344727,3.8082334995269775,-1.6259204149246216
1684200439809220400,0.298220458984375,-6.312250137329102,4.514283657073975,-1.1042369604110718
1684200439819245300,0.308245361328125,-6.389277935028076,4.645380973815918,-0.5458389520645142
1684200439829271300,0.318271240234375,-6.543587684631348,4.055125713348389,-0.08994877338409424
1684200439839296300,0.328296142578125,-6.599567413330078,3.2420949935913086,0.27431759238243103
1684200439849322200,0.338322265625,-6.385031700134277,2.399355888366699,0.6020433902740479
1684200439859347500,0.348347412109375,-5.986710071563721,1.7936534881591797,0.8330313563346863
1684200439869373400,0.35837353515625,-5.612234592437744,1.5028538703918457,0.9383871555328369
1684200439879399400,0.3683994140625,-5.353719234466553,1.3796017169952393,0.9247531294822693
1684200439889424400,0.37842431640625,-5.11866569519043,1.3887330293655396,0.7889317274093628
1684200439899450400,0.388450439453125,-4.877372741699219,1.534275770187378,0.5793761014938354
1684200439909475300,0.398475341796875,-4.713837623596191,1.6349555253982544,0.4339113235473633
1684200439919501300,0.408501220703125,-4.596194267272949,1.4402947425842285,0.3622187674045563
1684200439929527600,0.418527587890625,-4.4605841636657715,1.0737868547439575,0.3070718050003052
1684200439939552300,0.42855224609375,-4.135443687438965,0.6498978734016418,0.2335544228553772
1684200439949578500,0.43857861328125,-3.7413017749786377,0.4901365041732788,0.22958645224571228
1684200439959603200,0.448603271484375,-3.438183307647705,0.21369770169258118,0.3574405610561371
1684200439969629400,0.45862939453125,-3.1377766132354736,-0.3173319101333618,0.5178989171981812
1684200439979654400,0.468654296875,-2.676645517349243,-0.8762428760528564,0.6478590369224548
1684200439989680600,0.4786806640625,-2.0074381828308105,-1.3495285511016846,0.775779664516449
1684200439999706600,0.48870654296875,-1.165832281112671,-1.5279347896575928,0.9411033987998962
1684200440009731600,0.498731689453125,-0.4584537148475647,-1.8862210512161255,1.1048884391784668
1684200440019757600,0.508757568359375,0.025014951825141907,-2.473580837249756,1.1264402866363525
1684200440029782500,0.518782470703125,0.365202933549881,-2.645651340484619,1.0822067260742188
1684200440039808500,0.52880859375,0.6061511039733887,-2.8377089500427246,1.0726184844970703
1684200440049834500,0.53883447265625,0.7170894145965576,-2.996584415435791,1.0954588651657104
1684200440059859500,0.548859375,0.7698628902435303,-2.524595260620117,1.326229214668274
1684200440069885400,0.558885498046875,0.8131106495857239,-2.099945068359375,1.831246256828308
1684200440079910400,0.568910400390625,0.6786332130432129,-1.6885805130004883,2.1879539489746094
1684200440089936400,0.578936279296875,0.6387266516685486,-1.1832886934280396,2.2961504459381104
1684200440099961600,0.588961669921875,0.8445964455604553,-0.7417253255844116,2.3329272270202637
1684200440109987600,0.598987548828125,0.830665647983551,-0.10955438017845154,1.7696802616119385
1684200440120013600,0.609013671875,0.3737744987010956,0.3982135057449341,-0.07990752905607224
1684200440130038500,0.61903857421875,0.31972476840019226,0.8780670166015625,-1.0621285438537598
1684200440140064500,0.629064453125,0.2888544797897339,1.7037262916564941,-0.9688910841941833
1684200440150089500,0.63908935546875,0.44443777203559875,2.5895206928253174,-0.37984412908554077
1684200440160115500,0.649115478515625,0.9044253826141357,2.9641659259796143,0.3706940710544586
1684200440170141400,0.659141357421875,1.3437191247940063,3.450904607772827,1.2852680683135986
1684200440180166400,0.66916650390625,1.2733653783798218,3.546633005142212,1.1978356838226318
1684200440190192400,0.6791923828125,1.4037047624588013,3.094226360321045,1.1040018796920776
1684200440200217600,0.689217529296875,1.4256778955459595,3.149961233139038,1.1309738159179688
1684200440210243600,0.69924365234375,1.3196431398391724,3.22013783454895,1.1480149030685425
1684200440220268500,0.7092685546875,1.0719720125198364,3.001659393310547,1.2966206073760986
1684200440230294500,0.71929443359375,0.7389808297157288,2.4068050384521484,1.3381469249725342
1684200440240320500,0.729320556640625,0.48188674449920654,2.08502459526062,1.3590730428695679
1684200440250345500,0.739345458984375,-0.08789939433336258,1.7988464832305908,1.1956982612609863
1684200440260371500,0.749371337890625,-0.6986210942268372,1.2710262537002563,0.8732698559761047
1684200440270396400,0.759396484375,-0.9459207057952881,0.8914691209793091,0.48931556940078735
1684200440280422400,0.76942236328125,-0.8603230118751526,0.7155806422233582,0.10888940840959549
1684200440290448400,0.779448486328125,-0.5498818755149841,0.6518034338951111,-0.2178965061903
1684200440300473300,0.789473388671875,-0.26120296120643616,0.5436396598815918,-0.5379181504249573
1684200440310499300,0.799499267578125,-0.19577011466026306,0.4716969430446625,-0.9134878516197205
1684200440320524500,0.809524658203125,-0.36375829577445984,0.38119420409202576,-1.2228351831436157
1684200440330550500,0.819550537109375,-0.592349112033844,0.09360941499471664,-1.5339641571044922
1684200440340576500,0.829576416015625,-0.6948411464691162,-0.16358190774917603,-1.992201328277588
1684200440350601500,0.8396015625,-0.6225097179412842,-0.1676875650882721,-2.348095178604126
1684200440360627500,0.84962744140625,-0.4817778468132019,-0.26959875226020813,-2.478792905807495
1684200440370652400,0.85965234375,-0.32723721861839294,-0.5880355834960938,-2.552846908569336
1684200440380678400,0.869678466796875,-0.16715861856937408,-0.7378203272819519,-2.6456565856933594
1684200440390703400,0.879703369140625,-0.04718482121825218,-0.48955443501472473,-2.7105798721313477
1684200440400729300,0.889729248046875,-0.10008745640516281,0.09469649195671082,-2.642364978790283
1684200440410755300,0.89975537109375,-0.2733258306980133,0.26556870341300964,-2.464834213256836
1684200440420780500,0.909780517578125,-0.3510352671146393,-0.2768058776855469,-2.337432384490967
1684200440430806300,0.91980615234375,-0.22516649961471558,-0.9160534143447876,-2.0962839126586914
1684200440440831500,0.92983154296875,0.14913785457611084,-0.5878635048866272,-1.900985836982727
1684200440450857500,0.939857421875,0.4106847643852234,0.5979219675064087,-1.8031033277511597
1684200440460883500,0.949883544921875,-0.022131387144327164,1.2336885929107666,-1.6173083782196045
1684200440470908400,0.959908447265625,-0.8855829238891602,0.8473306894302368,-1.4754236936569214
1684200440480934400,0.969934326171875,-1.512874722480774,-0.15675745904445648,-1.4675418138504028
1684200440490959400,0.97995947265625,-1.5853464603424072,-0.32892903685569763,-1.493759036064148
1684200440500985300,0.9899853515625,-1.3677326440811157,0.4078291654586792,-1.3934217691421509
1684200440511010300,1.00001025390625,-1.4012130498886108,1.325844407081604,-1.0788047313690186
1684200440521036300,1.010036376953125,-1.979660153388977,1.6097592115402222,-0.6161191463470459
1684200440531062300,1.020062255859375,-2.798586130142212,1.605344295501709,-0.10679976642131805
1684200440541087500,1.03008740234375,-3.4446356296539307,1.7174748182296753,0.3845297396183014
1684200440551113500,1.040113525390625,-3.7627313137054443,1.7081888914108276,0.7943817377090454
1684200440561138400,1.050138427734375,-3.450845241546631,0.9784399271011353,1.2402034997940063
1684200440571164400,1.060164306640625,-2.5441415309906006,0.18624910712242126,1.6864492893218994
1684200440581190400,1.0701904296875,-1.8527404069900513,-0.41200655698776245,1.9869097471237183
1684200440591215400,1.08021533203125,-1.5625807046890259,-0.6600516438484192,2.1149654388427734
1684200440601241300,1.090241455078125,-1.320513129234314,-0.2088780552148819,2.176184892654419
1684200440611266300,1.100266357421875,-1.0753363370895386,0.5878930687904358,2.2811248302459717
1684200440621292300,1.110292236328125,-0.9938486814498901,1.713135838508606,2.284494638442993
1684200440631317500,1.1203173828125,-0.93418949842453,2.954000473022461,2.1490464210510254
1684200440641343200,1.13034326171875,-0.9331309199333191,4.190293312072754,2.0078494548797607
1684200440651369500,1.140369384765625,-0.7002614140510559,4.829793930053711,1.9655784368515015
1684200440661394400,1.15039453125,-0.2208503782749176,4.697532653808594,1.992810606956482
1684200440671420700,1.160420654296875,-0.37426939606666565,1.9693715572357178,1.1634513139724731
1684200440681445400,1.1704453125,-0.7699730396270752,0.08827889710664749,0.4126582443714142
1684200440691471600,1.1804716796875,-1.615601658821106,-0.3424879014492035,-0.10102565586566925
1684200440701497600,1.19049755859375,-2.18025803565979,-0.31184452772140503,-0.4279063045978546
1684200440711522300,1.200522216796875,-2.2096686363220215,-0.27478906512260437,-0.6375560760498047
1684200440721548500,1.210548583984375,-1.9715608358383179,0.15786513686180115,-0.644324779510498
1684200440731573200,1.2205732421875,-1.7408313751220703,0.7258628010749817,-0.5803185701370239
1684200440741599500,1.230599609375,-1.656189203262329,0.9962247610092163,-0.5831342935562134
1684200440751624400,1.24062451171875,-1.7452614307403564,0.9449489116668701,-0.641488254070282
1684200440761650700,1.250650634765625,-1.892331838607788,0.9095288515090942,-0.6565332412719727
1684200440771676400,1.260676513671875,-2.0409584045410156,0.905701220035553,-0.6353688836097717
1684200440781701600,1.27070166015625,-2.0260539054870605,0.8963314294815063,-0.6835087537765503
1684200440791727600,1.2807275390625,-1.7171770334243774,0.9220746159553528,-0.7402064800262451
1684200440801752600,1.290752685546875,-1.0229644775390625,0.8102796673774719,-0.7591918706893921
1684200440811778600,1.300778564453125,-0.1495991349220276,0.045967135578393936,-0.6901701092720032
1684200440821803500,1.310803466796875,0.5950648784637451,-1.0381096601486206,-0.4460868835449219
1684200440831829500,1.32082958984375,0.7466751337051392,-2.3488619327545166,-0.14393983781337738
1684200440841855500,1.33085546875,0.24606849253177643,-2.976330280303955,0.20287510752677917
1684200440851880400,1.34088037109375,-0.3263358473777771,-2.7117538452148438,0.4831985831260681
1684200440861906400,1.350906494140625,-0.6809669137001038,-1.4462822675704956,0.9867773056030273
1684200440871931600,1.360931640625,-1.1815338134765625,-0.0067326463758945465,1.5220043659210205
1684200440881957600,1.37095751953125,-1.985464096069336,0.7874683141708374,1.959890604019165
1684200440891983600,1.380983642578125,-2.8178629875183105,1.2905832529067993,2.1227121353149414
1684200440902008600,1.391008544921875,-3.027367115020752,1.2870628833770752,2.5083580017089844
1684200440912034600,1.40103466796875,-2.9647369384765625,1.2918518781661987,2.8694417476654053
1684200440922059500,1.4110595703125,-2.4192423820495605,1.412216067314148,3.1807804107666016
1684200440932085500,1.42108544921875,-1.5908771753311157,1.850389838218689,3.477658987045288
1684200440942111500,1.431111572265625,-1.2035661935806274,1.4837521314620972,3.4768288135528564
1684200440952136400,1.441136474609375,-1.2490193843841553,0.7781278491020203,3.177640199661255
1684200440962162400,1.451162353515625,-1.0916297435760498,-0.3028758764266968,2.038520097732544
1684200440972187400,1.4611875,-0.664578378200531,-0.7292681932449341,0.4216882884502411
1684200440982213400,1.47121337890625,-0.19905462861061096,0.41224414110183716,-0.5021681189537048
1684200440992238600,1.481238525390625,0.25377678871154785,1.3103057146072388,-1.0858410596847534
1684200441002264600,1.4912646484375,0.5235928297042847,1.6307921409606934,-1.4598252773284912
1684200441012290600,1.50129052734375,0.4863104224205017,1.5281094312667847,-1.6806457042694092
1684200441022315500,1.5113154296875,0.4153672754764557,1.0685878992080688,-1.8722203969955444
1684200441032341500,1.521341552734375,0.24546150863170624,0.7422735691070557,-2.016017198562622
1684200441042366500,1.531366455078125,-0.14610332250595093,0.45399489998817444,-2.183530330657959
1684200441052392400,1.541392333984375,-0.44905322790145874,0.09485045075416565,-2.41524076461792
1684200441062417400,1.55141748046875,-0.4998788833618164,0.0459795817732811,-2.4297101497650146
1684200441072443400,1.561443359375,-0.2400171011686325,0.3634430468082428,-2.129856586456299
1684200441082469400,1.571469482421875,0.22603875398635864,0.800099790096283,-1.7083137035369873
1684200441092494600,1.58149462890625,0.8409150838851929,1.1648414134979248,-1.2380331754684448
1684200441102520600,1.5915205078125,1.6144460439682007,1.1645312309265137,-0.7237000465393066
1684200441112545500,1.601545654296875,2.151595115661621,0.4744190275669098,-0.39635589718818665
1684200441122571500,1.611571533203125,-0.3057807683944702,-2.5450117588043213,-0.351949006319046
1684200441132597500,1.621597412109375,-1.1175730228424072,-4.013372898101807,0.43045568466186523
1684200441142622500,1.63162255859375,-0.42872554063796997,-3.4957876205444336,0.8729162216186523
1684200441152648400,1.6416484375,-0.03355119749903679,-2.2980661392211914,0.8785831928253174
1684200441162673400,1.65167333984375,-0.13439472019672394,-1.702592372894287,0.5200005173683167
1684200441172699400,1.661699462890625,-0.14741545915603638,-0.9364821314811707,0.4356689453125
1684200441182725400,1.671725341796875,-0.24189509451389313,-0.18013505637645721,0.40704530477523804
1684200441192750300,1.681750244140625,-0.45076146721839905,0.3347913920879364,0.2591767907142639
1684200441202776300,1.6917763671875,-0.5285696983337402,1.0091229677200317,0.29598408937454224
1684200441212801300,1.70180126953125,-0.3001282513141632,1.3198161125183105,0.4392997622489929
1684200441222827300,1.7118271484375,0.3375352919101715,1.1334030628204346,0.6900102496147156
1684200441232852200,1.721852294921875,1.1642048358917236,0.7951822280883789,0.8965080976486206
1684200441242878200,1.731878173828125,1.8883768320083618,0.4794226586818695,1.0363093614578247
1684200441252904200,1.741904296875,2.527642250061035,0.24993908405303955,1.200692892074585
1684200441262929200,1.75192919921875,3.0158917903900146,-0.07312819361686707,1.3516813516616821
1684200441272955100,1.761955078125,3.493152618408203,-0.3342801630496979,1.5831135511398315
1684200441282980000,1.77197998046875,3.934375286102295,-0.5462656617164612,1.9181631803512573
1684200441293006000,1.782006103515625,4.294468402862549,-0.6819842457771301,2.323112726211548
1684200441303032300,1.7920322265625,4.5059075355529785,-0.7779847979545593,2.5904080867767334
1684200441313057300,1.802057373046875,4.1678853034973145,-1.0057097673416138,2.3371832370758057
1684200441323083500,1.81208349609375,2.977829694747925,-1.1974509954452515,1.2934179306030273
1684200441333108200,1.822108154296875,1.5714832544326782,-1.293602705001831,-0.009923435747623444
1684200441343134500,1.832134521484375,0.6339933276176453,-1.0640507936477661,-1.1203351020812988
1684200441353159200,1.8421591796875,0.36496615409851074,-0.8113011121749878,-1.5318057537078857
1684200441363185400,1.852185302734375,0.433648020029068,-0.6931249499320984,-1.495566487312317
1684200441373211400,1.86221142578125,0.5236900448799133,-0.7091317772865295,-1.2865911722183228
1684200441383236400,1.872236328125,0.5338146090507507,-0.7458442449569702,-1.0331066846847534
1684200441393262300,1.882262451171875,0.44821688532829285,-0.7793291807174683,-0.7876984477043152
1684200441403287300,1.892287353515625,0.3044365644454956,-0.7745131254196167,-0.5726593732833862
1684200441413313300,1.902313232421875,0.14070066809654236,-0.7239661812782288,-0.39029499888420105
1684200441423339300,1.91233935546875,0.015307323075830936,-0.6413229703903198,-0.25084388256073
1684200441433364500,1.922364501953125,-0.04359680414199829,-0.5351276993751526,-0.16807474195957184
1684200441443390500,1.932390380859375,-0.058542732149362564,-0.3771732747554779,-0.1314016878604889
1684200441453415400,1.94241552734375,-0.06270740181207657,-0.19770105183124542,-0.14882925152778625
1684200441463441400,1.95244140625,-0.0757363811135292,-0.025534603744745255,-0.23279233276844025
1684200441473466400,1.96246630859375,-0.10280259698629379,0.12376025319099426,-0.36000728607177734
1684200441483492400,1.972492431640625,-0.12467913329601288,0.2418418973684311,-0.5089365839958191
1684200441493518300,1.982518310546875,-0.13612361252307892,0.3233412504196167,-0.6586750745773315
1684200441503543300,1.992543212890625,-0.13046571612358093,0.3490295708179474,-0.7814947366714478
1684200441513569300,2.0025693359375,-0.11427950859069824,0.3151760399341583,-0.8706895112991333
1684200441523594500,2.012594482421875,-0.10701307654380798,0.16527549922466278,-0.9223535060882568
1684200441533620500,2.022620361328125,-0.10824571549892426,-0.1505536437034607,-0.9164213538169861
1684200441543646200,2.032646240234375,-0.08334862440824509,-0.5468775629997253,-0.8510894775390625
1684200441553671400,2.04267138671875,-0.040806520730257034,-0.8822423815727234,-0.7484951019287109
1684200441563697400,2.052697509765625,0.010344278998672962,-1.0384033918380737,-0.6260432600975037
1684200441573722400,2.062722412109375,0.05467848479747772,-1.0042985677719116,-0.5046255588531494
1684200441583748400,2.072748291015625,0.08636797219514847,-0.8414239883422852,-0.40294766426086426
1684200441593773300,2.082773193359375,0.10691039264202118,-0.6224989891052246,-0.31959307193756104
1684200441603799300,2.09279931640625,0.15399587154388428,-0.4102115035057068,-0.2570420801639557
1684200441613825300,2.1028251953125,0.24073052406311035,-0.2539066672325134,-0.22411558032035828
1684200441623850200,2.112850341796875,0.35618653893470764,-0.1805269867181778,-0.2238607257604599
1684200441633876200,2.122876220703125,0.47206175327301025,-0.1799628585577011,-0.2857975363731384
1684200441643901400,2.1329013671875,0.5709813833236694,-0.19990327954292297,-0.42157483100891113
1684200441653927400,2.142927490234375,0.6395772695541382,-0.14627361297607422,-0.5949580073356628
1684200441663952400,2.152952392578125,0.6652024388313293,-0.015689514577388763,-0.7471310496330261
1684200441673978400,2.162978271484375,0.6498556733131409,0.13095782697200775,-0.8523589372634888
1684200441684004400,2.17300439453125,0.5983610153198242,0.2394092082977295,-0.9172537922859192
1684200441694029300,2.183029296875,0.5689311623573303,0.3253606855869293,-1.0087472200393677
1684200441704055300,2.19305517578125,0.6079781651496887,0.5275965929031372,-1.2887762784957886
1684200441714080300,2.203080322265625,0.705776035785675,0.942873477935791,-1.8213465213775635
1684200441724106200,2.213106201171875,0.8291711807250977,1.3690381050109863,-2.3724782466888428
1684200441734132200,2.22313232421875,0.9235885739326477,1.596326231956482,-2.7057464122772217
1684200441744157400,2.233157470703125,1.0392286777496338,1.6214920282363892,-2.8149919509887695
1684200441754183200,2.24318310546875,1.1986031532287598,1.4738681316375732,-2.7766735553741455
1684200441764208400,2.25320849609375,1.3301944732666016,1.2740898132324219,-2.569892168045044
1684200441774234400,2.263234375,1.3986700773239136,1.031251311302185,-2.296358823776245
1684200441784259300,2.27325927734375,1.355913758277893,0.8064679503440857,-2.013033151626587
1684200441794285300,2.283285400390625,1.268081545829773,0.7133975625038147,-1.7390034198760986
1684200441804311300,2.293311279296875,1.1651058197021484,0.8362747430801392,-1.4806275367736816
1684200441814336300,2.303336181640625,1.0299501419067383,1.104598045349121,-1.2087090015411377
1684200441824362200,2.3133623046875,0.9299614429473877,1.2311201095581055,-0.9761519432067871
1684200441834387200,2.32338720703125,0.9495512843132019,1.2202085256576538,-0.7286995649337769
1684200441844413200,2.3334130859375,1.0808573961257935,1.1020160913467407,-0.4525798559188843
1684200441854439200,2.343439208984375,1.2700467109680176,0.9639977812767029,-0.17177554965019226
1684200441864464400,2.35346435546875,1.4406028985977173,0.8743744492530823,0.05284317210316658
1684200441874490400,2.363490478515625,1.5389189720153809,0.9588196277618408,0.15857723355293274
1684200441884515300,2.373515380859375,1.5708513259887695,1.2040655612945557,0.1670817732810974
1684200441894541300,2.383541259765625,1.5382791757583618,1.511403203010559,0.1291412115097046
1684200441904566300,2.393566162109375,1.499855637550354,1.6780401468276978,0.08663850277662277
1684200441914592300,2.40359228515625,1.4550023078918457,1.7660683393478394,0.07978709787130356
1684200441924618200,2.4136181640625,1.4096944332122803,1.6893805265426636,0.06362117826938629
1684200441934643200,2.423643310546875,1.3436164855957031,1.4691072702407837,0.06173962354660034
1684200441944669200,2.433669189453125,1.3030128479003906,1.306304931640625,0.09920657426118851
1684200441954694100,2.443694091796875,1.29404878616333,1.2282187938690186,0.15456406772136688
1684200441964720000,2.45372021484375,1.2818530797958374,1.1315486431121826,0.20767362415790558
1684200441974746000,2.46374609375,1.23308265209198,1.0283609628677368,0.2812063992023468
1684200441984771300,2.473771240234375,1.1417421102523804,0.9111219048500061,0.3445960283279419
1684200441994797300,2.48379736328125,1.0060629844665527,0.7960609793663025,0.40944603085517883
1684200442004822300,2.493822265625,0.8557815551757812,0.7236940860748291,0.4504944086074829
1684200442014848300,2.50384814453125,0.7248167991638184,0.5828977227210999,0.4373854994773865
1684200442024873200,2.513873291015625,0.6306354403495789,0.37131810188293457,0.40973949432373047
1684200442034899200,2.523899169921875,0.5625963807106018,0.164544939994812,0.36745235323905945
1684200442044925200,2.53392529296875,0.5528422594070435,-0.14848461747169495,0.31428205966949463
1684200442054950100,2.5439501953125,0.6056265830993652,-0.40727558732032776,0.28895804286003113
1684200442064976100,2.55397607421875,0.661828339099884,-0.4655567407608032,0.302906334400177
1684200442075001300,2.56400146484375,0.6521190404891968,-0.26574423909187317,0.3547850251197815
1684200442085027300,2.57402734375,0.5805617570877075,0.12396704405546188,0.40010616183280945
1684200442095053300,2.58405322265625,0.4898580014705658,0.5246181488037109,0.5115101337432861
1684200442105078300,2.594078369140625,0.39739543199539185,0.7324408888816833,0.7097654342651367
1684200442115104300,2.604104248046875,0.3201718032360077,0.7132241129875183,0.8820220828056335
1684200442125129200,2.614129150390625,0.2581462562084198,0.5683899521827698,0.9449397921562195
1684200442135155200,2.6241552734375,0.18881864845752716,0.3575010299682617,0.8581329584121704
1684200442145180200,2.63418017578125,0.13550536334514618,0.04813172295689583,0.6743927001953125
1684200442155206100,2.6442060546875,0.12542970478534698,-0.31361690163612366,0.4843575358390808
1684200442165232000,2.654232177734375,0.1352061629295349,-0.6297599673271179,0.34039023518562317
1684200442175257000,2.664257080078125,0.12182383239269257,-0.8723480105400085,0.27571824193000793
1684200442185283000,2.674282958984375,0.06735099852085114,-1.0041896104812622,0.2664637565612793
1684200442195308300,2.684308349609375,-0.0059000058099627495,-1.011472463607788,0.31246134638786316
1684200442205334500,2.69433447265625,-0.09418832510709763,-0.9198346138000488,0.40764111280441284
1684200442215360800,2.70436083984375,-0.18902328610420227,-0.7742969393730164,0.5220305919647217
1684200442225385500,2.714385498046875,-0.27768605947494507,-0.664329469203949,0.6678756475448608
1684200442235411700,2.72441162109375,-0.36136674880981445,-0.6052148938179016,0.8219496607780457
1684200442245436400,2.7344365234375,-0.44864892959594727,-0.5864835381507874,0.9655448794364929
1684200442255462700,2.744462646484375,-0.5303696393966675,-0.6130293011665344,1.0520480871200562
1684200442265487400,2.7544873046875,-0.5958924889564514,-0.652378261089325,1.026278018951416
1684200442275513600,2.764513671875,-0.6242836117744446,-0.6933994293212891,0.8929120898246765
1684200442285539600,2.77453955078125,-0.6395081281661987,-0.7467651963233948,0.7037488222122192
1684200442295564500,2.784564453125,-0.6155036687850952,-0.8631162643432617,0.5035690665245056
1684200442305590500,2.794590576171875,-0.6043301224708557,-0.9814453125,0.36846688389778137
1684200442315615700,2.80461572265625,-0.66196209192276,-1.0178028345108032,0.3442382216453552
1684200442325641700,2.814641845703125,-0.7638311982154846,-0.9558225274085999,0.367489218711853
1684200442335667700,2.824667724609375,-0.8763870000839233,-0.8634665608406067,0.41566002368927
1684200442345692700,2.834692626953125,-0.9782971143722534,-0.8062871694564819,0.4585281312465668
1684200442355718700,2.84471875,-1.053336501121521,-0.7859265208244324,0.4519602358341217
1684200442365743600,2.85474365234375,-1.1237459182739258,-0.7938582301139832,0.37878456711769104
1684200442375769600,2.86476953125,-1.2031443119049072,-0.8086304068565369,0.2779734432697296
1684200442385794600,2.874794677734375,-1.2738871574401855,-0.8261311054229736,0.19096875190734863
1684200442395820500,2.884820556640625,-1.3218681812286377,-0.8503575325012207,0.1344110518693924
1684200442405846500,2.894846435546875,-1.3393489122390747,-0.9039291143417358,0.13123416900634766
1684200442415871700,2.904871826171875,-1.3241724967956543,-0.9456140995025635,0.15942592918872833
1684200442425897500,2.9148974609375,-1.2846671342849731,-0.890809953212738,0.2017616629600525
1684200442435922700,2.924922607421875,-1.2146241664886475,-0.7403395771980286,0.2529614269733429
1684200442445948700,2.93494873046875,-1.091230034828186,-0.5803227424621582,0.32089146971702576
1684200442455974700,2.944974609375,-0.9414655566215515,-0.46510180830955505,0.3790833652019501
1684200442465999600,2.95499951171875,-0.7232229709625244,-0.376412957906723,0.38880178332328796
1684200442476025600,2.965025634765625,-0.43701088428497314,-0.30048590898513794,0.3248283267021179
1684200442486050600,2.975050537109375,-0.14242932200431824,-0.20427149534225464,0.1801198571920395
1684200442496076500,2.98507666015625,0.08936016261577606,-0.07623320072889328,-0.0057626343332231045
1684200442506101500,2.9951015625,0.22616009414196014,0.07530359923839569,-0.14775413274765015
1684200442516127500,3.00512744140625,0.24671338498592377,0.23148170113563538,-0.16533590853214264
1684200442526153500,3.015153564453125,0.18482792377471924,0.37812867760658264,-0.0627240538597107
1684200442536178700,3.0251787109375,0.11329396069049835,0.4940936863422394,0.12914586067199707
1684200442546204700,3.03520458984375,-0.0026142699643969536,0.5577866435050964,0.34496524930000305
1684200442556229600,3.045229736328125,-0.17336046695709229,0.5838059782981873,0.5376470685005188
1684200442566255600,3.055255615234375,-0.3753551244735718,0.5554824471473694,0.6341901421546936
1684200442576281600,3.065281494140625,-0.5632930397987366,0.47805720567703247,0.6033896207809448
1684200442586306600,3.075306640625,-0.6912389993667603,0.35430383682250977,0.4464995563030243
1684200442596332500,3.08533251953125,-0.73891681432724,0.1669059842824936,0.2187420129776001
1684200442606357500,3.095357421875,-0.6839027404785156,-0.043587055057287216,0.0002442263066768646
1684200442616383500,3.105383544921875,-0.5774383544921875,-0.22599580883979797,-0.1442728489637375
1684200442626408700,3.11540869140625,-0.4876270294189453,-0.38178300857543945,-0.18044044077396393
1684200442636434400,3.125434326171875,-0.44784098863601685,-0.5065582394599915,-0.12633751332759857
1684200442646460400,3.13546044921875,-0.4032146632671356,-0.5764765739440918,-0.016069067642092705
1684200442656485600,3.145485595703125,-0.35313960909843445,-0.5892977714538574,0.09782519191503525
1684200442666511600,3.15551171875,-0.29809844493865967,-0.5155023336410522,0.18346713483333588
1684200442676536600,3.16553662109375,-0.26340657472610474,-0.40615856647491455,0.2105795443058014
1684200442686562600,3.1755625,-0.2521888017654419,-0.3285425901412964,0.17751827836036682
1684200442696588500,3.185588623046875,-0.24941398203372955,-0.34523195028305054,0.09162764251232147
1684200442706613500,3.195613525390625,-0.22798646986484528,-0.44652634859085083,-0.022255513817071915
1684200442716639500,3.205639404296875,-0.18961431086063385,-0.5864741206169128,-0.15550731122493744
1684200442726664400,3.21566455078125,-0.15339718759059906,-0.7152898907661438,-0.2814399302005768
1684200442736690400,3.2256904296875,-0.13006383180618286,-0.8429791331291199,-0.3881934583187103
1684200442746715600,3.235715576171875,-0.12183066457509995,-0.9812595248222351,-0.4708087146282196
1684200442756741600,3.24574169921875,-0.12207730859518051,-1.1044954061508179,-0.5380500555038452
1684200442766767600,3.255767578125,-0.10548688471317291,-1.12772536277771,-0.5642480850219727
1684200442776792600,3.26579248046875,-0.06790275126695633,-1.0122541189193726,-0.5303809642791748
1684200442786818600,3.275818603515625,-0.008680706843733788,-0.7957267165184021,-0.45810016989707947
1684200442796843500,3.285843505859375,0.03942642733454704,-0.61947101354599,-0.4046613574028015
1684200442806869500,3.295869384765625,0.07413673400878906,-0.4824846386909485,-0.3415641486644745
1684200442816895500,3.3058955078125,0.10943980515003204,-0.4102915823459625,-0.27477261424064636
1684200442826920400,3.31592041015625,0.15144717693328857,-0.4129011929035187,-0.17607693374156952
1684200442836946400,3.325946533203125,0.1780703216791153,-0.487914502620697,-0.07689327001571655
1684200442846971400,3.335971435546875,0.18393753468990326,-0.5051866769790649,-0.004501361399888992
1684200442856997400,3.345997314453125,0.17836564779281616,-0.3534207046031952,0.04056768864393234
1684200442867022600,3.356022705078125,0.15894001722335815,-0.10218796879053116,0.07269154489040375
1684200442877048600,3.366048583984375,0.1380273997783661,0.17926548421382904,0.1173316240310669
1684200442887074600,3.376074462890625,0.12401250749826431,0.4131847620010376,0.1544816493988037
1684200442897099500,3.386099609375,0.10200543701648712,0.5399135947227478,0.19059206545352936
1684200442907125500,3.39612548828125,0.09454938024282455,0.5861527323722839,0.26654353737831116
1684200442917150500,3.406150390625,0.08985096961259842,0.501910924911499,0.3509511351585388
1684200442927176400,3.416176513671875,0.07780282199382782,0.2521224617958069,0.42537689208984375
1684200442937202400,3.426202392578125,0.05863690376281738,-0.13434532284736633,0.4362664222717285
1684200442947227400,3.436227294921875,0.015003405511379242,-0.4776398539543152,0.35909387469291687
1684200442957253400,3.44625341796875,-0.021701544523239136,-0.566469669342041,0.2169508934020996
1684200442967278600,3.456278564453125,-0.04898882657289505,-0.38994044065475464,0.08186764270067215
1684200442977304600,3.4663046875,-0.08191891014575958,-0.0924987941980362,0.004945082124322653
1684200442987329500,3.47632958984375,-0.11788170039653778,0.21541909873485565,0.03135218843817711
1684200442997355500,3.48635546875,-0.14003494381904602,0.4807075560092926,0.16273236274719238
1684200443007381500,3.496381591796875,-0.14347201585769653,0.6395099759101868,0.3682447671890259
1684200443017406500,3.506406494140625,-0.16069523990154266,0.5598180890083313,0.6061568856239319
1684200443027432400,3.516432373046875,-0.15188391506671906,0.31304001808166504,0.8180009722709656
1684200443037457400,3.52645751953125,-0.12038593739271164,0.10930952429771423,0.9420754909515381
1684200443047483400,3.5364833984375,-0.11589664965867996,0.05339725688099861,0.9361739158630371
1684200443057509400,3.54650927734375,-0.10560530424118042,0.1433592587709427,0.8072705864906311
1684200443067534300,3.556534423828125,-0.07872308790683746,0.3366677165031433,0.5856505632400513
1684200443077560300,3.566560302734375,-0.053052883595228195,0.5413463711738586,0.3519095480442047
1684200443087585500,3.57658544921875,-0.0360637791454792,0.6426950693130493,0.23155783116817474
1684200443097611500,3.586611572265625,-0.02355577051639557,0.6033706665039062,0.25679758191108704
1684200443107636500,3.596636474609375,-0.02938862517476082,0.5222235918045044,0.3641993999481201
1684200443117662500,3.606662353515625,-0.0364183634519577,0.45942917466163635,0.4639219045639038
1684200443127688700,3.616688720703125,-0.0371968038380146,0.3966779112815857,0.5031515955924988
1684200443137713400,3.62671337890625,-0.02353524975478649,0.3115977644920349,0.4774656593799591
1684200443147739600,3.63673974609375,-0.007981590926647186,0.128550186753273,0.38150423765182495
1684200443157764400,3.646764404296875,0.021210672333836555,-0.0487731508910656,0.2587469816207886
1684200443167790600,3.65679052734375,0.03459252417087555,-0.21788014471530914,0.12782786786556244
1684200443177816600,3.666816650390625,0.01435350626707077,-0.33543655276298523,0.030628250911831856
1684200443187841500,3.676841552734375,-0.022401312366127968,-0.43395116925239563,-0.07088984549045563
1684200443197867500,3.686867431640625,-0.052381012588739395,-0.4062748849391937,-0.1374662220478058
1684200443207892500,3.696892578125,-0.08901412039995193,-0.2811020612716675,-0.14921236038208008
1684200443217918500,3.70691845703125,-0.13410912454128265,-0.10592199116945267,-0.11580775678157806
1684200443227943400,3.716943359375,-0.1652098000049591,0.03852413222193718,-0.08638248592615128
1684200443237969400,3.726969482421875,-0.18198320269584656,0.10026141256093979,-0.05533604696393013
1684200443247995400,3.736995361328125,-0.17339636385440826,0.06440167874097824,-0.009324878454208374
1684200443258020400,3.747020263671875,-0.1545514017343521,-0.025573106482625008,0.02860005386173725
1684200443268046300,3.75704638671875,-0.13501685857772827,-0.06234496831893921,0.05123879015445709
1684200443278071300,3.7670712890625,-0.1108027994632721,-0.033090174198150635,0.07340729981660843
1684200443288097300,3.77709716796875,-0.09325069934129715,-0.04497746005654335,0.08943206816911697
1684200443298123300,3.787123291015625,-0.0829438865184784,-0.11355098336935043,0.09527016431093216
1684200443308148500,3.7971484375,-0.08401528000831604,-0.15266616642475128,0.07401600480079651
1684200443318174500,3.807174560546875,-0.09713085740804672,-0.15124307572841644,0.023307356983423233
1684200443328199400,3.817199462890625,-0.12137574702501297,-0.16937068104743958,-0.033413179218769073
1684200443338225400,3.827225341796875,-0.15717053413391113,-0.21409691870212555,-0.08691516518592834
1684200443348250400,3.83725048828125,-0.19384174048900604,-0.23650768399238586,-0.1378481239080429
1684200443358276400,3.8472763671875,-0.23253309726715088,-0.23857927322387695,-0.18743376433849335
1684200443368302300,3.85730224609375,-0.2595772445201874,-0.2406243085861206,-0.22065988183021545
1684200443378327300,3.867327392578125,-0.281831294298172,-0.2525343894958496,-0.2440468668937683
1684200443388353300,3.877353271484375,-0.30809327960014343,-0.27612411975860596,-0.25330430269241333
1684200443398378500,3.88737841796875,-0.3467361330986023,-0.3088015615940094,-0.24859468638896942
1684200443408404200,3.897404296875,-0.3888169825077057,-0.3404311239719391,-0.22710111737251282
1684200443418430500,3.907430419921875,-0.42368391156196594,-0.36002859473228455,-0.1891716718673706
1684200443428455400,3.917455322265625,-0.4591716229915619,-0.3423942029476166,-0.12940287590026855
1684200443438481700,3.927481689453125,-0.4953720271587372,-0.2766895592212677,-0.06345649808645248
1684200443448506400,3.93750634765625,-0.5231239795684814,-0.1638902723789215,0.016861505806446075
1684200443458532600,3.94753271484375,-0.5334563255310059,-0.0030347327701747417,0.11328605562448502
1684200443468557300,3.957557373046875,-0.5326118469238281,0.16057896614074707,0.2073233425617218
1684200443478583600,3.96758349609375,-0.5152916312217712,0.27142420411109924,0.30637890100479126
1684200443488609500,3.977609619140625,-0.49411019682884216,0.29661479592323303,0.4057669937610626
1684200443498634500,3.987634521484375,-0.45736145973205566,0.23523911833763123,0.48531147837638855
1684200443508660500,3.997660400390625,-0.40437573194503784,0.08551699668169022,0.5379499197006226
1684200443518685400,4.007685546875,-0.3426554203033447,-0.12231987714767456,0.5475267767906189
1684200443528711700,4.017711669921875,-0.2836965024471283,-0.32655370235443115,0.4961419105529785
1684200443538737400,4.0277373046875,-0.22471602261066437,-0.4281751215457916,0.3957502841949463
1684200443548762600,4.0377626953125,-0.17722414433956146,-0.36502569913864136,0.26294270157814026
1684200443558788600,4.04778857421875,-0.15109588205814362,-0.18445099890232086,0.15163147449493408
1684200443568813600,4.0578134765625,-0.1543140411376953,0.0033649690449237823,0.08654727041721344
1684200443578839600,4.067839599609375,-0.16207033395767212,0.15831245481967926,0.08805549889802933
1684200443588864500,4.077864501953125,-0.14589959383010864,0.28596121072769165,0.11770127713680267
1684200443598890500,4.087890380859375,-0.09949097037315369,0.4099966883659363,0.1372113972902298
1684200443608916500,4.09791650390625,-0.01730448193848133,0.43004974722862244,0.09171715378761292
1684200443618941400,4.10794140625,0.07757451385259628,0.31471312046051025,0.0026611313223838806
1684200443628967400,4.117967529296875,0.17257797718048096,0.1664421260356903,-0.07044664025306702
1684200443638992600,4.12799267578125,0.25088217854499817,-0.027424298226833344,-0.11885987967252731
1684200443649018600,4.1380185546875,0.2987405061721802,-0.2366563379764557,-0.1260347068309784
1684200443659044600,4.148044677734375,0.33152249455451965,-0.38475117087364197,-0.04873780906200409
1684200443669069600,4.158069580078125,0.32666969299316406,-0.49791955947875977,0.08550681918859482
1684200443679095600,4.168095458984375,0.3028069734573364,-0.5432558655738831,0.13342054188251495
1684200443689120500,4.17812060546875,0.2706303894519806,-0.36647602915763855,-0.044858116656541824
1684200443699146500,4.188146484375,0.24382606148719788,0.046171654015779495,-0.41832420229911804
1684200443709171500,4.19817138671875,0.24193787574768066,0.44387534260749817,-0.7788800001144409
1684200443719197400,4.208197509765625,0.26879170536994934,0.5999321341514587,-1.0036711692810059
1684200443729223400,4.218223388671875,0.3340010941028595,0.509417712688446,-1.1069896221160889
1684200443739248600,4.22824853515625,0.40939366817474365,0.36249491572380066,-1.1225624084472656
1684200443749274400,4.2382744140625,0.49484437704086304,0.2892175018787384,-1.1092442274093628
1684200443759299600,4.248299560546875,0.6063767075538635,0.2931113541126251,-1.1253255605697632
1684200443769325600,4.25832568359375,0.7693522572517395,0.28389015793800354,-1.2597028017044067
1684200443779351600,4.2683515625,0.9628368616104126,0.2891384959220886,-1.5451595783233643
1684200443789376500,4.27837646484375,1.1467328071594238,0.33599868416786194,-1.9233686923980713
1684200443799402500,4.288402587890625,1.26626455783844,0.46578189730644226,-2.2776613235473633
1684200443809427500,4.298427490234375,1.2942408323287964,0.7270534634590149,-2.4810078144073486
1684200443819453400,4.308453369140625,1.2717070579528809,1.1130094528198242,-2.5224428176879883
1684200443829478400,4.318478515625,1.2406260967254639,1.5197516679763794,-2.463688611984253
1684200443839504400,4.32850439453125,1.2675925493240356,1.8440921306610107,-2.370630979537964
1684200443849530400,4.3385302734375,1.2995089292526245,2.042445421218872,-2.242126941680908
1684200443859555600,4.3485556640625,1.2316644191741943,2.018419027328491,-2.0047264099121094
1684200443869581600,4.35858154296875,1.1595308780670166,1.7399052381515503,-1.625168800354004
1684200443879606500,4.3686064453125,1.109676718711853,1.3050272464752197,-1.0960931777954102
1684200443889632500,4.378632568359375,1.162722110748291,0.8090060949325562,-0.625290036201477
1684200443899658500,4.388658447265625,1.2320301532745361,0.5548281669616699,-0.3265151083469391
1684200443909683500,4.398683349609375,1.2461880445480347,0.5563972592353821,-0.21529246866703033
1684200443919709400,4.40870947265625,1.2606768608093262,0.7274448275566101,-0.26783859729766846
1684200443929734400,4.418734375,1.2814871072769165,0.9341109395027161,-0.4221879541873932
1684200443939760400,4.428760498046875,1.3152929544448853,1.0204577445983887,-0.5667977929115295
1684200443949785300,4.438785400390625,1.378217101097107,1.0001534223556519,-0.6094198226928711
1684200443959811300,4.448811279296875,1.4059526920318604,0.9478126168251038,-0.49230730533599854
1684200443969837300,4.45883740234375,1.366089940071106,0.9415866732597351,-0.28132450580596924
1684200443979862500,4.468862548828125,1.2872629165649414,1.0043628215789795,-0.0746951773762703
1684200443989888500,4.478888427734375,1.1948901414871216,1.1440187692642212,0.07578513771295547
1684200443999913500,4.48891357421875,1.122930645942688,1.2856147289276123,0.1619156301021576
1684200444009939500,4.498939453125,1.0729131698608398,1.3819143772125244,0.20432168245315552
1684200444019965400,4.50896533203125,1.0582369565963745,1.401691198348999,0.19809533655643463
1684200444029990400,4.518990478515625,1.0611450672149658,1.3304585218429565,0.1560828983783722
1684200444040016400,4.529016357421875,1.027010202407837,1.2551268339157104,0.12176172435283661
1684200444050041300,4.539041259765625,0.9685766696929932,1.177982211112976,0.1217673122882843
1684200444060067300,4.5490673828125,0.8914034366607666,1.06328547000885,0.15511539578437805
1684200444070093300,4.55909326171875,0.8082981705665588,0.9395681023597717,0.18363066017627716
1684200444080118500,4.569118408203125,0.7138978838920593,0.8212437033653259,0.18574881553649902
1684200444090144500,4.57914453125,0.6292530298233032,0.7268258929252625,0.17438697814941406
1684200444100169500,4.58916943359375,0.5227206945419312,0.5847697854042053,0.17503531277179718
1684200444110195500,4.599195556640625,0.4019562304019928,0.38388514518737793,0.18053393065929413
1684200444120220400,4.609220458984375,0.28180888295173645,0.11345480382442474,0.16132086515426636
1684200444130246400,4.619246337890625,0.16187742352485657,-0.16014637053012848,0.12003786861896515
1684200444140272400,4.6292724609375,0.06747393310070038,-0.3380609154701233,0.1028951108455658
1684200444150297300,4.63929736328125,0.03173564001917839,-0.383661687374115,0.12247893959283829
1684200444160323300,4.6493232421875,0.013228364288806915,-0.33060765266418457,0.18193434178829193
1684200444170348300,4.659348388671875,-0.03928544372320175,-0.2115882933139801,0.28340503573417664
1684200444180374300,4.669374267578125,-0.1225220263004303,-0.04065175727009773,0.4077439606189728
1684200444190399500,4.6793994140625,-0.20984122157096863,0.0307257529348135,0.51774662733078
1684200444200425500,4.689425537109375,-0.28461122512817383,-0.01317584328353405,0.5828886032104492
1684200444210451500,4.699451416015625,-0.3255022168159485,-0.1294473260641098,0.5936483144760132
1684200444220476400,4.709476318359375,-0.3358924686908722,-0.351837694644928,0.6047163605690002
1684200444230502400,4.71950244140625,-0.3412749767303467,-0.6606916785240173,0.5895835161209106
1684200444240527400,4.72952734375,-0.34837737679481506,-0.9709069132804871,0.5367299914360046
1684200444250553300,4.73955322265625,-0.36082151532173157,-1.2291646003723145,0.4768211245536804
1684200444260579300,4.749579345703125,-0.39541223645210266,-1.4131489992141724,0.4231337606906891
1684200444270604300,4.759604248046875,-0.46317875385284424,-1.5029507875442505,0.3874399662017822
1684200444280630300,4.76963037109375,-0.5533002614974976,-1.5143080949783325,0.3809806704521179
1684200444290655500,4.779655517578125,-0.6302131414413452,-1.4491374492645264,0.38888412714004517
1684200444300681500,4.789681396484375,-0.6798890829086304,-1.3442240953445435,0.4101157784461975
1684200444310706400,4.79970654296875,-0.7007102370262146,-1.2467271089553833,0.47594594955444336
1684200444320732400,4.809732421875,-0.7038029432296753,-1.1444453001022339,0.5712298154830933
1684200444330758400,4.81975830078125,-0.7211904525756836,-1.0673598051071167,0.6800606846809387
1684200444340783400,4.829783447265625,-0.7639310359954834,-1.0443744659423828,0.8000084757804871
1684200444350809300,4.839809326171875,-0.8269839882850647,-1.0595600605010986,0.9310029745101929
1684200444360834300,4.849834228515625,-0.8861541748046875,-1.1168729066848755,1.0587440729141235
1684200444370860300,4.8598603515625,-0.9421958923339844,-1.1656720638275146,1.154641032218933
1684200444380886300,4.86988623046875,-0.9924541115760803,-1.1568114757537842,1.1848171949386597
1684200444390911200,4.8799111328125,-1.0232640504837036,-1.0603477954864502,1.1538044214248657
1684200444400937200,4.889937255859375,-1.0511362552642822,-0.8544163107872009,1.0737693309783936
1684200444410962400,4.89996240234375,-1.0977038145065308,-0.6179028153419495,0.9612853527069092
1684200444420988400,4.909988525390625,-1.1540957689285278,-0.48315098881721497,0.8110871315002441
1684200444431013400,4.920013427734375,-1.2298332452774048,-0.45526182651519775,0.6611682176589966
1684200444441039400,4.930039306640625,-1.3471158742904663,-0.47955986857414246,0.535078763961792
1684200444451065300,4.9400654296875,-1.459283471107483,-0.4860997796058655,0.4161904454231262
1684200444461090300,4.95009033203125,-1.5392673015594482,-0.43176934123039246,0.3014001250267029
1684200444471116300,4.9601162109375,-1.5743443965911865,-0.37456730008125305,0.17008709907531738
1684200444481141200,4.970141357421875,-1.5473371744155884,-0.415351927280426,0.02436778135597706
1684200444491167200,4.980167236328125,-1.4346004724502563,-0.5929903984069824,-0.10988030582666397
1684200444501193500,4.990193359375,-1.2259631156921387,-0.740527331829071,-0.13518688082695007
1684200444511218400,5.000218505859375,-0.9670100808143616,-0.7864428758621216,-0.06039760634303093
1684200444521244400,5.010244384765625,-0.7122044563293457,-0.8068183660507202,-0.004404100589454174
1684200444531269400,5.020269287109375,-0.44039878249168396,-0.8112584352493286,-0.003065329510718584
1684200444541295600,5.030295654296875,-0.18486365675926208,-0.8042901754379272,-0.08333636820316315
1684200444551321600,5.040321533203125,0.010282397270202637,-0.8185330033302307,-0.2946406304836273
1684200444561346600,5.0503466796875,0.05643937736749649,-0.7764090895652771,-0.5033630132675171
1684200444571372500,5.06037255859375,-0.03455045074224472,-0.6474862694740295,-0.5938897132873535
1684200444581397500,5.0703974609375,-0.13752911984920502,-0.4915923476219177,-0.5716168880462646
1684200444591423500,5.080423583984375,-0.17590020596981049,-0.45184335112571716,-0.4903433620929718
1684200444601448200,5.0904482421875,-0.19305986166000366,-0.5882366895675659,-0.39189934730529785
1684200444611474400,5.100474365234375,-0.23666831851005554,-0.8102436661720276,-0.29983627796173096
1684200444621500400,5.11050048828125,-0.31152212619781494,-1.0018545389175415,-0.2547762095928192
1684200444631525600,5.120525634765625,-0.38364505767822266,-1.0600038766860962,-0.27796489000320435
1684200444641551600,5.130551513671875,-0.40997400879859924,-0.988578200340271,-0.33225107192993164
1684200444651576600,5.14057666015625,-0.38414400815963745,-0.8449648022651672,-0.3871159255504608
1684200444661602600,5.1506025390625,-0.34069427847862244,-0.6128904223442078,-0.3696472644805908
1684200444671628500,5.160628662109375,-0.3174073100090027,-0.2907100319862366,-0.24388562142848969
1684200444681653500,5.170653564453125,-0.3006969690322876,0.05982092767953873,-0.026530949398875237
1684200444691679500,5.180679443359375,-0.3088081479072571,0.4115366041660309,0.22870028018951416
1684200444701704400,5.190704345703125,-0.36214667558670044,0.8369030356407166,0.5183345079421997
1684200444711730400,5.20073046875,-0.37584197521209717,1.1919729709625244,0.7842263579368591
1684200444721755400,5.21075537109375,-0.3862505257129669,1.1876811981201172,0.9040431380271912
1684200444731781400,5.220781494140625,-0.3930668830871582,1.0986599922180176,0.9336745142936707
1684200444741807400,5.230807373046875,-0.35637757182121277,1.1192669868469238,0.9522151947021484
1684200444751832600,5.24083251953125,-0.3160437345504761,1.0249525308609009,0.8584421277046204
1684200444761858600,5.250858642578125,-0.26209691166877747,0.8478513956069946,0.6628896594047546
1684200444771883500,5.260883544921875,-0.1790366768836975,0.5630359053611755,0.438631534576416
1684200444781909500,5.270909423828125,-0.0925222709774971,0.2973707914352417,0.23900087177753448
1684200444791934500,5.2809345703125,-0.015224020928144455,0.12295239418745041,0.08019071817398071
1684200444801960400,5.29096044921875,0.023656008765101433,-0.022553211078047752,-0.03646564111113548
1684200444811986400,5.300986328125,0.03924109414219856,-0.2050098478794098,-0.1214953139424324
1684200444822011400,5.311011474609375,0.04916340857744217,-0.43791547417640686,-0.18523022532463074
1684200444832037400,5.321037353515625,0.0641210526227951,-0.6826208829879761,-0.23595304787158966
1684200444842062600,5.3310625,0.08050355315208435,-0.88808673620224,-0.2435494065284729
1684200444852088600,5.341088623046875,0.07634396851062775,-0.991491973400116,-0.173943430185318
1684200444862114300,5.3511142578125,0.05308077856898308,-1.0334749221801758,-0.07991139590740204
1684200444872139500,5.361139404296875,0.04864821583032608,-0.9895036816596985,0.011156996712088585
1684200444882165500,5.37116552734375,0.049871042370796204,-0.8697196245193481,0.08540025353431702
1684200444892190500,5.3811904296875,0.016951175406575203,-0.6309967637062073,0.14604228734970093
1684200444902216400,5.391216552734375,-0.0634969025850296,-0.3482649028301239,0.1826331913471222
1684200444912242400,5.401242431640625,-0.1384267956018448,-0.06083979830145836,0.22061093151569366
1684200444922267400,5.411267333984375,-0.1895439326763153,0.21555206179618835,0.29725977778434753
1684200444932293400,5.42129345703125,-0.20034731924533844,0.36397936940193176,0.3738645613193512
1684200444942318300,5.431318359375,-0.21628257632255554,0.37222686409950256,0.42062675952911377
1684200444952344300,5.44134423828125,-0.2173028290271759,0.3027609884738922,0.43378037214279175
1684200444962369500,5.45136962890625,-0.22003966569900513,0.1881593018770218,0.4153938889503479
1684200444972395500,5.4613955078125,-0.2018960863351822,0.09206367284059525,0.35333797335624695
1684200444982421500,5.47142138671875,-0.1820678859949112,0.055456578731536865,0.23719483613967896
1684200444992446500,5.481446533203125,-0.14967665076255798,0.05237317085266113,0.10408178716897964
1684200445002472400,5.491472412109375,-0.10908301919698715,0.014339834451675415,-0.022708844393491745
1684200445012497400,5.501497314453125,-0.07719779014587402,-0.018982168287038803,-0.06933919340372086
1684200445022523400,5.5115234375,-0.05243188142776489,-0.026731818914413452,-0.03829570114612579
1684200445032549400,5.52154931640625,-0.04940519854426384,0.02965741977095604,0.04899925738573074
1684200445042574300,5.53157421875,-0.06776633858680725,0.0805819109082222,0.12679323554039001
1684200445052600300,5.541600341796875,-0.0729411244392395,0.08749813586473465,0.16011683642864227
1684200445062625500,5.55162548828125,-0.06689568608999252,0.09262595325708389,0.16872605681419373
1684200445072651300,5.5616513671875,-0.06927735358476639,0.0313628613948822,0.16764400899410248
1684200445082676500,5.571676513671875,-0.07667683064937592,-0.08464935421943665,0.17030514776706696
1684200445092702500,5.581702392578125,-0.07536282390356064,-0.184818834066391,0.17192886769771576
1684200445102728400,5.591728515625,-0.07059108465909958,-0.2332395762205124,0.15165328979492188
1684200445112753400,5.60175341796875,-0.06604613363742828,-0.20955528318881989,0.1082320362329483
1684200445122779400,5.611779296875,-0.06142005696892738,-0.1322251558303833,0.05117591470479965
1684200445132804400,5.621804443359375,-0.057937707751989365,-0.05663345381617546,-0.011288793757557869
1684200445142830300,5.631830322265625,-0.05073302611708641,-0.026635626330971718,-0.06430456042289734
1684200445152856300,5.641856201171875,-0.03405551239848137,-0.04835370555520058,-0.0982779785990715
1684200445162881300,5.65188134765625,-0.030362509191036224,-0.1315005123615265,-0.1189797967672348
1684200445172907300,5.6619072265625,-0.03786596283316612,-0.2572416663169861,-0.11783436685800552
1684200445182932500,5.671932373046875,-0.049301356077194214,-0.39209306240081787,-0.10385749489068985
1684200445192958500,5.68195849609375,-0.056218650192022324,-0.46017783880233765,-0.08773685246706009
1684200445202983400,5.6919833984375,-0.07705063372850418,-0.4630618691444397,-0.09325967729091644
1684200445213009000,5.7020087890625,-0.13701994717121124,-0.4636126160621643,-0.09900811314582825
1684200445223035000,5.712034912109375,-0.19891254603862762,-0.43101149797439575,-0.11435145139694214
1684200445233059800,5.722059814453125,-0.26011863350868225,-0.36873456835746765,-0.12988248467445374
1684200445243085800,5.7320859375,-0.3233262300491333,-0.327290803194046,-0.14496669173240662
1684200445253110800,5.74211083984375,-0.364596962928772,-0.32344838976860046,-0.15295538306236267
1684200445263136800,5.75213671875,-0.3668869435787201,-0.32722723484039307,-0.12773308157920837
1684200445273162800,5.762162841796875,-0.3281443417072296,-0.34663262963294983,-0.07095235586166382
1684200445283188000,5.77218798828125,-0.3036952316761017,-0.3969382047653198,0.00017232121899724007
1684200445293214000,5.7822138671875,-0.30026480555534363,-0.3972383439540863,0.06723365187644958
1684200445303239000,5.792239013671875,-0.30929192900657654,-0.32545605301856995,0.11239005625247955
1684200445313265000,5.802264892578125,-0.3216886818408966,-0.19910292327404022,0.10159679502248764
1684200445323289900,5.812289794921875,-0.32178744673728943,-0.06858713179826736,0.0590209998190403
1684200445333315800,5.82231591796875,-0.3248540759086609,0.01212103571742773,0.019399022683501244
1684200445343342000,5.832342041015625,-0.32255837321281433,0.05139297619462013,-0.0021664213854819536
1684200445353366800,5.84236669921875,-0.3157462775707245,0.09800068289041519,-0.0007722564041614532
1684200445363393000,5.85239306640625,-0.29916101694107056,0.09476600587368011,0.022559726610779762
1684200445373417700,5.862417724609375,-0.24119651317596436,-0.02074461244046688,0.07070381939411163
1684200445383444000,5.87244384765625,-0.1616452932357788,-0.19709211587905884,0.1327117681503296
1684200445393470000,5.882469970703125,-0.08222103863954544,-0.3013854920864105,0.18328839540481567
1684200445403495200,5.8924951171875,-0.03036249428987503,-0.3146129548549652,0.23884162306785583
1684200445413521200,5.902521240234375,0.0012500276789069176,-0.26660922169685364,0.32772916555404663
1684200445423546000,5.912546142578125,0.01728469878435135,-0.09275288879871368,0.43188053369522095
1684200445433572000,5.922572021484375,0.0377524234354496,0.1885054111480713,0.5334846377372742
1684200445443596800,5.9325966796875,0.08862772583961487,0.45934855937957764,0.5969908237457275
1684200445453623000,5.942623046875,0.14590299129486084,0.5709848403930664,0.5890551209449768
1684200445463649000,5.95264892578125,0.2015698403120041,0.5100468993186951,0.4831947386264801
1684200445473674000,5.962674072265625,0.26073727011680603,0.3500191569328308,0.3056103587150574
1684200445483700000,5.972699951171875,0.3144002854824066,0.16299431025981903,0.0796499252319336
1684200445493725200,5.98272509765625,0.33702942728996277,0.028197625651955605,-0.14887219667434692
1684200445503751000,5.9927509765625,0.3455517590045929,-0.021597150713205338,-0.3640405535697937
1684200445513777000,6.00277685546875,0.33458009362220764,-0.034023724496364594,-0.5737718939781189
1684200445523802000,6.012802001953125,0.3493863344192505,-0.048822250217199326,-0.8233931064605713
1684200445533828000,6.022828125,0.39307868480682373,-0.08051200211048126,-1.181315302848816
1684200445543853000,6.03285302734375,0.4595656096935272,-0.0573124960064888,-1.649709939956665
1684200445553879000,6.042879150390625,0.5404298305511475,0.02790093794465065,-2.0915846824645996
1684200445563904000,6.052904052734375,0.6141559481620789,0.08676515519618988,-2.3704144954681396
1684200445573930000,6.062929931640625,0.6966233849525452,0.21347782015800476,-2.419415235519409
1684200445583956000,6.0729560546875,0.7447180151939392,0.439461886882782,-2.3038532733917236
1684200445593981000,6.08298095703125,0.738224446773529,0.7309139966964722,-2.118962287902832
1684200445604007000,6.0930068359375,0.6780493259429932,0.9153733253479004,-1.9190598726272583
1684200445614032100,6.1030322265625,0.604988694190979,0.9373406767845154,-1.7248950004577637
1684200445624058000,6.11305810546875,0.5966013669967651,0.790529191493988,-1.5808625221252441
1684200445634084000,6.123083984375,0.698164165019989,0.5469365119934082,-1.4954686164855957
1684200445644109000,6.133109130859375,0.8342292308807373,0.40840521454811096,-1.3758213520050049
1684200445654135000,6.143135009765625,0.9041081666946411,0.29014089703559875,-1.1718841791152954
1684200445664160000,6.153159912109375,0.9611071348190308,0.11498286575078964,-0.9515140652656555
1684200445674186000,6.16318603515625,1.0437347888946533,0.033890414983034134,-0.7723312973976135
1684200445684211000,6.1732109375,1.1234357357025146,0.04770950227975845,-0.6556876301765442
1684200445694237000,6.18323681640625,1.1807582378387451,0.1733342707157135,-0.6123105883598328
1684200445704263000,6.193262939453125,1.1703648567199707,0.43645361065864563,-0.5886433720588684
1684200445714287900,6.203287841796875,1.1365360021591187,0.7055109143257141,-0.5128729343414307
1684200445724313900,6.21331396484375,1.0914069414138794,0.8833163380622864,-0.38280293345451355
1684200445734339000,6.223339111328125,1.0427826642990112,0.8705826997756958,-0.24089239537715912
1684200445744365000,6.233364990234375,1.001774549484253,0.7880755066871643,-0.08451293408870697
1684200445754391000,6.24339111328125,0.9849753379821777,0.7434896230697632,0.09204692393541336
1684200445764416000,6.253416015625,0.9871834516525269,0.7660155296325684,0.25472167134284973
1684200445774442000,6.26344189453125,0.9880026578903198,0.7654293775558472,0.3404086232185364
1684200445784467000,6.273467041015625,0.9648480415344238,0.7212072014808655,0.3611990511417389
1684200445794493000,6.283492919921875,0.9240002036094666,0.6771582365036011,0.36733871698379517
1684200445804518000,6.293517822265625,0.8875394463539124,0.6851970553398132,0.3865744471549988
1684200445814544000,6.3035439453125,0.8581019043922424,0.7223559021949768,0.38397759199142456
1684200445824569900,6.31356982421875,0.840362548828125,0.7508419156074524,0.36354121565818787
1684200445834595000,6.323594970703125,0.8350721597671509,0.8138973116874695,0.3483007550239563
1684200445844621000,6.33362109375,0.8188122510910034,0.8715822696685791,0.3377380073070526
1684200445854646000,6.34364599609375,0.7614647746086121,0.8432177305221558,0.33058422803878784
1684200445864672000,6.353672119140625,0.6989166736602783,0.8010884523391724,0.34719371795654297
1684200445874698000,6.363697998046875,0.6551989912986755,0.7711718082427979,0.35298556089401245
1684200445884723000,6.373722900390625,0.6434540152549744,0.7339724898338318,0.35954737663269043
1684200445894749000,6.3837490234375,0.6272990107536316,0.7151884436607361,0.3681621551513672
1684200445904774000,6.39377392578125,0.5872724652290344,0.724397599697113,0.34046295285224915
1684200445914799900,6.4037998046875,0.5164265632629395,0.7078505754470825,0.25852787494659424
1684200445924825900,6.413825927734375,0.44781938195228577,0.6405552625656128,0.1702408790588379
1684200445934850800,6.423850830078125,0.3823719322681427,0.5466841459274292,0.1173773929476738
1684200445944876800,6.433876708984375,0.33903881907463074,0.4414291977882385,0.12189602106809616
1684200445954902000,6.443902099609375,0.307306170463562,0.3610028028488159,0.1964309811592102
1684200445964928000,6.453927978515625,0.2870379090309143,0.30881667137145996,0.31244614720344543
1684200445974953000,6.463952880859375,0.25991708040237427,0.26921334862709045,0.39853551983833313
1684200445984979000,6.47397900390625,0.21356691420078278,0.25224965810775757,0.4055596888065338
1684200445995005000,6.4840048828125,0.1566663533449173,0.26385706663131714,0.35237637162208557
1684200446005030000,6.49402978515625,0.09970253705978394,0.26061704754829407,0.27700066566467285
1684200446015056000,6.504055908203125,0.05946243926882744,0.19437092542648315,0.22428978979587555
1684200446025080800,6.514080810546875,0.019311372190713882,0.09916667640209198,0.1987510621547699
1684200446035106800,6.52410693359375,-0.010481411591172218,0.020108874887228012,0.19570840895175934
1684200446045132800,6.5341328125,-0.03930797055363655,-0.03043207712471485,0.19413718581199646
1684200446055158000,6.544157958984375,-0.060081955045461655,-0.08381647616624832,0.1819170117378235
1684200446065184000,6.55418408203125,-0.09045318514108658,-0.14709584414958954,0.15555304288864136
1684200446075209000,6.564208984375,-0.12305346876382828,-0.22971615195274353,0.1135973408818245
1684200446085235000,6.57423486328125,-0.15901532769203186,-0.33425337076187134,0.07395473122596741
1684200446095260000,6.584260009765625,-0.20135186612606049,-0.4123888909816742,0.051969803869724274
1684200446105286000,6.594285888671875,-0.2310573160648346,-0.422988623380661,0.041388168931007385
1684200446115311900,6.604311767578125,-0.2576921284198761,-0.39001014828681946,0.06313926726579666
1684200446125336800,6.6143369140625,-0.2964412271976471,-0.34136512875556946,0.11867630481719971
1684200446135362800,6.62436279296875,-0.3311360776424408,-0.29869118332862854,0.1618349701166153
1684200446145387800,6.6343876953125,-0.35849735140800476,-0.34319961071014404,0.1972646415233612
1684200446155413800,6.644413818359375,-0.37680789828300476,-0.47445082664489746,0.2142968773841858
1684200446165439700,6.654439697265625,-0.38744020462036133,-0.6002832055091858,0.2298639565706253
1684200446175465000,6.66446484375,-0.4135596752166748,-0.6937244534492493,0.2721205949783325
1684200446185491000,6.674490966796875,-0.44206172227859497,-0.7893819808959961,0.35075563192367554
1684200446195516000,6.684515869140625,-0.47421327233314514,-0.917605996131897,0.46473225951194763
1684200446205542000,6.6945419921875,-0.5142120122909546,-1.033056616783142,0.5840333104133606
1684200446215567000,6.704567138671875,-0.5492264628410339,-1.086662769317627,0.6819130182266235
1684200446225593000,6.714593017578125,-0.5726361870765686,-1.0483448505401611,0.7423639297485352
1684200446235619000,6.724619140625,-0.5808379650115967,-0.9278247952461243,0.7587661147117615
1684200446245644000,6.73464404296875,-0.588092565536499,-0.7667558193206787,0.76734459400177
1684200446255670000,6.744669921875,-0.6153331995010376,-0.6628350019454956,0.7972846627235413
1684200446265695000,6.754695068359375,-0.6709896922111511,-0.6286279559135437,0.8563203811645508
1684200446275721000,6.764720947265625,-0.7597874402999878,-0.622860848903656,0.9207316040992737
1684200446285747000,6.774746826171875,-0.8679743409156799,-0.61297607421875,0.9457149505615234
1684200446295772200,6.784772216796875,-0.9769370555877686,-0.582495927810669,0.8992244601249695
1684200446305798100,6.794798095703125,-1.0192089080810547,-0.3645101487636566,0.6996743679046631
1684200446315823000,6.804822998046875,-0.8197692632675171,0.24920572340488434,0.2701525092124939
1684200446325849000,6.81484912109375,-0.4261682331562042,0.8193550705909729,-0.20049606263637543
1684200446335874000,6.8248740234375,-0.18980923295021057,0.6939222812652588,-0.34125983715057373
1684200446345900000,6.834900146484375,-0.09329241514205933,0.19122503697872162,-0.2158212959766388
1684200446355926000,6.844926025390625,-0.06842222064733505,-0.2022431641817093,-0.00803320948034525
1684200446365951000,6.854950927734375,-0.1565576195716858,-0.33015409111976624,0.13227543234825134
1684200446375977000,6.86497705078125,-0.3343622386455536,-0.23546352982521057,0.18911126255989075
1684200446386002200,6.875002197265625,-0.5135953426361084,-0.025716450065374374,0.20552335679531097
1684200446396028200,6.885028076171875,-0.6145097017288208,0.1890709549188614,0.24013246595859528
1684200446406054100,6.89505419921875,-0.6816539764404297,0.3639562726020813,0.3506353497505188
1684200446416079000,6.9050791015625,-0.7211518287658691,0.4244670271873474,0.5365687608718872
1684200446426105000,6.91510498046875,-0.7507154941558838,0.3263929486274719,0.6923134922981262
1684200446436130000,6.925130126953125,-0.7869941592216492,0.1688198298215866,0.7346076965332031
1684200446446156000,6.935156005859375,-0.7692708969116211,0.0692644715309143,0.6533645391464233
1684200446456181000,6.945180908203125,-0.6299673318862915,0.034459881484508514,0.5016914010047913
1684200446466207000,6.95520703125,-0.4261869788169861,0.06739721447229385,0.36527079343795776
1684200446476233000,6.96523291015625,-0.2506473660469055,0.11361530423164368,0.2834821939468384
1684200446486258000,6.9752578125,-0.16638298332691193,0.1186337098479271,0.22584274411201477
1684200446496284000,6.985283935546875,-0.17683643102645874,0.08766354620456696,0.21117672324180603
1684200446506309000,6.99530908203125,-0.1679328978061676,0.16286467015743256,0.32302597165107727
1684200446516335000,7.005335205078125,-0.16705618798732758,0.3315138518810272,0.5194162726402283
1684200446526361000,7.015361083984375,-0.28631213307380676,0.5625832676887512,0.6956543326377869
1684200446536386000,7.025385986328125,-0.4561309814453125,0.829042911529541,0.782166063785553
1684200446546412000,7.035412109375,-0.5666635036468506,1.069780707359314,0.8078889846801758
1684200446556437000,7.04543701171875,-0.6018100380897522,1.2379173040390015,0.8040436506271362
1684200446566463000,7.055462890625,-0.587900698184967,1.2774733304977417,0.7909746766090393
1684200446576488000,7.065488037109375,-0.5582194924354553,1.2213751077651978,0.7921009659767151
1684200446586514000,7.075513916015625,-0.537813127040863,1.1487842798233032,0.802688717842102
1684200446596540000,7.085539794921875,-0.5370980501174927,1.1159731149673462,0.8151426911354065
1684200446606565000,7.095565185546875,-0.526280403137207,1.125929594039917,0.8270550966262817
1684200446616591000,7.105591064453125,-0.5037226676940918,1.162110447883606,0.8456079959869385
1684200446626616000,7.115615966796875,-0.4800513684749603,1.193888783454895,0.865463376045227
1684200446636642000,7.12564208984375,-0.47249889373779297,1.2214503288269043,0.9001808762550354
1684200446646668300,7.135668212890625,-0.4691188633441925,1.299604892730713,0.9374041557312012
1684200446656693000,7.14569287109375,-0.4590310752391815,1.5122050046920776,1.0070345401763916
1684200446666719200,7.15571923828125,-0.43880242109298706,1.7873080968856812,1.1231950521469116
1684200446676744000,7.165743896484375,-0.4306699335575104,1.9589654207229614,1.254746913909912
1684200446686770200,7.175770263671875,-0.41781485080718994,1.9787817001342773,1.3930054903030396
1684200446696795000,7.185794921875,-0.4053930640220642,1.9160301685333252,1.4901645183563232
1684200446706820900,7.19582080078125,-0.414517879486084,1.8983681201934814,1.530673861503601
1684200446716847000,7.20584716796875,-0.4247923493385315,1.950351357460022,1.4937336444854736
1684200446726872000,7.2158720703125,-0.42552024126052856,2.0759072303771973,1.4210028648376465
1684200446736898300,7.225898193359375,-0.4163230061531067,2.236172914505005,1.351715087890625
1684200446746923000,7.235923095703125,-0.40233707427978516,2.404897451400757,1.3156265020370483
1684200446756949200,7.24594921875,-0.3605363667011261,2.5490472316741943,1.350173830986023
1684200446766975200,7.255975341796875,-0.30056315660476685,2.6384315490722656,1.4369033575057983
1684200446777000200,7.266000244140625,-0.2336176633834839,2.749490976333618,1.572468876838684
1684200446787026200,7.276026123046875,-0.1689908653497696,2.834301233291626,1.7037540674209595
1684200446797051100,7.286051025390625,-0.11225301772356033,2.848193407058716,1.7905083894729614
1684200446807077000,7.2960771484375,-0.06295076012611389,2.8946144580841064,1.8271292448043823
1684200446817102000,7.30610205078125,-0.0220765620470047,3.0232057571411133,1.8373373746871948
1684200446827128000,7.316128173828125,0.0074469586834311485,3.1812615394592285,1.8104218244552612
1684200446837154000,7.326154052734375,0.03888930380344391,3.331589460372925,1.7526508569717407
1684200446847179300,7.33617919921875,0.07056441158056259,3.504704713821411,1.7288800477981567
1684200446857205200,7.346205322265625,0.10393062233924866,3.63761830329895,1.7441612482070923
1684200446867230200,7.356230224609375,0.12291233241558075,3.720491647720337,1.7630513906478882
1684200446877256200,7.366256103515625,0.13749927282333374,3.7010200023651123,1.7509808540344238
1684200446887282200,7.3762822265625,0.15836623311042786,3.5689923763275146,1.713722586631775
1684200446897307100,7.38630712890625,0.1473444700241089,3.369436502456665,1.6549737453460693
1684200446907333000,7.3963330078125,0.15857526659965515,3.0892577171325684,1.5428714752197266
1684200446917358000,7.406358154296875,0.19258597493171692,2.8298871517181396,1.4216268062591553
1684200446927384000,7.416384033203125,0.2283615618944168,2.5961625576019287,1.300262212753296
1684200446937410000,7.42641015625,0.2308388352394104,2.4418063163757324,1.2068449258804321
1684200446947435300,7.436435302734375,0.21092894673347473,2.4157190322875977,1.16435968875885
1684200446957461000,7.4464609375,0.15318229794502258,2.465954542160034,1.1836494207382202
1684200446967486200,7.456486328125,0.056263599544763565,2.5154941082000732,1.2364842891693115
1684200446977512200,7.46651220703125,-0.047239091247320175,2.5895650386810303,1.2891051769256592
1684200446987537200,7.476537109375,-0.12988024950027466,2.665388345718384,1.3078091144561768
1684200446997563100,7.486563232421875,-0.18466387689113617,2.686356782913208,1.2894141674041748
1684200447007589000,7.496589111328125,-0.201593816280365,2.6565520763397217,1.2305777072906494
1684200447017614000,7.506614013671875,-0.1916477084159851,2.6317336559295654,1.1551434993743896
1684200447027640000,7.51664013671875,-0.1566396802663803,2.616075038909912,1.0905115604400635
1684200447037665000,7.5266650390625,-0.11947128176689148,2.5843234062194824,1.0247548818588257
1684200447047691000,7.53669091796875,-0.08613899350166321,2.558232069015503,0.9553565382957458
1684200447057717000,7.546717041015625,-0.04411564767360687,2.519670009613037,0.8846511840820312
1684200447067742200,7.5567421875,0.004513673484325409,2.4190478324890137,0.8199808597564697
1684200447077768200,7.566768310546875,0.06375942379236221,2.2854244709014893,0.7547422051429749
1684200447087793200,7.576793212890625,0.127358540892601,2.1808784008026123,0.6736563444137573
1684200447097819100,7.586819091796875,0.1830894500017166,2.125211477279663,0.5663703680038452
1684200447107844000,7.596843994140625,0.23849105834960938,2.11281418800354,0.4437147080898285
1684200447117870000,7.6068701171875,0.2780917286872864,2.0751755237579346,0.32085031270980835
1684200447127896000,7.61689599609375,0.30726030468940735,1.9428890943527222,0.19180017709732056
1684200447137921000,7.626921142578125,0.3307539224624634,1.7793446779251099,0.056020237505435944
1684200447147947000,7.636947021484375,0.33766329288482666,1.7072930335998535,-0.08823378384113312
1684200447157972200,7.64697216796875,0.3403592109680176,1.7255849838256836,-0.22959277033805847
1684200447167998000,7.656998046875,0.3298169672489166,1.7938377857208252,-0.38993287086486816
1684200447178024000,7.66702392578125,0.29492634534835815,1.8737152814865112,-0.5490133762359619
1684200447188049200,7.677049072265625,0.2447814792394638,1.9323362112045288,-0.6710981130599976
1684200447198075100,7.6870751953125,0.21436339616775513,1.9720375537872314,-0.7184134721755981
1684200447208100000,7.69710009765625,0.22252514958381653,1.998264193534851,-0.6517886519432068
1684200447218126000,7.7071259765625,0.2618427276611328,2.0463979244232178,-0.4642767906188965
1684200447228152000,7.717152099609375,0.2911946177482605,2.165489673614502,-0.21416296064853668
1684200447238177000,7.727177001953125,0.29964667558670044,2.355022668838501,0.046199116855859756
1684200447248203000,7.737203125,0.3231871426105499,2.5740513801574707,0.250898540019989
1684200447258228000,7.74722802734375,0.3702446520328522,2.7370896339416504,0.3432723879814148
1684200447268254000,7.75725390625,0.43620339035987854,2.8077332973480225,0.3395094871520996
1684200447278279200,7.767279052734375,0.5376604795455933,2.7806570529937744,0.29568928480148315
1684200447288305200,7.77730517578125,0.6483899354934692,2.659271240234375,0.2996899485588074
1684200447298331100,7.7873310546875,0.7508813738822937,2.478062152862549,0.3913109600543976
1684200447308356000,7.797356201171875,0.8211054801940918,2.321805238723755,0.5482565760612488
1684200447318382000,7.807382080078125,0.8570418953895569,2.188448429107666,0.7468053698539734
1684200447328407000,7.817406982421875,0.871530294418335,1.961316704750061,0.951123058795929
1684200447338433000,7.82743310546875,0.8640654683113098,1.7139348983764648,1.1154865026474
1684200447348459000,7.837458984375,0.8389847874641418,1.5324125289916992,1.2555510997772217
1684200447358484000,7.84748388671875,0.7746678590774536,1.410363793373108,1.351913332939148
1684200447368510000,7.857510009765625,0.6950890421867371,1.2860552072525024,1.396195888519287
1684200447378535000,7.867534912109375,0.6330461502075195,1.1458858251571655,1.4162369966506958
1684200447388561000,7.877560791015625,0.6091482043266296,1.010242223739624,1.4257078170776367
1684200447398586000,7.887586181640625,0.6356663703918457,0.8812884092330933,1.4403237104415894
1684200447408612000,7.897612060546875,0.6672363877296448,0.6956066489219666,1.4892386198043823
1684200447418638000,7.90763818359375,0.7246668934822083,0.49325039982795715,1.5741329193115234
1684200447428663000,7.9176630859375,0.820099949836731,0.2664322257041931,1.6441611051559448
1684200447438689000,7.92768896484375,0.91215980052948,0.1276109665632248,1.7386127710342407
1684200447448714000,7.9377138671875,0.9553605318069458,0.08868614584207535,1.8461461067199707
1684200447458740000,7.947739990234375,0.9197375774383545,0.11646211892366409,1.9221540689468384
1684200447468766000,7.957765869140625,0.8153350353240967,0.2301507294178009,1.939101219177246
1684200447478791000,7.967791015625,0.6644333600997925,0.5014021992683411,1.918121576309204
1684200447488817000,7.97781689453125,0.5380999445915222,0.8161146640777588,1.8686405420303345
1684200447498842000,7.987842041015625,0.46676400303840637,1.1071451902389526,1.814892292022705
1684200447508868000,7.9978681640625,0.4034731984138489,1.2731653451919556,1.7446248531341553
1684200447518893000,8.00789306640625,0.3540979027748108,1.3663294315338135,1.685328722000122
1684200447528919000,8.0179189453125,0.3109671473503113,1.4385693073272705,1.6600393056869507
1684200447538945000,8.027945068359376,0.24128976464271545,1.54875648021698,1.6618480682373047
1684200447548970000,8.037969970703125,0.15004193782806396,1.7334338426589966,1.6504874229431152
1684200447558996000,8.047995849609375,0.050409894436597824,1.9793068170547485,1.6262513399124146
1684200447569021000,8.05802099609375,-0.03657849505543709,2.174795627593994,1.626969337463379
1684200447579047000,8.068046875,-0.10243101418018341,2.2913658618927,1.6405807733535767
1684200447589073000,8.078072998046874,-0.15677720308303833,2.352926254272461,1.636648416519165
1684200447599097900,8.088097900390625,-0.21688582003116608,2.3852646350860596,1.6221603155136108
1684200447609123800,8.098123779296875,-0.2829848527908325,2.405569076538086,1.617042064666748
1684200447619149000,8.108149169921875,-0.32838112115859985,2.4083755016326904,1.6203174591064453
1684200447629175000,8.118175048828125,-0.34798362851142883,2.3786630630493164,1.6235018968582153
1684200447639201000,8.128200927734374,-0.36139556765556335,2.3170931339263916,1.6020437479019165
1684200447649226000,8.13822607421875,-0.3728783428668976,2.2423348426818848,1.5405373573303223
1684200447659252000,8.148251953125,-0.3859451413154602,2.1967368125915527,1.4631671905517578
1684200447669277000,8.15827685546875,-0.3965409994125366,2.2315826416015625,1.4146331548690796
1684200447679303000,8.168302978515625,-0.3853631615638733,2.3204314708709717,1.3991514444351196
1684200447689327900,8.178327880859374,-0.3301563560962677,2.356752395629883,1.4129047393798828
1684200447699353900,8.188353759765626,-0.2358918935060501,2.276344060897827,1.46225106716156
1684200447709380000,8.198380126953126,-0.138227641582489,2.0418100357055664,1.556204080581665
1684200447719405000,8.208405029296875,-0.07388859987258911,1.5787785053253174,1.695993423461914
1684200447729431000,8.21843115234375,-0.07770907133817673,0.9642610549926758,1.7579708099365234
1684200447739456000,8.2284560546875,-0.14534857869148254,0.6008777618408203,1.5673177242279053
1684200447749482200,8.238482177734374,-0.15212799608707428,0.6721364855766296,1.16221284866333
1684200447759508200,8.24850830078125,-0.09868421405553818,0.973078727722168,0.761764407157898
1684200447769533200,8.258533203125,-0.014029843732714653,1.2033309936523438,0.49862703680992126
1684200447779559200,8.26855908203125,0.07372770458459854,1.1303156614303589,0.34419190883636475
1684200447789584100,8.278584228515625,0.12890464067459106,0.8575525283813477,0.26403096318244934
1684200447799610000,8.288610107421874,0.130532369017601,0.5387864708900452,0.21981585025787354
1684200447809634800,8.298634765625,0.12447132170200348,0.32215550541877747,0.21560770273208618
1684200447819661000,8.3086611328125,0.08347488939762115,0.2887552082538605,0.220978245139122
1684200447829687000,8.31868701171875,-0.0028064846992492676,0.4464711844921112,0.21282055974006653
1684200447839712300,8.328712158203125,-0.07695368677377701,0.6727101802825928,0.2120162844657898
1684200447849738200,8.33873828125,-0.11287446320056915,0.8487473726272583,0.24746237695217133
1684200447859763200,8.34876318359375,-0.11767960339784622,0.9666359424591064,0.31770461797714233
1684200447869789200,8.3587890625,-0.10809703916311264,1.0331017971038818,0.39848747849464417
1684200447879815200,8.368815185546875,-0.09167199581861496,1.032960295677185,0.4587859809398651
1684200447889840000,8.378840087890625,-0.056452106684446335,0.9535876512527466,0.5108184814453125
1684200447899866000,8.3888662109375,-0.001699112355709076,0.8060461282730103,0.5588861703872681
1684200447909891000,8.39889111328125,0.03343367949128151,0.6361847519874573,0.5707670450210571
1684200447919917000,8.4089169921875,0.05968925356864929,0.665052592754364,0.5600036382675171
1684200447929942000,8.41894189453125,0.06737270206212997,0.8316344022750854,0.5533286333084106
1684200447939968000,8.428968017578125,0.06541980803012848,0.9068117141723633,0.5658984780311584
1684200447949994000,8.438993896484375,0.04521115496754646,0.8093845248222351,0.5692137479782104
1684200447960019200,8.449019287109374,0.04679839685559273,0.6709914803504944,0.5325233936309814
1684200447970045200,8.459045166015626,0.060147974640131,0.5812863111495972,0.4565320909023285
1684200447980070100,8.469070068359375,0.08260960131883621,0.45383092761039734,0.3425503969192505
1684200447990096100,8.47909619140625,0.10953252017498016,0.2942180335521698,0.21978437900543213
1684200448000122000,8.4891220703125,0.13398273289203644,0.04102572798728943,0.12395451217889786
1684200448010147000,8.49914697265625,0.14755679666996002,-0.2856597602367401,0.0660814717411995
1684200448020173000,8.509173095703124,0.13690681755542755,-0.49427875876426697,0.06696537137031555
1684200448030198000,8.519197998046875,0.09169940650463104,-0.5495917201042175,0.12129294872283936
1684200448040224000,8.52922412109375,0.027088453993201256,-0.49470657110214233,0.19558528065681458
1684200448050250000,8.53925,-0.03682262450456619,-0.4038803279399872,0.2152015119791031
1684200448060275200,8.549275146484375,-0.09981250762939453,-0.32726332545280457,0.1453944593667984
1684200448070301000,8.559301025390624,-0.12905769050121307,-0.30984869599342346,0.01121438480913639
1684200448080326100,8.569326171875,-0.14307017624378204,-0.3920956254005432,-0.11436218023300171
1684200448090352000,8.57935205078125,-0.13659772276878357,-0.49970024824142456,-0.19706246256828308
1684200448100377000,8.589377197265625,-0.11097891628742218,-0.5386905074119568,-0.21996991336345673
1684200448110403000,8.599403076171875,-0.07550181448459625,-0.5206091403961182,-0.19512605667114258
1684200448120429000,8.609428955078124,-0.042613375931978226,-0.506588876247406,-0.1496155560016632
1684200448130454000,8.6194541015625,-0.0075724623166024685,-0.4890710413455963,-0.10194015502929688
1684200448140480000,8.62947998046875,0.030661476776003838,-0.4575709104537964,-0.07969716191291809
1684200448150505000,8.6395048828125,0.07986855506896973,-0.43392518162727356,-0.07095956057310104
1684200448160531000,8.649531005859375,0.12677480280399323,-0.39501532912254333,-0.07019789516925812
1684200448170557000,8.659556884765625,0.167426198720932,-0.3342030346393585,-0.06728916615247726
1684200448180582100,8.66958203125,0.19741499423980713,-0.290833979845047,-0.05851990729570389
1684200448190608100,8.679608154296876,0.21482490003108978,-0.3050043284893036,-0.04148809611797333
1684200448200633000,8.689633056640625,0.22270439565181732,-0.35196012258529663,-0.020933018997311592
1684200448210659300,8.699659423828125,0.2148885428905487,-0.3736133575439453,0.006141585297882557
1684200448220685300,8.709685302734375,0.17997263371944427,-0.42676740884780884,0.05127603933215141
1684200448230710300,8.719710205078124,0.11459982395172119,-0.5752806663513184,0.1210009753704071
1684200448240736300,8.729736328125,0.06439418345689774,-0.663542628288269,0.18013913929462433
1684200448250761200,8.73976123046875,0.027456650510430336,-0.5917981863021851,0.21252040565013885
1684200448260787200,8.749787109375,-0.027495548129081726,-0.36842501163482666,0.19822189211845398
1684200448270812200,8.759812255859375,-0.09483819454908371,-0.09761977195739746,0.1350894570350647
1684200448280838100,8.769838134765624,-0.13213950395584106,0.1191258579492569,0.05302867665886879
1684200448290864000,8.779864013671874,-0.12572775781154633,0.17906393110752106,-0.037074048072099686
1684200448300889300,8.789889404296876,-0.1045905202627182,0.0556597039103508,-0.12072580307722092
1684200448310915300,8.799915283203125,-0.09705788642168045,-0.177836075425148,-0.17899461090564728
1684200448320940300,8.809940185546875,-0.10796353220939636,-0.4458821713924408,-0.1861526519060135
1684200448330966300,8.81996630859375,-0.1385745108127594,-0.6497118473052979,-0.14627313613891602
1684200448340992300,8.8299921875,-0.20162725448608398,-0.772841215133667,-0.08126270771026611
1684200448351017200,8.840017333984376,-0.2947959899902344,-0.807738721370697,-0.017987674102187157
1684200448361043200,8.850043212890625,-0.37801629304885864,-0.7765461802482605,0.013141749426722527
1684200448371068200,8.860068115234375,-0.44281068444252014,-0.7180183529853821,0.007295990828424692
1684200448381094100,8.87009423828125,-0.47589007019996643,-0.66766357421875,-0.0181819386780262
1684200448391119400,8.880119384765624,-0.47883984446525574,-0.6338801980018616,-0.0598832443356514
1684200448401145300,8.890145263671876,-0.46757280826568604,-0.5910296440124512,-0.08503973484039307
1684200448411171000,8.900171142578126,-0.4541831314563751,-0.5389139652252197,-0.09463299810886383
1684200448421196300,8.9101962890625,-0.4424133002758026,-0.46661287546157837,-0.06839074194431305
1684200448431222300,8.92022216796875,-0.434152215719223,-0.398947536945343,-0.007621227763593197
1684200448441247200,8.930247314453124,-0.4257352948188782,-0.3624457120895386,0.08382239937782288
1684200448451273200,8.940273193359374,-0.3755768835544586,-0.3454904556274414,0.1839999407529831
1684200448461299200,8.95029931640625,-0.283689022064209,-0.29850855469703674,0.26799657940864563
1684200448471324200,8.96032421875,-0.15814411640167236,-0.20137569308280945,0.30674687027931213
1684200448481350100,8.97035009765625,-0.020551370456814766,-0.07319403439760208,0.2893151640892029
1684200448491375000,8.980375,0.13941791653633118,0.0725933313369751,0.21001853048801422
1684200448501401000,8.990401123046874,0.2910745441913605,0.21427643299102783,0.08463184535503387
1684200448511427000,9.000427001953126,0.41422587633132935,0.3389073312282562,-0.04156846925616264
1684200448521452300,9.010452392578125,0.5009200572967529,0.41477838158607483,-0.14012567698955536
1684200448531478300,9.020478271484375,0.5553978681564331,0.405937135219574,-0.21959544718265533
1684200448541503200,9.030503173828125,0.5745087265968323,0.2888089120388031,-0.3292665481567383
1684200448551529200,9.040529296875,0.5647945404052734,0.08263887465000153,-0.5045195817947388
1684200448561554200,9.05055419921875,0.5546090006828308,-0.10495072603225708,-0.7392942905426025
1684200448571580200,9.060580078125,0.5459831357002258,-0.21936587989330292,-1.0215295553207397
1684200448581606100,9.070606201171875,0.5455080270767212,-0.2555915117263794,-1.353790283203125
1684200448591631000,9.080631103515625,0.5942071080207825,-0.19574636220932007,-1.7252706289291382
1684200448601657000,9.090656982421875,0.7092588543891907,-0.046442098915576935,-2.1330487728118896
1684200448611682300,9.100682373046874,0.9048748016357422,0.14587803184986115,-2.5134634971618652
1684200448621708000,9.1107080078125,1.112818717956543,0.32448264956474304,-2.7840168476104736
1684200448631734000,9.120734130859375,1.2552053928375244,0.45378929376602173,-2.8885180950164795
1684200448641759200,9.13075927734375,1.347715139389038,0.6289129257202148,-2.796717643737793
1684200448651785200,9.14078515625,1.3712106943130493,0.9902939796447754,-2.455556631088257
1684200448661810200,9.15081005859375,1.3489978313446045,1.210328459739685,-2.0217173099517822
1684200448671836200,9.160836181640626,1.375844120979309,1.2193872928619385,-1.576788067817688
1684200448681861000,9.170861083984375,1.4105660915374756,1.0243089199066162,-1.204764485359192
1684200448691887000,9.18088720703125,1.3953760862350464,0.8937917351722717,-0.8709922432899475
1684200448701913000,9.1909130859375,1.3331712484359741,0.9094279408454895,-0.5416073799133301
1684200448711938000,9.20093798828125,1.2753857374191284,0.9559085369110107,-0.24848635494709015
1684200448721964000,9.210964111328124,1.2370306253433228,1.036110758781433,-0.05055943503975868
1684200448731989200,9.2209892578125,1.225911259651184,1.2426481246948242,-0.0050490726716816425
1684200448742015200,9.23101513671875,1.2139848470687866,1.6658220291137695,-0.016656193882226944
1684200448752041200,9.241041259765625,1.2239314317703247,2.119878053665161,-0.00367240933701396
1684200448762066200,9.251066162109375,1.2508718967437744,2.267214775085449,-0.029227305203676224
1684200448772092200,9.261092041015624,1.2946821451187134,2.028775691986084,-0.10197839140892029
1684200448782117000,9.2711171875,1.3167808055877686,1.6942503452301025,-0.16058124601840973
1684200448792143000,9.28114306640625,1.309369444847107,1.4734737873077393,-0.18451638519763947
1684200448802169000,9.291169189453125,1.2807670831680298,1.409021019935608,-0.1551627665758133
1684200448812194000,9.301194091796875,1.228349208831787,1.459253191947937,-0.054251305758953094
1684200448822220000,9.311219970703124,1.1829981803894043,1.4651882648468018,0.05947286635637283
1684200448832245000,9.321244873046876,1.16004478931427,1.448935627937317,0.16118450462818146
1684200448842271000,9.33127099609375,1.1370526552200317,1.376288652420044,0.2014123499393463
1684200448852296200,9.341296142578125,1.0914162397384644,1.2719957828521729,0.1962929517030716
1684200448862322200,9.351322265625,1.0638558864593506,1.2350523471832275,0.178386390209198
1684200448872348200,9.36134814453125,1.0459457635879517,1.1860198974609375,0.20122751593589783
1684200448882373000,9.371373046875,0.9856177568435669,1.087297797203064,0.26751598715782166
1684200448892399000,9.381399169921876,0.893184244632721,0.9579067230224609,0.3634745478630066
1684200448902424000,9.391424072265625,0.8237162232398987,0.7530443668365479,0.4758961498737335
1684200448912450000,9.401449951171875,0.7354124188423157,0.48661330342292786,0.5749984383583069
1684200448922476000,9.41147607421875,0.6392643451690674,0.22561579942703247,0.6419867873191833
1684200448932501000,9.4215009765625,0.5226234197616577,0.015899065881967545,0.6881667375564575
1684200448942527000,9.43152685546875,0.4163888692855835,-0.16056305170059204,0.715847373008728
1684200448952552200,9.44155224609375,0.3573485314846039,-0.3097101151943207,0.7464277148246765
1684200448962578200,9.451578125,0.3290623128414154,-0.39374563097953796,0.7973934412002563
1684200448972603100,9.46160302734375,0.3012990355491638,-0.41443783044815063,0.871661901473999
1684200448982629000,9.471629150390624,0.24457237124443054,-0.37904733419418335,0.9689828753471375
1684200448992655400,9.4816552734375,0.15537914633750916,-0.338167279958725,1.0744638442993164
1684200449002680000,9.49168017578125,0.04161689057946205,-0.27774548530578613,1.1827399730682373
1684200449012706300,9.501706298828125,-0.09308500587940216,-0.16996881365776062,1.2750916481018066
1684200449022731000,9.51173095703125,-0.21411317586898804,-0.07239698618650436,1.3222180604934692
1684200449032757200,9.52175732421875,-0.29873326420783997,-0.004921863321214914,1.3119051456451416
1684200449042783200,9.531783203125,-0.3611782491207123,-0.010614902712404728,1.2395987510681152
1684200449052808200,9.54180810546875,-0.402681440114975,-0.06577013432979584,1.1505889892578125
1684200449062834200,9.551834228515625,-0.44237852096557617,-0.16526024043560028,1.0350011587142944
1684200449072859100,9.561859130859375,-0.47624221444129944,-0.3002609312534332,0.8976880311965942
1684200449082885400,9.571885498046875,-0.49680420756340027,-0.4749147593975067,0.7527036666870117
1684200449092911400,9.581911376953125,-0.5328019261360168,-0.6832540035247803,0.6110038757324219
1684200449102936300,9.591936279296876,-0.5763669610023499,-0.8572566509246826,0.48631468415260315
1684200449112962300,9.60196240234375,-0.6182118058204651,-0.9617957472801208,0.41267043352127075
1684200449122987300,9.6119873046875,-0.6519482135772705,-0.9977720975875854,0.4051286280155182
1684200449133013200,9.62201318359375,-0.6752416491508484,-0.9915705323219299,0.4522712230682373
1684200449143038200,9.6320380859375,-0.7012391090393066,-0.9423750638961792,0.531197726726532
1684200449153064200,9.642064208984374,-0.7203065752983093,-0.8725509643554688,0.6176440715789795
1684200449163090200,9.652090087890626,-0.7358128428459167,-0.7936471104621887,0.673783540725708
1684200449173115100,9.662115234375,-0.7413874864578247,-0.6714748740196228,0.6656737327575684
1684200449183141000,9.67214111328125,-0.7131960988044739,-0.5390340089797974,0.602794349193573
1684200449193166300,9.682166259765625,-0.6697357892990112,-0.43086421489715576,0.5083673596382141
1684200449203192300,9.6921923828125,-0.6279619932174683,-0.39232107996940613,0.41507312655448914
1684200449213218800,9.70221875,-0.6028717756271362,-0.43288928270339966,0.3709304630756378
1684200449223243800,9.712243896484376,-0.5889138579368591,-0.5297670960426331,0.3638632297515869
1684200449233269800,9.722269775390625,-0.5813015699386597,-0.6618650555610657,0.37774133682250977
1684200449243294700,9.732294677734375,-0.5835966467857361,-0.7845353484153748,0.3881170153617859
1684200449253320700,9.74232080078125,-0.6030294299125671,-0.8684310913085938,0.38134145736694336
1684200449263345700,9.752345703125,-0.6305143237113953,-0.8924692869186401,0.3678751587867737
1684200449273371600,9.76237158203125,-0.6594697833061218,-0.8850598931312561,0.3518141210079193
1684200449283397600,9.772397705078125,-0.7017709016799927,-0.8358175158500671,0.3558075428009033
1684200449293422600,9.782422607421875,-0.7554392218589783,-0.7648475766181946,0.37111368775367737
1684200449303448600,9.792448486328125,-0.8111804723739624,-0.7085246443748474,0.3666829764842987
1684200449313473800,9.802473876953124,-0.875464916229248,-0.6292586326599121,0.34312599897384644
1684200449323499800,9.812499755859376,-0.9105702042579651,-0.5348618030548096,0.30792778730392456
1684200449333526000,9.822526123046876,-0.8864973783493042,-0.4248693585395813,0.2693830728530884
1684200449343550700,9.83255078125,-0.8171793222427368,-0.3707030713558197,0.22089757025241852
1684200449353577000,9.842576904296875,-0.747948944568634,-0.334126353263855,0.18892723321914673
1684200449363601700,9.8526015625,-0.6476908326148987,-0.30401745438575745,0.1477486491203308
1684200449373628000,9.8626279296875,-0.5154040455818176,-0.3010042607784271,0.06358133256435394
1684200449383654000,9.87265380859375,-0.34898388385772705,-0.406099796295166,-0.08112232387065887
1684200449393678800,9.882678955078125,-0.17880088090896606,-0.6114861369132996,-0.24870947003364563
1684200449403704800,9.892704833984375,-0.051492463797330856,-0.7831758856773376,-0.40109556913375854
1684200449413729800,9.902729736328125,-0.00401054322719574,-0.76199871301651,-0.5077066421508789
1684200449423755800,9.912755859375,-0.009715567342936993,-0.520063579082489,-0.5600308179855347
1684200449433781000,9.922781005859376,-0.040654513984918594,-0.11967144906520844,-0.534846842288971
1684200449443807000,9.932806884765625,-0.08433994650840759,0.34324267506599426,-0.4010815918445587
1684200449453833000,9.9428330078125,-0.17198139429092407,0.7318339347839355,-0.1833598017692566
1684200449463858000,9.95285791015625,-0.30091458559036255,0.9724588394165039,0.05613827332854271
1684200449473884000,9.9628837890625,-0.4259161353111267,1.0715982913970947,0.2402505725622177
1684200449483908900,9.972908935546876,-0.5273250341415405,1.0084598064422607,0.3239246904850006
1684200449493934800,9.982934814453126,-0.5634307265281677,0.7970845103263855,0.3276129364967346
1684200449503960800,9.9929609375,-0.5349876284599304,0.4368557631969452,0.2833423912525177
1684200449513985800,10.00298583984375,-0.48040008544921875,-0.02068614587187767,0.21767818927764893
1684200449524011800,10.01301171875,-0.4403429329395294,-0.5108950138092041,0.15488111972808838
1684200449534037000,10.023037109375,-0.4038771688938141,-0.8761646747589111,0.0916171669960022
1684200449544063000,10.03306298828125,-0.3897155523300171,-0.9216496348381042,0.029176153242588043
1684200449554088700,10.043088623046875,-0.3741294741630554,-0.5964377522468567,0.008310306817293167
1684200449564114000,10.053114013671875,-0.3530937135219574,0.08192208409309387,0.09364305436611176
1684200449574140000,10.063139892578125,-0.31599387526512146,1.0856019258499146,0.3757913112640381
1684200449584164900,10.073164794921874,-0.2714426517486572,1.9228084087371826,0.7935959696769714
1684200449594190800,10.08319091796875,-0.29631704092025757,2.025245428085327,1.1364572048187256
1684200449604215800,10.0932158203125,-0.3143865764141083,1.6495277881622314,1.2608052492141724
1684200449614241800,10.10324169921875,-0.3100423514842987,1.2404643297195435,1.1525179147720337
1684200449624267800,10.113267822265625,-0.23839080333709717,0.9743149876594543,0.931255042552948
1684200449634292700,10.123292724609374,-0.12350226938724518,0.7469395399093628,0.6591963768005371
1684200449644318700,10.133318603515624,-0.000014411518350243568,0.4229942262172699,0.3717813193798065
1684200449654344000,10.143343994140626,0.13343121111392975,-0.03080153837800026,0.09179295599460602
1684200449664370000,10.153369873046875,0.2207179218530655,-0.4644528329372406,-0.11544358730316162
1684200449674396000,10.16339599609375,0.2634904086589813,-0.7751944661140442,-0.2465033382177353
1684200449684420900,10.1734208984375,0.29592689871788025,-0.9340435266494751,-0.3275667726993561
1684200449694446800,10.18344677734375,0.3285978138446808,-1.0306233167648315,-0.37682610750198364
1684200449704471800,10.193471923828126,0.3411516845226288,-1.1128110885620117,-0.38699567317962646
1684200449714497800,10.203497802734375,0.3436661660671234,-1.1819748878479004,-0.3527168035507202
1684200449724523800,10.213523681640625,0.3123415410518646,-1.2088160514831543,-0.27543774247169495
1684200449734548700,10.223548828125,0.2629643976688385,-1.141358733177185,-0.1610104739665985
1684200449744574700,10.23357470703125,0.18866486847400665,-0.9677709341049194,-0.06251080334186554
1684200449754600000,10.243599853515626,0.10638421773910522,-0.6504090428352356,0.0252477265894413
1684200449764625700,10.253625732421876,0.01959180273115635,-0.2676840126514435,0.10240563005208969
1684200449774651000,10.26365087890625,-0.06712028384208679,0.0772620290517807,0.1697923243045807
1684200449784676900,10.2736767578125,-0.13045479357242584,0.340374618768692,0.23472389578819275
1684200449794702800,10.283702880859375,-0.1606273204088211,0.5032920837402344,0.3083951473236084
1684200449804727800,10.293727783203124,-0.15476010739803314,0.5462265014648438,0.3564082086086273
1684200449814753800,10.30375390625,-0.15215468406677246,0.5082641243934631,0.37747329473495483
1684200449824778800,10.31377880859375,-0.1375270038843155,0.44904181361198425,0.38608038425445557
1684200449834804700,10.3238046875,-0.11245701462030411,0.3402314782142639,0.3699873089790344
1684200449844830700,10.333830810546875,-0.08354067802429199,0.19491901993751526,0.35081973671913147
1684200449854855700,10.343855712890624,-0.06888778507709503,0.02656913362443447,0.3226374685764313
1684200449864881700,10.353881591796876,-0.06085728481411934,-0.1392430067062378,0.27278468012809753
1684200449874907000,10.363906982421875,-0.04926106706261635,-0.2726653814315796,0.21288874745368958
1684200449884932900,10.373932861328125,-0.049011796712875366,-0.36616870760917664,0.14885489642620087
1684200449894958800,10.383958740234375,-0.05928866192698479,-0.4125802218914032,0.09931391477584839
1684200449904983800,10.39398388671875,-0.08481372892856598,-0.41238313913345337,0.0699903815984726
1684200449915009800,10.404009765625,-0.12410730868577957,-0.370572566986084,0.06485079973936081
1684200449925034800,10.41403466796875,-0.1652350276708603,-0.3156145215034485,0.09780661761760712
1684200449935060700,10.424060791015625,-0.18953725695610046,-0.25843024253845215,0.15057365596294403
1684200449945085700,10.434085693359375,-0.20053744316101074,-0.21185927093029022,0.20463688671588898
1684200449955111700,10.444111572265625,-0.21463724970817566,-0.16374501585960388,0.2545586824417114
1684200449965137700,10.4541376953125,-0.2230890542268753,-0.15952470898628235,0.29399025440216064
1684200449975162600,10.46416259765625,-0.2313874512910843,-0.16651158034801483,0.2941369414329529
1684200449985188600,10.474188720703125,-0.23555795848369598,-0.10316989570856094,0.2724670469760895
1684200449995213800,10.4842138671875,-0.2271454930305481,-0.05632041022181511,0.23352056741714478
1684200450005239800,10.49423974609375,-0.20528706908226013,-0.07026125490665436,0.1802818477153778
1684200450015265800,10.504265869140625,-0.16213977336883545,-0.11845026910305023,0.12421033531427383
1684200450025290800,10.514290771484376,-0.12876716256141663,-0.17571009695529938,0.06378933042287827
1684200450035316700,10.524316650390626,-0.10882526636123657,-0.23116570711135864,0.012280574068427086
1684200450045341700,10.534341796875,-0.07229442149400711,-0.2723195552825928,-0.03856156766414642
1684200450055367700,10.54436767578125,-0.040766190737485886,-0.30878326296806335,-0.07647780328989029
1684200450065393700,10.5543935546875,-0.023057501763105392,-0.3557870090007782,-0.09183093160390854
1684200450075418600,10.564418701171874,-0.024630725383758545,-0.3837720453739166,-0.07526840269565582
1684200450085444600,10.574444580078126,-0.04114924743771553,-0.3790779411792755,-0.058915793895721436
1684200450095469800,10.5844697265625,-0.0850914940237999,-0.34935176372528076,-0.036455683410167694
1684200450105495800,10.594495849609375,-0.12204764783382416,-0.3171384334564209,-0.013502432964742184
1684200450115520800,10.604520751953125,-0.14861325919628143,-0.2907402217388153,-0.0007013515569269657
1684200450125546800,10.614546630859374,-0.17442141473293304,-0.2717636227607727,-0.00730119738727808
1684200450135572700,10.62457275390625,-0.19928298890590668,-0.27364054322242737,-0.01840362325310707
1684200450145597700,10.63459765625,-0.23347318172454834,-0.30345675349235535,-0.033233169466257095
1684200450155623700,10.644623779296875,-0.2406076043844223,-0.340906023979187,-0.05494280532002449
1684200450165648600,10.654648681640625,-0.22960689663887024,-0.3659069836139679,-0.08621204644441605
1684200450175674600,10.664674560546874,-0.22006013989448547,-0.4029928743839264,-0.10924075543880463
1684200450185700900,10.674700927734374,-0.20981496572494507,-0.4408190846443176,-0.12215149402618408
1684200450195725600,10.6847255859375,-0.2127404808998108,-0.482040673494339,-0.10693784803152084
1684200450205751800,10.694751708984375,-0.2290659248828888,-0.5297219157218933,-0.07470880448818207
1684200450215776800,10.70477685546875,-0.24762041866779327,-0.5819892287254333,-0.04809674993157387
1684200450225802800,10.714802734375,-0.26949670910835266,-0.6072237491607666,-0.0316980704665184
1684200450235828700,10.724828857421874,-0.29306119680404663,-0.6162489056587219,-0.04089032858610153
1684200450245853700,10.734853759765626,-0.30950355529785156,-0.6247925758361816,-0.06980054080486298
1684200450255879700,10.744879638671875,-0.29731014370918274,-0.6331149935722351,-0.10034780949354172
1684200450265904600,10.754904541015625,-0.25477707386016846,-0.6610161662101746,-0.11775236576795578
1684200450275930600,10.7649306640625,-0.21383026242256165,-0.7281848788261414,-0.12598738074302673
1684200450285955600,10.77495556640625,-0.17460164427757263,-0.8137402534484863,-0.12673279643058777
1684200450295981600,10.784981689453126,-0.06820542365312576,-0.8811824321746826,-0.10182612389326096
1684200450306007600,10.795007568359376,0.06369614601135254,-0.9042953848838806,-0.06104348599910736
1684200450316032800,10.80503271484375,0.18791097402572632,-0.8794721961021423,-0.022448725998401642
1684200450326058800,10.815058837890625,0.285433292388916,-0.7653744220733643,-0.009202161803841591
1684200450336083700,10.825083740234374,0.32503801584243774,-0.5153612494468689,-0.06507689505815506
1684200450346109700,10.835109619140624,0.32456129789352417,-0.20640024542808533,-0.2507343888282776
1684200450356135700,10.8451357421875,0.33288246393203735,0.03124055825173855,-0.6479073166847229
1684200450366160600,10.85516064453125,0.3806627690792084,0.09250471740961075,-1.1629040241241455
1684200450376186600,10.8651865234375,0.45954766869544983,0.0586702823638916,-1.6519330739974976
1684200450386211600,10.875211669921875,0.5657258033752441,0.02640422061085701,-1.990737795829773
1684200450396237600,10.885237548828124,0.7106343507766724,0.032185472548007965,-2.195897340774536
1684200450406263600,10.895263671875,0.8590219616889954,0.0689442828297615,-2.324432373046875
1684200450416288500,10.90528857421875,1.0247360467910767,0.09096933156251907,-2.4672529697418213
1684200450426314500,10.915314453125,1.163150429725647,0.10990200936794281,-2.5937235355377197
1684200450436339700,10.925339599609375,1.2532448768615723,0.22931219637393951,-2.6127305030822754
1684200450446365700,10.93536572265625,1.3177368640899658,0.4052629768848419,-2.523160696029663
1684200450456391700,10.9453916015625,1.3111709356307983,0.6667892336845398,-2.27915620803833
1684200450466416600,10.955416748046876,1.2995662689208984,0.8763259649276733,-1.9180760383605957
1684200450476442600,10.965442626953125,1.370300054550171,0.8869780898094177,-1.5611257553100586
1684200450486467600,10.975467529296875,1.416096806526184,0.5455842614173889,-1.3360888957977295
1684200450496493600,10.98549365234375,1.4018586874008179,0.2095513492822647,-1.1144485473632812
1684200450506518500,10.9955185546875,1.2983500957489014,0.05457880347967148,-0.7797172665596008
1684200450516544500,11.00554443359375,1.1777666807174683,-0.07796560227870941,-0.3704302906990051
1684200450526570500,11.015570556640625,1.1997201442718506,-0.10606993734836578,0.056732214987277985
1684200450536595500,11.025595458984375,1.3647772073745728,0.04224756360054016,0.19410675764083862
1684200450546621400,11.035621337890625,1.5565567016601562,0.7121036648750305,0.023655669763684273
1684200450556646700,11.045646728515624,1.6342319250106812,1.515795111656189,-0.17164045572280884
1684200450566672600,11.055672607421876,1.5770658254623413,2.213315486907959,-0.18732701241970062
1684200450576698600,11.06569873046875,1.4866797924041748,2.5580592155456543,-0.12687654793262482
1684200450586723600,11.0757236328125,1.4342762231826782,2.517188787460327,-0.029785944148898125
1684200450596749600,11.08574951171875,1.370129942893982,2.2382302284240723,0.10654126852750778
1684200450606774500,11.0957744140625,1.3050603866577148,1.9586613178253174,0.21791546046733856
1684200450616800500,11.105800537109374,1.2585419416427612,1.7505383491516113,0.2679250240325928
1684200450626826500,11.115826416015626,1.2459912300109863,1.6584041118621826,0.259397029876709
1684200450636851500,11.1258515625,1.2359838485717773,1.5839195251464844,0.22870603203773499
1684200450646877400,11.13587744140625,1.198856234550476,1.4376333951950073,0.18036939203739166
1684200450656902700,11.145902587890625,1.1761802434921265,1.3156324625015259,0.15173925459384918
1684200450666928600,11.1559287109375,1.1200014352798462,1.2209382057189941,0.14081789553165436
1684200450676953600,11.16595361328125,1.0248337984085083,1.1468558311462402,0.14256583154201508
1684200450686979600,11.1759794921875,0.9154754877090454,1.0941295623779297,0.15655647218227386
1684200450697005600,11.186005615234375,0.7927520275115967,1.0498254299163818,0.19840313494205475
1684200450707030500,11.196030517578125,0.664221465587616,0.9916574358940125,0.23873750865459442
1684200450717056500,11.206056396484374,0.5472595691680908,0.8552770614624023,0.24581658840179443
1684200450727081500,11.21608154296875,0.46931418776512146,0.6436524391174316,0.2423696666955948
1684200450737107500,11.226107421875,0.3946590721607208,0.42003530263900757,0.2233465611934662
1684200450747133400,11.236133544921875,0.32919085025787354,0.24624645709991455,0.17467783391475677
1684200450757158400,11.246158447265625,0.2804739475250244,0.09138548374176025,0.12419632077217102
1684200450767184400,11.256184326171875,0.2542721629142761,-0.054943233728408813,0.09779427200555801
1684200450777209600,11.266209716796874,0.24452684819698334,-0.17967437207698822,0.1282058209180832
1684200450787235600,11.276235595703126,0.2220367193222046,-0.26056283712387085,0.20996032655239105
1684200450797260500,11.286260498046875,0.18238678574562073,-0.24966910481452942,0.2992517054080963
1684200450807286500,11.29628662109375,0.12505026161670685,-0.12957173585891724,0.3762226700782776
1684200450817312500,11.3063125,0.06751889735460281,-0.01528050098568201,0.452657014131546
1684200450827337500,11.31633740234375,0.0057753752917051315,0.002286775503307581,0.5349718332290649
1684200450837363500,11.326363525390626,-0.04571393504738808,-0.04516574740409851,0.5864143967628479
1684200450847388400,11.336388427734375,-0.09140819311141968,-0.1617293804883957,0.5849704742431641
1684200450857414400,11.346414306640625,-0.13120333850383759,-0.30467489361763,0.5584414005279541
1684200450867440600,11.356440673828125,-0.16621698439121246,-0.4317028820514679,0.5184353590011597
1684200450877465600,11.366465576171874,-0.19279266893863678,-0.5600748062133789,0.47728097438812256
1684200450887491600,11.37649169921875,-0.22236813604831696,-0.6709813475608826,0.4642285704612732
1684200450897516500,11.3865166015625,-0.26675450801849365,-0.743941068649292,0.4932247996330261
1684200450907542500,11.39654248046875,-0.32546868920326233,-0.796023964881897,0.5375794172286987
1684200450917568800,11.40656884765625,-0.3782610595226288,-0.825009822845459,0.5913004875183105
1684200450927593500,11.416593505859375,-0.4444887936115265,-0.8223274350166321,0.6575852036476135
1684200450937619700,11.42661962890625,-0.4998348355293274,-0.8051263689994812,0.7173554301261902
1684200450947644400,11.43664453125,-0.5523648858070374,-0.8230486512184143,0.7856841683387756
1684200450957670700,11.446670654296875,-0.6022105813026428,-0.8693618178367615,0.8449510931968689
1684200450967696600,11.456696533203125,-0.6383563280105591,-0.8889858722686768,0.8686590790748596
1684200450977721600,11.4667216796875,-0.6621777415275574,-0.8658899068832397,0.8464110493659973
1684200450987747600,11.47674755859375,-0.6929430961608887,-0.8077999949455261,0.8199216723442078
1684200450997772800,11.486772705078126,-0.7432112693786621,-0.7404335141181946,0.8090876340866089
1684200451007798800,11.496798828125,-0.8103543519973755,-0.6640900373458862,0.8468552231788635
1684200451017823700,11.50682373046875,-0.8732527494430542,-0.6320076584815979,0.8955864906311035
1684200451027849700,11.516849609375,-0.9314098358154297,-0.60854572057724,0.941874086856842
1684200451037875700,11.526875732421875,-1.0121500492095947,-0.6139814257621765,0.9672061800956726
1684200451047900700,11.536900634765624,-1.0829887390136719,-0.6483319401741028,0.9666019082069397
1684200451057926700,11.5469267578125,-1.1377743482589722,-0.7034162282943726,0.9136098027229309
1684200451067951600,11.55695166015625,-1.202994704246521,-0.764348566532135,0.812808632850647
1684200451077977600,11.5669775390625,-1.285424828529358,-0.8049694299697876,0.681465744972229
1684200451088003600,11.577003662109375,-1.367533564567566,-0.8025254607200623,0.5620431900024414
1684200451098028500,11.587028564453124,-1.4460657835006714,-0.8313817381858826,0.47765710949897766
1684200451108054500,11.597054443359376,-1.5053461790084839,-0.8384934663772583,0.472217857837677
1684200451118079700,11.607079833984375,-1.558817982673645,-0.7933967709541321,0.5031007528305054
1684200451128105700,11.617105712890625,-1.582943081855774,-0.6859302520751953,0.509776771068573
1684200451138131700,11.627131591796875,-1.4890196323394775,-0.4929155707359314,0.47824719548225403
1684200451148156700,11.63715673828125,-1.1965563297271729,-0.27129051089286804,0.3817867040634155
1684200451158182700,11.6471826171875,-0.8034235835075378,-0.12126880139112473,0.14968857169151306
1684200451168207600,11.65720751953125,-0.46057140827178955,-0.07899058610200882,-0.15595842897891998
1684200451178233600,11.667233642578125,-0.20641541481018066,-0.06356249749660492,-0.3184071481227875
1684200451188258600,11.677258544921875,-0.05833514407277107,0.062246304005384445,-0.25609394907951355
1684200451198284500,11.687284423828125,-0.03719939664006233,0.3983249366283417,-0.06376537680625916
1684200451208310500,11.697310546875,-0.09113293141126633,0.8900749087333679,0.11238488554954529
1684200451218335700,11.707335693359376,-0.12072940170764923,1.3756837844848633,0.20070376992225647
1684200451228361700,11.71736181640625,-0.13537146151065826,1.682996153831482,0.2472774088382721
1684200451238386700,11.72738671875,-0.18383058905601501,1.7054715156555176,0.2829276919364929
1684200451248412700,11.73741259765625,-0.22878821194171906,1.4329105615615845,0.27512410283088684
1684200451258438700,11.747438720703125,-0.266982764005661,0.9078786373138428,0.22312922775745392
1684200451268463600,11.757463623046876,-0.2677452266216278,0.2453073263168335,0.13403292000293732
1684200451278489600,11.767489501953126,-0.2131754457950592,-0.44695162773132324,0.04509233683347702
1684200451288514600,11.7775146484375,-0.10698562860488892,-1.0442041158676147,-0.018499422818422318
1684200451298540500,11.78754052734375,-0.046945441514253616,-1.4797378778457642,-0.0500718429684639
1684200451308566500,11.79756640625,-0.045552607625722885,-1.7492148876190186,-0.07346105575561523
1684200451318591500,11.807591552734374,-0.045837558805942535,-1.7933896780014038,-0.07165761291980743
1684200451328617500,11.817617431640626,-0.03429142385721207,-1.6193424463272095,-0.05296435207128525
1684200451338642700,11.827642578125,-0.0450727678835392,-1.2470601797103882,-0.03447732329368591
1684200451348668700,11.837668701171875,-0.08440765738487244,-0.798241913318634,-0.047966502606868744
1684200451358693600,11.847693603515625,-0.11245763301849365,-0.3457130789756775,-0.07203716039657593
1684200451368719600,11.8577197265625,-0.131259024143219,0.029182225465774536,-0.09683118760585785
1684200451378745600,11.86774560546875,-0.1565351039171219,0.2771960198879242,-0.11858420073986053
1684200451388770600,11.8777705078125,-0.18610338866710663,0.49344924092292786,-0.11914026737213135
1684200451398796500,11.887796630859375,-0.23771069943904877,0.7174994945526123,-0.08285097777843475
1684200451408821500,11.897821533203125,-0.3256821036338806,0.894080400466919,0.00966324657201767
1684200451418847500,11.907847412109374,-0.3808094561100006,1.0160791873931885,0.1580328494310379
1684200451428873500,11.91787353515625,-0.40095254778862,1.401161551475525,0.46790093183517456
1684200451438898700,11.927898681640626,-0.4323927164077759,1.6262565851211548,0.9079124927520752
1684200451448924400,11.93792431640625,-0.4854484796524048,1.4630907773971558,1.3007118701934814
1684200451458949600,11.94794970703125,-0.5138587951660156,1.0559026002883911,1.3643227815628052
1684200451468975600,11.9579755859375,-0.477110892534256,0.6893821358680725,1.1574729681015015
1684200451479001600,11.968001708984374,-0.3984679579734802,0.5005741715431213,0.8147894740104675
1684200451489026600,11.978026611328126,-0.306283175945282,0.3892306089401245,0.43185412883758545
1684200451499052500,11.988052490234375,-0.22618095576763153,0.22611013054847717,0.06655266135931015
1684200451509077500,11.998077392578125,-0.14794234931468964,-0.09613583236932755,-0.2192220836877823
1684200451519103500,12.008103515625,-0.08388830721378326,-0.5151816606521606,-0.3845612108707428
1684200451529128400,12.01812841796875,-0.020823057740926743,-0.8456051349639893,-0.4427645802497864
1684200451539154400,12.028154541015626,0.03402967378497124,-1.0054229497909546,-0.43352121114730835
1684200451549180400,12.038180419921876,0.0729227364063263,-0.9929562211036682,-0.38824960589408875
1684200451559205600,12.04820556640625,0.06989564001560211,-0.9020358324050903,-0.3165256381034851
1684200451569231600,12.058231689453125,0.039105240255594254,-0.8026173710823059,-0.2226012647151947
1684200451579256600,12.068256591796874,0.005355837754905224,-0.7080685496330261,-0.10645729303359985
1684200451589282600,12.078282470703124,-0.0036227433010935783,-0.6170867085456848,0.013682426884770393
1684200451599308500,12.08830859375,0.013496426865458488,-0.5454108119010925,0.12422707676887512
1684200451609333500,12.09833349609375,0.017152147367596626,-0.5067278742790222,0.20177379250526428
1684200451619359500,12.108359375,0.015292218886315823,-0.4956836998462677,0.25327008962631226
1684200451629384400,12.118384521484375,0.014439208433032036,-0.47036874294281006,0.29810041189193726
1684200451639410400,12.128410400390624,0.009033145383000374,-0.45685213804244995,0.3204744756221771
1684200451649436400,12.1384365234375,-0.012811699882149696,-0.44752466678619385,0.2822730243206024
1684200451659461400,12.14846142578125,-0.04635962098836899,-0.35058829188346863,0.18990881741046906
1684200451669487400,12.1584873046875,-0.077357217669487,-0.150629922747612,0.08024357259273529
1684200451679512600,12.1685126953125,-0.09259030222892761,0.017066096886992455,0.0017869574949145317
1684200451689538600,12.17853857421875,-0.08896173536777496,0.08708326518535614,-0.04536137729883194
1684200451699564800,12.188564697265624,-0.10384076833724976,0.05630875006318092,-0.046587761491537094
1684200451709589500,12.198589599609376,-0.11951400339603424,-0.041470274329185486,-0.00889764167368412
1684200451719615700,12.20861572265625,-0.1359197199344635,-0.2044644057750702,0.01602865196764469
1684200451729640400,12.218640380859375,-0.15984822809696198,-0.3419564664363861,0.030442744493484497
1684200451739666700,12.228666748046875,-0.18268457055091858,-0.39488545060157776,0.03995795175433159
1684200451749691400,12.23869140625,-0.22140613198280334,-0.3616337776184082,0.04088473320007324
1684200451759717400,12.24871728515625,-0.2490672469139099,-0.2661144733428955,0.05348876863718033
1684200451769743600,12.25874365234375,-0.2665466368198395,-0.149481862783432,0.07306139916181564
1684200451779768600,12.2687685546875,-0.2738800644874573,-0.03658907860517502,0.10106968879699707
1684200451789794600,12.278794677734375,-0.2767226994037628,-0.006098014768213034,0.12610206007957458
1684200451799819500,12.288819580078124,-0.27495503425598145,-0.09846743941307068,0.11741825938224792
1684200451809845800,12.298845703125,-0.2598727345466614,-0.19206875562667847,0.09939665347337723
1684200451819871700,12.308871826171876,-0.23314686119556427,-0.2516464591026306,0.061613697558641434
1684200451829896700,12.318896728515625,-0.20968122780323029,-0.2900172770023346,0.0307157002389431
1684200451839922700,12.328922607421875,-0.19099585711956024,-0.3227156400680542,0.017862901091575623
1684200451849947600,12.33894775390625,-0.18962565064430237,-0.3662886619567871,0.014210108667612076
1684200451859973600,12.3489736328125,-0.2078653872013092,-0.40643540024757385,0.020011382177472115
1684200451869999600,12.35899951171875,-0.23688718676567078,-0.47669732570648193,0.02678193710744381
1684200451880024600,12.369024658203125,-0.26408809423446655,-0.5136595964431763,0.0335247665643692
1684200451890050600,12.379050537109375,-0.2801056504249573,-0.43381404876708984,0.02304149977862835
1684200451900075800,12.38907568359375,-0.29979178309440613,-0.2759292423725128,0.0003425874747335911
1684200451910101800,12.399101806640624,-0.305819034576416,-0.11917158961296082,-0.021372027695178986
1684200451920127700,12.409127685546874,-0.28973865509033203,-0.03143438696861267,-0.019333580508828163
1684200451930152700,12.419152587890625,-0.275696337223053,-0.049938298761844635,0.0008356040343642235
1684200451940178700,12.4291787109375,-0.2712704539299011,-0.13392460346221924,0.04260212555527687
1684200451950203600,12.43920361328125,-0.27291974425315857,-0.2221415489912033,0.09283041208982468
1684200451960229600,12.449229736328125,-0.2681789994239807,-0.25464490056037903,0.1485624611377716
1684200451970254600,12.459254638671876,-0.2757365107536316,-0.25662657618522644,0.1986040621995926
1684200451980280600,12.469280517578126,-0.2874126136302948,-0.24629750847816467,0.24398405849933624
