time,seconds_elapsed,z,y,x
1684201083601564000,0.02956396484375,2.1825013160705566,-0.8949633240699768,2.7295122146606445
1684201083611590000,0.03958984375,2.5470259189605713,-0.09076327830553055,3.501504898071289
1684201083621614600,0.049614501953125,2.6833267211914062,0.966602623462677,4.149773120880127
1684201083631640800,0.059640869140625,2.7669036388397217,2.093229055404663,4.699890613555908
1684201083641665800,0.069665771484375,2.3234353065490723,5.387770175933838,4.220264434814453
1684201083651692000,0.079692138671875,2.186791181564331,8.525452613830566,3.3039371967315674
1684201083661718000,0.089718017578125,2.6220359802246094,9.925284385681152,2.781982421875
1684201083671743000,0.099742919921875,2.872554302215576,10.05218505859375,2.2131946086883545
1684201083681769000,0.10976904296875,3.180971384048462,6.315333843231201,0.8244100213050842
1684201083691794000,0.1197939453125,3.473963499069214,2.709829092025757,-0.16222964227199554
1684201083701820000,0.12981982421875,3.2479238510131836,-0.8361863493919373,-0.6198686361312866
1684201083711844900,0.139844970703125,2.619645357131958,-2.9406561851501465,-1.009856939315796
1684201083721870800,0.149870849609375,1.2980914115905762,-2.0133516788482666,-1.3713983297348022
1684201083731896800,0.159896728515625,-0.2236395627260208,-0.2892749011516571,-1.3421882390975952
1684201083741921800,0.169921875,-0.8357983231544495,0.13302397727966309,-1.2480279207229614
1684201083751947800,0.17994775390625,-1.1839594841003418,0.6598457098007202,-1.14982008934021
1684201083761973000,0.189972900390625,-1.4995957612991333,1.4201457500457764,-0.9519351720809937
1684201083771999000,0.1999990234375,-1.768691897392273,2.09432053565979,-0.6483513116836548
1684201083782025000,0.21002490234375,-1.9398560523986816,2.5707411766052246,-0.3429051637649536
1684201083792050000,0.2200498046875,-1.976182460784912,2.4132699966430664,-0.11186021566390991
1684201083802076000,0.230075927734375,-1.8317714929580688,1.9515109062194824,0.054923996329307556
1684201083812100900,0.240100830078125,-1.566964030265808,1.6758500337600708,0.1485527604818344
1684201083822126800,0.250126953125,-1.2936084270477295,1.381109595298767,0.14589715003967285
1684201083832151800,0.26015185546875,-1.2253057956695557,1.1067686080932617,0.02236403524875641
1684201083842177800,0.270177734375,-1.4604977369308472,1.6866645812988281,-0.10173790156841278
1684201083852203800,0.280203857421875,-1.6955877542495728,2.488016366958618,-0.17921938002109528
1684201083862229000,0.29022900390625,-1.9345844984054565,3.2624847888946533,-0.11474068462848663
1684201083872255000,0.3002548828125,-2.160810947418213,4.05361270904541,0.21096844971179962
1684201083882280000,0.310280029296875,-2.4325802326202393,4.848042011260986,0.7814632058143616
1684201083892306000,0.320305908203125,-2.617196798324585,5.5432281494140625,1.4289652109146118
1684201083902331000,0.330330810546875,-2.857576847076416,5.739212989807129,1.9249128103256226
1684201083912356900,0.34035693359375,-3.2741146087646484,5.840139389038086,2.2435262203216553
1684201083922382800,0.3503828125,-3.7168681621551514,6.187286376953125,2.432490110397339
1684201083932407800,0.36040771484375,-4.273623466491699,6.933871269226074,2.6201560497283936
1684201083942433800,0.370433837890625,-5.103118896484375,7.640816688537598,2.876770496368408
1684201083952458800,0.380458740234375,-5.976550579071045,7.860268592834473,3.213709592819214
1684201083962484500,0.390484375,-6.659667491912842,7.714981555938721,3.6181092262268066
1684201083972510500,0.400510498046875,-6.898674011230469,7.505973815917969,4.029067039489746
1684201083982535700,0.41053564453125,-6.952807903289795,7.277890205383301,4.285863876342773
1684201083992561700,0.420561767578125,-7.183289527893066,6.932178974151611,4.36593770980835
1684201084002586600,0.430586669921875,-7.443575382232666,6.290433883666992,4.391027450561523
1684201084012612600,0.440612548828125,-7.766552925109863,5.25212287902832,4.350378513336182
1684201084022637600,0.450637451171875,-8.162908554077148,4.1848063468933105,4.215847015380859
1684201084032663600,0.46066357421875,-8.382272720336914,3.2679545879364014,3.9352450370788574
1684201084042689500,0.470689453125,-8.435561180114746,2.5077812671661377,3.451658010482788
1684201084052714500,0.480714599609375,-8.312740325927734,2.015019416809082,2.8997578620910645
1684201084062740500,0.490740478515625,-8.088057518005371,1.6933623552322388,2.3949875831604004
1684201084072765700,0.500765625,-7.88137674331665,1.4842077493667603,2.047276735305786
1684201084082791700,0.510791748046875,-7.624019622802734,1.4177459478378296,1.9585270881652832
1684201084092816600,0.520816650390625,-7.43609619140625,1.3305809497833252,2.0827419757843018
1684201084102842600,0.530842529296875,-7.207382678985596,1.1791250705718994,2.353667736053467
1684201084112868600,0.54086865234375,-6.805202007293701,0.8493636250495911,2.5937659740448
1684201084122893600,0.5508935546875,-6.206733703613281,0.28330355882644653,2.634117841720581
1684201084132919600,0.56091943359375,-5.4712443351745605,-0.3255225121974945,2.484323024749756
1684201084142944500,0.570944580078125,-4.638510227203369,-1.0413049459457397,2.130077838897705
1684201084152970500,0.580970458984375,-3.6280593872070312,-1.6367985010147095,1.6207183599472046
1684201084162996500,0.59099658203125,-2.4520561695098877,-2.097506523132324,1.1026463508605957
1684201084173021400,0.601021484375,-1.3003946542739868,-2.684351921081543,0.6304361820220947
1684201084183047400,0.61104736328125,-0.38878828287124634,-3.1015031337738037,0.501489520072937
1684201084193072600,0.62107275390625,0.26206034421920776,-3.5101892948150635,0.7579807043075562
1684201084203098600,0.6310986328125,0.7281559109687805,-3.796879291534424,1.1230498552322388
1684201084213124900,0.641124755859375,1.1389071941375732,-3.766103744506836,1.4657042026519775
1684201084223149600,0.651149658203125,1.4676766395568848,-3.7922487258911133,1.578668475151062
1684201084233175800,0.66117578125,1.7026257514953613,-3.568713665008545,1.472406029701233
1684201084243200500,0.671200439453125,1.8778889179229736,-3.3108553886413574,1.1713014841079712
1684201084253226800,0.681226806640625,2.142535448074341,-2.9540176391601562,0.9081241488456726
1684201084263251500,0.69125146484375,2.531567335128784,-2.421100616455078,0.7796080112457275
1684201084273277700,0.701277587890625,2.943671464920044,-1.8306752443313599,0.7961904406547546
1684201084283303700,0.7113037109375,3.225048780441284,-1.4135725498199463,0.8488661646842957
1684201084293328600,0.72132861328125,3.3913333415985107,-1.245400309562683,0.8017873764038086
1684201084303354600,0.731354736328125,3.1206166744232178,-1.1790615320205688,0.6205768585205078
1684201084313379800,0.7413798828125,2.9295995235443115,-1.131166696548462,0.4117642343044281
1684201084323405800,0.75140576171875,2.8843109607696533,-0.8044335842132568,0.3939899504184723
1684201084333430500,0.761430419921875,3.002068042755127,-0.3966980576515198,0.46259403228759766
1684201084343456800,0.771456787109375,2.680030107498169,0.11612647026777267,0.4602922201156616
1684201084353482800,0.781482666015625,2.5208702087402344,0.5686068534851074,0.41659241914749146
1684201084363507700,0.7915078125,1.8267351388931274,1.2006993293762207,-0.30445194244384766
1684201084373533700,0.80153369140625,0.776979923248291,2.07094669342041,-0.9921032786369324
1684201084383558700,0.81155859375,0.15728698670864105,2.5299317836761475,-0.6768959164619446
1684201084393584600,0.821584716796875,-0.19445958733558655,2.4833083152770996,-0.22095337510108948
1684201084403610600,0.831610595703125,-0.06708826124668121,2.163780689239502,-0.3501633405685425
1684201084413635800,0.8416357421875,0.25028011202812195,1.359099268913269,-0.9130027294158936
1684201084423661800,0.851661865234375,0.32404282689094543,0.11400473862886429,-1.3682501316070557
1684201084433686800,0.861686767578125,0.3522912561893463,-0.6187568306922913,-1.4392188787460327
1684201084443712800,0.871712646484375,0.3486880362033844,-0.9248930811882019,-1.5275758504867554
1684201084453737700,0.88173779296875,0.3874282240867615,-1.5055025815963745,-2.1137402057647705
1684201084463763700,0.891763671875,0.6418225765228271,-1.3775743246078491,-2.648672580718994
1684201084473789700,0.901789794921875,1.2628810405731201,-0.6139003038406372,-2.1503472328186035
1684201084483814700,0.911814697265625,1.17678964138031,0.28214821219444275,-0.696636438369751
1684201084493840600,0.921840576171875,0.727810800075531,1.3102487325668335,0.2981727719306946
1684201084503865600,0.931865478515625,0.37899747490882874,1.706152081489563,0.5920544862747192
1684201084513891600,0.9418916015625,0.23167912662029266,1.4903383255004883,0.3456801176071167
1684201084523916800,0.951916748046875,0.05928688496351242,1.0174245834350586,-0.09936638176441193
1684201084533942800,0.96194287109375,-0.17653442919254303,0.5129328966140747,-0.5328230261802673
1684201084543968800,0.97196875,-0.38037461042404175,-0.045571018010377884,-0.8881084322929382
1684201084553993700,0.98199365234375,-0.5966203808784485,-0.33908841013908386,-1.1904726028442383
1684201084564019700,0.992019775390625,-0.6855830550193787,-0.48675528168678284,-1.382065773010254
1684201084574044700,1.002044677734375,-0.6008716225624084,-0.16946439445018768,-1.4204988479614258
1684201084584070700,1.012070556640625,-0.3677026331424713,0.2239629328250885,-1.2036473751068115
1684201084594096600,1.0220966796875,-0.12781307101249695,0.2965295612812042,-0.9494654536247253
1684201084604121600,1.03212158203125,-0.08047951757907867,0.12246247380971909,-0.9570979475975037
1684201084614147600,1.042147705078125,-0.09748832881450653,-0.16571232676506042,-0.9169124364852905
1684201084624172800,1.0521728515625,-0.15914607048034668,-1.2194045782089233,-0.7972145676612854
1684201084634198800,1.06219873046875,-0.45947471261024475,-1.3738809823989868,-0.41288232803344727
1684201084644223700,1.0722236328125,-0.4000438153743744,-1.1122106313705444,0.22681652009487152
1684201084654249700,1.082249755859375,-0.03061678633093834,-0.5111635327339172,0.5734458565711975
1684201084664275700,1.092275634765625,0.4235764443874359,0.21702146530151367,0.8286826014518738
1684201084674300700,1.10230078125,0.27797555923461914,0.7733706831932068,1.0427093505859375
1684201084684326700,1.11232666015625,-0.22344624996185303,0.8683784008026123,0.9728569984436035
1684201084694351600,1.1223515625,-0.7171680927276611,0.8906522393226624,0.8714566230773926
1684201084704377600,1.132377685546875,-1.068344235420227,1.044058918952942,0.8067816495895386
1684201084714403600,1.142403564453125,-1.2660908699035645,0.8735551834106445,0.7652384638786316
1684201084724428500,1.152428466796875,-1.4852790832519531,0.22933191061019897,0.5459563732147217
1684201084734454500,1.16245458984375,-1.7555441856384277,-0.4614976644515991,0.049189768731594086
1684201084744479700,1.172479736328125,-1.866059422492981,-0.7293756008148193,-0.512594997882843
1684201084754505700,1.182505615234375,-1.6789376735687256,-0.6669026017189026,-0.7715352177619934
1684201084764530700,1.19253076171875,-1.0646122694015503,-0.15425923466682434,-0.6111000776290894
1684201084774556700,1.202556640625,-0.20491670072078705,0.6360465884208679,-0.5303348898887634
1684201084784582700,1.212582763671875,0.4067777991294861,0.8789677619934082,-0.5519327521324158
1684201084794607600,1.222607666015625,0.6343252658843994,0.542976438999176,-0.6585819721221924
1684201084804633600,1.232633544921875,0.7285622954368591,-0.07196564972400665,-0.7569708824157715
1684201084814658600,1.242658447265625,0.8828048706054688,-0.3236735165119171,-0.691336989402771
1684201084824684500,1.2526845703125,1.0820964574813843,-0.20960381627082825,-0.3893125057220459
1684201084834710500,1.26271044921875,1.3967182636260986,-0.059333883225917816,0.09789521992206573
1684201084844735700,1.27273583984375,1.7374765872955322,0.41907721757888794,0.5827064514160156
1684201084854761700,1.28276171875,1.749155044555664,0.7518725395202637,0.9330215454101562
1684201084864786700,1.29278662109375,1.6003224849700928,0.8633102178573608,1.0647791624069214
1684201084874812700,1.302812744140625,1.2573156356811523,0.8271154761314392,1.052551031112671
1684201084884837600,1.312837646484375,0.778399646282196,0.7384113669395447,0.937433660030365
1684201084894863600,1.322863525390625,0.34214723110198975,0.874901294708252,0.7919137477874756
1684201084904889600,1.3328896484375,0.10844655334949493,1.3138915300369263,0.5906222462654114
1684201084914914600,1.34291455078125,-0.0332072488963604,1.300014853477478,0.5085675716400146
1684201084924940500,1.3529404296875,-0.40861281752586365,1.039878010749817,0.6154358983039856
1684201084934965500,1.362965576171875,-0.8662163615226746,1.8739787340164185,0.6062970161437988
1684201084944991500,1.372991455078125,-1.1547919511795044,3.2260892391204834,0.33708614110946655
1684201084955016700,1.3830166015625,-1.660517692565918,3.732296943664551,-0.12029391527175903
1684201084965043000,1.39304296875,-2.290475368499756,3.6464407444000244,-0.4966251254081726
1684201084975069000,1.40306884765625,-2.726712226867676,2.974363327026367,-0.7247357964515686
1684201084985094100,1.41309423828125,-3.067100763320923,2.129058599472046,-0.9636478424072266
1684201084995120000,1.4231201171875,-3.3026251792907715,1.0848767757415771,-1.3006722927093506
1684201085005145000,1.43314501953125,-3.217942237854004,0.4678703546524048,-1.6789140701293945
1684201085015171000,1.443171142578125,-2.546992540359497,-0.256902277469635,-1.9270884990692139
1684201085025197000,1.453197021484375,-1.3548437356948853,-1.3831263780593872,-1.8739099502563477
1684201085035222000,1.463221923828125,-0.6669771671295166,-1.978026032447815,-1.204492449760437
1684201085045248000,1.473248046875,-1.3697980642318726,-1.2706098556518555,0.27024945616722107
1684201085055273000,1.48327294921875,-2.5167932510375977,-0.18780532479286194,1.8707791566848755
1684201085065299000,1.493298828125,-3.3350250720977783,0.2789692282676697,2.77180814743042
1684201085075324200,1.50332421875,-3.288984537124634,0.43229860067367554,2.741326093673706
1684201085085350100,1.51335009765625,-3.389047622680664,0.5436293482780457,2.4585065841674805
1684201085095376100,1.523376220703125,-3.7962541580200195,-0.6224546432495117,1.977063775062561
1684201085105401000,1.533401123046875,-3.9942541122436523,-1.3525922298431396,1.5108416080474854
1684201085115427000,1.543427001953125,-4.269338607788086,-1.4874176979064941,0.9941996335983276
1684201085125452000,1.5534521484375,-4.400146007537842,-0.7677621841430664,0.6642330884933472
1684201085135478000,1.56347802734375,-3.7175052165985107,0.14261223375797272,0.17704613506793976
1684201085145504000,1.57350390625,-2.8937175273895264,0.539852499961853,-0.3856680691242218
1684201085155529000,1.583529052734375,-2.7564985752105713,0.38295745849609375,-0.5679412484169006
1684201085165555000,1.593554931640625,-2.6174023151397705,0.007415395230054855,-0.6974005699157715
1684201085175580000,1.603579833984375,-2.104475975036621,-0.128893181681633,-0.7369122505187988
1684201085185606000,1.61360595703125,-0.7264072895050049,0.14887060225009918,-0.6119250059127808
1684201085195631000,1.623631103515625,1.024511694908142,0.43779295682907104,-0.4051358997821808
1684201085205657000,1.633656982421875,2.7382261753082275,0.5422279834747314,-0.18947842717170715
1684201085215683000,1.64368310546875,3.8204894065856934,0.636182963848114,0.06715629249811172
1684201085225708000,1.6537080078125,4.05509090423584,0.6615464687347412,0.2972111999988556
1684201085235734000,1.663734130859375,3.3468925952911377,0.2595553398132324,0.5075196623802185
1684201085245759000,1.673759033203125,1.967527985572815,-0.20089976489543915,0.7176108360290527
1684201085255785000,1.683784912109375,0.7442088723182678,-0.529090404510498,0.9468658566474915
1684201085265810000,1.693809814453125,0.17784875631332397,-0.6237884759902954,1.0518748760223389
1684201085275836000,1.7038359375,0.13262134790420532,-0.3036580979824066,0.9489971995353699
1684201085285862000,1.71386181640625,0.3052770793437958,0.12201608717441559,0.6659289002418518
1684201085295887000,1.72388720703125,0.42884376645088196,0.3938595950603485,0.26956719160079956
1684201085305913000,1.7339130859375,0.4681345522403717,0.6830787658691406,-0.16422094404697418
1684201085315938000,1.74393798828125,0.4730294346809387,0.8892812132835388,-0.567909300327301
1684201085325964000,1.753964111328125,0.45067283511161804,0.7797781825065613,-0.8311046361923218
1684201085335990000,1.763989990234375,0.37059450149536133,0.4167017340660095,-0.8770795464515686
1684201085346015000,1.774014892578125,0.30636608600616455,-0.07075557112693787,-0.7108361721038818
1684201085356041000,1.784041015625,0.330506831407547,-0.6101034879684448,-0.45331674814224243
1684201085366066000,1.79406591796875,0.3726683259010315,-0.9695749878883362,-0.2106838822364807
1684201085376092000,1.804091796875,0.3095775246620178,-1.0882465839385986,-0.04761453717947006
1684201085386116900,1.814116943359375,0.15933504700660706,-0.9264832139015198,0.05414142459630966
1684201085396142800,1.824142822265625,0.11061197519302368,-0.5653378367424011,0.10762116312980652
1684201085406169000,1.834169189453125,0.10971640050411224,-0.25888073444366455,0.1141916960477829
1684201085416194000,1.844194091796875,0.143821120262146,-0.15762735903263092,0.0833621472120285
1684201085426220300,1.85422021484375,0.22948278486728668,-0.13026632368564606,0.04707421734929085
1684201085436245000,1.864244873046875,0.28988194465637207,-0.24043837189674377,-0.044644515961408615
1684201085446271200,1.874271240234375,0.3202575743198395,-0.46301960945129395,-0.18092407286167145
1684201085456297200,1.884297119140625,0.3118464946746826,-0.5230557918548584,-0.24077701568603516
1684201085466322000,1.894322021484375,0.18254505097866058,-0.4894658029079437,-0.22739262878894806
1684201085476348200,1.90434814453125,0.016809338703751564,-0.4122208058834076,-0.16973865032196045
1684201085486372900,1.914372802734375,-0.13874322175979614,-0.35069769620895386,-0.14538975059986115
1684201085496399000,1.924399169921875,-0.21141928434371948,-0.2659037113189697,-0.1645520031452179
1684201085506424000,1.934424072265625,-0.19920441508293152,-0.036231424659490585,-0.17145897448062897
1684201085516450000,1.944449951171875,-0.18531551957130432,0.08312400430440903,-0.202932208776474
1684201085526476000,1.95447607421875,-0.11981147527694702,0.12943881750106812,-0.21580901741981506
1684201085536501200,1.964501220703125,0.005641525611281395,0.18837697803974152,-0.20125164091587067
1684201085546527200,1.97452734375,0.1801249384880066,0.1542341709136963,-0.17184151709079742
1684201085556552200,1.98455224609375,0.3030884265899658,0.05423806235194206,-0.1194872260093689
1684201085566578200,1.994578125,0.3153267502784729,0.010250015184283257,-0.001707081450149417
1684201085576604200,2.004604248046875,0.2569585144519806,-0.08262106776237488,0.1332789659500122
1684201085586629000,2.014629150390625,0.1421060562133789,-0.23001328110694885,0.2304936945438385
1684201085596655000,2.024655029296875,-0.005556643940508366,-0.33306458592414856,0.2567647099494934
1684201085606680000,2.03468017578125,-0.0884924978017807,-0.30864134430885315,0.21670329570770264
1684201085616706000,2.0447060546875,-0.10357770323753357,-0.19482608139514923,0.1123420000076294
1684201085626731300,2.054731201171875,-0.14369069039821625,-0.09335684776306152,-0.001788442488759756
1684201085636757200,2.06475732421875,-0.23685206472873688,-0.08476122468709946,-0.04534950107336044
1684201085646783200,2.074783203125,-0.32144972681999207,-0.06142565235495567,-0.008239630609750748
1684201085656808200,2.08480810546875,-0.38626760244369507,-0.016713576391339302,0.05709703266620636
1684201085666834200,2.094834228515625,-0.4047858715057373,0.03996677324175835,0.11774459481239319
1684201085676859100,2.104859130859375,-0.3992193341255188,0.13499023020267487,0.16971752047538757
1684201085686885000,2.114885009765625,-0.4113294780254364,0.2074519544839859,0.18308459222316742
1684201085696910000,2.12491015625,-0.4473061263561249,0.11595159024000168,0.11922171711921692
1684201085706936000,2.13493603515625,-0.4560822546482086,-0.05813572555780411,0.031390231102705
1684201085716962000,2.144962158203125,-0.4301539957523346,-0.21577036380767822,-0.045002277940511703
1684201085726987000,2.154987060546875,-0.43829286098480225,-0.36507320404052734,-0.11647573113441467
1684201085737013000,2.165012939453125,-0.4756847023963928,-0.47470754384994507,-0.16673757135868073
1684201085747038200,2.1750380859375,-0.5063942074775696,-0.5261039733886719,-0.20835253596305847
1684201085757064200,2.185064208984375,-0.5082030296325684,-0.4394156336784363,-0.2831524610519409
1684201085767090200,2.195090087890625,-0.5174854397773743,-0.4433119595050812,-0.35288432240486145
1684201085777115100,2.205115234375,-0.5085306167602539,-0.5059694647789001,-0.35788971185684204
1684201085787141000,2.21514111328125,-0.5029811263084412,-0.5741994380950928,-0.33682841062545776
1684201085797166000,2.225166015625,-0.484945148229599,-0.5924682021141052,-0.32825541496276855
1684201085807192000,2.235192138671875,-0.4740670323371887,-0.5171182155609131,-0.3283776044845581
1684201085817217000,2.245217041015625,-0.4640018939971924,-0.4422524571418762,-0.3177526593208313
1684201085827243000,2.255242919921875,-0.4561687111854553,-0.38487470149993896,-0.2967258095741272
1684201085837269000,2.26526904296875,-0.4639424681663513,-0.3539133369922638,-0.25770437717437744
1684201085847294200,2.275294189453125,-0.4693346321582794,-0.3585056960582733,-0.21875081956386566
1684201085857320200,2.2853203125,-0.42118945717811584,-0.2845108211040497,-0.1892579197883606
1684201085867345200,2.29534521484375,-0.3377063572406769,-0.13777513802051544,-0.14788375794887543
1684201085877371100,2.30537109375,-0.2628909647464752,-0.02125464379787445,-0.07804395258426666
1684201085887397000,2.315397216796875,-0.19619125127792358,0.08722207695245743,-0.000026782508939504623
1684201085897422000,2.325422119140625,-0.14083825051784515,0.11673363298177719,0.031834475696086884
1684201085907448000,2.335447998046875,-0.09208487719297409,0.06498827040195465,0.004937528166919947
1684201085917473000,2.34547314453125,-0.05609944462776184,0.017220743000507355,-0.0723830908536911
1684201085927499000,2.3554990234375,-0.015510604716837406,-0.018858183175325394,-0.14247317612171173
1684201085937524000,2.36552392578125,0.051318228244781494,-0.03954455256462097,-0.1561138927936554
1684201085947550000,2.375550048828125,0.12326650321483612,0.030588310211896896,-0.1375807672739029
1684201085957576000,2.385575927734375,0.17670096457004547,0.1672508269548416,-0.14084339141845703
1684201085967601000,2.395600830078125,0.22933028638362885,0.2735186517238617,-0.16535243391990662
1684201085977627000,2.405626953125,0.2778288424015045,0.28572043776512146,-0.22457368671894073
1684201085987651800,2.41565185546875,0.3195856213569641,0.19775301218032837,-0.34302380681037903
1684201085997677800,2.425677734375,0.3679172098636627,0.06413557380437851,-0.499747633934021
1684201086007703800,2.435703857421875,0.4032987356185913,-0.06280790269374847,-0.6695249676704407
1684201086017728800,2.445728759765625,0.435561865568161,-0.11120259761810303,-0.808471143245697
1684201086027754800,2.455754638671875,0.4752223491668701,-0.10391324758529663,-0.9059247374534607
1684201086037779700,2.46577978515625,0.5185314416885376,-0.09409444034099579,-1.001186490058899
1684201086047805700,2.4758056640625,0.5766932368278503,-0.1403983235359192,-1.131272792816162
1684201086057831000,2.485830810546875,0.6639969944953918,-0.1836291402578354,-1.2609235048294067
1684201086067857000,2.49585693359375,0.7891263961791992,-0.20303073525428772,-1.3833132982254028
1684201086077883000,2.5058828125,0.9435399174690247,-0.2572612166404724,-1.4962819814682007
1684201086087907800,2.515907958984375,1.0442081689834595,-0.3528228998184204,-1.5802216529846191
1684201086097933800,2.525933837890625,1.0956332683563232,-0.4588044583797455,-1.5869148969650269
1684201086107958800,2.535958740234375,1.107239007949829,-0.5531788468360901,-1.5360764265060425
1684201086117984800,2.54598486328125,1.0997837781906128,-0.5749794840812683,-1.4243626594543457
1684201086128010800,2.5560107421875,1.0467315912246704,-0.4952828586101532,-1.2376543283462524
1684201086138035700,2.56603564453125,0.9111513495445251,-0.38446366786956787,-1.0056633949279785
1684201086148061700,2.576061767578125,0.7278128862380981,-0.26102444529533386,-0.748133659362793
1684201086158086700,2.586086669921875,0.6058257222175598,-0.11353646218776703,-0.5256776809692383
1684201086168112600,2.596112548828125,0.5913087725639343,0.029228176921606064,-0.3265227973461151
1684201086178137900,2.606137939453125,0.6284921169281006,0.10906681418418884,-0.1803906410932541
1684201086188163800,2.616163818359375,0.7325345873832703,0.11573272943496704,-0.0567028634250164
1684201086198189800,2.62618994140625,0.8958931565284729,0.09310039132833481,0.0005162181332707405
1684201086208214800,2.63621484375,1.091550350189209,0.025782274082303047,-0.04159269109368324
1684201086218240800,2.64624072265625,1.2868010997772217,0.024907425045967102,-0.18710701167583466
1684201086228265700,2.656265625,1.402103066444397,0.07844726741313934,-0.30831390619277954
1684201086238291700,2.666291748046875,1.3884061574935913,0.18449008464813232,-0.34481653571128845
1684201086248317700,2.676317626953125,1.302757740020752,0.3085223436355591,-0.2931006848812103
1684201086258342700,2.6863427734375,1.2071211338043213,0.4636205732822418,-0.1752062886953354
1684201086268368600,2.69636865234375,1.13428795337677,0.6139187216758728,-0.06028764322400093
1684201086278393900,2.706393798828125,1.060537576675415,0.7259914875030518,-0.001221394632011652
1684201086288419800,2.716419921875,1.0021650791168213,0.7276526689529419,0.014454488642513752
1684201086298444800,2.72644482421875,0.958754301071167,0.6992005109786987,0.035447120666503906
1684201086308470800,2.736470703125,0.8962482810020447,0.6006748080253601,0.08055415749549866
1684201086318496800,2.746496826171875,0.820396900177002,0.5178137421607971,0.10281552374362946
1684201086328521700,2.756521728515625,0.7367003560066223,0.520591676235199,0.15814611315727234
1684201086338547700,2.766547607421875,0.6595360636711121,0.5402303338050842,0.22596217691898346
1684201086348572700,2.77657275390625,0.5823025107383728,0.5008863210678101,0.2594541907310486
1684201086358598700,2.7865986328125,0.5138283967971802,0.4612821936607361,0.253935843706131
1684201086368623600,2.79662353515625,0.4604490399360657,0.4254607856273651,0.24413517117500305
1684201086378649600,2.806649658203125,0.4214414656162262,0.38091835379600525,0.22254173457622528
1684201086388675600,2.816675537109375,0.38734161853790283,0.3094882369041443,0.20164409279823303
1684201086398700800,2.82670068359375,0.35735708475112915,0.26557615399360657,0.20254744589328766
1684201086408726800,2.836726806640625,0.3177882432937622,0.2189500629901886,0.21231809258460999
1684201086418751700,2.846751708984375,0.274539589881897,0.20407284796237946,0.21591602265834808
1684201086428777700,2.85677783203125,0.23224082589149475,0.2433583289384842,0.23820067942142487
1684201086438803700,2.8668037109375,0.18171587586402893,0.3385365307331085,0.2903573513031006
1684201086448828700,2.87682861328125,0.10064897686243057,0.43307238817214966,0.36806032061576843
1684201086458854700,2.886854736328125,-0.0012049498036503792,0.5079159736633301,0.4640938937664032
1684201086468879600,2.896879638671875,-0.10545079410076141,0.544535756111145,0.5326953530311584
1684201086478905600,2.906905517578125,-0.20243006944656372,0.5539569854736328,0.5535756349563599
1684201086488930800,2.916930908203125,-0.28711795806884766,0.5266961455345154,0.5534470081329346
1684201086498956800,2.926956787109375,-0.3708663582801819,0.44333547353744507,0.514639675617218
1684201086508982800,2.936982666015625,-0.44502872228622437,0.353049635887146,0.4583933353424072
1684201086519007700,2.9470078125,-0.5162531137466431,0.28634917736053467,0.37336739897727966
1684201086529033700,2.95703369140625,-0.5841650366783142,0.23784112930297852,0.29483580589294434
1684201086539058700,2.96705859375,-0.6466664671897888,0.20920708775520325,0.24492153525352478
1684201086549084700,2.977084716796875,-0.6931750178337097,0.19545802474021912,0.21676810085773468
1684201086559111000,2.98711083984375,-0.7020976543426514,0.11871476471424103,0.23601344227790833
1684201086569135600,2.997135498046875,-0.698390007019043,0.01414201594889164,0.3042675852775574
1684201086579161900,3.007161865234375,-0.7106703519821167,-0.04427095875144005,0.3891824781894684
1684201086589186600,3.0171865234375,-0.7330085039138794,-0.032132793217897415,0.4816439151763916
1684201086599212800,3.027212890625,-0.7635794281959534,-0.012808894738554955,0.5791433453559875
1684201086609237800,3.03723779296875,-0.8045804500579834,0.0002117174444720149,0.6819313168525696
1684201086619264000,3.047263916015625,-0.8458307385444641,0.044120319187641144,0.7802818417549133
1684201086629290000,3.0572900390625,-0.9013373255729675,0.06408469378948212,0.8754483461380005
1684201086639315000,3.06731494140625,-0.9922733306884766,0.0796242356300354,0.9316484928131104
1684201086649341000,3.0773408203125,-1.077811598777771,0.040323760360479355,0.964968204498291
1684201086659365600,3.08736572265625,-1.1091508865356445,0.02869453653693199,0.9744274616241455
1684201086669392000,3.097391845703125,-1.067913293838501,0.06259245425462723,0.9537212252616882
1684201086679417900,3.10741796875,-1.019953727722168,0.10353828966617584,0.9090043902397156
1684201086689442800,3.11744287109375,-0.98087078332901,0.14223802089691162,0.864890456199646
1684201086699468800,3.12746875,-0.9651565551757812,0.1523975431919098,0.8237693309783936
1684201086709493800,3.13749365234375,-0.936222493648529,0.1986011266708374,0.7670574188232422
1684201086719519700,3.147519775390625,-0.8707705140113831,0.2892322242259979,0.6607469916343689
1684201086729545000,3.157544921875,-0.7922936677932739,0.3946574926376343,0.4867495596408844
1684201086739571000,3.167571044921875,-0.7210895419120789,0.3729279637336731,0.33020496368408203
1684201086749597000,3.177596923828125,-0.6758026480674744,0.13450278341770172,0.2716901898384094
1684201086759622000,3.187621826171875,-0.5730025172233582,-0.15779884159564972,0.3042113780975342
1684201086769647900,3.19764794921875,-0.4862213134765625,-0.20918793976306915,0.2689003348350525
1684201086779672800,3.2076728515625,-0.5020067095756531,0.10936287045478821,0.12628059089183807
1684201086789698800,3.21769873046875,-0.5400996804237366,0.42416462302207947,0.06948914378881454
1684201086799724800,3.227724853515625,-0.571216344833374,0.5542014241218567,0.06390636414289474
1684201086809749800,3.237749755859375,-0.5560404658317566,0.5172314047813416,0.028662141412496567
1684201086819775700,3.247775634765625,-0.5273329019546509,0.3929811120033264,-0.021061472594738007
1684201086829801000,3.257801025390625,-0.5084705948829651,0.2425028532743454,-0.0699947327375412
1684201086839827000,3.267826904296875,-0.49975091218948364,0.14538376033306122,-0.08439257740974426
1684201086849852000,3.277851806640625,-0.450988233089447,0.07601051032543182,-0.058363281190395355
1684201086859878000,3.2878779296875,-0.3912993371486664,0.04087090119719505,0.018280096352100372
1684201086869904000,3.29790380859375,-0.34645941853523254,0.05651097372174263,0.1398964375257492
1684201086879928800,3.3079287109375,-0.2967078387737274,0.09089265018701553,0.27889424562454224
1684201086889954800,3.317954833984375,-0.23233716189861298,0.13032230734825134,0.4202166497707367
1684201086899979800,3.327979736328125,-0.16040970385074615,0.21497461199760437,0.5813586711883545
1684201086910005800,3.338005859375,-0.08867896348237991,0.3425631523132324,0.744644045829773
1684201086920031700,3.34803173828125,-0.046323779970407486,0.44097042083740234,0.899666965007782
1684201086930056700,3.358056640625,-0.020037813112139702,0.49716711044311523,0.9923517107963562
1684201086940082700,3.368082763671875,-0.01557861641049385,0.482652872800827,0.9576730728149414
1684201086950108000,3.37810791015625,-0.03211823105812073,0.4069678485393524,0.8053101897239685
1684201086960134000,3.3881337890625,-0.03996869549155235,0.33494266867637634,0.5998406410217285
1684201086970159000,3.3981591796875,-0.020415758714079857,0.28828534483909607,0.39877089858055115
1684201086980185000,3.40818505859375,-0.008534865453839302,0.27949264645576477,0.26999029517173767
1684201086990211000,3.418211181640625,-0.006506388075649738,0.3124656677246094,0.269951194524765
1684201087000236000,3.428236083984375,-0.017295651137828827,0.3424648642539978,0.36064064502716064
1684201087010262000,3.438261962890625,-0.0003028206992894411,0.3638540208339691,0.5012627243995667
1684201087020287000,3.448286865234375,0.032531291246414185,0.4431845247745514,0.6210956573486328
1684201087030313000,3.45831298828125,0.06202872842550278,0.5122919678688049,0.6877638697624207
1684201087040339000,3.4683388671875,0.09289556741714478,0.5324898958206177,0.716650664806366
1684201087050364000,3.478364013671875,0.10457302629947662,0.47707119584083557,0.6694645881652832
1684201087060390000,3.488389892578125,0.10707026720046997,0.3722158670425415,0.568008542060852
1684201087070415000,3.4984150390625,0.10368429869413376,0.2712242305278778,0.4333723485469818
1684201087080441000,3.508441162109375,0.11189509183168411,0.2206750214099884,0.31007838249206543
1684201087090466000,3.518466064453125,0.10786115378141403,0.13144350051879883,0.21304427087306976
1684201087100492000,3.528491943359375,0.07403022050857544,0.0130233746021986,0.1275743693113327
1684201087110518000,3.53851806640625,0.020842792466282845,-0.11839955300092697,0.061660654842853546
1684201087120543000,3.54854296875,-0.03798963129520416,-0.23378314077854156,0.02232763171195984
1684201087130569000,3.55856884765625,-0.09980429708957672,-0.3150859475135803,-0.0050560967065393925
1684201087140594000,3.568593994140625,-0.13684619963169098,-0.34629741311073303,-0.00632136408239603
1684201087150620000,3.578619873046875,-0.12871192395687103,-0.34464773535728455,0.021487873047590256
1684201087160646000,3.58864599609375,-0.12495367974042892,-0.3473556637763977,0.07061920315027237
1684201087170671000,3.598671142578125,-0.1031668409705162,-0.36808791756629944,0.11659280210733414
1684201087180697000,3.608697021484375,-0.0739988386631012,-0.39773955941200256,0.14928576350212097
1684201087190722000,3.61872216796875,-0.047342002391815186,-0.4372272193431854,0.17558179795742035
1684201087200748000,3.628748046875,-0.032416049391031265,-0.47016385197639465,0.19110536575317383
1684201087210773000,3.63877294921875,-0.03799764811992645,-0.4545280933380127,0.20334205031394958
1684201087220799000,3.648799072265625,-0.059124238789081573,-0.39452600479125977,0.21180717647075653
1684201087230825000,3.658824951171875,-0.08563549816608429,-0.324047714471817,0.21863989531993866
1684201087240850000,3.668849853515625,-0.11797824501991272,-0.26196035742759705,0.2024145871400833
1684201087250876000,3.6788759765625,-0.14422042667865753,-0.22877168655395508,0.1803169846534729
1684201087260900900,3.68890087890625,-0.1700379103422165,-0.2180817574262619,0.15914484858512878
1684201087270926800,3.6989267578125,-0.18674086034297943,-0.21510954201221466,0.14364488422870636
1684201087280952800,3.708952880859375,-0.191179558634758,-0.23584730923175812,0.1244054064154625
1684201087290978000,3.71897802734375,-0.20012317597866058,-0.28734326362609863,0.10817218571901321
1684201087301004000,3.729004150390625,-0.21074599027633667,-0.33986029028892517,0.09872595965862274
1684201087311029000,3.739029052734375,-0.20962990820407867,-0.33452990651130676,0.11820699274539948
1684201087321055000,3.749054931640625,-0.20410224795341492,-0.2971377968788147,0.1464381068944931
1684201087331080000,3.759079833984375,-0.2033587098121643,-0.2637578547000885,0.171333447098732
1684201087341106000,3.76910595703125,-0.20398056507110596,-0.25018423795700073,0.17555908858776093
1684201087351132000,3.7791318359375,-0.1993340104818344,-0.25471487641334534,0.16763953864574432
1684201087361156900,3.789156982421875,-0.18997779488563538,-0.2667135000228882,0.14189821481704712
1684201087371182800,3.799182861328125,-0.17794100940227509,-0.28144726157188416,0.11128237843513489
1684201087381208000,3.8092080078125,-0.17305465042591095,-0.2985120117664337,0.085093654692173
1684201087391234000,3.819234130859375,-0.17613810300827026,-0.3241214454174042,0.06436415761709213
1684201087401260000,3.829260009765625,-0.1768270581960678,-0.3488512933254242,0.04633934795856476
1684201087411285000,3.839284912109375,-0.18860507011413574,-0.36566877365112305,0.041656143963336945
1684201087421311200,3.849311279296875,-0.20480747520923615,-0.3729192316532135,0.032452527433633804
1684201087431336000,3.8593359375,-0.2172938734292984,-0.37368932366371155,0.03323199972510338
1684201087441362000,3.86936181640625,-0.2221701294183731,-0.37046584486961365,0.044518742710351944
1684201087451387000,3.879386962890625,-0.2319834977388382,-0.36975517868995667,0.05181490629911423
1684201087461412900,3.889412841796875,-0.24436159431934357,-0.3694808781147003,0.057460807263851166
1684201087471439000,3.899439208984375,-0.25131240487098694,-0.3596494197845459,0.05435308814048767
1684201087481463800,3.9094638671875,-0.2567596435546875,-0.34750887751579285,0.02624049410223961
1684201087491489000,3.919489013671875,-0.26184022426605225,-0.32722002267837524,-0.03211657702922821
1684201087501515000,3.929514892578125,-0.24187849462032318,-0.2963002026081085,-0.09145952761173248
1684201087511540000,3.9395400390625,-0.19921055436134338,-0.26554498076438904,-0.12855911254882812
1684201087521566000,3.94956591796875,-0.16207782924175262,-0.2677870988845825,-0.13576163351535797
1684201087531592200,3.95959228515625,-0.11963439732789993,-0.28035590052604675,-0.12512750923633575
1684201087541617000,3.969616943359375,-0.07766670733690262,-0.2952080965042114,-0.11854550242424011
1684201087551643100,3.97964306640625,-0.05800168961286545,-0.2961690127849579,-0.1224822849035263
1684201087561667800,3.989667724609375,-0.05320720002055168,-0.26060065627098083,-0.12613293528556824
1684201087571694000,3.999694091796875,-0.03316888213157654,-0.18400408327579498,-0.09994407743215561
1684201087581720000,4.009719970703125,-0.014502521604299545,-0.09484598785638809,-0.04270714893937111
1684201087591745000,4.0197451171875,-0.003043808974325657,-0.017581233754754066,0.019990675151348114
1684201087601771000,4.02977099609375,-0.011472446843981743,0.06141345202922821,0.05440803989768028
1684201087611796200,4.039796142578125,-0.019527694210410118,0.13641458749771118,0.07284925132989883
1684201087621822200,4.049822265625,-0.014017346315085888,0.19473062455654144,0.09075687825679779
1684201087631847000,4.059846923828125,0.002127161482349038,0.21852067112922668,0.10788700729608536
1684201087641873200,4.069873046875,0.02731028012931347,0.21678322553634644,0.09178580343723297
1684201087651899100,4.079899169921875,0.06724879145622253,0.20764869451522827,0.031953565776348114
1684201087661924000,4.089924072265625,0.10231570154428482,0.2059597223997116,-0.06616874039173126
1684201087671950000,4.0999501953125,0.12653882801532745,0.19854405522346497,-0.20794449746608734
1684201087681975000,4.10997509765625,0.1666521579027176,0.198240727186203,-0.3966723382472992
1684201087692001000,4.1200009765625,0.22754986584186554,0.22484703361988068,-0.6144413948059082
1684201087702027000,4.130027099609375,0.3173692226409912,0.2724984586238861,-0.7941445708274841
1684201087712052200,4.14005224609375,0.42007747292518616,0.3500247895717621,-0.8893511891365051
1684201087722078200,4.150078125,0.5145909190177917,0.46450501680374146,-0.9198665022850037
1684201087732103200,4.160103271484375,0.5916510820388794,0.5618326663970947,-0.9120639562606812
1684201087742129200,4.170129150390625,0.6791500449180603,0.639952540397644,-0.9136126041412354
1684201087752154000,4.180154052734375,0.7858459949493408,0.7265369296073914,-0.9872866272926331
1684201087762180000,4.19018017578125,0.9149887561798096,0.7888258695602417,-1.1547024250030518
1684201087772206000,4.2002060546875,1.0700018405914307,0.8501839637756348,-1.4242924451828003
1684201087782231000,4.21023095703125,1.242332100868225,0.8100030422210693,-1.7103804349899292
1684201087792257000,4.220257080078125,1.3751654624938965,0.5800966024398804,-1.88289475440979
1684201087802282000,4.230281982421875,1.4354532957077026,0.2599894106388092,-1.9146244525909424
1684201087812308000,4.240307861328125,1.4265550374984741,-0.06371904164552689,-1.877205729484558
1684201087822334000,4.250333984375,1.3920332193374634,-0.3568904399871826,-1.8250783681869507
1684201087832359200,4.260359130859375,1.384259581565857,-0.5250213742256165,-1.7324094772338867
1684201087842385200,4.27038525390625,1.3850172758102417,-0.5494087338447571,-1.5995688438415527
1684201087852410000,4.28041015625,1.3626474142074585,-0.4970356225967407,-1.4508144855499268
1684201087862436000,4.29043603515625,1.3017669916152954,-0.4518279433250427,-1.3057960271835327
1684201087872462000,4.300462158203125,1.2824052572250366,-0.42092210054397583,-1.1481292247772217
1684201087882487000,4.310487060546875,1.2622264623641968,-0.3842754065990448,-0.9663706421852112
1684201087892513000,4.320512939453125,1.265468716621399,-0.33379650115966797,-0.8053271174430847
1684201087902538000,4.3305380859375,1.3385906219482422,-0.273867130279541,-0.7179290652275085
1684201087912564000,4.34056396484375,1.4208945035934448,-0.21871274709701538,-0.6688471436500549
1684201087922589200,4.350589111328125,1.4519405364990234,-0.17691177129745483,-0.6177067160606384
1684201087932615200,4.360615234375,1.4323370456695557,-0.17157280445098877,-0.5534495711326599
1684201087942641000,4.370640869140625,1.3835606575012207,-0.12954919040203094,-0.509216845035553
1684201087952666000,4.380666015625,1.3368648290634155,-0.005461582448333502,-0.45271071791648865
1684201087962692000,4.390692138671875,1.2722903490066528,0.1243709847331047,-0.3669353723526001
1684201087972717800,4.4007177734375,1.1730518341064453,0.2204979658126831,-0.27856582403182983
1684201087982742800,4.41074267578125,1.0694773197174072,0.32579323649406433,-0.21369947493076324
1684201087992768800,4.420768798828125,0.9915948510169983,0.431965172290802,-0.15212072432041168
1684201088002793700,4.430793701171875,0.9061212539672852,0.49796921014785767,-0.10473243147134781
1684201088012819700,4.44081982421875,0.8361708521842957,0.5520887970924377,-0.07931621372699738
1684201088022844700,4.4508447265625,0.7701724171638489,0.5629372000694275,-0.0568295456469059
1684201088032870700,4.46087060546875,0.7138336896896362,0.5428910255432129,-0.030422043055295944
1684201088042896600,4.470896728515625,0.6723432540893555,0.53318190574646,0.017966793850064278
1684201088052921900,4.480921875,0.6207160949707031,0.550269603729248,0.07788299024105072
1684201088062947800,4.49094775390625,0.5680819153785706,0.5667164921760559,0.12906202673912048
1684201088072972800,4.500972900390625,0.5183191299438477,0.5790532231330872,0.14974907040596008
1684201088082998800,4.510998779296875,0.443826287984848,0.5789480805397034,0.15371212363243103
1684201088093024800,4.521024658203125,0.3305686414241791,0.4755514860153198,0.14261038601398468
1684201088103049700,4.5310498046875,0.22574342787265778,0.37486350536346436,0.12013357132673264
1684201088113075700,4.54107568359375,0.13852746784687042,0.2704266607761383,0.09651446342468262
1684201088123100700,4.5511005859375,0.07952698320150375,0.21406807005405426,0.0790659636259079
1684201088133126700,4.561126708984375,0.04815806448459625,0.19716963171958923,0.09599316120147705
1684201088143152600,4.571152587890625,0.025650357827544212,0.20059499144554138,0.1466749906539917
1684201088153177900,4.581177734375,0.008592341095209122,0.2324235439300537,0.21310953795909882
1684201088163203800,4.591203857421875,-0.019560467451810837,0.25792384147644043,0.2807823419570923
1684201088173228800,4.601228759765625,-0.07706308364868164,0.2521107792854309,0.3488927185535431
1684201088183254800,4.6112548828125,-0.15295226871967316,0.2390434294939041,0.41727524995803833
1684201088193279700,4.62127978515625,-0.24803292751312256,0.19070331752300262,0.46479061245918274
1684201088203305700,4.6313056640625,-0.3488604724407196,0.1110449731349945,0.48785439133644104
1684201088213331700,4.641331787109375,-0.4459182918071747,0.008757933974266052,0.476776659488678
1684201088223356700,4.651356689453125,-0.5439934730529785,-0.09639937430620193,0.44883131980895996
1684201088233382700,4.661382568359375,-0.6352711319923401,-0.20458102226257324,0.4352557063102722
1684201088243407600,4.67140771484375,-0.7193588614463806,-0.285153865814209,0.44016367197036743
1684201088253433600,4.68143359375,-0.7972509860992432,-0.3347395956516266,0.4380609393119812
1684201088263459800,4.6914599609375,-0.8643203377723694,-0.372668594121933,0.4378763437271118
1684201088273484800,4.70148486328125,-0.9130879044532776,-0.40006089210510254,0.44935673475265503
1684201088283511000,4.711510986328125,-0.9562260508537292,-0.41276949644088745,0.48701250553131104
1684201088293535700,4.72153564453125,-0.9776616096496582,-0.42465201020240784,0.5435681939125061
1684201088303562000,4.73156201171875,-0.9896324872970581,-0.4460710287094116,0.6098974347114563
1684201088313586700,4.741586669921875,-1.0022072792053223,-0.468548446893692,0.6551254391670227
1684201088323613000,4.751613037109375,-1.0133651494979858,-0.4709695279598236,0.6801998615264893
1684201088333639000,4.761638916015625,-0.9995166063308716,-0.45209115743637085,0.70318603515625
1684201088343663900,4.771663818359375,-0.9739246368408203,-0.43198561668395996,0.7192220091819763
1684201088353689900,4.78168994140625,-0.9520024061203003,-0.43301793932914734,0.7332780957221985
1684201088363714800,4.79171484375,-0.912879228591919,-0.4219178855419159,0.7502219080924988
1684201088373740800,4.80174072265625,-0.8545800447463989,-0.3845028877258301,0.7717185616493225
1684201088383766800,4.811766845703125,-0.788149893283844,-0.3344213366508484,0.7899630665779114
1684201088393792000,4.8217919921875,-0.7218889594078064,-0.2983078956604004,0.8052650690078735
1684201088403818000,4.83181787109375,-0.6324471831321716,-0.21134424209594727,0.7609713673591614
1684201088413843000,4.841843017578125,-0.5493813157081604,-0.0893690213561058,0.6431540846824646
1684201088423869000,4.851868896484375,-0.501517653465271,-0.10821568220853806,0.5474267601966858
1684201088433895000,4.86189501953125,-0.4991932213306427,-0.30087652802467346,0.45985177159309387
1684201088443920000,4.871919921875,-0.4639495015144348,-0.40822404623031616,0.2226932942867279
1684201088453945900,4.88194580078125,-0.34777361154556274,-0.31666696071624756,-0.08930771052837372
1684201088463970800,4.891970703125,-0.191915825009346,-0.15108412504196167,-0.22700431942939758
1684201088473996800,4.901996826171875,-0.09330414980649948,-0.020493248477578163,-0.14663390815258026
1684201088484022000,4.91202197265625,-0.13578343391418457,0.06944329291582108,0.045353107154369354
1684201088494048000,4.922048095703125,-0.22518675029277802,0.1802709847688675,0.23912106454372406
1684201088504074000,4.932073974609375,-0.2761537730693817,0.2810599207878113,0.38478317856788635
1684201088514099000,4.942098876953125,-0.3252717852592468,0.30379539728164673,0.4622096121311188
1684201088524125000,4.952125,-0.3863314092159271,0.26815056800842285,0.47287797927856445
1684201088534150000,4.96214990234375,-0.42530325055122375,0.20288659632205963,0.4489614963531494
1684201088544175900,4.97217578125,-0.4495702385902405,0.143424853682518,0.409842312335968
1684201088554201900,4.982201904296875,-0.45378515124320984,0.08970128744840622,0.37247976660728455
1684201088564226800,4.992226806640625,-0.41849079728126526,-0.016122886911034584,0.3379676043987274
1684201088574252800,5.002252685546875,-0.35224980115890503,-0.143392875790596,0.32178810238838196
1684201088584277800,5.01227783203125,-0.2984936237335205,-0.218261256814003,0.33122047781944275
1684201088594303700,5.0223037109375,-0.2428346425294876,-0.26115089654922485,0.3782569468021393
1684201088604329000,5.032328857421875,-0.16853031516075134,-0.2315695881843567,0.45697277784347534
1684201088614355000,5.04235498046875,-0.1078968346118927,-0.0890268087387085,0.5208281874656677
1684201088624381000,5.052380859375,-0.10795915126800537,0.12578536570072174,0.5535160899162292
1684201088634406000,5.062406005859375,-0.15823812782764435,0.3170030117034912,0.5429574251174927
1684201088644432000,5.072431884765625,-0.229843869805336,0.4681147634983063,0.47429364919662476
1684201088654456800,5.082456787109375,-0.30096808075904846,0.5666308999061584,0.35192686319351196
1684201088664482800,5.09248291015625,-0.3647902011871338,0.6209258437156677,0.2631080448627472
1684201088674508800,5.1025087890625,-0.4024989604949951,0.6062901616096497,0.26981067657470703
1684201088684533800,5.11253369140625,-0.4488145411014557,0.5260310173034668,0.3810533285140991
1684201088694559700,5.122559814453125,-0.5202151536941528,0.4400051534175873,0.5285242199897766
1684201088704585000,5.1325849609375,-0.5615482330322266,0.41028961539268494,0.6405503749847412
1684201088714610700,5.142610595703125,-0.5482004284858704,0.4416341781616211,0.7010371685028076
1684201088724636700,5.15263671875,-0.4925704300403595,0.5243825912475586,0.7177197337150574
1684201088734662000,5.162661865234375,-0.42328086495399475,0.5684577822685242,0.7106091976165771
1684201088744687900,5.17268798828125,-0.3462715744972229,0.5263478755950928,0.676535964012146
1684201088754712800,5.182712890625,-0.3018213212490082,0.40436673164367676,0.590356707572937
1684201088764738800,5.19273876953125,-0.28001588582992554,0.21532516181468964,0.46401870250701904
1684201088774763800,5.202763671875,-0.2715761065483093,0.0299223680049181,0.33656489849090576
1684201088784789800,5.212789794921875,-0.2521672546863556,-0.13830259442329407,0.22436432540416718
1684201088794815700,5.222815673828125,-0.24718891084194183,-0.29865381121635437,0.1327102780342102
1684201088804840700,5.2328408203125,-0.2430599480867386,-0.41641294956207275,0.06472776085138321
1684201088814866700,5.24286669921875,-0.20011752843856812,-0.4709407687187195,0.022661421447992325
1684201088824892000,5.252891845703125,-0.14998005330562592,-0.48830458521842957,0.008420433849096298
1684201088834918000,5.26291796875,-0.09817538410425186,-0.48662832379341125,0.008889822289347649
1684201088844944000,5.27294384765625,-0.06745369732379913,-0.4651435613632202,0.04362170398235321
1684201088854968800,5.28296875,-0.04912298172712326,-0.45448243618011475,0.09455181658267975
1684201088864994800,5.292994873046875,-0.04986041411757469,-0.4689396619796753,0.15169820189476013
1684201088875019800,5.303019775390625,-0.060269903391599655,-0.5110155344009399,0.19247139990329742
1684201088885045800,5.313045654296875,-0.07590186595916748,-0.5489368438720703,0.18794135749340057
1684201088895071700,5.32307177734375,-0.07372263073921204,-0.5664385557174683,0.15402595698833466
1684201088905096700,5.3330966796875,-0.07593891024589539,-0.563609778881073,0.1195116639137268
1684201088915122700,5.343122802734375,-0.0938333198428154,-0.5420698523521423,0.09464022517204285
1684201088925147600,5.353147705078125,-0.11416708678007126,-0.5062212944030762,0.08665420860052109
1684201088935173600,5.363173583984375,-0.13258244097232819,-0.47183969616889954,0.09177935123443604
1684201088945199600,5.37319970703125,-0.1517968773841858,-0.43291229009628296,0.08148037642240524
1684201088955224800,5.383224853515625,-0.17950239777565002,-0.4271530210971832,0.06858588010072708
1684201088965250800,5.393250732421875,-0.19624090194702148,-0.43398135900497437,0.05804908275604248
1684201088975276000,5.403276123046875,-0.18749308586120605,-0.41935980319976807,0.055122483521699905
1684201088985302000,5.413302001953125,-0.15218037366867065,-0.4057028591632843,0.06415752321481705
1684201088995327000,5.423326904296875,-0.11448758840560913,-0.3875884711742401,0.0768110528588295
1684201089005353000,5.43335302734375,-0.08311155438423157,-0.38779565691947937,0.08332887291908264
1684201089015379000,5.44337890625,-0.05863860622048378,-0.40130510926246643,0.0933799222111702
1684201089025404000,5.45340380859375,-0.0314466655254364,-0.3948568105697632,0.09281400591135025
1684201089035430000,5.463429931640625,-0.016662975773215294,-0.3883422911167145,0.07814895361661911
1684201089045455000,5.473455078125,-0.022153880447149277,-0.3980178236961365,0.05619864910840988
1684201089055480800,5.483480712890625,-0.03594547510147095,-0.40227049589157104,0.012477867305278778
1684201089065506800,5.4935068359375,-0.04343641549348831,-0.4100344181060791,0.0005008340813219547
1684201089075532000,5.503531982421875,-0.043346721678972244,-0.439816415309906,0.029319867491722107
1684201089085558000,5.51355810546875,-0.05242170765995979,-0.4550619423389435,0.07232645899057388
1684201089095583000,5.5235830078125,-0.05843249708414078,-0.4595208168029785,0.1090177521109581
1684201089105609000,5.53360888671875,-0.06646619737148285,-0.4492953419685364,0.13034167885780334
1684201089115634000,5.543634033203125,-0.0909096747636795,-0.43761900067329407,0.11274492740631104
1684201089125660000,5.553659912109375,-0.12658804655075073,-0.427080363035202,0.08237291127443314
1684201089135686000,5.563685791015625,-0.15918058156967163,-0.3921836018562317,0.050655387341976166
1684201089145710800,5.5737109375,-0.1701674461364746,-0.32552042603492737,0.014739727601408958
1684201089155736800,5.58373681640625,-0.166365385055542,-0.2583678066730499,-0.01981675624847412
1684201089165762000,5.593761962890625,-0.1684059053659439,-0.22393766045570374,-0.037524644285440445
1684201089175788000,5.6037880859375,-0.17925994098186493,-0.2319469004869461,-0.048042405396699905
1684201089185814000,5.61381396484375,-0.18956664204597473,-0.2431606650352478,-0.05807213485240936
1684201089195839000,5.6238388671875,-0.1998308300971985,-0.24838115274906158,-0.07404503971338272
1684201089205865000,5.633864990234375,-0.20020820200443268,-0.2587277889251709,-0.0821295976638794
1684201089215890000,5.643889892578125,-0.20017307996749878,-0.3026239573955536,-0.08080758899450302
1684201089225916000,5.653916015625,-0.17576973140239716,-0.37850168347358704,-0.08897097408771515
1684201089235942100,5.663942138671875,-0.14411234855651855,-0.44403544068336487,-0.10732570290565491
1684201089245966800,5.673966796875,-0.113838329911232,-0.49034807085990906,-0.13561592996120453
1684201089255993000,5.6839931640625,-0.07239516079425812,-0.5378350019454956,-0.17126066982746124
1684201089266017800,5.694017822265625,-0.037778060883283615,-0.546998918056488,-0.22252146899700165
1684201089276044000,5.7040439453125,-0.0018482182640582323,-0.5027422904968262,-0.2778353989124298
1684201089286070000,5.714070068359375,0.02845003269612789,-0.42288559675216675,-0.3290301561355591
1684201089296095200,5.72409521484375,0.060234636068344116,-0.2813256084918976,-0.38115596771240234
1684201089306121200,5.734121337890625,0.11818156391382217,-0.10394683480262756,-0.4426472783088684
1684201089316146200,5.744146240234375,0.1772211194038391,0.02823798730969429,-0.46516478061676025
1684201089326172200,5.754172119140625,0.20745998620986938,0.04769238084554672,-0.42402079701423645
1684201089336197000,5.764197021484375,0.2289217859506607,0.009737669490277767,-0.3558144271373749
1684201089346223000,5.77422314453125,0.2708234488964081,-0.004104376770555973,-0.3073534071445465
1684201089356249000,5.7842490234375,0.3328777849674225,0.11626283824443817,-0.33983510732650757
1684201089366274000,5.794274169921875,0.39779072999954224,0.3535619378089905,-0.4374586045742035
1684201089376300000,5.804300048828125,0.471015602350235,0.574910581111908,-0.5230702757835388
1684201089386325200,5.8143251953125,0.5237358212471008,0.678754448890686,-0.5951266288757324
1684201089396351000,5.82435107421875,0.5747949481010437,0.6969149708747864,-0.7278209328651428
1684201089406377000,5.834376953125,0.672878086566925,0.6848394274711609,-1.0734758377075195
1684201089416402200,5.844402099609375,0.827544093132019,0.6493710875511169,-1.6869561672210693
1684201089426428200,5.85442822265625,0.9579212665557861,0.5881660580635071,-1.9921677112579346
1684201089436453000,5.864453125,1.0394177436828613,0.5395672917366028,-1.8788676261901855
1684201089446479000,5.87447900390625,1.1305735111236572,0.5806140899658203,-1.6249775886535645
1684201089456505000,5.884505126953125,1.2226935625076294,0.6122574806213379,-1.4246641397476196
1684201089466530000,5.894530029296875,1.2441877126693726,0.48288485407829285,-1.3190573453903198
1684201089476556000,5.90455615234375,1.192076325416565,0.16200153529644012,-1.268614649772644
1684201089486581000,5.9145810546875,1.1188111305236816,-0.22856569290161133,-1.2200806140899658
1684201089496607000,5.92460693359375,1.0330448150634766,-0.5226045250892639,-1.1617919206619263
1684201089506632200,5.934632080078125,0.9742483496665955,-0.6653004288673401,-1.0732063055038452
1684201089516658200,5.944658203125,0.918030321598053,-0.6630566716194153,-0.9584170579910278
1684201089526684200,5.95468408203125,0.8545094132423401,-0.5619878768920898,-0.8129855394363403
1684201089536709000,5.964709228515625,0.7587739825248718,-0.3685011565685272,-0.6297937631607056
1684201089546735000,5.974735107421875,0.6461454033851624,-0.12473803758621216,-0.44688013195991516
1684201089556760000,5.984760009765625,0.570777416229248,0.043678395450115204,-0.30690619349479675
1684201089566786000,5.9947861328125,0.5809938311576843,0.12453543394804001,-0.204088494181633
1684201089576812000,6.00481201171875,0.6434956789016724,0.18478523194789886,-0.1270018219947815
1684201089586837000,6.0148369140625,0.725341796875,0.23214662075042725,-0.06067126989364624
1684201089596863000,6.024863037109375,0.7711675763130188,0.23848284780979156,0.020624253898859024
1684201089606888000,6.034887939453125,0.7599232196807861,0.24006690084934235,0.147008016705513
1684201089616914000,6.044913818359375,0.726917564868927,0.30563583970069885,0.31021013855934143
1684201089626940000,6.05493994140625,0.6804248690605164,0.4081379771232605,0.48474040627479553
1684201089636965000,6.064965087890625,0.6406102180480957,0.520551860332489,0.6492226123809814
1684201089646991000,6.0749912109375,0.5926752090454102,0.6016752123832703,0.7916596531867981
1684201089657016000,6.08501611328125,0.528618335723877,0.6522273421287537,0.9048181176185608
1684201089667042000,6.0950419921875,0.4554458558559418,0.6925976276397705,0.98288893699646
1684201089677068000,6.105068115234375,0.39898553490638733,0.7366904020309448,1.021384835243225
1684201089687093000,6.115093017578125,0.344389408826828,0.773964524269104,1.038564920425415
1684201089697119000,6.125118896484375,0.31064194440841675,0.812744677066803,1.0539411306381226
1684201089707144000,6.13514404296875,0.27832797169685364,0.8646805882453918,1.0932190418243408
1684201089717170000,6.145169921875,0.21174536645412445,0.9253707528114319,1.1128196716308594
1684201089727196000,6.15519580078125,0.16641570627689362,1.003159523010254,1.1288686990737915
1684201089737221000,6.16522119140625,0.14333979785442352,1.074916958808899,1.156541109085083
1684201089747247000,6.1752470703125,0.12415225058794022,1.0968995094299316,1.1620831489562988
1684201089757272000,6.18527197265625,0.13472680747509003,1.1069341897964478,1.1513347625732422
1684201089767298000,6.195298095703125,0.2046228051185608,1.1483125686645508,1.154799222946167
1684201089777323000,6.205322998046875,0.28582262992858887,1.1717119216918945,1.1624399423599243
1684201089787349000,6.215348876953125,0.3388323187828064,1.205220341682434,1.146180272102356
1684201089797375000,6.225375,0.3454468548297882,1.268929362297058,1.139194130897522
1684201089807400000,6.23539990234375,0.31660377979278564,1.3175048828125,1.1339532136917114
1684201089817426000,6.245426025390625,0.2544344365596771,1.3653451204299927,1.1082497835159302
1684201089827451000,6.255450927734375,0.20061565935611725,1.437424659729004,1.0782735347747803
1684201089837476900,6.265476806640625,0.1685134768486023,1.4934494495391846,1.0518779754638672
1684201089847502800,6.2755029296875,0.17327573895454407,1.5148682594299316,1.0418727397918701
1684201089857528000,6.285528076171875,0.2150166928768158,1.4947376251220703,1.02213454246521
1684201089867554000,6.295553955078125,0.25877270102500916,1.4120352268218994,1.0015383958816528
1684201089877579000,6.3055791015625,0.2767598628997803,1.279348373413086,0.9774923324584961
1684201089887605000,6.31560498046875,0.27735933661460876,1.1876908540725708,0.9676189422607422
1684201089897631000,6.325630859375,0.25002336502075195,1.1673511266708374,0.9817402958869934
1684201089907656000,6.335656005859375,0.21217480301856995,1.2028132677078247,1.041865348815918
1684201089917682000,6.345681884765625,0.15430617332458496,1.266605257987976,1.1170103549957275
1684201089927707000,6.355706787109375,0.10001816600561142,1.325688123703003,1.1921628713607788
1684201089937732900,6.36573291015625,0.05448373034596443,1.377869963645935,1.2827483415603638
1684201089947758000,6.375758056640625,0.014286774210631847,1.4543441534042358,1.3507477045059204
1684201089957784000,6.3857841796875,-0.007058391347527504,1.5486482381820679,1.390491247177124
1684201089967809800,6.395809814453125,-0.02436201460659504,1.6260030269622803,1.3862102031707764
1684201089977835500,6.40583544921875,-0.033093035221099854,1.6577131748199463,1.3800605535507202
1684201089987861500,6.415861572265625,-0.04575822874903679,1.670095443725586,1.3722091913223267
1684201089997886500,6.425886474609375,-0.08640963584184647,1.7223089933395386,1.3978183269500732
1684201090007912400,6.435912353515625,-0.1376214176416397,1.8693959712982178,1.4804264307022095
1684201090017938400,6.4459384765625,-0.17859137058258057,2.064035654067993,1.5649845600128174
1684201090027963400,6.45596337890625,-0.21495497226715088,2.240851879119873,1.6270711421966553
1684201090037989400,6.4659892578125,-0.24096840620040894,2.3808164596557617,1.6906019449234009
1684201090048014300,6.476014404296875,-0.28716543316841125,2.4675424098968506,1.7538522481918335
1684201090058040300,6.486040283203125,-0.3513045608997345,2.529571533203125,1.8202131986618042
1684201090068066300,6.49606640625,-0.4023280739784241,2.5677685737609863,1.860405683517456
1684201090078091300,6.50609130859375,-0.4396262764930725,2.555182695388794,1.8628180027008057
1684201090088117200,6.5161171875,-0.4646216034889221,2.5483150482177734,1.8127964735031128
1684201090098142500,6.526142578125,-0.4511931836605072,2.4927616119384766,1.7718082666397095
1684201090108168400,6.53616845703125,-0.42899173498153687,2.375319242477417,1.8026633262634277
1684201090118194400,6.5461943359375,-0.43502509593963623,2.2265923023223877,1.8523385524749756
1684201090128219400,6.556219482421875,-0.47124648094177246,2.0923521518707275,1.8696516752243042
1684201090138245400,6.566245361328125,-0.5294584631919861,2.020859956741333,1.8422726392745972
1684201090148270300,6.576270263671875,-0.6320085525512695,2.009288787841797,1.6802775859832764
1684201090158296300,6.58629638671875,-0.7335523962974548,1.9648702144622803,1.330627679824829
1684201090168322300,6.596322265625,-0.7134460806846619,1.7581950426101685,0.9214220643043518
1684201090178347300,6.60634716796875,-0.5294016599655151,1.4194235801696777,0.6810333132743835
1684201090188373200,6.616373291015625,-0.28126004338264465,1.211917519569397,0.6805558204650879
1684201090198398500,6.6263984375,-0.060517244040966034,1.2169744968414307,0.830010712146759
1684201090208424400,6.636424560546875,0.10979936271905899,1.3357373476028442,1.0307817459106445
1684201090218449400,6.646449462890625,0.1323021799325943,1.477316975593567,1.2176591157913208
1684201090228475400,6.656475341796875,0.033795315772295,1.5903050899505615,1.3519707918167114
1684201090238501400,6.66650146484375,-0.058040011674165726,1.6910674571990967,1.4021133184432983
1684201090248526300,6.6765263671875,-0.1367952823638916,1.7588802576065063,1.4103530645370483
1684201090258552300,6.68655224609375,-0.1809684932231903,1.729966640472412,1.4497557878494263
1684201090268577300,6.696577392578125,-0.1729568988084793,1.6868444681167603,1.4775954484939575
1684201090278603300,6.706603271484375,-0.14029283821582794,1.6862704753875732,1.4729706048965454
1684201090288629200,6.716629150390625,-0.10843770205974579,1.6773278713226318,1.4742710590362549
1684201090298654200,6.726654296875,-0.06924286484718323,1.613134741783142,1.443386197090149
1684201090308680200,6.73668017578125,-0.054303597658872604,1.4975906610488892,1.3193587064743042
1684201090318705400,6.746705322265625,-0.05104169249534607,1.4094771146774292,1.1753168106079102
1684201090328731400,6.7567314453125,-0.0617835558950901,1.4547548294067383,1.1081825494766235
1684201090338757600,6.766757568359375,-0.08440691232681274,1.6579415798187256,1.1759841442108154
1684201090348782300,6.7767822265625,-0.10075472295284271,1.9520597457885742,1.3034225702285767
1684201090358808300,6.786808349609375,-0.0754694864153862,2.2018580436706543,1.3771885633468628
1684201090368833300,6.796833251953125,-0.05760739743709564,2.332815170288086,1.378666877746582
1684201090378859300,6.806859375,-0.05790986120700836,2.3388965129852295,1.3535106182098389
1684201090388885500,6.816885498046875,-0.058823324739933014,2.319345712661743,1.3096579313278198
1684201090398910200,6.82691015625,-0.03952663019299507,2.31245756149292,1.271437644958496
1684201090408936400,6.8369365234375,-0.024750079959630966,2.3162460327148438,1.2608976364135742
1684201090418961400,6.84696142578125,-0.019565554335713387,2.3449785709381104,1.2658275365829468
1684201090428987400,6.8569873046875,-0.012637607753276825,2.379366636276245,1.2884312868118286
1684201090439013400,6.867013427734375,-0.01661026105284691,2.4582362174987793,1.3261923789978027
1684201090449038600,6.87703857421875,-0.023933421820402145,2.5611660480499268,1.3647347688674927
1684201090459064600,6.887064697265625,-0.020657256245613098,2.6456692218780518,1.4125638008117676
1684201090469089500,6.897089599609375,-0.010563076473772526,2.7180838584899902,1.4585062265396118
1684201090479115500,6.907115478515625,-0.009006314910948277,2.7543246746063232,1.48561692237854
1684201090489140500,6.917140380859375,-0.006265656091272831,2.774334669113159,1.505272388458252
1684201090499166500,6.92716650390625,-0.009983589872717857,2.7835564613342285,1.5112875699996948
1684201090509192400,6.9371923828125,-0.01957309991121292,2.8088631629943848,1.4995371103286743
1684201090519217400,6.947217529296875,-0.03678220510482788,2.8476479053497314,1.466031789779663
1684201090529243400,6.957243408203125,-0.05241948738694191,2.871037721633911,1.4445635080337524
1684201090539268600,6.9672685546875,-0.07166899740695953,2.889913320541382,1.4225341081619263
1684201090549294600,6.977294677734375,-0.07671142369508743,2.8882977962493896,1.3756883144378662
1684201090559320600,6.987320556640625,-0.10282999277114868,2.853543519973755,1.3410694599151611
1684201090569345500,6.997345458984375,-0.12498082965612411,2.821922779083252,1.3088761568069458
1684201090579371500,7.00737158203125,-0.13836807012557983,2.8175811767578125,1.2778514623641968
1684201090589396500,7.017396484375,-0.14360623061656952,2.838226079940796,1.2556380033493042
1684201090599422500,7.02742236328125,-0.1489025056362152,2.898103713989258,1.244165062904358
1684201090609448400,7.037448486328125,-0.17224884033203125,2.955833673477173,1.2615972757339478
1684201090619473400,7.047473388671875,-0.19976380467414856,3.0275557041168213,1.2763340473175049
1684201090629499400,7.05749951171875,-0.20953521132469177,3.0832812786102295,1.2706128358840942
1684201090639524400,7.0675244140625,-0.19991391897201538,3.1005890369415283,1.2734301090240479
1684201090649550300,7.07755029296875,-0.18129922449588776,3.0836219787597656,1.2669767141342163
1684201090659576300,7.087576416015625,-0.15252083539962769,3.040489435195923,1.2334957122802734
1684201090669601500,7.0976015625,-0.12328704446554184,2.9874494075775146,1.2012214660644531
1684201090679627500,7.10762744140625,-0.10241999477148056,2.893582820892334,1.1665459871292114
1684201090689652500,7.117652587890625,-0.08195679634809494,2.8011529445648193,1.1116260290145874
1684201090699678500,7.127678466796875,-0.06856148689985275,2.74139142036438,1.034901738166809
1684201090709704400,7.137704345703125,-0.06438618153333664,2.6952056884765625,0.9593939781188965
1684201090719729400,7.1477294921875,-0.05734989047050476,2.6366729736328125,0.8916612267494202
1684201090729755400,7.15775537109375,-0.04325750470161438,2.541205883026123,0.8190759420394897
1684201090739780400,7.1677802734375,-0.02401159517467022,2.4623618125915527,0.7228455543518066
1684201090749806300,7.177806396484375,-0.003780890488997102,2.3774728775024414,0.5988900065422058
1684201090759832300,7.187832275390625,0.0212583988904953,2.2690112590789795,0.4401145875453949
1684201090769857300,7.197857177734375,0.0664498433470726,2.1947007179260254,0.2740747332572937
1684201090779883300,7.20788330078125,0.14642077684402466,2.154327630996704,0.2058447003364563
1684201090789908500,7.217908447265625,0.20446330308914185,2.102111339569092,0.28216877579689026
1684201090799934500,7.2279345703125,0.23334655165672302,2.036109685897827,0.42370158433914185
1684201090809959400,7.23795947265625,0.21851779520511627,1.9907258749008179,0.5006243586540222
1684201090819985400,7.2479853515625,0.17623890936374664,1.9799906015396118,0.4992521107196808
1684201090830011400,7.258011474609375,0.16298700869083405,1.9326486587524414,0.4683037996292114
1684201090840036400,7.268036376953125,0.19376301765441895,1.7945635318756104,0.39740970730781555
1684201090850062300,7.278062255859375,0.2501562535762787,1.6210436820983887,0.28405386209487915
1684201090860087300,7.28808740234375,0.35814398527145386,1.4496060609817505,0.14511741697788239
1684201090870113300,7.29811328125,0.49603793025016785,1.3188484907150269,0.005015972536057234
1684201090880139300,7.30813916015625,0.6253455281257629,1.1879429817199707,-0.10102003812789917
1684201090890164500,7.31816455078125,0.7235639691352844,1.0326980352401733,-0.15423984825611115
1684201090900190500,7.3281904296875,0.7946757078170776,0.8727426528930664,-0.17313237488269806
1684201090910215400,7.33821533203125,0.8427084684371948,0.7256669402122498,-0.17454704642295837
1684201090920241400,7.348241455078125,0.8777070045471191,0.6077255606651306,-0.17602936923503876
1684201090930267400,7.358267333984375,0.9278806447982788,0.5199571251869202,-0.16311676800251007
1684201090940292400,7.368292236328125,0.9841358065605164,0.44660523533821106,-0.13650809228420258
1684201090950318300,7.378318359375,1.0371637344360352,0.41902846097946167,-0.1081094741821289
1684201090960343300,7.38834326171875,1.1010946035385132,0.4430827498435974,-0.08296731114387512
1684201090970369300,7.398369384765625,1.1717990636825562,0.4459185004234314,-0.057782597839832306
1684201090980395300,7.408395263671875,1.2262582778930664,0.4090338945388794,-0.028907593339681625
1684201090990420200,7.418420166015625,1.2431559562683105,0.3687559962272644,0.009964704513549805
1684201091000446200,7.4284462890625,1.2525538206100464,0.38100823760032654,0.04871819540858269
1684201091010471400,7.438471435546875,1.2214936017990112,0.4178685247898102,0.03575126454234123
1684201091020497400,7.448497314453125,1.176913857460022,0.5103669166564941,-0.00790697056800127
1684201091030523400,7.4585234375,1.0993216037750244,0.6255677938461304,-0.02821490541100502
1684201091040548400,7.46854833984375,0.9766539335250854,0.7311145067214966,0.009408959187567234
1684201091050574300,7.47857421875,0.8773582577705383,0.8534849286079407,0.06940758228302002
1684201091060599300,7.488599365234375,0.8180990219116211,0.9835885167121887,0.13283026218414307
1684201091070625300,7.498625244140625,0.7659811973571777,1.0578224658966064,0.17914849519729614
1684201091080650200,7.508650146484375,0.7443875670433044,1.0468153953552246,0.1791042536497116
1684201091090676200,7.51867626953125,0.7225262522697449,0.9806234240531921,0.16357934474945068
1684201091100702200,7.5287021484375,0.6961734890937805,0.9145034551620483,0.1714552789926529
1684201091110727400,7.5387275390625,0.6789771914482117,0.8585440516471863,0.21021652221679688
1684201091120753400,7.54875341796875,0.6585376858711243,0.7810030579566956,0.24575263261795044
1684201091130778400,7.5587783203125,0.6434668302536011,0.6962679028511047,0.27788791060447693
1684201091140804400,7.568804443359375,0.6326397061347961,0.622299313545227,0.2958584427833557
1684201091150830300,7.578830322265625,0.6072813272476196,0.546830415725708,0.30275067687034607
1684201091160855300,7.588855224609375,0.5761021971702576,0.4926890432834625,0.3065933883190155
1684201091170881300,7.59888134765625,0.5477048754692078,0.47975221276283264,0.3252280652523041
1684201091180906200,7.60890625,0.5046377778053284,0.44559305906295776,0.3563394248485565
1684201091190932200,7.61893212890625,0.4524606466293335,0.4037521183490753,0.40104591846466064
1684201091200958200,7.628958251953125,0.38920971751213074,0.36964571475982666,0.43422871828079224
1684201091210983200,7.638983154296875,0.34438711404800415,0.3899022340774536,0.47491195797920227
1684201091221009200,7.649009033203125,0.2971586287021637,0.4142308235168457,0.5055562257766724
1684201091231034400,7.659034423828125,0.2686220705509186,0.4360343813896179,0.5159966349601746
1684201091241060400,7.669060302734375,0.24933665990829468,0.4452470541000366,0.5085108280181885
1684201091251086300,7.67908642578125,0.22504062950611115,0.4033467471599579,0.4870142936706543
1684201091261111300,7.689111328125,0.20358987152576447,0.31325018405914307,0.4924011528491974
1684201091271137300,7.69913720703125,0.17893299460411072,0.21515478193759918,0.5297075510025024
1684201091281162200,7.709162353515625,0.17304399609565735,0.14569295942783356,0.5942394137382507
1684201091291188200,7.719188232421875,0.15218505263328552,0.07477591931819916,0.6825578212738037
1684201091301214200,7.729214111328125,0.10997077822685242,0.04164015129208565,0.8110630512237549
1684201091311239200,7.7392392578125,0.039794620126485825,0.0671420469880104,0.9243989586830139
1684201091321265200,7.74926513671875,-0.08253650367259979,0.17026855051517487,0.9281858205795288
1684201091331290400,7.759290283203125,-0.21874867379665375,0.27938705682754517,0.8968870639801025
1684201091341316000,7.769316162109375,-0.3406866490840912,0.27855393290519714,0.9002507925033569
1684201091351342000,7.779342041015625,-0.4424816966056824,0.18491560220718384,0.8862995505332947
1684201091361367300,7.7893671875,-0.5142163038253784,0.03942940756678581,0.8266429901123047
1684201091371393300,7.799393310546875,-0.5687200427055359,-0.11972296237945557,0.776097297668457
1684201091381418200,7.809418212890625,-0.6219261288642883,-0.25096192955970764,0.7385250926017761
1684201091391444200,7.8194443359375,-0.6855474710464478,-0.3196469843387604,0.6852672100067139
1684201091401470200,7.82947021484375,-0.7432171702384949,-0.3535429537296295,0.6338188052177429
1684201091411495200,7.8394951171875,-0.7674820423126221,-0.3762589395046234,0.5970610976219177
1684201091421521200,7.849521240234375,-0.7885944843292236,-0.3338662087917328,0.5756450295448303
1684201091431546000,7.859546142578125,-0.7957445383071899,-0.2732052505016327,0.5584849119186401
1684201091441572000,7.869572021484375,-0.7829185128211975,-0.2457369863986969,0.509971559047699
1684201091451597300,7.879597412109375,-0.7564594745635986,-0.2775473892688751,0.45781752467155457
1684201091461623300,7.889623291015625,-0.7056798338890076,-0.315485417842865,0.4240919351577759
1684201091471649300,7.899649169921875,-0.6464572548866272,-0.31965699791908264,0.39156967401504517
1684201091481674200,7.90967431640625,-0.5858426690101624,-0.3017086982727051,0.36062031984329224
1684201091491700200,7.9197001953125,-0.5112728476524353,-0.27834662795066833,0.3359868824481964
1684201091501726500,7.9297265625,-0.4283677637577057,-0.22246317565441132,0.29703930020332336
1684201091511751200,7.939751220703125,-0.32038217782974243,-0.13703694939613342,0.27349111437797546
1684201091521777200,7.949777099609375,-0.18854910135269165,-0.06927032768726349,0.24041247367858887
1684201091531802000,7.959802001953125,-0.03237256407737732,-0.03753557428717613,0.1600704938173294
1684201091541828000,7.969828125,0.13403525948524475,-0.02973191812634468,0.04286753758788109
1684201091551853000,7.97985302734375,0.2743670642375946,-0.022664956748485565,-0.08657833933830261
1684201091561879000,7.989879150390625,0.382092148065567,0.025144798681139946,-0.1799050122499466
1684201091571905300,7.9999052734375,0.43082213401794434,0.0011704904027283192,-0.08772609382867813
1684201091581930200,8.00993017578125,0.3906746804714203,-0.015505215153098106,0.17223802208900452
1684201091591956500,8.01995654296875,0.2996046841144562,0.08334360271692276,0.44459524750709534
1684201091601981200,8.029981201171875,0.2090458869934082,0.2468341588973999,0.6046174764633179
1684201091612007400,8.04000732421875,0.110715851187706,0.35403409600257874,0.6451427936553955
1684201091622033400,8.050033447265625,-0.005038830451667309,0.38380923867225647,0.5715153813362122
1684201091632058400,8.060058349609376,-0.1332404762506485,0.3220886290073395,0.4367024004459381
1684201091642084400,8.07008447265625,-0.25081273913383484,0.18407629430294037,0.2778204679489136
1684201091652109300,8.080109375,-0.36162394285202026,-0.02306409552693367,0.13299190998077393
1684201091662135300,8.09013525390625,-0.44384443759918213,-0.2650173008441925,0.029946614056825638
1684201091672161300,8.100161376953125,-0.45901086926460266,-0.47777697443962097,-0.037958402186632156
1684201091682186200,8.110186279296874,-0.46280428767204285,-0.591820478439331,-0.09629633277654648
1684201091692212200,8.120212158203126,-0.48070260882377625,-0.587935209274292,-0.16738063097000122
1684201091702237400,8.130237548828125,-0.504034698009491,-0.48824936151504517,-0.21373671293258667
1684201091712263400,8.140263427734375,-0.5113519430160522,-0.2836328446865082,-0.19346047937870026
1684201091722289400,8.150289306640625,-0.4858606457710266,0.02725878730416298,-0.06829850375652313
1684201091732314400,8.160314453125,-0.4545312225818634,0.3900652229785919,0.12606723606586456
1684201091742340400,8.17034033203125,-0.40952977538108826,0.7832279801368713,0.37016811966896057
1684201091752365300,8.180365234375,-0.30751872062683105,1.1891767978668213,0.6462900042533875
1684201091762391300,8.190391357421875,-0.20634347200393677,1.4592790603637695,0.8762038350105286
1684201091772417300,8.200417236328125,-0.13805842399597168,1.5203993320465088,1.059536099433899
1684201091782442200,8.210442138671874,-0.06763390451669693,1.4035676717758179,1.131389856338501
1684201091792468200,8.22046826171875,0.023140737786889076,1.221382737159729,1.0748554468154907
1684201091802493400,8.230493408203126,0.07503385841846466,1.016675591468811,0.9745187759399414
1684201091812519400,8.24051953125,0.09124159067869186,0.8036467432975769,0.8836895227432251
1684201091822545400,8.25054541015625,0.052883636206388474,0.5509470105171204,0.793083667755127
1684201091832570400,8.2605703125,0.012380952015519142,0.33483627438545227,0.6908187866210938
1684201091842596400,8.270596435546874,-0.0188128724694252,0.23326130211353302,0.5721728801727295
1684201091852621300,8.280621337890626,-0.03463471308350563,0.22645771503448486,0.4580950438976288
1684201091862647300,8.290647216796875,-0.05590750277042389,0.2174697369337082,0.3557076156139374
1684201091872673300,8.30067333984375,-0.07962588220834732,0.18157778680324554,0.2463558316230774
1684201091882698200,8.3106982421875,-0.09532641619443893,0.10045265406370163,0.15748323500156403
1684201091892724200,8.32072412109375,-0.10166607052087784,-0.013464591465890408,0.07844114303588867
1684201091902749200,8.330749267578126,-0.0893205851316452,-0.1398947834968567,0.01726832054555416
1684201091912775200,8.340775146484376,-0.07628440856933594,-0.27308982610702515,-0.004821268375962973
1684201091922801200,8.35080126953125,-0.07611501216888428,-0.400797963142395,0.0022804145701229572
1684201091932826400,8.360826416015625,-0.07910121232271194,-0.45057299733161926,0.03702135011553764
1684201091942852400,8.370852294921875,-0.06094757840037346,-0.44079703092575073,0.07825419306755066
1684201091952877300,8.380877197265624,-0.028002943843603134,-0.4234004616737366,0.1229710653424263
1684201091962903300,8.3909033203125,0.008106386289000511,-0.3993898630142212,0.13659566640853882
1684201091972928500,8.400928466796875,0.04457171633839607,-0.3904531002044678,0.11902466416358948
1684201091982954500,8.41095458984375,0.06480994820594788,-0.39757975935935974,0.08632387965917587
1684201091992980500,8.42098046875,0.04698194935917854,-0.43305760622024536,0.058846455067396164
1684201092003005400,8.43100537109375,0.0005791105795651674,-0.46393653750419617,0.05895966291427612
1684201092013031400,8.441031494140624,-0.025873001664876938,-0.40417948365211487,0.06254134327173233
1684201092023056400,8.451056396484375,-0.04337161406874657,-0.341731458902359,0.04109412804245949
1684201092033082400,8.461082275390625,-0.11151871085166931,-0.3906071186065674,-0.06706270575523376
1684201092043108400,8.4711083984375,-0.27474445104599,-0.5438680648803711,-0.22758640348911285
1684201092053133600,8.481133544921875,-0.3415972590446472,-0.2608523666858673,-0.2502959668636322
1684201092063159600,8.49115966796875,-0.22998318076133728,-0.1637158840894699,-0.09333296120166779
1684201092073184500,8.5011845703125,-0.2610902190208435,-0.16877561807632446,0.029003065079450607
1684201092083210500,8.51121044921875,-0.27421286702156067,-0.20897836983203888,0.12360845506191254
1684201092093236500,8.521236572265625,-0.24228928983211517,-0.2847362458705902,0.1686164140701294
1684201092103261400,8.531261474609375,-0.2191101610660553,-0.35660573840141296,0.17991192638874054
1684201092113287400,8.541287353515624,-0.2035793960094452,-0.44409218430519104,0.13728457689285278
1684201092123312400,8.5513125,-0.17830435931682587,-0.49740368127822876,0.06361140310764313
1684201092133338400,8.56133837890625,-0.14869347214698792,-0.5298290252685547,-0.00809553824365139
1684201092143364400,8.5713642578125,-0.15040963888168335,-0.5485840439796448,-0.08112664520740509
1684201092153389600,8.5813896484375,-0.15214921534061432,-0.5348485112190247,-0.1644763946533203
1684201092163415600,8.59141552734375,-0.15425753593444824,-0.5198192596435547,-0.23384521901607513
1684201092173440500,8.6014404296875,-0.16175299882888794,-0.4971134066581726,-0.2756651043891907
1684201092183466500,8.611466552734376,-0.1782294362783432,-0.43732234835624695,-0.26539361476898193
1684201092193492500,8.621492431640625,-0.1922248750925064,-0.3610454201698303,-0.22486376762390137
1684201092203517400,8.631517333984375,-0.19512388110160828,-0.31036990880966187,-0.17392697930335999
1684201092213543400,8.64154345703125,-0.19964246451854706,-0.2854144871234894,-0.135802760720253
1684201092223568400,8.651568359375,-0.1975070685148239,-0.23386532068252563,-0.12020082026720047
1684201092233594400,8.661594482421876,-0.1839505136013031,-0.15357980132102966,-0.03537435457110405
1684201092243620400,8.671620361328126,-0.1709069013595581,-0.10746455937623978,0.06226875260472298
1684201092253645300,8.681645263671875,-0.1583508998155594,-0.09650804847478867,0.07636353373527527
1684201092263671300,8.69167138671875,-0.13730388879776,-0.1430387943983078,0.04200950637459755
1684201092273696500,8.701696533203124,-0.1266866773366928,-0.2017553597688675,-0.0004892167635262012
1684201092283722500,8.711722412109374,-0.11996318399906158,-0.2329016923904419,-0.016048356890678406
1684201092293748500,8.72174853515625,-0.1147652268409729,-0.22481393814086914,-0.003405798226594925
1684201092303773400,8.7317734375,-0.10724063217639923,-0.20837397873401642,0.021950697526335716
1684201092313799400,8.74179931640625,-0.09740611165761948,-0.19529972970485687,0.05018366873264313
1684201092323824400,8.751824462890625,-0.10255253314971924,-0.1641726791858673,0.07308440655469894
1684201092333850400,8.761850341796874,-0.10801654309034348,-0.09853294491767883,0.10084812343120575
1684201092343876400,8.77187646484375,-0.09752322733402252,-0.028483064845204353,0.13917779922485352
1684201092353901300,8.7819013671875,-0.0920453667640686,0.02112709730863571,0.14550653100013733
1684201092363927300,8.79192724609375,-0.07523960620164871,0.057652562856674194,0.12161973863840103
1684201092373952500,8.801952392578125,-0.04302974045276642,0.1123107448220253,0.07060742378234863
1684201092383978200,8.811978271484374,-0.01662970334291458,0.18370430171489716,-0.0013830405659973621
1684201092394003500,8.82200341796875,0.018954923376441002,0.2637714147567749,-0.08683482557535172
1684201092404029400,8.832029541015626,0.0744052529335022,0.34014591574668884,-0.15804427862167358
1684201092414055400,8.842055419921875,0.14842329919338226,0.4219840466976166,-0.20962411165237427
1684201092424080400,8.852080322265625,0.2390764206647873,0.49855655431747437,-0.21755726635456085
1684201092434106400,8.8621064453125,0.3310502767562866,0.5070339441299438,-0.17241695523262024
1684201092444131300,8.87213134765625,0.4042361080646515,0.47552287578582764,-0.11751160025596619
1684201092454157300,8.8821572265625,0.44351908564567566,0.4726405441761017,-0.14350643754005432
1684201092464183300,8.892183349609375,0.45614010095596313,0.5318414568901062,-0.2691437900066376
1684201092474208300,8.902208251953125,0.45761948823928833,0.609643280506134,-0.4494536519050598
1684201092484234200,8.912234130859375,0.4680955111980438,0.6720571517944336,-0.6805508732795715
1684201092494260500,8.922260498046874,0.5335269570350647,0.784237265586853,-1.1091474294662476
1684201092504285400,8.932285400390626,0.6619115471839905,0.8864506483078003,-1.723635196685791
1684201092514311700,8.942311767578126,0.7722431421279907,0.8616275787353516,-2.1144542694091797
1684201092524336400,8.95233642578125,0.8541312217712402,0.8411421179771423,-2.2195684909820557
1684201092534362600,8.962362548828125,0.9703089594841003,0.8566499948501587,-2.18707275390625
1684201092544387300,8.97238720703125,1.1365904808044434,0.8161764740943909,-2.109546661376953
1684201092554413600,8.98241357421875,1.2516534328460693,0.6665220260620117,-2.0414178371429443
1684201092564439600,8.992439453125,1.2707269191741943,0.3606242537498474,-1.9880552291870117
1684201092574464300,9.00246435546875,1.2366876602172852,-0.04655417427420616,-1.9240728616714478
1684201092584490500,9.012490478515625,1.216291069984436,-0.4032287895679474,-1.8459001779556274
1684201092594515200,9.02251513671875,1.2205348014831543,-0.6917503476142883,-1.7094091176986694
1684201092604541400,9.03254150390625,1.2144556045532227,-0.9172493815422058,-1.5477710962295532
1684201092614567400,9.0425673828125,1.205619215965271,-1.0406358242034912,-1.3763775825500488
1684201092624592600,9.052592529296875,1.1887853145599365,-0.9935027360916138,-1.1814686059951782
1684201092634618600,9.06261865234375,1.1718957424163818,-0.8106815218925476,-0.9855954647064209
1684201092644643600,9.0726435546875,1.1439493894577026,-0.582751452922821,-0.8006817102432251
1684201092654669600,9.082669677734375,1.1097064018249512,-0.3718879818916321,-0.63294917345047
1684201092664695600,9.092695556640624,1.115451693534851,-0.18676181137561798,-0.5153270363807678
1684201092674720500,9.102720458984376,1.1673023700714111,-0.007157705258578062,-0.44871237874031067
1684201092684746500,9.11274658203125,1.217202067375183,0.1656978726387024,-0.3634914755821228
1684201092694771500,9.122771484375,1.258038878440857,0.29970040917396545,-0.2569117844104767
1684201092704797400,9.13279736328125,1.2554856538772583,0.3829682469367981,-0.16411744058132172
1684201092714823400,9.142823486328124,1.2104095220565796,0.43178635835647583,-0.11617840081453323
1684201092724848400,9.152848388671876,1.1573063135147095,0.49100226163864136,-0.09206441789865494
1684201092734874400,9.162874267578125,1.1072570085525513,0.5802929401397705,-0.03744032233953476
1684201092744899600,9.172899658203125,1.0581865310668945,0.636482298374176,0.0708824023604393
1684201092754925600,9.182925537109375,1.0063899755477905,0.6231750249862671,0.21667076647281647
1684201092764951600,9.19295166015625,0.9522134065628052,0.5722377896308899,0.3381180465221405
1684201092774976500,9.2029765625,0.9150357246398926,0.5411139726638794,0.37792593240737915
1684201092785002500,9.21300244140625,0.8774625062942505,0.5463805794715881,0.34670138359069824
1684201092795027500,9.22302734375,0.8479222059249878,0.5597313046455383,0.2961987853050232
1684201092805053400,9.233053466796875,0.796180248260498,0.5454419255256653,0.2703990638256073
1684201092815079400,9.243079345703125,0.7232112288475037,0.5307825803756714,0.2587096393108368
1684201092825104400,9.2531044921875,0.6490336656570435,0.5163432359695435,0.24696221947669983
1684201092835130400,9.26313037109375,0.5766997933387756,0.4561867117881775,0.2309345304965973
1684201092845155600,9.273155517578125,0.5157027244567871,0.3348487317562103,0.2187972515821457
1684201092855181600,9.283181640625,0.4515940248966217,0.17121584713459015,0.20315836369991302
1684201092865207600,9.29320751953125,0.38809728622436523,0.006589966826140881,0.18159876763820648
1684201092875232500,9.303232421875,0.33240631222724915,-0.11659374833106995,0.15646331012248993
1684201092885258500,9.313258544921876,0.2788805365562439,-0.18476535379886627,0.14842674136161804
1684201092895283500,9.323283447265625,0.22575874626636505,-0.21228273212909698,0.15231947600841522
1684201092905309400,9.333309326171875,0.13844028115272522,-0.20858782529830933,0.1815730631351471
1684201092915335400,9.34333544921875,0.031296513974666595,-0.16455431282520294,0.22356924414634705
1684201092925360400,9.3533603515625,-0.10142146795988083,-0.11048968881368637,0.29017767310142517
1684201092935386400,9.363386474609374,-0.24842503666877747,-0.07678152620792389,0.38620832562446594
1684201092945411300,9.373411376953126,-0.39321592450141907,-0.08357429504394531,0.4963679611682892
1684201092955437300,9.383437255859375,-0.5329394340515137,-0.1290358006954193,0.5673614144325256
1684201092965463300,9.39346337890625,-0.6650160551071167,-0.18990391492843628,0.5834026336669922
1684201092975487500,9.403487548828124,-0.7694026231765747,-0.25845474004745483,0.5653861165046692
1684201092985513500,9.413513427734374,-0.8518024682998657,-0.33436670899391174,0.531854510307312
1684201092995538400,9.423538330078125,-0.9223682880401611,-0.40307334065437317,0.502343475818634
1684201093005564400,9.433564453125,-0.9857529997825623,-0.44333168864250183,0.47778865694999695
1684201093015590400,9.44359033203125,-1.0582023859024048,-0.45382559299468994,0.46228399872779846
1684201093025615400,9.453615478515625,-1.1420702934265137,-0.4280271828174591,0.4477178156375885
1684201093035641300,9.463641357421874,-1.2289113998413086,-0.40480494499206543,0.43862470984458923
1684201093045666600,9.47366650390625,-1.3057206869125366,-0.39615848660469055,0.46384140849113464
1684201093055692500,9.483692626953125,-1.3700989484786987,-0.39722639322280884,0.49240246415138245
1684201093065718500,9.493718505859375,-1.416422963142395,-0.3907119035720825,0.5216326117515564
1684201093075743500,9.503743408203125,-1.43373703956604,-0.3597846031188965,0.5434058308601379
1684201093085769500,9.51376953125,-1.4172097444534302,-0.2997764050960541,0.5584119558334351
1684201093095794400,9.52379443359375,-1.3778457641601562,-0.26131823658943176,0.5675029158592224
1684201093105820400,9.5338203125,-1.326354742050171,-0.2534954249858856,0.5830186009407043
1684201093115846700,9.5438466796875,-1.2720659971237183,-0.27081209421157837,0.6217036843299866
1684201093125871400,9.553871337890625,-1.1850736141204834,-0.2924007177352905,0.6581924557685852
1684201093135897600,9.563897705078125,-1.065604567527771,-0.28561073541641235,0.7256958484649658
1684201093145922300,9.57392236328125,-0.9273669719696045,-0.21441757678985596,0.802577018737793
1684201093155948500,9.583948486328126,-0.7319130301475525,-0.073719322681427,0.841649055480957
1684201093165973500,9.593973388671875,-0.5530609488487244,0.0669419914484024,0.8181871771812439
1684201093175999500,9.60399951171875,-0.4219553768634796,0.05482993274927139,0.7347841858863831
1684201093186025700,9.614025634765625,-0.33540812134742737,-0.06186748296022415,0.5469528436660767
1684201093196050400,9.624050537109374,-0.26109129190444946,-0.060266923159360886,0.3287283182144165
1684201093206076700,9.63407666015625,-0.18641763925552368,0.09841617941856384,0.14837296307086945
1684201093216101400,9.644101318359375,-0.09313030540943146,0.20639830827713013,0.049981147050857544
1684201093226127600,9.654127685546875,-0.08199990540742874,0.13203918933868408,0.06498172134160995
1684201093236153600,9.664153564453125,-0.18949361145496368,-0.009717680513858795,0.16404785215854645
1684201093246178600,9.674178466796874,-0.27082136273384094,-0.05080726370215416,0.29151591658592224
1684201093256204500,9.68420458984375,-0.27591386437416077,0.015173348598182201,0.3936859369277954
1684201093266229500,9.6942294921875,-0.25653424859046936,0.11124372482299805,0.43408146500587463
1684201093276255500,9.70425537109375,-0.26558899879455566,0.14675138890743256,0.4079257547855377
1684201093286281500,9.714281494140625,-0.30842581391334534,0.07297903299331665,0.34280627965927124
1684201093296306700,9.724306640625,-0.3643069267272949,0.004453761503100395,0.2725435793399811
1684201093306332700,9.734332763671874,-0.3361041247844696,-0.017208997160196304,0.24474410712718964
1684201093316357600,9.744357666015626,-0.21946382522583008,0.01658571884036064,0.2541418671607971
1684201093326383600,9.754383544921875,-0.1021973043680191,0.09492833912372589,0.30498969554901123
1684201093336409600,9.76440966796875,-0.012613886967301369,0.09367132931947708,0.4072532057762146
1684201093346434600,9.7744345703125,0.036566127091646194,0.05981793254613876,0.5286699533462524
1684201093356460500,9.78446044921875,0.03983116149902344,0.02572920359671116,0.6063194870948792
1684201093366485500,9.794485595703126,0.03598780930042267,0.013564476743340492,0.5961971282958984
1684201093376511500,9.804511474609376,-0.02189785987138748,0.07558843493461609,0.4379297196865082
1684201093386537500,9.814537353515625,-0.10101629793643951,0.20120617747306824,0.26074591279029846
1684201093396562700,9.824562744140625,-0.17746101319789886,0.35598164796829224,0.2077716588973999
1684201093406588700,9.834588623046875,-0.24078863859176636,0.5296609401702881,0.23126399517059326
1684201093416613600,9.844613525390624,-0.2767343819141388,0.6455997824668884,0.27614572644233704
1684201093426639600,9.8546396484375,-0.3002937436103821,0.6841518878936768,0.3440013527870178
1684201093436665600,9.86466552734375,-0.29176148772239685,0.67889803647995,0.42276325821876526
1684201093446690600,9.874690673828125,-0.27087995409965515,0.6686123013496399,0.4998120665550232
1684201093456716500,9.884716552734375,-0.21898452937602997,0.6692216396331787,0.5799100995063782
1684201093466741500,9.894741455078124,-0.1689940094947815,0.6629667282104492,0.6393783092498779
1684201093476767500,9.904767578125,-0.16422347724437714,0.5710693001747131,0.6486101746559143
1684201093486793500,9.91479345703125,-0.1460198611021042,0.4458364248275757,0.6336305141448975
1684201093496818400,9.924818359375,-0.13318954408168793,0.3145875930786133,0.5743482708930969
1684201093506844400,9.934844482421875,-0.13733607530593872,0.19042430818080902,0.4654254615306854
1684201093516869600,9.94486962890625,-0.16510991752147675,0.06364452838897705,0.3310876190662384
1684201093526895600,9.9548955078125,-0.2208649218082428,-0.05474231019616127,0.22441822290420532
1684201093536921600,9.964921630859376,-0.259475976228714,-0.1639460325241089,0.13711315393447876
1684201093546946600,9.974946533203125,-0.2635027766227722,-0.23675048351287842,0.07512948662042618
1684201093556972500,9.98497265625,-0.24810142815113068,-0.2662535011768341,0.06294473260641098
1684201093566997500,9.99499755859375,-0.2364007532596588,-0.2706356644630432,0.088065505027771
1684201093577023500,10.0050234375,-0.21299023926258087,-0.2698625326156616,0.12375345826148987
1684201093587049500,10.015049560546874,-0.19957111775875092,-0.2732694745063782,0.15209248661994934
1684201093597074400,10.025074462890625,-0.19116298854351044,-0.27708229422569275,0.16828370094299316
1684201093607100400,10.035100341796875,-0.17944082617759705,-0.26826757192611694,0.1769990622997284
1684201093617125600,10.045125732421875,-0.1788429468870163,-0.2679477334022522,0.19080835580825806
1684201093627151600,10.055151611328125,-0.18139560520648956,-0.26920410990715027,0.2189369797706604
1684201093637177300,10.06517724609375,-0.19323362410068512,-0.27774885296821594,0.23584751784801483
1684201093647202600,10.07520263671875,-0.20840837061405182,-0.2812022566795349,0.23447132110595703
1684201093657228500,10.085228515625,-0.22766701877117157,-0.25800424814224243,0.22424185276031494
1684201093667253500,10.09525341796875,-0.2385135442018509,-0.24530795216560364,0.22712360322475433
1684201093677279500,10.105279541015625,-0.25176170468330383,-0.23241212964057922,0.22939980030059814
1684201093687305500,10.115305419921874,-0.2676090896129608,-0.21407140791416168,0.23285935819149017
1684201093697330400,10.125330322265626,-0.2609213590621948,-0.19900138676166534,0.23395071923732758
1684201093707356400,10.1353564453125,-0.24392637610435486,-0.18570296466350555,0.24088899791240692
1684201093717381400,10.14538134765625,-0.20748500525951385,-0.1842091977596283,0.23705270886421204
1684201093727407400,10.155407470703125,-0.1645692139863968,-0.2004660815000534,0.23060987889766693
1684201093737433300,10.165433349609375,-0.133038729429245,-0.22921383380889893,0.2201007902622223
1684201093747458600,10.17545849609375,-0.11675458401441574,-0.24680998921394348,0.19418726861476898
1684201093757484500,10.185484619140626,-0.09746823459863663,-0.2437734603881836,0.15757492184638977
1684201093767509500,10.195509521484375,-0.07945918291807175,-0.23593787848949432,0.11670468747615814
1684201093777535500,10.205535400390625,-0.0719812884926796,-0.2229195535182953,0.07033932209014893
1684201093787561500,10.2155615234375,-0.07814795523881912,-0.19981777667999268,0.036120884120464325
1684201093797586400,10.22558642578125,-0.08935267478227615,-0.19884465634822845,0.02537396550178528
1684201093807612400,10.2356123046875,-0.12199846655130386,-0.23243218660354614,0.025533974170684814
1684201093817637400,10.245637451171875,-0.16194480657577515,-0.2749098539352417,0.022165874019265175
1684201093827663400,10.255663330078125,-0.19183702766895294,-0.30630144476890564,0.024518005549907684
1684201093837689600,10.265689697265625,-0.22367432713508606,-0.3482012152671814,0.048407889902591705
1684201093847714300,10.27571435546875,-0.25328561663627625,-0.38216376304626465,0.0643915981054306
1684201093857740500,10.285740478515624,-0.2660733163356781,-0.37508028745651245,0.08361269533634186
1684201093867765500,10.295765625,-0.2618087828159332,-0.3372763991355896,0.12545770406723022
1684201093877791500,10.30579150390625,-0.2472253292798996,-0.30771130323410034,0.16912929713726044
1684201093887817700,10.315817626953125,-0.2355843186378479,-0.30156540870666504,0.19411927461624146
1684201093897842400,10.325842529296875,-0.2258848249912262,-0.2877438962459564,0.1862024962902069
1684201093907868700,10.33586865234375,-0.22011151909828186,-0.2910880744457245,0.16618335247039795
1684201093917893400,10.345893310546876,-0.2314898669719696,-0.31773993372917175,0.1412857323884964
1684201093927919600,10.355919677734375,-0.25518110394477844,-0.35352015495300293,0.10485486686229706
1684201093937945600,10.365945556640625,-0.279641717672348,-0.3876541554927826,0.05352216958999634
1684201093947970600,10.375970458984375,-0.2708337903022766,-0.44802069664001465,0.012843646109104156
1684201093957996500,10.38599658203125,-0.2462615817785263,-0.5218893885612488,-0.010685381479561329
1684201093968021500,10.396021484375,-0.22356320917606354,-0.5409566760063171,-0.028673114255070686
1684201093978048000,10.406048095703126,-0.1958620697259903,-0.5103311538696289,-0.039265040308237076
1684201093988074000,10.416073974609375,-0.17348763346672058,-0.47183993458747864,-0.028058048337697983
1684201093998099200,10.42609912109375,-0.1407933384180069,-0.39433979988098145,-0.024169303476810455
1684201094008125200,10.436125244140625,-0.08167227357625961,-0.27183961868286133,-0.03456227481365204
1684201094018150100,10.446150146484374,-0.003927676007151604,-0.1621197909116745,-0.051768958568573
1684201094028176100,10.456176025390626,0.0835062563419342,-0.09042268246412277,-0.07176347821950912
1684201094038202000,10.4662021484375,0.17597946524620056,-0.07701712846755981,-0.10316374897956848
1684201094048227000,10.47622705078125,0.2616255283355713,-0.07071806490421295,-0.14896126091480255
1684201094058253000,10.486253173828125,0.3258087635040283,-0.04504519701004028,-0.21663245558738708
1684201094068278000,10.496278076171874,0.38877588510513306,-0.029672179371118546,-0.2776987552642822
1684201094078304000,10.506303955078126,0.45951956510543823,-0.03024689108133316,-0.30306297540664673
1684201094088330000,10.516330078125,0.5061444640159607,-0.0312108863145113,-0.30691593885421753
1684201094098355000,10.52635498046875,0.5419594645500183,-0.024220356717705727,-0.32504329085350037
1684201094108381000,10.536380859375,0.5705779790878296,0.03591397777199745,-0.4040496349334717
1684201094118406100,10.54640625,0.5995326638221741,0.16926856338977814,-0.5761332511901855
1684201094128432000,10.55643212890625,0.6294342279434204,0.34612220525741577,-0.8244501948356628
1684201094138458400,10.566458251953126,0.6484087109565735,0.5285601615905762,-1.1402677297592163
1684201094148483000,10.576483154296875,0.7016611695289612,0.7134010791778564,-1.554761290550232
1684201094158509300,10.58650927734375,0.7842550873756409,0.8892767429351807,-2.012159824371338
1684201094168534000,10.596533935546875,0.8860495090484619,0.9917432069778442,-2.296161651611328
1684201094178560300,10.606560302734374,0.9898147583007812,1.084109902381897,-2.357151746749878
1684201094188586200,10.616586181640624,1.1085394620895386,1.1670243740081787,-2.3116965293884277
1684201094198611200,10.626611083984375,1.2411680221557617,1.2264996767044067,-2.21397066116333
1684201094208637200,10.63663720703125,1.3855538368225098,1.1833345890045166,-2.0520875453948975
1684201094218662100,10.646662109375,1.4702885150909424,0.9641603231430054,-1.9213120937347412
1684201094228688100,10.656688232421875,1.5009703636169434,0.5855064392089844,-1.8352365493774414
1684201094238714000,10.666714111328124,1.5040403604507446,0.1196952760219574,-1.7571384906768799
1684201094248739300,10.6767392578125,1.4634915590286255,-0.28350237011909485,-1.6730583906173706
1684201094258765300,10.686765380859375,1.3621857166290283,-0.5938575863838196,-1.5354981422424316
1684201094268790300,10.696790283203125,1.2637403011322021,-0.7647098898887634,-1.3549330234527588
1684201094278816300,10.706816162109375,1.2012399435043335,-0.7778486013412476,-1.1690829992294312
1684201094288842200,10.71684228515625,1.2093256711959839,-0.6097498536109924,-1.0046203136444092
1684201094298867200,10.7268671875,1.253530740737915,-0.3326769471168518,-0.9056404829025269
1684201094308893200,10.73689306640625,1.259285807609558,-0.10366856306791306,-0.8163774013519287
1684201094318918100,10.746918212890625,1.2386870384216309,0.021637694910168648,-0.6937406659126282
1684201094328944000,10.756944091796875,1.2609834671020508,0.06446962058544159,-0.5547336935997009
1684201094338970000,10.76697021484375,1.3087520599365234,0.0761723518371582,-0.44989725947380066
1684201094348995300,10.776995361328124,1.3061509132385254,0.057434096932411194,-0.4026331305503845
1684201094359021300,10.787021240234376,1.283826470375061,0.04584988206624985,-0.3911876380443573
1684201094369046300,10.79704638671875,1.2446454763412476,0.09931249916553497,-0.35390666127204895
1684201094379072300,10.807072265625,1.1827946901321411,0.1505887508392334,-0.27944013476371765
1684201094389098200,10.81709814453125,1.093723177909851,0.21608112752437592,-0.1738530844449997
1684201094399123200,10.827123291015624,1.0185402631759644,0.33193984627723694,-0.0694451853632927
1684201094409149200,10.837149169921876,0.9666537642478943,0.43278664350509644,0.02053479105234146
1684201094419174100,10.847174072265625,0.9222586154937744,0.4790593087673187,0.1259903758764267
1684201094429200100,10.8572001953125,0.8349326848983765,0.43286386132240295,0.20726309716701508
1684201094439226000,10.86722607421875,0.710782527923584,0.36506298184394836,0.2781793475151062
1684201094449251000,10.8772509765625,0.5912834405899048,0.31339070200920105,0.3586686849594116
1684201094459277000,10.887277099609374,0.45262861251831055,0.3596298396587372,0.43123796582221985
1684201094469302300,10.89730224609375,0.3638179302215576,0.37958332896232605,0.47923582792282104
1684201094479328300,10.907328369140625,0.2905064523220062,0.3197684586048126,0.4542559087276459
1684201094489354200,10.917354248046875,0.20173279941082,0.24347065389156342,0.3972927927970886
1684201094499379200,10.927379150390625,0.1082470566034317,0.10465125739574432,0.35389843583106995
1684201094509405200,10.9374052734375,0.03799574822187424,-0.07229936867952347,0.3430202305316925
1684201094519430100,10.94743017578125,-0.020026806741952896,-0.2687050998210907,0.3366834819316864
1684201094529456000,10.9574560546875,-0.05939481407403946,-0.4701828956604004,0.3033556640148163
1684201094539482000,10.967482177734375,-0.12358392030000687,-0.6040326356887817,0.25001147389411926
1684201094549507000,10.977507080078125,-0.21939368546009064,-0.7380762100219727,0.19257813692092896
1684201094559533000,10.987532958984374,-0.3606005907058716,-0.9223445653915405,0.1617318093776703
1684201094569558000,10.99755810546875,-0.5360821485519409,-1.168751835823059,0.15785780549049377
1684201094579584000,11.007583984375,-0.6424384117126465,-1.3824832439422607,0.16261553764343262
1684201094589610000,11.01760986328125,-0.7437183856964111,-1.4582135677337646,0.2129991352558136
1684201094599635200,11.02763525390625,-0.8532912135124207,-1.5526007413864136,0.24045206606388092
1684201094609661200,11.0376611328125,-0.8915361762046814,-1.5856856107711792,0.20293821394443512
1684201094619686100,11.04768603515625,-0.9204179048538208,-1.5170197486877441,0.1599137783050537
1684201094629712100,11.057712158203126,-1.0083250999450684,-1.514675498008728,0.0727323368191719
1684201094639738000,11.067738037109375,-1.1199477910995483,-1.4952501058578491,-0.04092392325401306
1684201094649763000,11.07776318359375,-1.172190546989441,-1.4014880657196045,-0.08415533602237701
1684201094659789000,11.0877890625,-1.169508695602417,-1.1948214769363403,-0.06162739172577858
1684201094669814000,11.09781396484375,-1.1036425828933716,-0.9552693367004395,0.0072986227460205555
1684201094679840000,11.107840087890626,-1.156212568283081,-0.6818740367889404,0.07254447042942047
1684201094689866000,11.117865966796876,-1.234088659286499,-0.5890647768974304,0.07992304861545563
1684201094699891200,11.12789111328125,-1.3441230058670044,-0.5798614621162415,0.011385006830096245
1684201094709917200,11.137917236328125,-1.4587265253067017,-0.6058332324028015,-0.06250898540019989
1684201094719942100,11.147942138671874,-1.602770209312439,-0.5716776251792908,-0.1382807195186615
1684201094729968000,11.157968017578124,-1.7171028852462769,-0.5084000825881958,-0.16512957215309143
1684201094739994000,11.167994140625,-1.734342336654663,-0.48676881194114685,-0.16252154111862183
1684201094750019000,11.17801904296875,-1.7749249935150146,-0.5092961192131042,-0.19468270242214203
1684201094760045000,11.188045166015625,-1.7481147050857544,-0.5537706017494202,-0.16873233020305634
1684201094770070000,11.198070068359375,-1.6207066774368286,-0.5692797899246216,-0.0049614068120718
1684201094780096000,11.208095947265624,-1.4469596147537231,-0.4467615783214569,0.19460630416870117
1684201094790122000,11.2181220703125,-1.1689969301223755,-0.2919572591781616,0.31301435828208923
1684201094800147000,11.22814697265625,-0.9600791335105896,-0.08615588396787643,0.33748748898506165
1684201094810173000,11.2381728515625,-0.8200098872184753,-0.01449255645275116,0.35147181153297424
1684201094820198100,11.2481982421875,-0.7765140533447266,-0.06034873053431511,0.39380890130996704
1684201094830224100,11.25822412109375,-0.7203272581100464,-0.015900304540991783,0.3791801631450653
1684201094840250400,11.26825048828125,-0.5836964249610901,0.0003710770979523659,0.28395456075668335
1684201094850275000,11.278275146484376,-0.35439789295196533,-0.10332747548818588,0.17252777516841888
1684201094860301300,11.28830126953125,-0.07432735711336136,-0.22856369614601135,0.15052393078804016
1684201094870326000,11.298325927734375,0.01747966557741165,-0.1946600377559662,0.17644336819648743
1684201094880352300,11.308352294921875,0.0225287526845932,-0.22862626612186432,0.3775365352630615
1684201094890378200,11.318378173828124,0.023594485595822334,-0.3120361566543579,0.6895973086357117
1684201094900403200,11.3284033203125,-0.10918299853801727,-0.5016468167304993,1.0012463331222534
1684201094910429200,11.33842919921875,-0.28109022974967957,-0.750235378742218,1.190002202987671
1684201094920454100,11.3484541015625,-0.41839829087257385,-0.7625993490219116,1.2346786260604858
1684201094930480000,11.358480224609375,-0.3842052221298218,-0.5921448469161987,1.228048324584961
1684201094940506000,11.368506103515625,-0.3045918941497803,-0.3732507824897766,1.2217351198196411
1684201094950531300,11.37853125,-0.05631839856505394,-0.2837720215320587,1.2952086925506592
1684201094960557300,11.388557373046876,0.2752126455307007,-0.37830039858818054,1.627488374710083
1684201094970582300,11.398582275390625,0.4969797134399414,-0.3980681896209717,1.9130299091339111
1684201094980607500,11.408607421875,0.6433140635490417,-0.6725972294807434,2.211690902709961
1684201094990633500,11.418633544921875,0.7884480357170105,-1.2556201219558716,2.260165214538574
1684201095000658400,11.428658447265626,0.785866379737854,-1.9655646085739136,1.9938085079193115
1684201095010684400,11.438684326171876,0.5120736360549927,-2.4465253353118896,1.5734645128250122
1684201095020709600,11.448709716796875,0.17717452347278595,-2.7697181701660156,1.1357020139694214
1684201095030735600,11.458735595703125,-0.06501220911741257,-2.988424777984619,0.8737386465072632
1684201095040761300,11.46876123046875,-0.11047875881195068,-3.131523609161377,0.7444115281105042
1684201095050786600,11.47878662109375,-0.12554296851158142,-3.140902280807495,0.540008008480072
1684201095060812500,11.4888125,-0.14083030819892883,-2.922109842300415,0.1902332603931427
1684201095070837500,11.49883740234375,-0.06577605754137039,-2.8463666439056396,-0.06085424870252609
1684201095080863500,11.508863525390625,0.22555087506771088,-2.8676223754882812,-0.33997297286987305
1684201095090889500,11.518889404296875,0.5926101207733154,-2.8186748027801514,-0.597895085811615
1684201095100914400,11.52891455078125,1.0697448253631592,-2.956420660018921,-0.7601340413093567
1684201095110940400,11.5389404296875,1.6483891010284424,-3.104832410812378,-0.940284252166748
1684201095120965400,11.54896533203125,2.280468463897705,-3.13789963722229,-1.1793429851531982
1684201095130991400,11.558991455078125,2.8773422241210938,-3.1046082973480225,-1.415980577468872
1684201095141017300,11.569017333984375,3.2640864849090576,-2.596405267715454,-1.6088008880615234
1684201095151042600,11.57904248046875,3.464512586593628,-2.2396864891052246,-1.3345277309417725
1684201095161068500,11.589068603515624,3.4713611602783203,-2.03995943069458,-0.7159407138824463
1684201095171094500,11.599094482421876,3.356611490249634,-1.8121728897094727,-0.16497492790222168
1684201095181119500,11.609119384765625,3.357839345932007,-1.9062365293502808,0.2280610352754593
1684201095191145500,11.6191455078125,3.423558473587036,-2.1161766052246094,0.41379737854003906
1684201095201170400,11.62917041015625,3.6190345287323,-2.3999321460723877,0.49267062544822693
1684201095211196400,11.639196533203124,4.032097339630127,-2.743525981903076,0.6139909625053406
1684201095221222700,11.64922265625,4.474974155426025,-2.9742488861083984,0.8427663445472717
1684201095231247400,11.659247314453125,4.937925338745117,-3.148550510406494,1.1853758096694946
1684201095241273300,11.6692734375,5.40608549118042,-3.1961727142333984,1.5909749269485474
1684201095251298300,11.67929833984375,5.892364978790283,-3.1079766750335693,1.991290807723999
1684201095261324300,11.68932421875,6.3227691650390625,-3.088773250579834,2.420375108718872
1684201095271350500,11.6993505859375,6.5852952003479,-3.1490848064422607,2.901228666305542
1684201095281375500,11.70937548828125,6.608828544616699,-3.0482351779937744,3.367197275161743
1684201095291401700,11.719401611328125,6.485836982727051,-2.8927485942840576,3.7664804458618164
1684201095301426400,11.729426513671875,6.378130912780762,-2.8529627323150635,4.063564777374268
1684201095311452700,11.73945263671875,6.30488920211792,-2.836122512817383,4.210503101348877
1684201095321478700,11.749478759765625,6.148534297943115,-2.6574203968048096,4.284102439880371
1684201095331503600,11.759503662109376,5.986270427703857,-2.392817497253418,4.295157432556152
1684201095341529600,11.769529541015626,5.773193836212158,-2.048917531967163,4.24352502822876
1684201095351554600,11.779554443359375,5.529157638549805,-1.4949548244476318,4.226198673248291
1684201095361580500,11.78958056640625,5.340085506439209,-0.8727334141731262,4.204408168792725
1684201095371606500,11.7996064453125,5.186485767364502,-0.5743961334228516,4.03040885925293
1684201095381631500,11.809631591796874,5.056164264678955,-0.45336589217185974,3.765045166015625
1684201095391657500,11.819657470703126,4.9160966873168945,-0.3941105306148529,3.4722740650177
1684201095401682700,11.8296826171875,4.688990592956543,-0.42533451318740845,3.1384923458099365
1684201095411708700,11.839708740234375,4.3886823654174805,-0.6068174242973328,2.741708993911743
1684201095421734700,11.849734619140625,4.014121055603027,-0.9651824831962585,2.296614646911621
1684201095431759600,11.859759521484374,3.6557798385620117,-1.474755883216858,1.8730741739273071
1684201095441785600,11.86978564453125,3.323716402053833,-2.05106520652771,1.497475028038025
1684201095451810600,11.879810546875,3.0636227130889893,-2.657083749771118,1.1701931953430176
1684201095461836500,11.88983642578125,2.886704683303833,-3.230839729309082,0.9149500131607056
1684201095471862500,11.899862548828125,2.762164831161499,-3.6209933757781982,0.750851035118103
1684201095481887500,11.909887451171874,2.6671786308288574,-3.766374111175537,0.6803573966026306
1684201095491913500,11.91991357421875,2.555264711380005,-3.695634126663208,0.6793249249458313
1684201095501938700,11.929938720703126,2.2358360290527344,-2.8584721088409424,0.4420061409473419
1684201095511964700,11.939964599609375,1.7175283432006836,-1.1468026638031006,-0.08945417404174805
1684201095521990700,11.94999072265625,1.4836162328720093,-0.41174572706222534,-0.2821114957332611
1684201095532015600,11.960015625,1.5010004043579102,-0.33128631114959717,-0.3350364863872528
1684201095542041600,11.97004150390625,1.3757575750350952,-0.25360003113746643,-0.335427463054657
1684201095552066600,11.980066650390626,1.0696663856506348,0.018813498318195343,-0.34998011589050293
1684201095562092500,11.990092529296875,0.7752581834793091,0.24536941945552826,-0.38600975275039673
1684201095572118500,12.000118408203125,0.5737012624740601,0.17278698086738586,-0.4112263321876526
1684201095582143500,12.0101435546875,0.3792969286441803,-0.10881274938583374,-0.46724486351013184
1684201095592169500,12.02016943359375,0.16291199624538422,-0.4457376301288605,-0.6067350506782532
1684201095602194400,12.0301943359375,-0.06152455881237984,-0.818583607673645,-0.7098382711410522
1684201095612220400,12.040220458984376,-0.28655558824539185,-1.2247904539108276,-0.6730417013168335
1684201095622246400,12.050246337890625,-0.5239223837852478,-1.4976444244384766,-0.5025485157966614
1684201095632271600,12.060271728515625,-0.6908388733863831,-1.5798691511154175,-0.3334764540195465
