time,seconds_elapsed,z,y,x
1684200267311325000,0.042324951171875,0.07325947284698486,1.3467923402786255,0.8464580178260803
1684200267321350000,0.052349853515625,0.06402896344661713,1.4850314855575562,0.8353515863418579
1684200267331374600,0.06237451171875,0.0005562488222494721,1.5903072357177734,0.8053395748138428
1684200267341399600,0.072399658203125,-0.1249324306845665,1.8378530740737915,0.7328675389289856
1684200267351424800,0.0824248046875,-0.3608642518520355,1.999416708946228,0.5979285836219788
1684200267361449700,0.09244970703125,-0.6770347356796265,2.0918612480163574,0.44933220744132996
1684200267371474700,0.102474609375,-0.9786499738693237,2.070432424545288,0.2744075357913971
1684200267381500700,0.112500732421875,-1.1996090412139893,1.9890542030334473,0.06780988723039627
1684200267391525600,0.122525634765625,-1.3282606601715088,1.9041913747787476,-0.15882013738155365
1684200267401550800,0.13255078125,-1.3813787698745728,1.888391137123108,-0.4461134374141693
1684200267411575800,0.142575927734375,-1.3668946027755737,1.8804622888565063,-0.7637230753898621
1684200267421600800,0.152600830078125,-1.364036202430725,1.8612977266311646,-1.0302067995071411
1684200267431625700,0.162625732421875,-1.4484179019927979,1.8778237104415894,-1.1566672325134277
1684200267441650700,0.172650634765625,-1.6072752475738525,2.1790497303009033,-1.077540636062622
1684200267451675600,0.182675537109375,-1.7654016017913818,2.570303201675415,-0.9046554565429688
1684200267461701600,0.19270166015625,-1.9378684759140015,2.5423340797424316,-0.9000481963157654
1684200267471726600,0.2027265625,-2.135929584503174,2.402320146560669,-1.1097526550292969
1684200267481751800,0.212751708984375,-2.2882399559020996,2.3501224517822266,-1.3791122436523438
1684200267491776800,0.22277685546875,-2.4503626823425293,2.2699785232543945,-1.6357495784759521
1684200267501801700,0.2328017578125,-2.6534841060638428,2.258793354034424,-1.7568384408950806
1684200267511826700,0.24282666015625,-2.92852520942688,2.5141868591308594,-1.646704912185669
1684200267521852000,0.252851806640625,-3.188584089279175,3.066051959991455,-1.2920286655426025
1684200267531877600,0.262877685546875,-3.1987452507019043,3.5117111206054688,-0.8862882852554321
1684200267541902800,0.27290283203125,-3.1498029232025146,3.636866569519043,-0.6214007139205933
1684200267551927800,0.282927734375,-3.104393482208252,3.5363969802856445,-0.6165737509727478
1684200267561952800,0.292952880859375,-3.1400341987609863,3.2617952823638916,-0.724073588848114
1684200267571977700,0.302977783203125,-3.358607530593872,2.8696374893188477,-0.7410412430763245
1684200267582002700,0.313002685546875,-3.7477774620056152,2.505369186401367,-0.6909258961677551
1684200267592027600,0.323027587890625,-4.2743306159973145,2.694793462753296,-0.4357118606567383
1684200267602053600,0.3330537109375,-4.862882137298584,3.356529474258423,0.10028340667486191
1684200267612078600,0.34307861328125,-5.471434593200684,4.045051097869873,0.8455227017402649
1684200267622103800,0.353103759765625,-5.882267951965332,4.690945148468018,1.6000261306762695
1684200267632128800,0.363128662109375,-5.860332012176514,4.730997085571289,2.0112698078155518
1684200267642153700,0.37315380859375,-5.1919355392456055,4.337789535522461,1.7310693264007568
1684200267652178700,0.3831787109375,-4.276286602020264,3.7865872383117676,0.8892652988433838
1684200267662204000,0.393203857421875,-4.395816326141357,2.7472035884857178,0.5011072158813477
1684200267672230000,0.40322998046875,-4.8699469566345215,2.031219482421875,0.5321862101554871
1684200267682254800,0.4132548828125,-5.129486560821533,1.717968463897705,0.6917803883552551
1684200267692279800,0.42327978515625,-5.251338481903076,1.7399822473526,1.035002589225769
1684200267702304800,0.4333046875,-5.322925090789795,1.6078662872314453,1.508042812347412
1684200267712330000,0.443330078125,-5.3387861251831055,1.3278160095214844,1.8721178770065308
1684200267722354700,0.453354736328125,-5.246790885925293,1.1473891735076904,2.126387357711792
1684200267732379600,0.463379638671875,-5.140629768371582,0.7879171967506409,2.2644999027252197
1684200267742405600,0.473405517578125,-4.809195041656494,0.35630831122398376,2.1786556243896484
1684200267752430600,0.4834306640625,-4.236799240112305,-0.37005987763404846,1.6817169189453125
1684200267762455800,0.493455810546875,-3.6181437969207764,-0.9000688791275024,0.685460090637207
1684200267772480800,0.503480712890625,-3.1436667442321777,-0.9932575225830078,-0.16143015027046204
1684200267782505700,0.513505615234375,-2.747474431991577,-1.1874570846557617,-0.6023646593093872
1684200267792530700,0.52353076171875,-2.150740146636963,-1.393326997756958,-0.7626168727874756
1684200267802556000,0.533555908203125,-1.2802646160125732,-0.9797700643539429,-0.7119747400283813
1684200267812580900,0.543580810546875,-0.5753936171531677,-0.6981573700904846,-0.5075905323028564
1684200267822606800,0.55360693359375,-0.10470172762870789,-1.057536005973816,0.040360189974308014
1684200267832631800,0.5636318359375,0.3947618901729584,-1.566879153251648,0.5598737597465515
1684200267842656800,0.57365673828125,0.94863361120224,-2.034332752227783,0.9270520210266113
1684200267852681700,0.583681640625,1.382912039756775,-2.2940592765808105,1.1208077669143677
1684200267862706700,0.593706787109375,1.70634925365448,-2.3618738651275635,1.3454667329788208
1684200267872731600,0.603731689453125,1.8855046033859253,-2.314690351486206,1.6015352010726929
1684200267882756600,0.613756591796875,2.07844614982605,-2.2663886547088623,1.7860746383666992
1684200267892782600,0.623782470703125,2.2723329067230225,-2.0557758808135986,1.9014915227890015
1684200267902807800,0.633807861328125,2.4426820278167725,-1.8253068923950195,1.9694831371307373
1684200267912832800,0.643832763671875,2.6029608249664307,-1.6798667907714844,1.9638447761535645
1684200267922857700,0.653857666015625,2.0989787578582764,-1.3898634910583496,0.9687114953994751
1684200267932882700,0.663882568359375,0.7888548374176025,-0.8793484568595886,-1.4757633209228516
1684200267942908000,0.673907958984375,0.28768202662467957,-0.36977633833885193,-2.394497871398926
1684200267952932900,0.683932861328125,0.551811933517456,0.6665751338005066,-1.4863923788070679
1684200267962958800,0.693958740234375,0.6466758847236633,1.7508734464645386,-0.5055844187736511
1684200267972983800,0.70398388671875,0.8750755190849304,2.312429189682007,0.05463467538356781
1684200267983008800,0.7140087890625,1.815312147140503,2.220172643661499,0.7250308990478516
1684200267993033700,0.72403369140625,2.8423550128936768,2.3891093730926514,1.3430477380752563
1684200268003058700,0.73405859375,2.248509645462036,2.9646356105804443,0.6843811273574829
1684200268013083600,0.744083740234375,1.6869398355484009,3.300846815109253,0.5126528739929199
1684200268023108600,0.754108642578125,1.329616904258728,3.6878821849823,1.058669090270996
1684200268033134300,0.76413427734375,1.2857692241668701,4.0780792236328125,1.5389200448989868
1684200268043159300,0.7741591796875,1.8648099899291992,3.7825024127960205,1.5618906021118164
1684200268053184300,0.784184326171875,2.68752121925354,2.961973190307617,1.3187806606292725
1684200268063209200,0.794209228515625,2.7965164184570312,2.293012857437134,0.9182501435279846
1684200268073234400,0.804234375,2.8570425510406494,1.8069888353347778,0.5259565114974976
1684200268083259400,0.81425927734375,2.9567742347717285,1.102176308631897,0.31945234537124634
1684200268093284000,0.8242841796875,2.8567967414855957,0.2512737810611725,0.08569256961345673
1684200268103309000,0.83430908203125,2.336761474609375,-0.22053608298301697,0.13028188049793243
1684200268113335000,0.8443349609375,1.531760573387146,-0.48536989092826843,0.10722635686397552
1684200268123360300,0.8543603515625,0.8276935815811157,-0.6253520250320435,-0.15878534317016602
1684200268133385200,0.86438525390625,0.4279552698135376,-0.23099254071712494,-0.7310276031494141
1684200268143410200,0.87441015625,0.5427798628807068,0.27189111709594727,-1.086978554725647
1684200268153435100,0.88443505859375,0.5149103999137878,0.841986894607544,-1.0244673490524292
1684200268163460400,0.89446044921875,-0.10904695838689804,1.6772558689117432,-0.9454896450042725
1684200268173485300,0.9044853515625,-1.1393712759017944,1.9246937036514282,-1.1800628900527954
1684200268183511300,0.91451123046875,-2.6111257076263428,1.1809431314468384,-2.096144199371338
1684200268193536300,0.924536376953125,-4.340335369110107,0.4237080514431,-3.3528614044189453
1684200268203561200,0.934561279296875,-4.476782321929932,0.010624614544212818,-4.516214847564697
1684200268213586400,0.94458642578125,-4.05600118637085,0.24954941868782043,-5.070163726806641
1684200268223611400,0.954611328125,-3.76540470123291,1.127707839012146,-4.3836588859558105
1684200268233636000,0.964635986328125,-4.397433280944824,0.641912579536438,-3.1354312896728516
1684200268243661000,0.9746611328125,-5.228781223297119,0.8611509203910828,-2.2937798500061035
1684200268253687000,0.98468701171875,-5.509951114654541,2.0313947200775146,-1.9787567853927612
1684200268263712300,0.994712158203125,-5.3025712966918945,3.6481688022613525,-2.205008029937744
1684200268273737200,1.0047373046875,-5.174171447753906,5.218937873840332,-2.7423880100250244
1684200268283762200,1.01476220703125,-5.380885601043701,5.591240406036377,-3.2927098274230957
1684200268293787100,1.024787109375,-5.481300354003906,4.495785713195801,-3.263042449951172
1684200268303812400,1.034812255859375,-4.0342936515808105,0.2657013237476349,-0.8811863660812378
1684200268313837300,1.04483740234375,-1.9210271835327148,-0.19601598381996155,1.4054549932479858
1684200268323863300,1.05486328125,-1.1797120571136475,1.222196102142334,2.387568950653076
1684200268333888300,1.06488818359375,-1.2584521770477295,2.615243434906006,2.3648765087127686
1684200268343913200,1.074913330078125,-1.474798321723938,3.4645369052886963,1.9733378887176514
1684200268353938400,1.0849384765625,-1.5021412372589111,3.6098954677581787,1.6742777824401855
1684200268363963400,1.09496337890625,-1.280008316040039,2.8457188606262207,1.5461522340774536
1684200268373988000,1.104988037109375,-0.942304253578186,1.5800715684890747,1.4730546474456787
1684200268384013000,1.115012939453125,-0.8185601830482483,0.41004565358161926,1.36177396774292
1684200268394038300,1.125038330078125,-0.7643401026725769,-0.3012849688529968,1.3250036239624023
1684200268404064300,1.135064208984375,-0.7735543847084045,-0.7383278608322144,1.5156904458999634
1684200268414089200,1.145089111328125,-0.8971346020698547,-0.8331466317176819,1.9969773292541504
1684200268424114200,1.1551142578125,-0.7809118628501892,-0.47069573402404785,2.699573516845703
1684200268434139100,1.16513916015625,-0.6749625205993652,0.45728644728660583,3.2045834064483643
1684200268444164400,1.175164306640625,-0.5733466744422913,0.9972399473190308,3.383657693862915
1684200268454189300,1.185189208984375,-0.32797980308532715,1.3405667543411255,3.393965721130371
1684200268464215300,1.19521533203125,-0.1707228124141693,1.669735312461853,3.2423341274261475
1684200268474240300,1.205240234375,-0.4088003635406494,1.7780678272247314,2.711862087249756
1684200268484265200,1.21526513671875,-0.8646227717399597,1.7932617664337158,1.8935670852661133
1684200268494290400,1.22529052734375,-1.2339742183685303,1.8439621925354004,1.0644973516464233
1684200268504315100,1.235315185546875,-1.403235673904419,1.767247200012207,0.23243023455142975
1684200268514340000,1.245340087890625,-1.6300123929977417,1.3422329425811768,-0.6107261776924133
1684200268524365300,1.255365234375,-1.8044499158859253,0.9249695539474487,-1.372928261756897
1684200268534390300,1.265390380859375,-1.7977728843688965,0.7464943528175354,-1.880568265914917
1684200268544416300,1.275416259765625,-1.7827742099761963,0.9764000177383423,-2.07743763923645
1684200268554441200,1.285441162109375,-1.7967758178710938,1.5864617824554443,-1.9682787656784058
1684200268564466200,1.295466064453125,-2.015552282333374,2.631068706512451,-1.5141853094100952
1684200268574491100,1.3054912109375,-2.4245855808258057,4.310462951660156,-0.7057706117630005
1684200268584516400,1.315516357421875,-2.5469706058502197,5.873011589050293,0.23510795831680298
1684200268594541300,1.325541259765625,-1.942379355430603,7.1198883056640625,1.0029360055923462
1684200268604566300,1.335566162109375,0.5945037603378296,6.861814498901367,1.910845160484314
1684200268614592300,1.34559228515625,3.7777621746063232,5.795156955718994,2.42061448097229
1684200268624617200,1.3556171875,4.768840312957764,5.071764945983887,2.1887412071228027
1684200268634642400,1.365642333984375,3.9994397163391113,4.726357460021973,1.904536247253418
1684200268644667100,1.375667236328125,1.477531909942627,-0.10497666150331497,-0.2396165281534195
1684200268654692000,1.385692138671875,-0.6309756636619568,-2.2267417907714844,-1.5265958309173584
1684200268664717300,1.39571728515625,-0.7824088335037231,-2.3403546810150146,-1.7849578857421875
1684200268674742300,1.4057421875,-0.503350555896759,-2.123330593109131,-1.7825080156326294
1684200268684767200,1.415767333984375,-0.03936798870563507,-1.7535820007324219,-1.753531813621521
1684200268694793200,1.425793212890625,0.4132902920246124,-1.9610886573791504,-1.9052551984786987
1684200268704818200,1.435818115234375,0.5786755084991455,-2.5448648929595947,-2.021538257598877
1684200268714843400,1.445843505859375,0.41718167066574097,-3.047372341156006,-1.771668791770935
1684200268724868400,1.455868408203125,-0.06823267787694931,-4.441334247589111,-1.5137819051742554
1684200268734893300,1.465893310546875,-0.5309310555458069,-6.819535732269287,-1.251983404159546
1684200268744918300,1.475918212890625,-0.7386049032211304,-7.844882488250732,-0.4197492301464081
1684200268754943200,1.485943115234375,-0.4746672511100769,-8.147186279296875,0.5238171219825745
1684200268764969500,1.495969482421875,-0.14154654741287231,-8.190716743469238,1.310011386871338
1684200268774994200,1.505994140625,0.046656105667352676,-8.233366966247559,2.095552682876587
1684200268785019100,1.51601904296875,0.014889920130372047,-7.523418426513672,3.0064477920532227
1684200268795044000,1.526044189453125,-0.808271050453186,-4.058923721313477,3.474318504333496
1684200268805069300,1.5360693359375,-2.2634410858154297,1.998603343963623,1.9976608753204346
1684200268815094300,1.54609423828125,-3.115020751953125,5.42067289352417,0.9461557865142822
1684200268825119200,1.556119140625,-2.974608898162842,6.469638824462891,0.9743301868438721
1684200268835145200,1.566145263671875,-2.326036214828491,5.9943132400512695,1.248164176940918
1684200268845170200,1.576170166015625,-1.6303876638412476,4.868704795837402,1.4911952018737793
1684200268855195400,1.5861953125,-1.119354486465454,3.55023193359375,1.576757788658142
1684200268865220400,1.596220458984375,-0.6291942596435547,2.011373519897461,1.3590584993362427
1684200268875245300,1.606245361328125,-0.4892696440219879,-0.5005261301994324,0.3743661642074585
1684200268885270300,1.616270263671875,-0.06105891242623329,-1.4026551246643066,0.2563857138156891
1684200268895295200,1.626295166015625,0.49954476952552795,-1.3747011423110962,0.6615058779716492
1684200268905321500,1.636321533203125,0.9636858105659485,-1.1961904764175415,1.1484342813491821
1684200268915346200,1.64634619140625,1.396357536315918,-1.4740122556686401,1.2351570129394531
1684200268925371100,1.65637109375,1.813786506652832,-2.001159429550171,0.9520925879478455
1684200268935396000,1.66639599609375,2.0986602306365967,-2.4568042755126953,0.5694423913955688
1684200268945421300,1.67642138671875,2.894834041595459,-2.2053210735321045,0.5206476449966431
1684200268955446300,1.6864462890625,3.778975009918213,-1.6597316265106201,0.5376834869384766
1684200268965471200,1.69647119140625,4.525400638580322,-1.1410927772521973,0.4248914122581482
1684200268975497200,1.706497314453125,5.211864471435547,-0.5613922476768494,0.2700856328010559
1684200268985522200,1.716522216796875,5.775081634521484,-0.10423081368207932,0.16270296275615692
1684200268995547400,1.72654736328125,5.338560104370117,-0.4175489544868469,-0.23320923745632172
1684200269005572400,1.736572265625,3.837265729904175,-1.696175217628479,-0.967011570930481
1684200269015597300,1.746597412109375,2.0141708850860596,-3.098060131072998,-1.7903087139129639
1684200269025622000,1.7566220703125,1.040459394454956,-3.209390163421631,-2.2016985416412354
1684200269035647000,1.76664697265625,0.8583218455314636,-2.2164502143859863,-2.1863343715667725
1684200269045673000,1.7766728515625,0.832893967628479,-0.6934359073638916,-2.245199680328369
1684200269055698000,1.786697998046875,0.7145500183105469,0.6964914798736572,-2.3399925231933594
1684200269065723000,1.796722900390625,0.4559946060180664,1.3088399171829224,-2.1569223403930664
1684200269075747800,1.806747802734375,0.2015330195426941,1.0924285650253296,-1.521962285041809
1684200269085773000,1.81677294921875,0.06271203607320786,0.6077252626419067,-0.5779657959938049
1684200269095798000,1.826798095703125,-0.06182269752025604,0.42830705642700195,0.27719250321388245
1684200269105822700,1.83682275390625,-0.14986707270145416,0.3566589653491974,0.826209306716919
1684200269115848000,1.846847900390625,-0.21879766881465912,0.1933535486459732,1.0664831399917603
1684200269125874000,1.8568740234375,-0.2642064392566681,-0.0007099237991496921,1.0941143035888672
1684200269135899000,1.86689892578125,-0.24661704897880554,-0.123336061835289,0.9978375434875488
1684200269145923800,1.876923828125,-0.20011132955551147,-0.10044832527637482,0.8269922733306885
1684200269155948800,1.88694873046875,-0.15908028185367584,0.04193894937634468,0.6325942277908325
1684200269165974000,1.89697412109375,-0.12384133785963058,0.23412489891052246,0.46468833088874817
1684200269175999000,1.9069990234375,-0.08084779232740402,0.3765426278114319,0.33538639545440674
1684200269186024000,1.91702392578125,-0.01884380914270878,0.39428168535232544,0.23647287487983704
1684200269196050000,1.9270498046875,0.0374053418636322,0.2729255259037018,0.1584470272064209
1684200269206075000,1.937074951171875,0.08969810605049133,0.12777899205684662,0.10723336786031723
1684200269216100000,1.94710009765625,0.14124999940395355,-0.0406721830368042,0.03328433632850647
1684200269226125000,1.957125,0.18597112596035004,-0.18123754858970642,-0.07903660833835602
1684200269236150000,1.96714990234375,0.21493218839168549,-0.27711597084999084,-0.22238442301750183
1684200269246174700,1.9771748046875,0.2108205407857895,-0.369945764541626,-0.3858705461025238
1684200269256200000,1.987199951171875,0.18725155293941498,-0.3978693187236786,-0.5027254819869995
1684200269266226000,1.997225830078125,0.1599283218383789,-0.38202616572380066,-0.5434198975563049
1684200269276251000,2.0072509765625,0.12348537147045135,-0.33427244424819946,-0.49535030126571655
1684200269286275800,2.01727587890625,0.08423809707164764,-0.2680441439151764,-0.3748403787612915
1684200269296300800,2.02730078125,0.04463822394609451,-0.2320462018251419,-0.22875723242759705
1684200269306326000,2.037325927734375,0.012826233170926571,-0.2432762086391449,-0.0930505245923996
1684200269316351000,2.04735107421875,-0.0058020493015646935,-0.29036301374435425,-0.0033755432814359665
1684200269326376000,2.0573759765625,-0.004751964472234249,-0.33945783972740173,0.02615491673350334
1684200269336402000,2.06740185546875,0.004467373713850975,-0.37765952944755554,0.007085532881319523
1684200269346427000,2.077427001953125,0.01382598839700222,-0.3869624733924866,-0.04027292877435684
1684200269356452000,2.0874521484375,0.017425522208213806,-0.35701286792755127,-0.09914654493331909
1684200269366477000,2.09747705078125,0.0189022459089756,-0.3076402544975281,-0.15632781386375427
1684200269376501800,2.107501708984375,0.012415841221809387,-0.2415231317281723,-0.21181237697601318
1684200269386526700,2.117526611328125,0.013787368312478065,-0.1895052045583725,-0.24757277965545654
1684200269396552000,2.127552001953125,0.015021484345197678,-0.15567070245742798,-0.2536032795906067
1684200269406578000,2.137577880859375,0.011166025884449482,-0.11756513267755508,-0.22053320705890656
1684200269416603000,2.147602783203125,-0.006716301664710045,-0.08948822319507599,-0.1472906768321991
1684200269426627800,2.1576279296875,-0.0329337902367115,-0.06927722692489624,-0.05473065376281738
1684200269436652800,2.16765283203125,-0.06242245435714722,-0.0587327666580677,0.03741706162691116
1684200269446678000,2.177677978515625,-0.08997312188148499,-0.05377289652824402,0.11804559826850891
1684200269456703000,2.187702880859375,-0.10779204964637756,-0.04884014278650284,0.19349411129951477
1684200269466728000,2.19772802734375,-0.13448411226272583,-0.03440767526626587,0.24529846012592316
1684200269476754000,2.20775390625,-0.16020281612873077,0.0162594523280859,0.292838990688324
1684200269486779000,2.21777880859375,-0.16561675071716309,0.044764596968889236,0.3226650655269623
1684200269496804000,2.22780419921875,-0.16949188709259033,0.04942755401134491,0.33061444759368896
1684200269506829000,2.2378291015625,-0.1570810228586197,0.059632521122694016,0.3181697726249695
1684200269516853800,2.247853759765625,-0.13838352262973785,0.08443829417228699,0.27459290623664856
1684200269526878700,2.257878662109375,-0.11137107759714127,0.058013882488012314,0.19388821721076965
1684200269536904000,2.267904052734375,-0.07112006098031998,-0.014966319315135479,0.07555544376373291
1684200269546930000,2.277929931640625,-0.04315420240163803,-0.09846174716949463,-0.059371210634708405
1684200269556955000,2.287954833984375,-0.025805313140153885,-0.16391783952713013,-0.18048450350761414
1684200269566979800,2.297979736328125,-0.023859340697526932,-0.19428610801696777,-0.2832724153995514
1684200269577004800,2.3080048828125,-0.03070712648332119,-0.2035662978887558,-0.35576727986335754
1684200269587030000,2.318030029296875,-0.04185032844543457,-0.18828800320625305,-0.38461410999298096
1684200269597055000,2.328054931640625,-0.052729859948158264,-0.1696014702320099,-0.3727940320968628
1684200269607080000,2.338079833984375,-0.07321995496749878,-0.1558462381362915,-0.3349909782409668
1684200269617106000,2.34810595703125,-0.08872488141059875,-0.15073035657405853,-0.27286916971206665
1684200269627131000,2.358130859375,-0.09492205828428268,-0.15611127018928528,-0.21027928590774536
1684200269637156000,2.368156005859375,-0.10406415164470673,-0.19023825228214264,-0.15062078833580017
1684200269647180800,2.378180908203125,-0.10828739404678345,-0.25021371245384216,-0.10707411170005798
1684200269657205800,2.388205810546875,-0.11299720406532288,-0.2987586557865143,-0.08086705207824707
1684200269667230700,2.398230712890625,-0.12076005339622498,-0.326206773519516,-0.061165791004896164
1684200269677256000,2.408255859375,-0.13163907825946808,-0.35165590047836304,-0.0698641911149025
1684200269687282000,2.418281982421875,-0.14805373549461365,-0.3833509683609009,-0.09712031483650208
1684200269697307000,2.428306884765625,-0.15627384185791016,-0.4163023829460144,-0.1292525678873062
1684200269707331800,2.438331787109375,-0.16718561947345734,-0.4355282783508301,-0.1663871556520462
1684200269717356800,2.448356689453125,-0.17688219249248505,-0.4239251911640167,-0.19490674138069153
1684200269727382000,2.458382080078125,-0.1870298981666565,-0.3882564306259155,-0.20107674598693848
1684200269737407000,2.468406982421875,-0.19999496638774872,-0.3495955765247345,-0.1931277960538864
1684200269747432000,2.478431884765625,-0.2000894993543625,-0.34178584814071655,-0.1771240532398224
1684200269757458000,2.4884580078125,-0.18633374571800232,-0.3513675034046173,-0.1598471701145172
1684200269767483000,2.49848291015625,-0.16420501470565796,-0.3644851744174957,-0.15136553347110748
1684200269777508000,2.508508056640625,-0.14869795739650726,-0.3628021478652954,-0.14157341420650482
1684200269787532800,2.51853271484375,-0.1295628696680069,-0.3308633863925934,-0.13913795351982117
1684200269797557800,2.528557861328125,-0.11449842900037766,-0.2676275074481964,-0.13120387494564056
1684200269807583000,2.5385830078125,-0.1012531965970993,-0.18143855035305023,-0.12231291830539703
1684200269817608000,2.54860791015625,-0.08635867387056351,-0.12071309983730316,-0.11983475089073181
1684200269827634000,2.558634033203125,-0.06448027491569519,-0.11951600760221481,-0.1363239735364914
1684200269837659000,2.568658935546875,-0.04177334904670715,-0.1937672644853592,-0.17441515624523163
1684200269847683800,2.578683837890625,-0.007320567965507507,-0.2885398268699646,-0.23596373200416565
1684200269857709000,2.588708984375,0.03641706705093384,-0.36501365900039673,-0.30936840176582336
1684200269867734000,2.598734130859375,0.08768744766712189,-0.39704564213752747,-0.38870769739151
1684200269877759000,2.608759033203125,0.1496773064136505,-0.3911720812320709,-0.4677472412586212
1684200269887784000,2.618783935546875,0.21886542439460754,-0.3580018877983093,-0.5477243661880493
1684200269897810000,2.628809814453125,0.2938019931316376,-0.3189941346645355,-0.6377660632133484
1684200269907835000,2.6388349609375,0.37003469467163086,-0.2838047444820404,-0.743373453617096
1684200269917860000,2.648860107421875,0.44643548130989075,-0.24960830807685852,-0.8502586483955383
1684200269927884800,2.658884765625,0.5104408264160156,-0.23050357401371002,-0.961305558681488
1684200269937909800,2.66890966796875,0.5593255162239075,-0.21897709369659424,-1.0862910747528076
1684200269947935000,2.67893505859375,0.5896083116531372,-0.19600120186805725,-1.2254092693328857
1684200269957960000,2.6889599609375,0.6169589757919312,-0.16353683173656464,-1.3896883726119995
1684200269967986000,2.69898583984375,0.651637077331543,-0.1052791178226471,-1.5714457035064697
1684200269978011000,2.709010986328125,0.683314859867096,-0.007611396722495556,-1.7165018320083618
1684200269988035800,2.719035888671875,0.7120059132575989,0.15642867982387543,-1.789330005645752
1684200269998061000,2.72906103515625,0.7269009351730347,0.43121808767318726,-1.7904170751571655
1684200270008086000,2.7390859375,0.7427443861961365,0.8420064449310303,-1.7365847826004028
1684200270018111000,2.749111083984375,0.7424178719520569,1.3412103652954102,-1.6356956958770752
1684200270028136000,2.759135986328125,0.7452549338340759,1.7865246534347534,-1.5015127658843994
1684200270038162200,2.769162109375,0.7361266613006592,2.0583748817443848,-1.3538910150527954
1684200270048187100,2.779187255859375,0.6869623064994812,2.21915602684021,-1.1469186544418335
1684200270058212000,2.789212158203125,0.5789809823036194,2.3468384742736816,-0.8266510963439941
1684200270068237000,2.799237060546875,0.4604130685329437,2.342277765274048,-0.4771077334880829
1684200270078262000,2.809261962890625,0.3464185893535614,2.1651151180267334,-0.18167740106582642
1684200270088287200,2.819287353515625,0.30292385816574097,1.8711416721343994,-0.04491822421550751
1684200270098312200,2.829312255859375,0.33578431606292725,1.6112912893295288,-0.10337059199810028
1684200270108338200,2.839338134765625,0.4323129951953888,1.464210033416748,-0.2947040796279907
1684200270118363100,2.849363037109375,0.5441479086875916,1.4371918439865112,-0.4997245669364929
1684200270128388000,2.85938818359375,0.6421722173690796,1.4206335544586182,-0.6123541593551636
1684200270138413300,2.869413330078125,0.6994650363922119,1.2262117862701416,-0.6565767526626587
1684200270148438300,2.879438232421875,0.721636950969696,1.0265612602233887,-0.5900901556015015
1684200270158463200,2.889463134765625,0.720817506313324,0.9163070917129517,-0.45193201303482056
1684200270168488000,2.899488037109375,0.7271329164505005,0.8335626721382141,-0.32161954045295715
1684200270178514000,2.909513916015625,0.7723249197006226,0.7021672129631042,-0.23707807064056396
1684200270188539100,2.9195390625,0.8364096283912659,0.6136122941970825,-0.19592423737049103
1684200270198564000,2.929564208984375,0.9515836238861084,0.6539337635040283,-0.18476428091526031
1684200270208589000,2.939589111328125,1.0789345502853394,0.7609786987304688,-0.20208334922790527
1684200270218614000,2.949614013671875,1.153006672859192,0.8296414017677307,-0.16598498821258545
1684200270228639200,2.95963916015625,1.1835283041000366,0.8611383438110352,-0.0425163172185421
1684200270238664200,2.969664306640625,1.1863268613815308,0.8479585647583008,0.09093017876148224
1684200270248690200,2.979690185546875,1.167837142944336,0.896138072013855,0.21417061984539032
1684200270258715100,2.989715087890625,1.1057134866714478,1.0695585012435913,0.311474084854126
1684200270268740000,2.999739990234375,1.0349514484405518,1.2021554708480835,0.37078163027763367
1684200270278765300,3.009765380859375,0.9865477085113525,1.2284009456634521,0.398856520652771
1684200270288790300,3.019790283203125,0.9767717719078064,1.1616134643554688,0.41126203536987305
1684200270298815000,3.02981494140625,0.9969329833984375,1.0256403684616089,0.4338575303554535
1684200270308840000,3.03983984375,1.0296705961227417,0.9070532917976379,0.4696245789527893
1684200270318866000,3.049865966796875,1.0764483213424683,0.8083653450012207,0.48709914088249207
1684200270328891100,3.05989111328125,1.075182557106018,0.753426194190979,0.4908400774002075
1684200270338916000,3.069916015625,1.0223556756973267,0.7092028856277466,0.48117777705192566
1684200270348941000,3.079941162109375,0.943551778793335,0.6570429801940918,0.47082260251045227
1684200270358966000,3.089966064453125,0.8675547242164612,0.638498842716217,0.48637720942497253
1684200270368991200,3.0999912109375,0.7845892906188965,0.602921187877655,0.5168778300285339
1684200270379016200,3.11001611328125,0.685627818107605,0.5415022373199463,0.5650879144668579
1684200270389042200,3.120042236328125,0.6022279858589172,0.4863865077495575,0.6128780841827393
1684200270399067100,3.130067138671875,0.5259819626808167,0.4701748490333557,0.63346928358078
1684200270409092000,3.140092041015625,0.4527958929538727,0.4959467947483063,0.6268798112869263
1684200270419117300,3.150117431640625,0.37612029910087585,0.5224941968917847,0.6092283129692078
1684200270429142300,3.160142333984375,0.30812445282936096,0.5288887023925781,0.6023525595664978
1684200270439167000,3.1701669921875,0.2392047792673111,0.49256688356399536,0.6302662491798401
1684200270449193200,3.180193115234375,0.16791222989559174,0.39789018034935,0.6797882318496704
1684200270459218000,3.190218017578125,0.10844730585813522,0.26906272768974304,0.7314233183860779
1684200270469243100,3.2002431640625,0.05443919822573662,0.12681423127651215,0.7601996064186096
1684200270479268000,3.21026806640625,0.016919519752264023,-0.008081123232841492,0.7631153464317322
1684200270489293000,3.22029296875,0.0016628027660772204,-0.1272202879190445,0.7344514727592468
1684200270499318000,3.230318115234375,-0.01388898491859436,-0.25432687997817993,0.7124411463737488
1684200270509343200,3.24034326171875,-0.044484179466962814,-0.36520546674728394,0.6895781755447388
1684200270519369200,3.250369140625,-0.08499938249588013,-0.45363548398017883,0.6933180093765259
1684200270529394200,3.260394287109375,-0.12385597079992294,-0.5043100714683533,0.7140613794326782
1684200270539419100,3.270419189453125,-0.16577360033988953,-0.5158928036689758,0.7244013547897339
1684200270549444000,3.280444091796875,-0.2206144779920578,-0.5404160022735596,0.7227984070777893
1684200270559469300,3.29046923828125,-0.26547595858573914,-0.5671974420547485,0.7203265428543091
1684200270569494000,3.300493896484375,-0.29204124212265015,-0.5998629331588745,0.7209222912788391
1684200270579519000,3.31051904296875,-0.304711252450943,-0.6396671533584595,0.7239550352096558
1684200270589545000,3.320544921875,-0.3338494300842285,-0.729365348815918,0.7349275350570679
1684200270599570000,3.33056982421875,-0.3764626681804657,-0.8581041693687439,0.7644633054733276
1684200270609595100,3.34059521484375,-0.4094477593898773,-0.9495019912719727,0.7865616679191589
1684200270619620000,3.3506201171875,-0.4292049705982208,-0.9825478196144104,0.7790186405181885
1684200270629645000,3.36064501953125,-0.44324836134910583,-1.0326170921325684,0.746558666229248
1684200270639670000,3.370669921875,-0.46225506067276,-1.0778028964996338,0.6974869966506958
1684200270649696000,3.380696044921875,-0.493413507938385,-1.1162984371185303,0.6420790553092957
1684200270659721200,3.39072119140625,-0.5358967781066895,-1.1827372312545776,0.6088312864303589
1684200270669746200,3.40074609375,-0.6222726702690125,-1.2861543893814087,0.5864413380622864
1684200270679771100,3.410771240234375,-0.732208251953125,-1.3508994579315186,0.5639550685882568
1684200270689796000,3.420796142578125,-0.8337892293930054,-1.343316674232483,0.5211434364318848
1684200270699821300,3.4308212890625,-0.9044146537780762,-1.2769075632095337,0.48692888021469116
1684200270709846000,3.440845947265625,-0.9392346739768982,-1.2124366760253906,0.4963362216949463
1684200270719872300,3.450872314453125,-0.9273843765258789,-1.1729114055633545,0.5559197068214417
1684200270729897000,3.46089697265625,-0.8868212699890137,-1.139838695526123,0.6195610165596008
1684200270739922000,3.470921875,-0.8513631224632263,-1.112784504890442,0.6445053219795227
1684200270749947100,3.480947021484375,-0.8245235085487366,-1.0667052268981934,0.6083494424819946
1684200270759972000,3.49097216796875,-0.7838453650474548,-0.9614962935447693,0.5109173655509949
1684200270769997000,3.5009970703125,-0.7371790409088135,-0.829714834690094,0.38173890113830566
1684200270780022300,3.511022216796875,-0.7206906080245972,-0.7458046674728394,0.24156738817691803
1684200270790048000,3.521048095703125,-0.6617849469184875,-0.6979079842567444,0.11184054613113403
1684200270800073200,3.5310732421875,-0.5983012914657593,-0.7276740670204163,-0.007139313034713268
1684200270810098200,3.54109814453125,-0.5375170707702637,-0.7327266335487366,-0.11880272626876831
1684200270820123100,3.551123046875,-0.4823549687862396,-0.6129329800605774,-0.16323526203632355
1684200270830148000,3.561148193359375,-0.43583381175994873,-0.4094776213169098,-0.10290107876062393
1684200270840173000,3.571173095703125,-0.39859700202941895,-0.22122889757156372,0.038021788001060486
1684200270850199300,3.58119921875,-0.3643556535243988,-0.130966916680336,0.1786808967590332
1684200270860224000,3.59122412109375,-0.343833863735199,-0.17270690202713013,0.26102232933044434
1684200270870249000,3.6012490234375,-0.35776805877685547,-0.2566337585449219,0.30722177028656006
1684200270880274200,3.611274169921875,-0.38398635387420654,-0.32475972175598145,0.3212204575538635
1684200270890299100,3.621299072265625,-0.42667922377586365,-0.34413662552833557,0.31340035796165466
1684200270900324000,3.631323974609375,-0.4653555154800415,-0.32543790340423584,0.28852391242980957
1684200270910349000,3.64134912109375,-0.480899840593338,-0.3390253484249115,0.248146653175354
1684200270920375000,3.651375,-0.45000025629997253,-0.4319593906402588,0.19271187484264374
1684200270930400300,3.661400146484375,-0.3920291066169739,-0.6321094632148743,0.1197841465473175
1684200270940425200,3.67142529296875,-0.32247745990753174,-0.8416428565979004,0.04615287482738495
1684200270950450200,3.6814501953125,-0.2742878198623657,-1.01836097240448,-0.025225704535841942
1684200270960475100,3.69147509765625,-0.259549081325531,-1.1403366327285767,-0.0972457081079483
1684200270970500400,3.701500244140625,-0.2723698019981384,-1.2218903303146362,-0.19911295175552368
1684200270980526300,3.7115263671875,-0.295449823141098,-1.2400498390197754,-0.329944908618927
1684200270990551300,3.72155126953125,-0.2872832417488098,-1.1746418476104736,-0.4811405539512634
1684200271000576000,3.731575927734375,-0.2687881290912628,-1.0384857654571533,-0.6064099669456482
1684200271010601000,3.74160107421875,-0.23665255308151245,-0.8628697991371155,-0.6739320158958435
1684200271020626200,3.751626220703125,-0.19331786036491394,-0.686734139919281,-0.7030915021896362
1684200271030651100,3.761651123046875,-0.12391720712184906,-0.5092185139656067,-0.6990861296653748
1684200271040676000,3.771676025390625,-0.04851938411593437,-0.3003871440887451,-0.6804408431053162
1684200271050702000,3.7817021484375,-0.003721821354702115,0.027693521231412888,-0.6086369752883911
1684200271060727000,3.79172705078125,-0.011710521765053272,0.7939884662628174,-0.3524526059627533
1684200271070752300,3.801752197265625,-0.16154475510120392,1.4758868217468262,0.010825209319591522
1684200271080777200,3.811777099609375,-0.24385319650173187,1.1626478433609009,0.38376837968826294
1684200271090802200,3.82180224609375,-0.08202303200960159,0.5329617857933044,0.7126610279083252
1684200271100827100,3.8318271484375,0.06054849550127983,0.015860790386795998,0.7328826189041138
1684200271110853000,3.84185302734375,0.14181751012802124,-0.1545540988445282,0.5386545062065125
1684200271120878300,3.85187841796875,0.23244276642799377,-0.11543363332748413,0.31068116426467896
1684200271130903300,3.8619033203125,0.32482674717903137,-0.07102329283952713,0.12373550981283188
1684200271140928300,3.87192822265625,0.392733097076416,-0.17319583892822266,-0.016901429742574692
1684200271150953000,3.881952880859375,0.4541482627391815,-0.3468714952468872,-0.11925842612981796
1684200271160978200,3.891978271484375,0.49478384852409363,-0.49104082584381104,-0.18225952982902527
1684200271171003100,3.902003173828125,0.5006819367408752,-0.5263599157333374,-0.20353738963603973
1684200271181029000,3.912029052734375,0.44703203439712524,-0.45907410979270935,-0.18900954723358154
1684200271191054000,3.92205419921875,0.35581958293914795,-0.27368906140327454,-0.11633320897817612
1684200271201079000,3.9320791015625,0.24825741350650787,-0.04483696073293686,0.008398791775107384
1684200271211104300,3.942104248046875,0.1506190150976181,0.06137602776288986,0.14444690942764282
1684200271221129200,3.952129150390625,0.08905099332332611,0.05865762382745743,0.25502943992614746
1684200271231154200,3.962154296875,0.0611136332154274,-0.03862951695919037,0.36194363236427307
1684200271241180200,3.97218017578125,0.01527370885014534,-0.11396768689155579,0.4437897503376007
1684200271251205000,3.982205078125,-0.0324312299489975,-0.10298214107751846,0.49000972509384155
1684200271261230300,3.992230224609375,-0.08630910515785217,-0.02883884496986866,0.4973400831222534
1684200271271255300,4.00225537109375,-0.10221964120864868,0.09516299515962601,0.4535449147224426
1684200271281280300,4.0122802734375,-0.12156616896390915,0.18006397783756256,0.38915038108825684
1684200271291305000,4.022304931640625,-0.1256525218486786,0.2159910798072815,0.31793585419654846
1684200271301331200,4.032331298828125,-0.13119164109230042,0.1844397783279419,0.24252697825431824
1684200271311356200,4.042356201171875,-0.11357136070728302,0.095340795814991,0.16946661472320557
1684200271321381000,4.052381103515625,-0.08240679651498795,0.006882588844746351,0.08506324142217636
1684200271331406000,4.062406005859375,-0.05245288461446762,-0.03842763602733612,0.02417193166911602
1684200271341431000,4.07243115234375,-0.035791076719760895,-0.06111394986510277,-0.019727878272533417
1684200271351456300,4.082456298828125,-0.001572654815390706,-0.1002885177731514,-0.06986560672521591
1684200271361481200,4.092481201171875,0.05474201589822769,-0.08314061909914017,-0.07957517355680466
1684200271371507200,4.102507080078125,0.12103342264890671,-0.11872577667236328,-0.08193580061197281
1684200271381532200,4.1125322265625,0.1643281728029251,-0.18944260478019714,-0.07860483229160309
1684200271391557000,4.12255712890625,0.18587447702884674,-0.29962050914764404,-0.05317723751068115
1684200271401582300,4.132582275390625,0.20278127491474152,-0.39819881319999695,-0.004478807561099529
1684200271411607300,4.142607177734375,0.21513541042804718,-0.439333438873291,0.041011180728673935
1684200271421633300,4.15263330078125,0.20607054233551025,-0.402709424495697,0.08044314384460449
1684200271431658200,4.162658203125,0.1726396232843399,-0.3321942389011383,0.1251099407672882
1684200271441683000,4.172682861328125,0.14039593935012817,-0.26412928104400635,0.18120603263378143
1684200271451708200,4.182708251953125,0.12231573462486267,-0.17222920060157776,0.22866037487983704
1684200271461733000,4.192733154296875,0.08900091797113419,-0.06822466105222702,0.2498505413532257
1684200271471758000,4.202758056640625,0.04716426134109497,0.00734360096976161,0.21539242565631866
1684200271481783000,4.212782958984375,0.028576981276273727,-0.00683892797678709,0.10834626853466034
1684200271491809000,4.22280908203125,0.02564590610563755,-0.09747322648763657,-0.04336895793676376
1684200271501834200,4.232834228515625,0.037190984934568405,-0.2498059719800949,-0.18863102793693542
1684200271511859200,4.242859130859375,0.04896721616387367,-0.36254236102104187,-0.3055344820022583
1684200271521884200,4.25288427734375,0.016759749501943588,-0.3010806143283844,-0.3802853226661682
1684200271531909000,4.2629091796875,-0.0331694595515728,-0.15682943165302277,-0.36841881275177
1684200271541934300,4.272934326171875,-0.05701354518532753,-0.04673046991229057,-0.2854282855987549
1684200271551960300,4.282960205078125,-0.061684995889663696,-0.029357340186834335,-0.15672464668750763
1684200271561985300,4.2929853515625,-0.06848404556512833,-0.0890948474407196,-0.022394919767975807
1684200271572010200,4.30301025390625,-0.08009862154722214,-0.16807807981967926,0.0574309378862381
1684200271582035000,4.313034912109375,-0.10387798398733139,-0.21474747359752655,0.051968224346637726
1684200271592060200,4.32306005859375,-0.13181720674037933,-0.24074366688728333,-0.025057852268218994
1684200271602085000,4.333085205078125,-0.1583193987607956,-0.2663736939430237,-0.12059888988733292
1684200271612111000,4.343111083984375,-0.1748853176832199,-0.28832903504371643,-0.1766589730978012
1684200271622136000,4.353135986328125,-0.18985174596309662,-0.2905360162258148,-0.19528435170650482
1684200271632161000,4.3631611328125,-0.20651701092720032,-0.31858840584754944,-0.19776853919029236
1684200271642186200,4.373186279296875,-0.22415992617607117,-0.3754267692565918,-0.19876402616500854
1684200271652211200,4.383211181640625,-0.24646523594856262,-0.43723365664482117,-0.20549675822257996
1684200271662236200,4.393236083984375,-0.278383731842041,-0.46765193343162537,-0.20349803566932678
1684200271672262100,4.40326220703125,-0.3135094940662384,-0.46228301525115967,-0.19384807348251343
1684200271682287000,4.413287109375,-0.3490448594093323,-0.4552346467971802,-0.17020519077777863
1684200271692312300,4.423312255859375,-0.3899233043193817,-0.45231422781944275,-0.14277143776416779
1684200271702337300,4.433337158203125,-0.43935346603393555,-0.4449925124645233,-0.1170036643743515
1684200271712362000,4.443362060546875,-0.4835752546787262,-0.4117876887321472,-0.07537153363227844
1684200271722387200,4.45338720703125,-0.5007979273796082,-0.3827517330646515,-0.04005204141139984
1684200271732413000,4.463412841796875,-0.5064555406570435,-0.3478888273239136,-0.004799243062734604
1684200271742438100,4.473438232421875,-0.5112308859825134,-0.33279961347579956,0.009681201539933681
1684200271752463000,4.483463134765625,-0.49657490849494934,-0.31813278794288635,0.010224486701190472
1684200271762488000,4.493488037109375,-0.45217710733413696,-0.2623177170753479,0.004501314368098974
1684200271772513000,4.503512939453125,-0.422101229429245,-0.17383579909801483,-0.020619217306375504
1684200271782538200,4.513538330078125,-0.3865286111831665,-0.013854128308594227,-0.03489561006426811
1684200271792564200,4.523564208984375,-0.3256641924381256,0.19364312291145325,-0.020526790991425514
1684200271802589200,4.533589111328125,-0.24606573581695557,0.36972710490226746,0.011168577708303928
1684200271812614100,4.5436142578125,-0.15893325209617615,0.4298713803291321,0.05754433199763298
1684200271822639000,4.55363916015625,-0.06256011128425598,0.2920364439487457,0.09875914454460144
1684200271832664300,4.563664306640625,0.025112485513091087,0.019663255661725998,0.11571202427148819
1684200271842689300,4.573689208984375,0.06888765841722488,-0.31928402185440063,0.057564910501241684
1684200271852715300,4.58371533203125,0.05563230812549591,-0.637913703918457,-0.08079775422811508
1684200271862740200,4.593740234375,0.024690909311175346,-0.8572555184364319,-0.29225999116897583
1684200271872765200,4.60376513671875,-0.03703104332089424,-0.9611766338348389,-0.5649282336235046
1684200271882790100,4.6137900390625,-0.10443457961082458,-0.9584869742393494,-0.8784846663475037
1684200271892815000,4.623815185546875,-0.16919121146202087,-0.9072943329811096,-1.1976836919784546
1684200271902840000,4.633840087890625,-0.27179640531539917,-0.8648375868797302,-1.4777575731277466
1684200271912866000,4.643865966796875,-0.3564409911632538,-0.7437806725502014,-1.6370888948440552
1684200271922891300,4.653891357421875,-0.3200443685054779,-0.41307270526885986,-1.673593521118164
1684200271932916200,4.663916259765625,-0.2883948087692261,-0.08942513167858124,-1.6787374019622803
1684200271942941200,4.673941162109375,-0.43110617995262146,0.1150231584906578,-1.707923173904419
1684200271952966100,4.683966064453125,-0.536304235458374,0.27996790409088135,-1.642927646636963
1684200271962991400,4.693991455078125,-0.264711856842041,0.5291076302528381,-1.4478204250335693
1684200271973017000,4.70401708984375,0.2867952287197113,0.8368404507637024,-1.3447829484939575
1684200271983042300,4.714042236328125,0.6712571382522583,1.0750811100006104,-1.502139925956726
1684200271993067300,4.7240673828125,0.7602897882461548,1.2489348649978638,-1.8593372106552124
1684200272003092000,4.734092041015625,0.7862915992736816,1.4929488897323608,-2.0938334465026855
1684200272013117200,4.7441171875,0.8648604154586792,1.9004697799682617,-1.9592877626419067
1684200272023142100,4.75414208984375,0.9213364720344543,1.9925600290298462,-1.5339592695236206
1684200272033168100,4.764168212890625,0.9822227358818054,1.4363160133361816,-1.160852074623108
1684200272043192600,4.774192626953125,1.0690962076187134,0.9167873859405518,-1.0044810771942139
1684200272053217500,4.784217529296875,1.2027655839920044,0.8330027461051941,-0.976676881313324
1684200272063242800,4.79424267578125,1.3395977020263672,1.0712528228759766,-0.9782005548477173
1684200272073267700,4.804267822265625,1.415971279144287,1.2796838283538818,-1.0276037454605103
1684200272083292700,4.814292724609375,1.462013840675354,1.409807801246643,-0.9870585203170776
1684200272093318700,4.824318603515625,1.4850866794586182,1.5593661069869995,-0.7907089591026306
1684200272103343600,4.834343505859375,1.4709391593933105,1.6497935056686401,-0.6190195083618164
1684200272113368800,4.844368896484375,1.4488661289215088,1.741187334060669,-0.49684348702430725
1684200272123393800,4.854393798828125,1.424851655960083,1.8622987270355225,-0.36118435859680176
1684200272133418500,4.86441845703125,1.3908345699310303,1.978277564048767,-0.23606236279010773
1684200272143443700,4.874443603515625,1.360063076019287,1.9851113557815552,-0.1638227254152298
1684200272153469400,4.884469482421875,1.3753373622894287,1.8135815858840942,-0.16347678005695343
1684200272163494700,4.89449462890625,1.4057495594024658,1.5262513160705566,-0.18040862679481506
1684200272173519600,4.90451953125,1.45391047000885,1.4502297639846802,-0.156934455037117
1684200272183544600,4.914544677734375,1.4859964847564697,1.5391545295715332,-0.15825125575065613
1684200272193569500,4.924569580078125,1.4598098993301392,1.7375714778900146,-0.14982476830482483
1684200272203594800,4.9345947265625,1.3643083572387695,1.9276344776153564,-0.07951061427593231
1684200272213620700,4.944620849609375,1.2148808240890503,1.930962324142456,-0.008759742602705956
1684200272223645700,4.954645751953125,1.0557992458343506,1.8409172296524048,0.08040214329957962
1684200272233670700,4.964670654296875,0.9514280557632446,1.7347569465637207,0.16664116084575653
1684200272243695600,4.974695556640625,0.9093860983848572,1.5923293828964233,0.19191844761371613
1684200272253720800,4.984720947265625,0.9237378239631653,1.4067946672439575,0.16204975545406342
1684200272263745500,4.99474560546875,0.9406124353408813,1.1701667308807373,0.12377127259969711
1684200272273771800,5.004771728515625,0.9045178294181824,0.9653693437576294,0.14243283867835999
1684200272283796500,5.01479638671875,0.8005163073539734,0.7670511603355408,0.20253421366214752
1684200272293821700,5.02482177734375,0.6721218824386597,0.5634468793869019,0.27516207098960876
1684200272303846700,5.0348466796875,0.5417404174804688,0.39913710951805115,0.3650924861431122
1684200272313871600,5.04487158203125,0.40211063623428345,0.23895332217216492,0.4167402386665344
1684200272323896600,5.054896484375,0.32325178384780884,0.12698283791542053,0.4596455693244934
1684200272333922600,5.064922607421875,0.33174192905426025,-0.01007888000458479,0.4730990529060364
1684200272343947800,5.07494775390625,0.38540810346603394,-0.08305282890796661,0.5226896405220032
1684200272353972700,5.08497265625,0.4140589237213135,-0.06420963257551193,0.649793803691864
1684200272363997700,5.094997802734375,0.33134061098098755,0.05859881266951561,0.8047062754631042
1684200272374022700,5.105022705078125,0.16707202792167664,0.22731539607048035,0.9709567427635193
1684200272384047900,5.1150478515625,-0.019964974373579025,0.3300146460533142,1.1188979148864746
1684200272394073600,5.125073486328125,-0.16425397992134094,0.30392658710479736,1.1913294792175293
1684200272404098800,5.135098876953125,-0.2279980629682541,0.15112490952014923,1.2051525115966797
1684200272414123800,5.145123779296875,-0.24053409695625305,-0.11807860434055328,1.173056960105896
1684200272424148500,5.1551484375,-0.2254539430141449,-0.4414207339286804,1.102092981338501
1684200272434173700,5.165173583984375,-0.18094933032989502,-0.7604135870933533,1.0115461349487305
1684200272444199700,5.17519970703125,-0.16501402854919434,-1.017960786819458,0.9058639407157898
1684200272454224600,5.185224609375,-0.19822125136852264,-1.2038187980651855,0.8129752278327942
1684200272464249600,5.19524951171875,-0.29078420996665955,-1.3624893426895142,0.7627381086349487
1684200272474274600,5.205274658203125,-0.42154061794281006,-1.5453557968139648,0.7472744584083557
1684200272484299800,5.2152998046875,-0.5451694130897522,-1.677823781967163,0.7531160116195679
1684200272494324700,5.22532470703125,-0.6327767372131348,-1.7062532901763916,0.7606865763664246
1684200272504350700,5.235350830078125,-0.6890144348144531,-1.656913161277771,0.7561196088790894
1684200272514375700,5.245375732421875,-0.7119341492652893,-1.5240418910980225,0.7399630546569824
1684200272524400600,5.255400634765625,-0.7323368787765503,-1.353864312171936,0.7314327359199524
1684200272534425900,5.26542578125,-0.7836911678314209,-1.2361997365951538,0.7687199115753174
1684200272544450800,5.275450927734375,-0.8577214479446411,-1.195576786994934,0.8276420831680298
1684200272554475500,5.2854755859375,-0.915561318397522,-1.162534475326538,0.8480954170227051
1684200272564501800,5.295501708984375,-0.9224429130554199,-1.1366137266159058,0.8183463215827942
1684200272574526500,5.3055263671875,-0.9024436473846436,-1.089007019996643,0.7791715264320374
1684200272584551700,5.3155517578125,-0.8908868432044983,-1.0931789875030518,0.7461250424385071
1684200272594576600,5.32557666015625,-0.8718399405479431,-1.1684976816177368,0.7299562096595764
1684200272604601600,5.3356015625,-0.8554058074951172,-1.2926656007766724,0.7397101521492004
1684200272614627600,5.345627685546875,-0.8418124914169312,-1.423677921295166,0.7708736658096313
1684200272624652500,5.355652587890625,-0.8343846797943115,-1.5337101221084595,0.7953283786773682
1684200272634677800,5.365677734375,-0.8271123766899109,-1.5932037830352783,0.7986543774604797
1684200272644702700,5.37570263671875,-0.8301841020584106,-1.55469810962677,0.7963148355484009
1684200272654727700,5.385727783203125,-0.8386873006820679,-1.4417026042938232,0.7683138251304626
1684200272664752600,5.395752685546875,-0.8218518495559692,-1.2614414691925049,0.716900646686554
1684200272674778600,5.405778564453125,-0.7877883911132812,-1.0842736959457397,0.6240620613098145
1684200272684803800,5.415803955078125,-0.7475517988204956,-0.9116926789283752,0.4490916132926941
1684200272694828800,5.425828857421875,-0.6676761507987976,-0.638846218585968,0.198965921998024
1684200272704853800,5.435853759765625,-0.5027177333831787,-0.256294846534729,-0.036016613245010376
1684200272714878500,5.44587841796875,-0.26522770524024963,-0.001928616431541741,-0.0654410794377327
1684200272724903700,5.455903564453125,-0.09500539302825928,-0.08911104500293732,0.13121527433395386
1684200272734929700,5.4659296875,-0.05163901671767235,-0.3286117911338806,0.3895813226699829
1684200272744954600,5.47595458984375,-0.1376788169145584,-0.48754027485847473,0.5960226655006409
1684200272754979600,5.4859794921875,-0.3031793534755707,-0.4533860385417938,0.7089170217514038
1684200272765004500,5.496004638671875,-0.4323999285697937,-0.2522869110107422,0.7166750431060791
1684200272775029800,5.50602978515625,-0.4910328984260559,0.0666029304265976,0.6776975393295288
1684200272785054700,5.5160546875,-0.5504088997840881,0.387429416179657,0.636542797088623
1684200272795080700,5.526080810546875,-0.6566847562789917,0.5842812657356262,0.5767889618873596
1684200272805105700,5.536105712890625,-0.7589977979660034,0.6355864405632019,0.4867163896560669
1684200272815130600,5.546130615234375,-0.7971715331077576,0.4620486795902252,0.3542933762073517
1684200272825155800,5.55615576171875,-0.7576997876167297,0.0693943202495575,0.2196645885705948
1684200272835180800,5.566180908203125,-0.6542918682098389,-0.44920966029167175,0.1175515279173851
1684200272845206800,5.576206787109375,-0.5337910056114197,-0.9552110433578491,0.05034245550632477
1684200272855231700,5.586231689453125,-0.4415542781352997,-1.336411952972412,0.0059129404835402966
1684200272865256400,5.59625634765625,-0.3982691168785095,-1.5156409740447998,-0.017258048057556152
1684200272875281700,5.60628173828125,-0.37024733424186707,-1.4540791511535645,-0.04776935279369354
1684200272885306600,5.616306640625,-0.3357407748699188,-1.2092427015304565,-0.10176648199558258
1684200272895331600,5.62633154296875,-0.2895255982875824,-0.8718830943107605,-0.16777798533439636
1684200272905357600,5.636357666015625,-0.25758498907089233,-0.5086578130722046,-0.24000313878059387
1684200272915382500,5.646382568359375,-0.2425096184015274,-0.17164252698421478,-0.29519158601760864
1684200272925407700,5.65640771484375,-0.23980198800563812,0.09084350615739822,-0.32775989174842834
1684200272935432700,5.6664326171875,-0.22183124721050262,0.2998310625553131,-0.33390113711357117
1684200272945457700,5.676457763671875,-0.18992950022220612,0.43896543979644775,-0.3172435164451599
1684200272955483600,5.686483642578125,-0.16036096215248108,0.5480815768241882,-0.27445876598358154
1684200272965508600,5.696508544921875,-0.1726732850074768,0.6826342940330505,-0.22973673045635223
1684200272975533800,5.706533935546875,-0.21034635603427887,0.8894293308258057,-0.16774341464042664
1684200272985558800,5.716558837890625,-0.2201494574546814,0.9817705154418945,-0.0920642539858818
1684200272995583700,5.726583740234375,-0.1844356656074524,0.8753071427345276,0.006893489044159651
1684200273005608400,5.7366083984375,-0.09251187741756439,0.6682962775230408,0.1185065433382988
1684200273015634700,5.746634765625,-0.012011975049972534,0.42241379618644714,0.22757096588611603
1684200273025659600,5.75665966796875,0.003604541067034006,0.1393006294965744,0.3135041892528534
1684200273035684600,5.7666845703125,0.006220297887921333,-0.11358807981014252,0.38866180181503296
1684200273045710000,5.7767099609375,0.01998111791908741,-0.35642901062965393,0.43426409363746643
1684200273055735000,5.786735107421875,0.05783262848854065,-0.6034215092658997,0.44954317808151245
1684200273065760000,5.796760009765625,0.12420472502708435,-0.8191995024681091,0.4139213263988495
1684200273075786200,5.8067861328125,0.15563935041427612,-0.9450809955596924,0.32020923495292664
1684200273085811000,5.81681103515625,0.15650807321071625,-0.9387125968933105,0.1812014877796173
1684200273095836000,5.8268359375,0.15768305957317352,-0.7460762858390808,0.03217073157429695
1684200273105860900,5.83686083984375,0.16025620698928833,-0.3713756501674652,-0.0750524029135704
1684200273115886000,5.846885986328125,0.1490219235420227,0.011334698647260666,-0.12532010674476624
1684200273125912000,5.856912109375,0.11830875277519226,0.2983255684375763,-0.0881296694278717
1684200273135937000,5.86693701171875,0.08928696066141129,0.40700411796569824,0.035648733377456665
1684200273145962000,5.8769619140625,0.0750076174736023,0.27772367000579834,0.17851151525974274
1684200273155987000,5.886987060546875,0.06119220703840256,0.017583703622221947,0.2895946204662323
1684200273166012200,5.89701220703125,0.04514692723751068,-0.2339617758989334,0.34467536211013794
1684200273176038100,5.9070380859375,0.044204700738191605,-0.35743552446365356,0.36313825845718384
1684200273186063000,5.91706298828125,0.05324852466583252,-0.3102146089076996,0.3139377534389496
1684200273196088000,5.927088134765625,0.04728890210390091,-0.11476626247167587,0.20964545011520386
1684200273206113000,5.937113037109375,0.036079660058021545,0.12306839972734451,0.09354732930660248
1684200273216138000,5.947137939453125,0.02063492313027382,0.28000062704086304,0.010331427678465843
1684200273226163000,5.957162841796875,0.04037027806043625,0.26143163442611694,-0.04626842960715294
1684200273236189000,5.96718896484375,0.06705354899168015,0.0694454088807106,-0.10908254235982895
1684200273246214000,5.9772138671875,0.06575526297092438,-0.1534181386232376,-0.16587865352630615
1684200273256238800,5.98723876953125,0.059668343514204025,-0.30204087495803833,-0.19154806435108185
1684200273266264000,5.99726416015625,0.04867534339427948,-0.3271287679672241,-0.17485719919204712
1684200273276289000,6.0072890625,0.03899741917848587,-0.25645965337753296,-0.12814030051231384
1684200273286314000,6.01731396484375,0.0075122034177184105,-0.18712924420833588,-0.09466825425624847
1684200273296340000,6.027340087890625,-0.03753197193145752,-0.14295059442520142,-0.09509249776601791
1684200273306365000,6.037364990234375,-0.07174773514270782,-0.12383580207824707,-0.13030047714710236
1684200273316390100,6.04739013671875,-0.08926760405302048,-0.10874686390161514,-0.16179262101650238
1684200273326415000,6.0574150390625,-0.0927603468298912,-0.11030564457178116,-0.17471769452095032
1684200273336440000,6.067440185546875,-0.07494460046291351,-0.13459447026252747,-0.16367729008197784
1684200273346466000,6.077466064453125,-0.051038991659879684,-0.20120365917682648,-0.13594681024551392
1684200273356491000,6.087490966796875,-0.020356178283691406,-0.31967997550964355,-0.09614265710115433
1684200273366516200,6.09751611328125,0.003908676095306873,-0.4535629153251648,-0.06954238563776016
1684200273376541000,6.107541015625,-0.00013693165965378284,-0.5287505984306335,-0.060652486979961395
1684200273386566000,6.11756591796875,-0.058257490396499634,-0.5417645573616028,-0.10449980944395065
1684200273396590800,6.1275908203125,-0.10272534936666489,-0.47068771719932556,-0.19825826585292816
1684200273406616800,6.137616943359375,-0.1279851794242859,-0.3056347966194153,-0.28839051723480225
1684200273416642000,6.14764208984375,-0.13786843419075012,-0.11971098929643631,-0.3505321741104126
1684200273426667000,6.1576669921875,-0.14775115251541138,0.001919598551467061,-0.36230695247650146
1684200273436692000,6.16769189453125,-0.17112332582473755,0.030515823513269424,-0.3270874619483948
1684200273446717000,6.177717041015625,-0.20900732278823853,-0.010295247659087181,-0.2518654465675354
1684200273456743000,6.187742919921875,-0.23982195556163788,-0.10146404057741165,-0.16383066773414612
1684200273466768100,6.19776806640625,-0.2537689208984375,-0.23017233610153198,-0.09909576922655106
1684200273476793000,6.20779296875,-0.2555750906467438,-0.3561244010925293,-0.07313234359025955
1684200273486818000,6.217818115234375,-0.25443074107170105,-0.4497104287147522,-0.07179763913154602
1684200273496843000,6.227843017578125,-0.2605155110359192,-0.5142505764961243,-0.08358345925807953
1684200273506869000,6.237868896484375,-0.26586875319480896,-0.5332701206207275,-0.08765915036201477
1684200273516894200,6.247894287109375,-0.2765325605869293,-0.5052142143249512,-0.08230247348546982
1684200273526919000,6.2579189453125,-0.2924444377422333,-0.4429914355278015,-0.06463237851858139
1684200273536943900,6.26794384765625,-0.31024178862571716,-0.40938422083854675,-0.033683788031339645
1684200273546968800,6.27796875,-0.3061668872833252,-0.4243105351924896,0.0006321221590042114
1684200273556994000,6.287994140625,-0.28974103927612305,-0.5017568469047546,0.02174513041973114
1684200273567020000,6.29802001953125,-0.268964946269989,-0.6016804575920105,0.02522270195186138
1684200273577045000,6.308044921875,-0.24004912376403809,-0.6899331212043762,0.02744217962026596
1684200273587070000,6.318070068359375,-0.21470382809638977,-0.7273036241531372,0.026885084807872772
1684200273597095000,6.328094970703125,-0.21784448623657227,-0.6888137459754944,0.0244046151638031
1684200273607120100,6.3381201171875,-0.24230508506298065,-0.6261980533599854,0.008767066523432732
1684200273617146000,6.34814599609375,-0.27717065811157227,-0.5847797393798828,-0.034599848091602325
1684200273627171000,6.358171142578125,-0.304013729095459,-0.5333430767059326,-0.10149284452199936
1684200273637196000,6.368196044921875,-0.31210947036743164,-0.41536474227905273,-0.19177506864070892
1684200273647221000,6.378220947265625,-0.2854275405406952,-0.28002339601516724,-0.2546215057373047
1684200273657246200,6.38824609375,-0.24620608985424042,-0.21314314007759094,-0.2746061384677887
1684200273667271000,6.39827099609375,-0.21583540737628937,-0.25252270698547363,-0.24697773158550262
1684200273677297200,6.408297119140625,-0.19364914298057556,-0.3349491357803345,-0.20559141039848328
1684200273687321900,6.41832177734375,-0.17702089250087738,-0.3614233434200287,-0.18616020679473877
1684200273697346800,6.428346923828125,-0.17444641888141632,-0.25480660796165466,-0.19998255372047424
1684200273707372000,6.4383720703125,-0.1380884051322937,-0.04044905677437782,-0.22461728751659393
1684200273717397000,6.44839697265625,-0.04975321516394615,0.2179635912179947,-0.24444958567619324
1684200273727423000,6.458423095703125,0.06932896375656128,0.43918806314468384,-0.22687631845474243
1684200273737448000,6.468447998046875,0.1746188998222351,0.47921591997146606,-0.15364791452884674
1684200273747473000,6.478472900390625,0.2397686094045639,0.21732135117053986,0.010554932057857513
1684200273757498000,6.488498046875,0.2925223708152771,-0.20575453341007233,0.22651918232440948
1684200273767523000,6.498523193359375,0.29014894366264343,-0.5873531699180603,0.3700879216194153
1684200273777548000,6.508548095703125,0.23607586324214935,-0.8465397357940674,0.37591251730918884
1684200273787574000,6.518573974609375,0.1812262088060379,-0.8693907856941223,0.21773624420166016
1684200273797599000,6.528598876953125,0.1501162201166153,-0.5033568739891052,-0.13684207201004028
1684200273807624200,6.538624267578125,0.12803035974502563,0.16997882723808289,-0.7111286520957947
1684200273817649000,6.54864892578125,0.13240620493888855,0.8505882620811462,-1.3956298828125
1684200273827673900,6.558673828125,0.1674555242061615,1.1536861658096313,-1.9241262674331665
1684200273837699800,6.568699951171875,0.20861734449863434,1.044188141822815,-2.190234422683716
1684200273847724800,6.578724853515625,0.2768097221851349,0.7841807007789612,-2.24957013130188
1684200273857750000,6.58875,0.37663671374320984,0.7157760858535767,-2.174454689025879
1684200273867775000,6.59877490234375,0.4917963147163391,0.863885223865509,-2.067225217819214
1684200273877800000,6.608800048828125,0.5918424725532532,1.0786598920822144,-1.9868218898773193
1684200273887826000,6.618825927734375,0.6627683639526367,1.2570475339889526,-1.8919949531555176
1684200273897851000,6.628850830078125,0.7203831672668457,1.3826783895492554,-1.73966646194458
1684200273907876000,6.6388759765625,0.7440786361694336,1.569698691368103,-1.4428651332855225
1684200273917901000,6.648901123046875,0.7051187753677368,1.5512837171554565,-1.0852370262145996
1684200273927926000,6.658926025390625,0.6423214077949524,1.37127685546875,-0.6635081768035889
1684200273937951000,6.668950927734375,0.5872829556465149,1.1246514320373535,-0.18689024448394775
1684200273947977000,6.67897705078125,0.5899582505226135,0.8780422806739807,0.26510655879974365
1684200273958002200,6.689002197265625,0.6688475012779236,0.6967135071754456,0.5902090072631836
1684200273968027100,6.699027099609375,0.8056557178497314,0.6846713423728943,0.7464698553085327
1684200273978051800,6.7090517578125,0.9553741216659546,0.9775189161300659,0.7704132795333862
1684200273988076800,6.719076904296875,1.101559042930603,1.42903470993042,0.7094445824623108
1684200273998102800,6.729102783203125,1.2193660736083984,1.841298222541809,0.6482864618301392
1684200274008128000,6.7391279296875,1.3033733367919922,2.1464812755584717,0.6479315161705017
1684200274018153000,6.749153076171875,1.3550533056259155,2.3074898719787598,0.7337912917137146
1684200274028178000,6.759177978515625,1.3607261180877686,2.372046709060669,0.916574239730835
1684200274038203000,6.769202880859375,1.3218733072280884,2.363180637359619,1.1219532489776611
1684200274048228900,6.779228759765625,1.2566924095153809,2.346125602722168,1.3248655796051025
1684200274058253600,6.789253662109375,1.181502103805542,2.32599139213562,1.4581389427185059
1684200274068278500,6.799278564453125,1.1142641305923462,2.4064815044403076,1.5727484226226807
1684200274078303500,6.809303466796875,1.072858452796936,2.5110294818878174,1.674187183380127
1684200274088328700,6.81932861328125,1.0481029748916626,2.5481534004211426,1.7508248090744019
1684200274098354700,6.829354736328125,1.0099438428878784,2.516502618789673,1.81700599193573
1684200274108379600,6.839379638671875,0.9650334119796753,2.392720937728882,1.8418902158737183
1684200274118404600,6.849404541015625,0.9391579031944275,2.22798228263855,1.8066142797470093
1684200274128429600,6.8594296875,0.9233477115631104,2.1114871501922607,1.762037992477417
1684200274138454800,6.869454833984375,0.9032363295555115,2.031109094619751,1.7301242351531982
1684200274148479700,6.879479736328125,0.8722068071365356,1.9842122793197632,1.720654845237732
1684200274158505700,6.889505615234375,0.8507694005966187,1.951339840888977,1.7351536750793457
1684200274168530700,6.89953076171875,0.8320319056510925,1.8616738319396973,1.7907450199127197
1684200274178555600,6.9095556640625,0.7595797777175903,1.6808267831802368,1.8741952180862427
1684200274188580600,6.91958056640625,0.6695231795310974,1.5696324110031128,1.973003625869751
1684200274198605600,6.92960546875,0.5946596264839172,1.559698224067688,2.0395705699920654
1684200274208631600,6.939631591796875,0.5301333665847778,1.651037335395813,2.058408260345459
1684200274218656500,6.949656494140625,0.47585490345954895,1.788818359375,2.065945863723755
1684200274228681500,6.959681396484375,0.430983304977417,1.9094444513320923,2.0950262546539307
1684200274238706700,6.969706787109375,0.38532474637031555,1.9830211400985718,2.1421310901641846
1684200274248731600,6.979731689453125,0.3236467242240906,2.0204873085021973,2.179307699203491
1684200274258757600,6.989757568359375,0.24485817551612854,2.044278860092163,2.16459059715271
1684200274268782600,6.999782470703125,0.16973574459552765,2.0565073490142822,2.1131649017333984
1684200274278807600,7.0098076171875,0.08175980299711227,2.060178756713867,2.0398919582366943
1684200274288832800,7.019832763671875,-0.004910113289952278,2.0771279335021973,1.9341596364974976
1684200274298857700,7.029857666015625,-0.07199274748563766,2.1460816860198975,1.7965158224105835
1684200274308882700,7.039882568359375,-0.1218644231557846,2.248866319656372,1.6093937158584595
1684200274318908700,7.04990869140625,-0.14740733802318573,2.370656967163086,1.4134268760681152
1684200274328933600,7.05993359375,-0.15678539872169495,2.443396806716919,1.248033046722412
1684200274338958800,7.069958740234375,-0.15066544711589813,2.5173544883728027,1.174231767654419
1684200274348983600,7.079983642578125,-0.13354292511940002,2.600273370742798,1.1875039339065552
1684200274359008500,7.090008544921875,-0.10922612994909286,2.658482789993286,1.2483869791030884
1684200274369034500,7.100034423828125,-0.0905698910355568,2.6278610229492188,1.319048523902893
1684200274379059500,7.1100595703125,-0.05908839777112007,2.5478174686431885,1.402796745300293
1684200274389084700,7.120084716796875,-0.019490385428071022,2.4382824897766113,1.4776861667633057
1684200274399109600,7.130109619140625,-0.007082186173647642,2.2967395782470703,1.5345345735549927
1684200274409134600,7.140134521484375,-0.02621699869632721,2.152297019958496,1.5931651592254639
1684200274419160600,7.15016064453125,-0.05887161195278168,2.050706386566162,1.68119478225708
1684200274429185500,7.160185546875,-0.08121607452630997,1.978521704673767,1.8041815757751465
1684200274439210800,7.170210693359375,-0.08352849632501602,1.8967887163162231,1.938638687133789
1684200274449235700,7.180235595703125,-0.08604331314563751,1.7777973413467407,2.0558066368103027
1684200274459260700,7.1902607421875,-0.11489333212375641,1.6522541046142578,2.144514799118042
1684200274469286700,7.20028662109375,-0.14308449625968933,1.560446858406067,2.206433057785034
1684200274479311600,7.2103115234375,-0.14904704689979553,1.5124691724777222,2.2665607929229736
1684200274489336800,7.2203369140625,-0.12407699227333069,1.4888216257095337,2.330092668533325
1684200274499361500,7.230361572265625,-0.07268969714641571,1.487468957901001,2.367469310760498
1684200274509386500,7.240386474609375,0.028935473412275314,1.5422463417053223,2.2938454151153564
1684200274519411500,7.250411376953125,0.1264961212873459,1.5806642770767212,2.162637710571289
1684200274529437400,7.2604375,0.15151943266391754,1.5564533472061157,2.107224941253662
1684200274539462700,7.270462646484375,0.13609521090984344,1.5357128381729126,2.0948941707611084
1684200274549487600,7.280487548828125,0.07996536791324615,1.6238958835601807,2.0444509983062744
1684200274559512600,7.2905126953125,-0.01580989547073841,1.682010531425476,1.9150855541229248
1684200274569537500,7.30053759765625,-0.08317641913890839,1.6676212549209595,1.767145037651062
1684200274579563500,7.3105634765625,-0.0740220695734024,1.753338098526001,1.6174393892288208
1684200274589588700,7.320588623046875,0.09272857010364532,2.022404909133911,1.3729815483093262
1684200274599613700,7.33061376953125,0.34597495198249817,2.3505640029907227,0.7652466297149658
1684200274609638700,7.340638671875,0.3790804147720337,1.4828864336013794,0.666524350643158
1684200274619663600,7.35066357421875,0.33398059010505676,0.6755412220954895,0.8603630661964417
1684200274629689600,7.360689697265625,0.24697352945804596,0.6623569130897522,1.0490864515304565
1684200274639714800,7.37071484375,0.0610973984003067,1.2411142587661743,1.1322335004806519
1684200274649739500,7.380739501953125,-0.1989016979932785,2.026054859161377,1.1379491090774536
1684200274659764500,7.390764404296875,-0.4263646900653839,2.7313342094421387,1.0967801809310913
1684200274669789400,7.40078955078125,-0.5582054853439331,3.185742139816284,1.0538192987442017
1684200274679815400,7.4108154296875,-0.5822471976280212,3.450052261352539,1.078892469406128
1684200274689840600,7.420840576171875,-0.5218639969825745,3.488990068435669,1.2186410427093506
1684200274699865600,7.430865478515625,-0.45766401290893555,3.1349244117736816,1.4847060441970825
1684200274709890600,7.440890625,-0.41320252418518066,2.355133295059204,1.8290265798568726
1684200274719915500,7.45091552734375,-0.38040438294410706,1.5278841257095337,2.1403863430023193
1684200274729941500,7.46094140625,-0.37197598814964294,1.1862297058105469,2.300098419189453
1684200274739966700,7.470966796875,-0.384782612323761,1.2910189628601074,2.314328908920288
1684200274749991700,7.48099169921875,-0.3887680172920227,1.5942455530166626,2.222095012664795
1684200274760016600,7.4910166015625,-0.3810912072658539,2.002666473388672,2.0830202102661133
1684200274770041600,7.50104150390625,-0.3704145848751068,2.3690497875213623,1.9287502765655518
1684200274780067600,7.511067626953125,-0.3555064797401428,2.628037214279175,1.8028459548950195
1684200274790092800,7.5210927734375,-0.33310583233833313,2.8170738220214844,1.7307288646697998
1684200274800117800,7.53111767578125,-0.3091517686843872,2.9163267612457275,1.6958329677581787
1684200274810142500,7.541142578125,-0.2990485429763794,2.9640989303588867,1.67366623878479
1684200274820167400,7.55116748046875,-0.2832280099391937,3.0352752208709717,1.6498842239379883
1684200274830193400,7.561193359375,-0.2550371289253235,3.1439976692199707,1.594613790512085
1684200274840218600,7.571218505859375,-0.21868258714675903,3.2379729747772217,1.526153326034546
1684200274850243600,7.58124365234375,-0.16486090421676636,3.2274961471557617,1.45220947265625
1684200274860268500,7.5912685546875,-0.10581834614276886,3.106343984603882,1.3871004581451416
1684200274870293500,7.60129345703125,-0.042617809027433395,2.8746657371520996,1.3355716466903687
1684200274880318700,7.611318603515625,0.015119791030883789,2.559307098388672,1.3202462196350098
1684200274890344700,7.6213447265625,0.07482998818159103,2.2187113761901855,1.342759132385254
1684200274900369700,7.63136962890625,0.12046032398939133,1.9305847883224487,1.389304280281067
1684200274910394600,7.64139453125,0.1398201733827591,1.813509464263916,1.4157243967056274
1684200274920419600,7.651419677734375,0.10812057554721832,1.9334694147109985,1.391337275505066
1684200274930444800,7.66144482421875,0.045113641768693924,2.1238887310028076,1.3387352228164673
1684200274940470800,7.671470703125,-0.02313997969031334,2.234137535095215,1.2987306118011475
1684200274950495700,7.681495849609375,-0.10361670702695847,2.304734230041504,1.2875723838806152
1684200274960520400,7.6915205078125,-0.17358355224132538,2.3626503944396973,1.3128271102905273
1684200274970545400,7.70154541015625,-0.24048028886318207,2.3890790939331055,1.3786051273345947
1684200274980570600,7.711570556640625,-0.2912619709968567,2.3842098712921143,1.4566922187805176
1684200274990596600,7.7215966796875,-0.32413071393966675,2.4040451049804688,1.5032942295074463
1684200275000621600,7.73162158203125,-0.3538089692592621,2.446108818054199,1.5124480724334717
1684200275010646500,7.741646484375,-0.3671053349971771,2.4389359951019287,1.5069037675857544
1684200275020671500,7.75167138671875,-0.3662523329257965,2.384284019470215,1.4997233152389526
1684200275030696700,7.76169677734375,-0.3512829840183258,2.3634002208709717,1.5032074451446533
1684200275040723200,7.77172314453125,-0.3218609094619751,2.4637978076934814,1.5084631443023682
1684200275050748400,7.78174853515625,-0.26577261090278625,2.59429931640625,1.4877431392669678
1684200275060773000,7.791773193359375,-0.1934880167245865,2.591181755065918,1.452413558959961
1684200275070798000,7.801798095703125,-0.15625809133052826,2.4491024017333984,1.3643980026245117
1684200275080823300,7.8118232421875,-0.15990768373012543,2.2623910903930664,1.204367756843567
1684200275090849300,7.821849365234375,-0.16563427448272705,2.017714500427246,0.9789637327194214
1684200275100874200,7.831874267578125,-0.16931581497192383,1.6527445316314697,0.6942960023880005
1684200275110899200,7.841899169921875,-0.16022033989429474,1.3121107816696167,0.3538462817668915
1684200275120924200,7.851924072265625,-0.1550207883119583,1.1468172073364258,-0.04996243119239807
1684200275130949400,7.861949462890625,-0.17182187736034393,1.151858925819397,-0.5129760503768921
1684200275140975400,7.871975341796875,-0.21364788711071014,1.1210075616836548,-0.9297878742218018
1684200275151000300,7.882000244140625,-0.2489589899778366,1.0272856950759888,-1.1410738229751587
1684200275161025300,7.892025390625,-0.2219606637954712,1.031016230583191,-1.0959769487380981
1684200275171050200,7.90205029296875,-0.10693315416574478,1.222265362739563,-0.915442943572998
1684200275181075500,7.912075439453125,0.04573602229356766,1.5809435844421387,-0.6544936299324036
1684200275191101400,7.922101318359375,0.2290824055671692,1.5140290260314941,-0.40423429012298584
1684200275201126400,7.93212646484375,0.3699615001678467,0.8624288439750671,-0.18645134568214417
1684200275211151400,7.9421513671875,0.5051137804985046,0.2600717842578888,0.05803130194544792
1684200275221176000,7.952176025390625,0.5795935988426208,-0.10737784951925278,0.2893361747264862
1684200275231201300,7.962201171875,0.5789583921432495,-0.1250874549150467,0.3999859690666199
1684200275241227300,7.972227294921875,0.5547841191291809,0.15128129720687866,0.29626089334487915
1684200275251252200,7.982252197265625,0.533336877822876,0.49814411997795105,0.058535922318696976
1684200275261277200,7.992277099609375,0.5030138492584229,0.7739701271057129,-0.1704072505235672
1684200275271302100,8.00230224609375,0.4601297378540039,0.9027037620544434,-0.3201539218425751
1684200275281327400,8.012327392578126,0.4286029636859894,0.8364142179489136,-0.37870219349861145
1684200275291353300,8.022353271484375,0.3899080455303192,0.6375041007995605,-0.3834322392940521
1684200275301378300,8.03237841796875,0.3409367799758911,0.3233458399772644,-0.36914756894111633
1684200275311403300,8.0424033203125,0.32674291729927063,0.03221313655376434,-0.35559484362602234
1684200275321428200,8.05242822265625,0.36052191257476807,-0.18018540740013123,-0.3739727735519409
1684200275331453400,8.062453369140625,0.44097548723220825,-0.3286769986152649,-0.41199904680252075
1684200275341479400,8.0724794921875,0.5206642150878906,-0.40341702103614807,-0.4733864963054657
1684200275351504400,8.08250439453125,0.5878051519393921,-0.46155357360839844,-0.5172600150108337
1684200275361529300,8.092529296875,0.6493902206420898,-0.5104761123657227,-0.5124232172966003
1684200275371554000,8.102553955078125,0.6994971036911011,-0.5293241739273071,-0.4021944999694824
1684200275381579300,8.112579345703125,0.7463253140449524,-0.5204558372497559,-0.21105197072029114
1684200275391604200,8.122604248046875,0.7478925585746765,-0.4384036660194397,-0.024553529918193817
1684200275401630200,8.132630126953124,0.7189376354217529,-0.2645338475704193,0.13731420040130615
1684200275411655200,8.1426552734375,0.7408913969993591,-0.04927852004766464,0.3129432499408722
1684200275421680000,8.15268017578125,0.8430758118629456,0.061773963272571564,0.44644060730934143
1684200275431705300,8.162705322265625,1.071616530418396,0.13848717510700226,0.45183122158050537
1684200275441731300,8.1727314453125,1.40878427028656,0.4155925214290619,0.32112327218055725
1684200275451756300,8.18275634765625,1.7286341190338135,0.8847581148147583,0.015731841325759888
1684200275461781200,8.19278125,1.864373803138733,1.4441367387771606,-0.285685271024704
1684200275471806200,8.20280615234375,1.641857385635376,1.6776617765426636,-0.4030136168003082
1684200275481831400,8.21283154296875,1.2799795866012573,1.5770334005355835,-0.2447236031293869
1684200275491856400,8.2228564453125,1.0658851861953735,1.3088949918746948,0.010909155011177063
1684200275501882400,8.23288232421875,0.9976363778114319,1.2070857286453247,0.19560763239860535
1684200275511907300,8.2429072265625,0.95669025182724,1.2480297088623047,0.19912181794643402
1684200275521932300,8.252932373046875,0.8732803463935852,1.265919804573059,0.09240121394395828
1684200275531957200,8.262957275390624,0.7572011351585388,1.2001608610153198,-0.016672521829605103
1684200275541982200,8.272982177734375,0.6356275677680969,1.0464848279953003,-0.09138510376214981
1684200275552008200,8.28300830078125,0.524215817451477,0.8818402290344238,-0.11587411165237427
1684200275562033200,8.293033203125,0.4241536259651184,0.735301673412323,-0.13183629512786865
1684200275572058000,8.30305810546875,0.37210747599601746,0.5972484350204468,-0.12706170976161957
1684200275582083300,8.313083251953126,0.3681492209434509,0.4629952907562256,-0.10513218492269516
1684200275592109300,8.323109375,0.39512890577316284,0.3547455072402954,-0.06775171309709549
1684200275602134300,8.33313427734375,0.39985573291778564,0.3231945037841797,-0.020070482045412064
1684200275612159200,8.3431591796875,0.35547149181365967,0.3384242355823517,-0.012564687058329582
1684200275622184200,8.35318408203125,0.313298761844635,0.43598994612693787,-0.001394590362906456
1684200275632209400,8.36320947265625,0.28763651847839355,0.5949503779411316,0.016600213944911957
1684200275642234400,8.373234375,0.262235552072525,0.67555171251297,0.028551682829856873
1684200275652260400,8.38326025390625,0.23234905302524567,0.6525859236717224,0.0773196592926979
1684200275662285300,8.393285400390624,0.1782999336719513,0.5231765508651733,0.14020276069641113
1684200275672310300,8.403310302734376,0.10992086678743362,0.3716237545013428,0.1950060874223709
1684200275682335200,8.413335205078125,0.03776039183139801,0.2693631649017334,0.23859483003616333
1684200275692360200,8.423360107421875,-0.022138094529509544,0.20865260064601898,0.275839239358902
1684200275702386200,8.43338623046875,-0.0695578083395958,0.15143698453903198,0.32575273513793945
1684200275712411100,8.4434111328125,-0.11003199964761734,0.13526621460914612,0.4096444845199585
1684200275722436000,8.45343603515625,-0.13058413565158844,0.15968021750450134,0.5021416544914246
1684200275732461300,8.46346142578125,-0.11476283520460129,0.11389283090829849,0.6182535886764526
1684200275742487300,8.4734873046875,-0.08416791260242462,-0.03705034404993057,0.7397627234458923
1684200275752512300,8.48351220703125,-0.066122867166996,-0.18045759201049805,0.7890885472297668
1684200275762537200,8.493537109375,-0.07127714902162552,-0.20507319271564484,0.7403298020362854
1684200275772562200,8.503562255859375,-0.09054645150899887,-0.11746744066476822,0.6681874394416809
1684200275782587400,8.51358740234375,-0.09205859154462814,-0.06284913420677185,0.671513557434082
1684200275792612400,8.5236123046875,-0.06405864655971527,-0.16775384545326233,0.747490406036377
1684200275802638300,8.533638427734376,-0.02717946097254753,-0.3214898705482483,0.8069508075714111
1684200275812663300,8.543663330078125,-0.00010523130185902119,-0.36850160360336304,0.7939972877502441
1684200275822688300,8.553688232421875,-0.013174960389733315,-0.31564024090766907,0.7241537570953369
1684200275832713500,8.56371337890625,-0.07869724929332733,-0.22906367480754852,0.6878778338432312
1684200275842738200,8.57373828125,-0.16046242415905,-0.16233311593532562,0.7174010872840881
1684200275852764200,8.58376416015625,-0.21310964226722717,-0.14397448301315308,0.7804346680641174
1684200275862789000,8.5937890625,-0.21472936868667603,-0.2587202489376068,0.8877877593040466
1684200275872814000,8.60381396484375,-0.19900740683078766,-0.4663867652416229,1.029575228691101
1684200275882839300,8.61383935546875,-0.17475107312202454,-0.6412054300308228,1.0981197357177734
1684200275892864300,8.6238642578125,-0.14768004417419434,-0.6636919379234314,1.043234944343567
1684200275902890200,8.63389013671875,-0.12883073091506958,-0.5297320485115051,0.8624462485313416
1684200275912915200,8.643915283203125,-0.1530148833990097,-0.3588021397590637,0.6725708842277527
1684200275922940200,8.653940185546874,-0.2141759693622589,-0.30415087938308716,0.5904397964477539
1684200275932965400,8.66396533203125,-0.28965502977371216,-0.37306103110313416,0.6309664845466614
1684200275942991400,8.673991455078125,-0.361282616853714,-0.47589820623397827,0.7437183260917664
1684200275953016300,8.684016357421875,-0.4110943675041199,-0.5403041839599609,0.847774863243103
1684200275963041300,8.694041259765624,-0.4334960877895355,-0.5318494439125061,0.8936025500297546
1684200275973066200,8.704066162109376,-0.42558595538139343,-0.46886155009269714,0.8637421727180481
1684200275983091500,8.714091552734375,-0.4171954095363617,-0.3821391761302948,0.770058810710907
1684200275993117400,8.724117431640625,-0.42486104369163513,-0.3228972256183624,0.6572743654251099
1684200276003142400,8.734142333984375,-0.4500119388103485,-0.3181922435760498,0.574998140335083
1684200276013167000,8.7441669921875,-0.48172274231910706,-0.33791443705558777,0.5402382612228394
1684200276023192000,8.754192138671876,-0.48880356550216675,-0.3213871419429779,0.5369085073471069
1684200276033217300,8.76421728515625,-0.4573652148246765,-0.2514093816280365,0.5396082997322083
1684200276043242800,8.77424267578125,-0.37971940636634827,-0.11340305209159851,0.5153383612632751
1684200276053267700,8.784267822265624,-0.24829931557178497,0.054702457040548325,0.4032037556171417
1684200276063292700,8.794292724609376,-0.08669551461935043,0.20305171608924866,0.18618303537368774
1684200276073317600,8.804317626953125,0.05567547678947449,0.325115442276001,-0.0604674369096756
1684200276083342600,8.814342529296875,0.08568663895130157,0.43605661392211914,-0.18021035194396973
1684200276093368600,8.82436865234375,0.0344303734600544,0.4924028813838959,-0.12778368592262268
1684200276103393500,8.8343935546875,-0.0486927404999733,0.4934585690498352,0.03487659618258476
1684200276113418500,8.84441845703125,-0.1321578174829483,0.5460988283157349,0.21127544343471527
1684200276123443700,8.854443603515625,-0.1980675905942917,0.6428935527801514,0.3295927345752716
1684200276133468700,8.86446875,-0.24216075241565704,0.7077836394309998,0.3959228992462158
1684200276143494700,8.87449462890625,-0.2724169194698334,0.705824077129364,0.43063855171203613
1684200276153519600,8.88451953125,-0.27741539478302,0.6440174579620361,0.44672369956970215
1684200276163544600,8.894544677734375,-0.2581397294998169,0.5221144556999207,0.44051507115364075
1684200276173569800,8.90456982421875,-0.225373774766922,0.3861841857433319,0.4395892918109894
1684200276183594800,8.9145947265625,-0.21586869657039642,0.2871207296848297,0.4666845500469208
1684200276193620700,8.924620849609376,-0.2464771866798401,0.2393772304058075,0.5231503844261169
1684200276203645700,8.934645751953125,-0.2894555628299713,0.2062951773405075,0.5892665386199951
1684200276213670700,8.944670654296875,-0.3270149230957031,0.2196766585111618,0.6503440141677856
1684200276223695600,8.954695556640624,-0.3495234251022339,0.2733100652694702,0.6897431015968323
1684200276233720600,8.964720458984376,-0.3661862909793854,0.3152340054512024,0.7066969871520996
1684200276243746600,8.97474658203125,-0.37514808773994446,0.2970150411128998,0.7002153992652893
1684200276253771500,8.984771484375,-0.37742722034454346,0.20977754890918732,0.6762484908103943
1684200276263796500,8.99479638671875,-0.36751654744148254,0.10649189352989197,0.6367205381393433
1684200276273821700,9.00482177734375,-0.34662961959838867,-0.0009070625528693199,0.5640244483947754
1684200276283846700,9.0148466796875,-0.3223951458930969,-0.0616641528904438,0.45485639572143555
1684200276293872600,9.02487255859375,-0.3031013309955597,-0.06979726254940033,0.3401704430580139
1684200276303897600,9.034897705078125,-0.298409104347229,-0.06042559817433357,0.23103810846805573
1684200276313922600,9.044922607421874,-0.2904401421546936,-0.04782877862453461,0.17338351905345917
1684200276323947800,9.05494775390625,-0.2823249399662018,-0.07044967263936996,0.187198668718338
1684200276333972700,9.06497265625,-0.27194342017173767,-0.13375931978225708,0.24028527736663818
1684200276343998700,9.074998779296875,-0.25573620200157166,-0.21157501637935638,0.29613152146339417
1684200276354023700,9.085023681640624,-0.23393049836158752,-0.27499842643737793,0.3269273638725281
1684200276364048600,9.095048583984376,-0.21605323255062103,-0.3290616571903229,0.30568891763687134
1684200276374073600,9.105073486328125,-0.19952937960624695,-0.39111071825027466,0.22816087305545807
1684200276384098600,9.1150986328125,-0.19227227568626404,-0.44232702255249023,0.1125091165304184
1684200276394124500,9.12512451171875,-0.21461112797260284,-0.44990622997283936,0.00420832633972168
1684200276404149500,9.1351494140625,-0.2580912411212921,-0.4406738579273224,-0.07761170715093613
1684200276414174500,9.145174560546875,-0.30503666400909424,-0.4199672341346741,-0.12096157670021057
1684200276424199700,9.15519970703125,-0.3531471788883209,-0.42741796374320984,-0.13840048015117645
1684200276434224600,9.165224609375,-0.40461331605911255,-0.46256476640701294,-0.1349579244852066
1684200276444250600,9.175250732421874,-0.4447018802165985,-0.4711816906929016,-0.1132824495434761
1684200276454275600,9.185275634765626,-0.4608004093170166,-0.44894641637802124,-0.07037736475467682
1684200276464300500,9.195300537109375,-0.45815321803092957,-0.41060009598731995,-0.019026026129722595
1684200276474325800,9.20532568359375,-0.44069382548332214,-0.37929800152778625,0.023625817149877548
1684200276484351700,9.215351806640625,-0.4015445411205292,-0.3845081925392151,0.04042184352874756
1684200276494376700,9.225376708984374,-0.34753990173339844,-0.43010178208351135,0.04237519949674606
1684200276504401700,9.235401611328125,-0.285665363073349,-0.5260629057884216,0.032041601836681366
1684200276514426600,9.245426513671875,-0.2291884869337082,-0.6323803067207336,-0.0022804501932114363
1684200276524451800,9.255451904296875,-0.18597497045993805,-0.6397194266319275,-0.06463517248630524
1684200276534477800,9.265477783203124,-0.15232272446155548,-0.42440661787986755,-0.13401547074317932
1684200276544502800,9.275502685546876,-0.1253664791584015,-0.033906240016222,-0.1914111226797104
1684200276554527500,9.285527587890625,-0.08607020974159241,0.42957034707069397,-0.21528713405132294
1684200276564552400,9.295552490234375,-0.07629560679197311,0.7784737348556519,-0.22434987127780914
1684200276574577700,9.30557763671875,-0.08390772342681885,0.9471657276153564,-0.22995838522911072
1684200276584603600,9.315603759765626,-0.0874774232506752,0.9838398694992065,-0.2298116385936737
1684200276594628600,9.325628662109375,-0.07139645516872406,0.8960946798324585,-0.2135951817035675
1684200276604653600,9.335653564453125,-0.011036974377930164,0.6642259955406189,-0.20016752183437347
1684200276614678500,9.345678466796874,0.09414297342300415,0.35063624382019043,-0.1938706487417221
1684200276624703700,9.355703857421876,0.20699763298034668,0.019215434789657593,-0.17957639694213867
1684200276634729700,9.365729736328126,0.2850053310394287,-0.32900258898735046,-0.13070276379585266
1684200276644754700,9.375754638671875,0.3238091766834259,-0.681367814540863,-0.10557317733764648
1684200276654779600,9.385779541015625,0.3389074504375458,-0.8578064441680908,-0.10460313409566879
1684200276664804600,9.3958046875,0.3142750561237335,-0.8104549050331116,-0.09340880066156387
1684200276674829800,9.405829833984376,0.2646033763885498,-0.5734908580780029,-0.062382303178310394
1684200276684855800,9.415855712890625,0.21412530541419983,-0.2893553078174591,-0.0021218908950686455
1684200276694880800,9.425880859375,0.16107913851737976,-0.05985874682664871,0.07061493396759033
1684200276704905500,9.435905517578124,0.10064161568880081,0.09812450408935547,0.15285280346870422
1684200276714930400,9.445930419921876,0.04619542509317398,0.21555624902248383,0.2372044175863266
1684200276724955600,9.45595556640625,0.009254714474081993,0.2713140547275543,0.3291766941547394
1684200276734981600,9.465981689453125,-0.0054664406925439835,0.21218562126159668,0.4357208013534546
1684200276745006600,9.476006591796875,-0.002171844244003296,0.08034876734018326,0.5356947779655457
1684200276755031600,9.486031494140626,0.021647468209266663,-0.03734438121318817,0.6001165509223938
1684200276765056500,9.496056396484375,0.0244645606726408,-0.09075167775154114,0.5996126532554626
1684200276775081700,9.506081787109375,0.0053688958287239075,-0.015039400197565556,0.548503041267395
1684200276785107700,9.516107666015625,-0.020759910345077515,0.1463729292154312,0.46179184317588806
1684200276795132700,9.526132568359374,-0.02121690660715103,0.25927942991256714,0.3662716746330261
1684200276805157600,9.53615771484375,0.0003003679448738694,0.2291143387556076,0.296748548746109
1684200276815182600,9.5461826171875,0.0251921359449625,0.0552842915058136,0.23108600080013275
1684200276825208600,9.55620849609375,0.06123775243759155,-0.19755461812019348,0.14804118871688843
1684200276835233800,9.56623388671875,0.11108040809631348,-0.5122789740562439,0.02450835518538952
1684200276845258800,9.5762587890625,0.11835643649101257,-0.7510622143745422,-0.11623571068048477
1684200276855283700,9.58628369140625,0.09059590846300125,-0.8677578568458557,-0.24669089913368225
1684200276865308400,9.596308349609375,0.03632601350545883,-0.8434138894081116,-0.3486705422401428
1684200276875334700,9.606334716796875,-0.01868370920419693,-0.7269108891487122,-0.42899635434150696
1684200276885359600,9.616359619140624,-0.07516296207904816,-0.6130911111831665,-0.499598890542984
1684200276895384600,9.626384521484376,-0.12901313602924347,-0.5580022931098938,-0.5711808204650879
1684200276905409500,9.636409423828125,-0.18573740124702454,-0.578825831413269,-0.6380296349525452
1684200276915434500,9.6464345703125,-0.2374163120985031,-0.6211370229721069,-0.6809566617012024
1684200276925460500,9.65646044921875,-0.27946311235427856,-0.6320275068283081,-0.676659882068634
1684200276935485700,9.666485595703126,-0.3140067160129547,-0.6290154457092285,-0.6297795176506042
1684200276945510700,9.6765107421875,-0.3441411852836609,-0.6420239210128784,-0.5617000460624695
1684200276955535600,9.68653564453125,-0.35100334882736206,-0.6873739957809448,-0.4684261083602905
1684200276965560600,9.696560546875,-0.3338477909564972,-0.7580782771110535,-0.37932074069976807
1684200276975586600,9.706586669921874,-0.3289467692375183,-0.8341943621635437,-0.32426249980926514
1684200276985611800,9.71661181640625,-0.3410945236682892,-0.8984431028366089,-0.31540244817733765
1684200276995636700,9.72663671875,-0.36715489625930786,-0.9228449463844299,-0.35073795914649963
1684200277005661700,9.73666162109375,-0.38836243748664856,-0.8696219325065613,-0.4114004969596863
1684200277015686400,9.746686279296876,-0.38581138849258423,-0.7444362044334412,-0.452387273311615
1684200277025712600,9.756712646484376,-0.3659884035587311,-0.607428789138794,-0.4454401433467865
1684200277035737600,9.766737548828125,-0.3474879562854767,-0.5041404962539673,-0.42075708508491516
1684200277045763300,9.776763427734375,-0.3383280336856842,-0.39730304479599,-0.40845274925231934
1684200277055788300,9.786788330078124,-0.3372795283794403,-0.34769564867019653,-0.4214398264884949
1684200277065813200,9.796813232421876,-0.32470703125,-0.3900343179702759,-0.4257757067680359
1684200277075839200,9.806839111328125,-0.2911229729652405,-0.46168652176856995,-0.4208590090274811
1684200277085864200,9.8168642578125,-0.26458510756492615,-0.5309910774230957,-0.4024978280067444
1684200277095889400,9.826889404296875,-0.2427397072315216,-0.5813660025596619,-0.37095749378204346
1684200277105914400,9.836914306640624,-0.22733518481254578,-0.6118515133857727,-0.33376964926719666
1684200277115940400,9.8469404296875,-0.20892368257045746,-0.613130509853363,-0.2959681749343872
1684200277125965300,9.85696533203125,-0.18349581956863403,-0.6068981885910034,-0.25140631198883057
1684200277135990300,9.866990234375,-0.15644529461860657,-0.6340802907943726,-0.19181928038597107
1684200277146015500,9.877015380859374,-0.1521698534488678,-0.6957532167434692,-0.12563519179821014
1684200277156040200,9.887040283203126,-0.16663667559623718,-0.754247784614563,-0.08993594348430634
1684200277166066400,9.89706640625,-0.16666758060455322,-0.7788881659507751,-0.10506616532802582
1684200277176091100,9.907091064453125,-0.14917753636837006,-0.7613570094108582,-0.1630224883556366
1684200277186116000,9.9171162109375,-0.08857783675193787,-0.659523606300354,-0.22791041433811188
1684200277196141300,9.927141357421876,-0.019428860396146774,-0.4952462911605835,-0.26448607444763184
1684200277206166300,9.937166259765625,0.035994984209537506,-0.3372710347175598,-0.23756469786167145
1684200277216192300,9.947192138671875,0.08347967267036438,-0.23156918585300446,-0.15042544901371002
1684200277226217200,9.95721728515625,0.14493346214294434,-0.11024302244186401,-0.06611962616443634
1684200277236242200,9.9672421875,0.22204528748989105,0.11066372692584991,-0.02412470057606697
1684200277246267400,9.977267333984376,0.29172608256340027,0.3810187876224518,-0.01997922547161579
1684200277256292400,9.987292236328125,0.3304668068885803,0.6120826005935669,-0.03047989308834076
1684200277266318300,9.997318359375,0.3422457277774811,0.6781697273254395,-0.013718489557504654
1684200277276343300,10.00734326171875,0.33108386397361755,0.4704987406730652,0.07141229510307312
1684200277286368300,10.0173681640625,0.37374451756477356,0.15759727358818054,0.1511412113904953
1684200277296393500,10.0273935546875,0.4813399612903595,-0.05061524733901024,0.1418134868144989
1684200277306418200,10.037418212890625,0.5969616770744324,-0.12194348871707916,0.021280944347381592
1684200277316444400,10.0474443359375,0.7096948623657227,-0.05704430490732193,-0.1641271412372589
1684200277326469000,10.05746923828125,0.8175345063209534,0.09901560097932816,-0.37771692872047424
1684200277336494000,10.067494140625,0.8593857884407043,0.20324192941188812,-0.5605771541595459
1684200277346519300,10.077519287109375,0.7979373931884766,0.033431053161621094,-0.6533486843109131
1684200277356545300,10.087545166015625,0.6625478267669678,-0.5497762560844421,-0.6183156967163086
1684200277366570200,10.0975703125,0.5411514043807983,-1.2044126987457275,-0.5180466175079346
1684200277376595200,10.10759521484375,0.48504868149757385,-1.4484409093856812,-0.46253252029418945
1684200277386620200,10.1176201171875,0.4482951760292053,-1.1815059185028076,-0.5033313632011414
1684200277396645400,10.127645263671875,0.42841336131095886,-0.6255987286567688,-0.6558969616889954
1684200277406671400,10.13767138671875,0.42590731382369995,0.003434339538216591,-0.8966768383979797
1684200277416696300,10.1476962890625,0.38238009810447693,0.5473271012306213,-1.1516751050949097
1684200277426721300,10.15772119140625,0.32839301228523254,0.835321307182312,-1.3895561695098877
1684200277436746200,10.167746337890625,0.30093395709991455,0.8888363242149353,-1.555176854133606
1684200277446771500,10.177771484375,0.33124658465385437,0.7511969804763794,-1.6432851552963257
1684200277456797400,10.18779736328125,0.41464269161224365,0.5626139044761658,-1.65510094165802
1684200277466822400,10.197822509765626,0.5542733073234558,0.4285069406032562,-1.598376989364624
1684200277476847000,10.20784716796875,0.7008063197135925,0.41628336906433105,-1.4577610492706299
1684200277486872300,10.217872314453125,0.7925457954406738,0.7094036936759949,-1.1563266515731812
1684200277496898000,10.22789794921875,0.8154817223548889,0.9093725085258484,-0.8877497315406799
1684200277506923300,10.23792333984375,0.7985522747039795,0.8447471857070923,-0.8203126192092896
1684200277516948200,10.2479482421875,0.7451124787330627,0.7181461453437805,-0.894865870475769
1684200277526974200,10.25797412109375,0.7389408946037292,0.6938679814338684,-1.0148439407348633
1684200277536999200,10.267999267578125,0.7990660071372986,0.8314566016197205,-1.1184941530227661
1684200277547024100,10.278024169921874,0.8971621990203857,1.0627747774124146,-1.1672565937042236
1684200277557049300,10.28804931640625,0.9622799754142761,1.192883014678955,-1.1660255193710327
1684200277567074300,10.29807421875,1.0091897249221802,1.3244829177856445,-1.0734341144561768
1684200277577100300,10.308100341796875,1.011971116065979,1.3100354671478271,-0.9566356539726257
1684200277587125200,10.318125244140624,1.0485048294067383,1.3486597537994385,-0.7481163144111633
1684200277597150200,10.328150146484376,1.0947679281234741,1.2686057090759277,-0.5968602895736694
1684200277607175400,10.338175537109375,1.1356773376464844,1.220492959022522,-0.5069567561149597
1684200277617200400,10.348200439453125,1.1203892230987549,1.3040462732315063,-0.479115754365921
1684200277627226400,10.358226318359375,1.0723981857299805,1.4195337295532227,-0.5197777152061462
1684200277637251300,10.368251220703126,1.062796950340271,1.5444875955581665,-0.545009195804596
1684200277647276300,10.3782763671875,1.0325772762298584,1.4985568523406982,-0.56173175573349
1684200277657301200,10.38830126953125,1.0139203071594238,1.45900297164917,-0.4663211405277252
1684200277667326200,10.398326171875,0.9402143359184265,1.352668285369873,-0.37479203939437866
1684200277677352200,10.408352294921874,0.8928297758102417,1.3678382635116577,-0.25255993008613586
1684200277687377200,10.418377197265626,0.8159701824188232,1.3623082637786865,-0.17745451629161835
1684200277697402000,10.428402099609375,0.7464459538459778,1.4267008304595947,-0.08671645820140839
1684200277707427300,10.43842724609375,0.6809667944908142,1.416144847869873,-0.010956179350614548
1684200277717453300,10.448453369140625,0.6365894675254822,1.3749017715454102,0.04559028893709183
1684200277727478300,10.458478271484376,0.618959903717041,1.3017699718475342,0.09788624942302704
1684200277737503200,10.468503173828125,0.6301329135894775,1.07787024974823,0.09444860368967056
1684200277747528200,10.478528076171875,0.6697208285331726,0.7920508980751038,0.1010495200753212
1684200277757553400,10.488553466796875,0.6830339431762695,0.5203104615211487,0.1396050751209259
1684200277767579400,10.498579345703124,0.6234869956970215,0.309511661529541,0.19066505134105682
1684200277777604400,10.508604248046876,0.5183541774749756,0.30965104699134827,0.27560827136039734
1684200277787629300,10.51862939453125,0.40730592608451843,0.40726497769355774,0.34088340401649475
1684200277797654300,10.528654296875,0.32219716906547546,0.49067598581314087,0.40054139494895935
1684200277807679200,10.53867919921875,0.2896999418735504,0.5554049015045166,0.5003973841667175
1684200277817705500,10.54870556640625,0.2695491313934326,0.5189827084541321,0.5975536108016968
1684200277827730200,10.558730224609375,0.23078417778015137,0.4376140832901001,0.6850403547286987
1684200277837755100,10.568755126953125,0.17607033252716064,0.3450421392917633,0.7587683200836182
1684200277847780400,10.5787802734375,0.0934968888759613,0.27977311611175537,0.8152505159378052
1684200277857806000,10.58880615234375,-0.00987157505005598,0.20617692172527313,0.8336536884307861
1684200277867831300,10.598831298828125,-0.11227624863386154,0.0841682031750679,0.8393669724464417
1684200277877856300,10.608856201171875,-0.20249295234680176,-0.11650990694761276,0.8448125123977661
1684200277887881200,10.618881103515625,-0.2793874740600586,-0.3952813446521759,0.846550464630127
1684200277897906200,10.62890625,-0.3307899534702301,-0.6680657863616943,0.845643937587738
1684200277907932200,10.63893212890625,-0.35264864563941956,-0.8624134063720703,0.83376544713974
1684200277917957400,10.648957275390625,-0.3510643243789673,-0.9722719788551331,0.8161716461181641
1684200277927982300,10.658982421875,-0.3492688238620758,-1.0205113887786865,0.8209690451622009
1684200277938007300,10.66900732421875,-0.36838579177856445,-1.0256825685501099,0.8725653886795044
1684200277948032300,10.6790322265625,-0.42590847611427307,-1.0616825819015503,0.9525966048240662
1684200277958058200,10.689058349609375,-0.508887767791748,-1.1367589235305786,1.0634554624557495
1684200277968083500,10.69908349609375,-0.5778862833976746,-1.1939047574996948,1.16384756565094
1684200277978108400,10.7091083984375,-0.6058385372161865,-1.1755077838897705,1.221563696861267
1684200277988133000,10.719133056640626,-0.5997063517570496,-1.1032685041427612,1.2318086624145508
1684200277998159400,10.729159423828126,-0.5841020941734314,-0.9633306264877319,1.2084804773330688
1684200278008184300,10.739184326171875,-0.5626327395439148,-0.7729274034500122,1.174619436264038
1684200278018209300,10.749209228515625,-0.5643539428710938,-0.6144253611564636,1.162346363067627
1684200278028234200,10.759234130859374,-0.5844472050666809,-0.49586355686187744,1.1798171997070312
1684200278038259200,10.76925927734375,-0.6062052249908447,-0.39717936515808105,1.2053028345108032
1684200278048284700,10.77928466796875,-0.6120503544807434,-0.3112682104110718,1.2372146844863892
1684200278058310000,10.789309814453125,-0.6037577986717224,-0.23893103003501892,1.2964292764663696
1684200278068334800,10.7993349609375,-0.6065200567245483,-0.20508038997650146,1.3646116256713867
1684200278078359800,10.80935986328125,-0.6211817860603333,-0.20453836023807526,1.447129726409912
1684200278088384800,10.819384765625,-0.6410580277442932,-0.20978905260562897,1.507175326347351
1684200278098410800,10.82941064453125,-0.6403751969337463,-0.22612695395946503,1.5046703815460205
1684200278108436000,10.83943603515625,-0.5954346060752869,-0.26583173871040344,1.4044559001922607
1684200278118461000,10.8494609375,-0.48739874362945557,-0.3009960651397705,1.1602643728256226
1684200278128486000,10.85948583984375,-0.3232713043689728,-0.2366407811641693,0.8238317966461182
1684200278138510800,10.8695107421875,-0.2287386655807495,-0.2181217521429062,0.5252503752708435
1684200278148536800,10.879536865234375,-0.252386212348938,-0.2538001239299774,0.3845188021659851
1684200278158562000,10.88956201171875,-0.3003785014152527,-0.2587105333805084,0.35197189450263977
1684200278168587000,10.8995869140625,-0.35506919026374817,-0.17639701068401337,0.35244646668434143
1684200278178611700,10.90961181640625,-0.4057755172252655,0.015098590403795242,0.3518476188182831
1684200278188638000,10.919637939453125,-0.42678332328796387,0.2946402132511139,0.4000319242477417
1684200278198662700,10.92966259765625,-0.3980286419391632,0.4878970980644226,0.5692383050918579
1684200278208687900,10.93968798828125,-0.395844042301178,0.5395970344543457,0.814760684967041
1684200278218712800,10.949712890625,-0.4252069890499115,0.41529664397239685,0.9951401352882385
1684200278228737800,10.95973779296875,-0.45817720890045166,0.11495840549468994,1.0126941204071045
1684200278238763800,10.969763671875,-0.434583455324173,-0.158472940325737,0.9001423716545105
1684200278248788700,10.979788818359374,-0.34028226137161255,-0.2139875888824463,0.7412483096122742
1684200278258814000,10.98981396484375,-0.22140511870384216,-0.12229829281568527,0.5442983508110046
1684200278268839000,10.9998388671875,-0.15905731916427612,0.04087013006210327,0.4461544454097748
1684200278278864000,11.00986376953125,-0.19138383865356445,0.20771464705467224,0.5580926537513733
1684200278288889900,11.019889892578124,-0.2795603275299072,0.3279358446598053,0.7969006896018982
1684200278298914800,11.029914794921876,-0.39142879843711853,0.37691837549209595,1.0067076683044434
1684200278308940000,11.03993994140625,-0.45870691537857056,0.3381693959236145,1.0754585266113281
1684200278318965000,11.049965087890625,-0.47723743319511414,0.23861484229564667,1.0095720291137695
1684200278328991000,11.059990966796875,-0.4729391038417816,0.12490105628967285,0.9094345569610596
1684200278339016000,11.070015869140626,-0.45349109172821045,0.03561777621507645,0.8052431344985962
1684200278349041000,11.080041015625,-0.44071218371391296,-0.056258946657180786,0.7053303122520447
1684200278359065900,11.09006591796875,-0.4542868435382843,-0.21526138484477997,0.6001407504081726
1684200278369090800,11.1000908203125,-0.4851566255092621,-0.40637698769569397,0.5115904211997986
1684200278379116800,11.11011669921875,-0.4984132945537567,-0.5158159136772156,0.445894330739975
1684200278389141800,11.120141845703126,-0.4953458607196808,-0.5801594853401184,0.4016112983226776
1684200278399166700,11.130166748046875,-0.48520374298095703,-0.6464313864707947,0.35894542932510376
1684200278409192000,11.14019189453125,-0.43303295969963074,-0.7062869668006897,0.30503028631210327
1684200278419217000,11.150216796875,-0.33765584230422974,-0.6996340155601501,0.22858856618404388
1684200278429243000,11.160242919921876,-0.25062400102615356,-0.6543784141540527,0.11273199319839478
1684200278439267800,11.170267822265625,-0.17526718974113464,-0.6215663552284241,-0.03264191001653671
1684200278449292800,11.180292724609375,-0.09900917857885361,-0.6424447298049927,-0.1948593109846115
1684200278459318000,11.190318115234374,-0.013881763443350792,-0.7582108378410339,-0.3719126582145691
1684200278469344000,11.200343994140624,0.08291029185056686,-0.9102712273597717,-0.5446977019309998
1684200278479369000,11.210368896484376,0.1703549325466156,-0.9985055923461914,-0.6930266618728638
1684200278489394000,11.220393798828125,0.22793033719062805,-0.9476892352104187,-0.7864346504211426
1684200278499419000,11.2304189453125,0.22266526520252228,-0.7523186206817627,-0.8183253407478333
1684200278509443800,11.24044384765625,0.12970682978630066,-0.507520854473114,-0.8362407088279724
1684200278519470000,11.250469970703126,0.0017845483962446451,-0.23605674505233765,-0.8710888624191284
1684200278529494800,11.260494873046875,-0.053666725754737854,-0.02396978810429573,-0.8818568587303162
1684200278539519700,11.270519775390625,-0.042470529675483704,0.05228177458047867,-0.8602522611618042
1684200278549544700,11.280544677734374,0.010545815341174603,0.02461605705320835,-0.7961657047271729
1684200278559570000,11.29056982421875,0.05649439990520477,-0.0717640072107315,-0.6874261498451233
1684200278569596000,11.300595947265625,0.08311322331428528,-0.2452833354473114,-0.5444026589393616
1684200278579620900,11.310620849609375,0.10569922626018524,-0.44486701488494873,-0.4187619388103485
1684200278589645800,11.320645751953125,0.14961183071136475,-0.5370768308639526,-0.3497985899448395
1684200278599670800,11.3306708984375,0.2095300257205963,-0.5616344213485718,-0.3621038496494293
1684200278609696800,11.34069677734375,0.26898613572120667,-0.49343568086624146,-0.4425129294395447
1684200278619722000,11.350721923828125,0.2955056428909302,-0.4205086827278137,-0.5474545359611511
1684200278629747000,11.360746826171875,0.30068469047546387,-0.44084855914115906,-0.6266119480133057
1684200278639772000,11.37077197265625,0.31008458137512207,-0.56178218126297,-0.6354696750640869
1684200278649796900,11.380796875,0.34860533475875854,-0.8126951456069946,-0.5841146111488342
1684200278659822800,11.39082275390625,0.3616425693035126,-1.114741325378418,-0.49026069045066833
1684200278669848000,11.40084814453125,0.32077503204345703,-1.3556772470474243,-0.3691699504852295
1684200278679873000,11.410873046875,0.28783494234085083,-1.4032533168792725,-0.23172684013843536
1684200278689897700,11.420897705078126,0.2715616822242737,-1.2067896127700806,-0.0945197269320488
1684200278699923700,11.430923828125,0.2519717514514923,-0.9244195818901062,0.004117494449019432
1684200278709948700,11.44094873046875,0.2070751190185547,-0.6011363863945007,0.05103360489010811
1684200278719974000,11.450973876953125,0.15259191393852234,-0.2686479687690735,0.08893634378910065
1684200278729998800,11.460998779296874,0.10286162793636322,0.09612812846899033,0.1388663500547409
1684200278740023800,11.47102392578125,0.04264090210199356,0.4726859927177429,0.22092831134796143
1684200278750049800,11.4810498046875,-0.02519380673766136,0.9271232485771179,0.32944491505622864
1684200278760074800,11.49107470703125,-0.12832391262054443,1.3330347537994385,0.4511887729167938
1684200278770100000,11.501099853515624,-0.24382548034191132,1.538482904434204,0.582266628742218
1684200278780125000,11.511125,-0.2946822941303253,1.3295552730560303,0.7957441210746765
1684200278790150000,11.52114990234375,-0.22699882090091705,0.529161274433136,1.1076204776763916
1684200278800175900,11.53117578125,-0.15389984846115112,-0.3660290837287903,1.2925397157669067
1684200278810200800,11.541200927734375,-0.19188052415847778,-0.524239718914032,1.0942527055740356
1684200278820226000,11.55122607421875,-0.26195868849754333,0.16067355871200562,0.6437975764274597
1684200278830251000,11.5612509765625,-0.2289716899394989,1.120542287826538,0.13177073001861572
1684200278840277000,11.571277099609375,-0.1318454146385193,1.8605996370315552,-0.25903260707855225
1684200278850302000,11.581302001953125,-0.03089749626815319,1.9150818586349487,-0.4992920756340027
1684200278860326700,11.59132666015625,0.08168097585439682,1.273126244544983,-0.6169357895851135
1684200278870352000,11.601351806640626,0.15584921836853027,0.3422691226005554,-0.6234450936317444
1684200278880376800,11.611376953125,0.15906046330928802,-0.4003540277481079,-0.5610750317573547
1684200278890402800,11.62140283203125,0.1089799776673317,-0.7532864809036255,-0.4703003764152527
1684200278900427800,11.631427734375,0.07346192747354507,-0.8184652328491211,-0.38558146357536316
1684200278910452700,11.64145263671875,0.09371287375688553,-0.7878876328468323,-0.3141101896762848
1684200278920478000,11.65147802734375,0.12822239100933075,-0.7492787837982178,-0.2736852169036865
1684200278930503000,11.6615029296875,0.1234087124466896,-0.7126049399375916,-0.2561264634132385
1684200278940529000,11.67152880859375,0.08043462038040161,-0.6431890726089478,-0.24675093591213226
1684200278950553900,11.681553955078124,0.02981804683804512,-0.5371188521385193,-0.23987172544002533
1684200278960578800,11.691578857421876,0.002170440275222063,-0.38559690117836,-0.2159881740808487
1684200278970604000,11.70160400390625,-0.020651519298553467,-0.250169038772583,-0.1718795746564865
1684200278980630000,11.711630126953125,-0.03429542854428291,-0.17493093013763428,-0.0996185913681984
1684200278990655000,11.721655029296874,-0.05197535455226898,-0.15280166268348694,-0.02251715213060379
1684200279000680000,11.731679931640626,-0.07406733930110931,-0.16613663733005524,0.060311414301395416
1684200279010704600,11.74170458984375,-0.09870850294828415,-0.20414075255393982,0.13185803592205048
1684200279020729900,11.751729736328125,-0.11802521347999573,-0.2385665774345398,0.18181303143501282
1684200279030755800,11.761755859375,-0.1388159692287445,-0.24668070673942566,0.20792213082313538
1684200279040781000,11.771781005859374,-0.15423087775707245,-0.21806596219539642,0.20319966971874237
1684200279050806000,11.781805908203125,-0.16546861827373505,-0.16150841116905212,0.16919296979904175
1684200279060831000,11.7918310546875,-0.17291322350502014,-0.10842115432024002,0.13184916973114014
1684200279070856200,11.801856201171875,-0.17492790520191193,-0.0890200287103653,0.10033253580331802
1684200279080882200,11.811882080078124,-0.1632605940103531,-0.10381154716014862,0.09373433142900467
1684200279090907100,11.8219072265625,-0.1481974869966507,-0.1501937061548233,0.09594182670116425
1684200279100931800,11.831931884765625,-0.12318002432584763,-0.2216050922870636,0.10581003874540329
1684200279110956800,11.841956787109375,-0.10215117037296295,-0.30427253246307373,0.100590780377388
1684200279120982800,11.851982666015624,-0.0887935534119606,-0.37481963634490967,0.07104512304067612
1684200279131008000,11.862008056640626,-0.0773017480969429,-0.393779993057251,0.027796193957328796
1684200279141033000,11.872032958984375,-0.06032862514257431,-0.34562569856643677,-0.012021312490105629
1684200279151058000,11.882057861328125,-0.04907703772187233,-0.27119168639183044,-0.03876610845327377
1684200279161083000,11.892082763671874,-0.05044510215520859,-0.21587756276130676,-0.052798863500356674
1684200279171108900,11.90210888671875,-0.05666757747530937,-0.2084880918264389,-0.06334258615970612
1684200279181134000,11.912134033203126,-0.06344319134950638,-0.23521453142166138,-0.07353483885526657
1684200279191159000,11.922158935546875,-0.0779411718249321,-0.2729320526123047,-0.09521083533763885
1684200279201184000,11.93218408203125,-0.08916826546192169,-0.2880316376686096,-0.10955142974853516
1684200279211210000,11.9422099609375,-0.09612897038459778,-0.2821551263332367,-0.11674675345420837
1684200279221235000,11.95223486328125,-0.09716253727674484,-0.2581506669521332,-0.12555193901062012
1684200279231260200,11.96226025390625,-0.08723694086074829,-0.23741528391838074,-0.14370964467525482
1684200279241285000,11.97228515625,-0.0678856149315834,-0.22905083000659943,-0.16550281643867493
1684200279251310000,11.98231005859375,-0.03906860947608948,-0.22462917864322662,-0.17942476272583008
1684200279261336000,11.992336181640624,-0.0025830361992120743,-0.19440409541130066,-0.16969524323940277
1684200279271361000,12.002361083984376,0.03494596108794212,-0.1375056654214859,-0.1324237734079361
1684200279281386000,12.012385986328125,0.05532047897577286,-0.054645609110593796,-0.07231459766626358
1684200279291411000,12.022410888671875,0.06010271608829498,0.03253643214702606,0.008542697876691818
1684200279301436000,12.032435791015626,0.0506460964679718,0.1174183189868927,0.09781654179096222
1684200279311462000,12.0424619140625,0.031997308135032654,0.1768275797367096,0.19515614211559296
1684200279321486800,12.05248681640625,0.01296716183423996,0.20520447194576263,0.2828499972820282
1684200279331512000,12.062511962890625,0.005729755386710167,0.17952308058738708,0.3433713912963867
1684200279341537000,12.072537109375,0.029078487306833267,0.07231620699167252,0.36663752794265747
1684200279351563000,12.08256298828125,0.06536245346069336,-0.09738387912511826,0.35972583293914795
1684200279361588000,12.092587890625,0.11040716618299484,-0.35035303235054016,0.32092705368995667
1684200279371613000,12.102613037109375,0.1691887229681015,-0.665564775466919,0.24597664177417755
1684200279381638100,12.11263818359375,0.24877117574214935,-0.9577762484550476,0.09823405742645264
1684200279391663000,12.1226630859375,0.3551282286643982,-1.1043976545333862,-0.1207406297326088
1684200279401689000,12.132689208984376,0.46198996901512146,-1.046312928199768,-0.4223014712333679
1684200279411714000,12.142714111328125,0.5379174947738647,-0.8370891809463501,-0.7787275314331055
1684200279421739000,12.152739013671875,0.579582929611206,-0.6327357292175293,-1.167227864265442
1684200279431764000,12.162763916015624,0.6071266531944275,-0.535324215888977,-1.5366703271865845
1684200279441789000,12.172788818359376,0.644292950630188,-0.4930626153945923,-1.9084980487823486
1684200279451815000,12.18281494140625,0.7295876145362854,-0.19634868204593658,-2.4332590103149414
1684200279461840000,12.19283984375,0.75263911485672,0.44806239008903503,-2.9328296184539795
1684200279471864800,12.20286474609375,0.7165250778198242,0.9718520641326904,-3.206892490386963
1684200279481890000,12.21289013671875,0.7132733464241028,1.0539518594741821,-3.294235944747925
1684200279491916000,12.222916015625,0.7315202355384827,0.995651364326477,-3.1112425327301025
1684200279501941000,12.23294091796875,0.8273748755455017,1.1740357875823975,-2.624891519546509
1684200279511966000,12.242966064453125,0.9413491487503052,1.5178477764129639,-2.0528125762939453
1684200279521991000,12.252990966796874,0.9621875882148743,1.5096896886825562,-1.7034016847610474
1684200279532016000,12.26301611328125,0.848128616809845,1.2971172332763672,-1.5380744934082031
1684200279542042000,12.2730419921875,0.7093861699104309,1.0966544151306152,-1.3898510932922363
1684200279552067000,12.283067138671875,0.6508195400238037,0.8634248375892639,-1.2154622077941895
1684200279562092000,12.293092041015624,0.8282614350318909,0.5481057167053223,-1.0158241987228394
1684200279572117000,12.303116943359376,1.239477276802063,0.3832363188266754,-0.8124843835830688
1684200279582143000,12.31314306640625,1.6901357173919678,0.42389267683029175,-0.7712662816047668
1684200279592168200,12.323168212890625,1.9822189807891846,0.7201805114746094,-0.8376482129096985
1684200279602193000,12.33319287109375,2.0258243083953857,1.2069180011749268,-0.8583908081054688
1684200279612217900,12.3432177734375,1.866072416305542,1.7977858781814575,-0.669343113899231
1684200279622242800,12.353242919921875,1.5798877477645874,2.216594696044922,-0.3941282033920288
1684200279632268800,12.363268798828125,1.3472388982772827,2.4114346504211426,-0.14300675690174103
1684200279642294000,12.3732939453125,1.2341152429580688,2.2982356548309326,-0.048500582575798035
1684200279652319000,12.383319091796874,1.1729695796966553,2.134874105453491,0.007706496864557266
1684200279662344000,12.393343994140626,1.0759143829345703,1.872395634651184,0.04262792691588402
1684200279672370000,12.403369873046875,1.022355556488037,1.6627126932144165,0.10571768134832382
1684200279682395000,12.413394775390625,1.0037217140197754,1.4620352983474731,0.1528695523738861
1684200279692420000,12.423420166015624,1.0037368535995483,1.1342449188232422,0.10390998423099518
1684200279702445000,12.433445068359376,1.0707683563232422,0.9198175072669983,0.0543285608291626
1684200279712470000,12.443469970703125,1.0692082643508911,0.6880887150764465,-0.028845952823758125
1684200279722496000,12.45349609375,1.0098462104797363,0.5754616856575012,-0.0361151397228241
1684200279732521000,12.46352099609375,0.9081230163574219,0.5855190753936768,0.025236904621124268
1684200279742546200,12.473546142578124,0.7717068195343018,0.5846400856971741,0.08460260927677155
1684200279752571100,12.483571044921876,0.6663995981216431,0.6518263220787048,0.17518150806427002
