time,seconds_elapsed,z,y,x
1684200687506725400,0.037725341796875,1.209628701210022,3.890888214111328,0.7510894536972046
1684200687516750300,0.047750244140625,1.191698431968689,5.018498420715332,0.8369481563568115
1684200687526776300,0.0577763671875,1.3495068550109863,5.294445514678955,0.8168804049491882
1684200687536802300,0.06780224609375,1.4989320039749146,5.005288124084473,0.7468653321266174
1684200687546828300,0.077828369140625,1.7091360092163086,3.7588934898376465,0.5428763628005981
1684200687556854300,0.087854248046875,2.0628416538238525,1.2453858852386475,0.2627594769001007
1684200687566880300,0.09788037109375,2.2077810764312744,-0.9945334792137146,0.18650373816490173
1684200687576906500,0.107906494140625,2.0239078998565674,-2.010695219039917,-0.059872739017009735
1684200687586932500,0.117932373046875,1.5570687055587769,-1.5771152973175049,-0.6114827394485474
1684200687596958500,0.12795849609375,0.9056997299194336,-0.0919036939740181,-1.2773423194885254
1684200687606984400,0.137984375,-0.03682907298207283,1.4784226417541504,-1.3545554876327515
1684200687617010400,0.148010498046875,-0.6473571062088013,2.2939095497131348,-1.1443591117858887
1684200687627036400,0.158036376953125,-1.1089138984680176,2.6562321186065674,-0.8287880420684814
1684200687637062400,0.1680625,-1.6656471490859985,3.27461838722229,-0.466957688331604
1684200687647088400,0.17808837890625,-2.221433162689209,4.000412940979004,-0.03316757455468178
1684200687657113300,0.18811328125,-2.716078996658325,4.658658027648926,0.45894891023635864
1684200687667139300,0.198139404296875,-3.120532512664795,5.360909461975098,0.9881864190101624
1684200687677165300,0.208165283203125,-3.385880708694458,6.0730438232421875,1.4998244047164917
1684200687687191300,0.21819140625,-3.4680888652801514,6.542764663696289,1.934970736503601
1684200687697217300,0.22821728515625,-3.4821863174438477,6.387720584869385,2.190694808959961
1684200687707243500,0.238243408203125,-3.7698287963867188,5.762795448303223,2.132481336593628
1684200687717269500,0.24826953125,-4.385537147521973,5.6406097412109375,1.90755295753479
1684200687727295500,0.25829541015625,-5.073664665222168,6.379500865936279,1.826261281967163
1684200687737321500,0.268321533203125,-5.644592761993408,7.334156036376953,1.8756510019302368
1684200687747347500,0.278347412109375,-6.089959621429443,8.183682441711426,2.0513672828674316
1684200687757373400,0.28837353515625,-6.4535040855407715,8.5308837890625,2.2868552207946777
1684200687767399400,0.2983994140625,-6.852175235748291,8.409029006958008,2.4853715896606445
1684200687777425400,0.30842529296875,-7.314815044403076,7.923882484436035,2.7115659713745117
1684200687787451400,0.318451416015625,-7.655062675476074,7.0073065757751465,2.8645429611206055
1684200687797476400,0.328476318359375,-7.779155254364014,6.004877090454102,2.8420348167419434
1684200687807502300,0.33850244140625,-7.720456123352051,5.060204982757568,2.601886034011841
1684200687817528300,0.3485283203125,-7.641183376312256,4.300534725189209,2.1780409812927246
1684200687827554300,0.35855419921875,-7.670827388763428,3.7221317291259766,1.7101383209228516
1684200687837580500,0.36858056640625,-7.845988750457764,3.2143514156341553,1.3249406814575195
1684200687847606500,0.3786064453125,-8.10336685180664,2.8953654766082764,1.1316807270050049
1684200687857632500,0.388632568359375,-8.179990768432617,2.898317337036133,1.2524961233139038
1684200687867658500,0.398658447265625,-7.798157215118408,2.99709415435791,1.6701980829238892
1684200687877684500,0.4086845703125,-7.029007911682129,3.016906499862671,2.330735683441162
1684200687887710200,0.418710205078125,-6.0846028327941895,2.7088279724121094,3.047057867050171
1684200687897736200,0.428736083984375,-5.383459091186523,1.8115803003311157,3.500394582748413
1684200687907762200,0.43876220703125,-5.0479655265808105,0.605421245098114,3.606285333633423
1684200687917788200,0.4487880859375,-4.784146308898926,-0.670294463634491,3.402763605117798
1684200687927814100,0.458814208984375,-4.3620805740356445,-1.8182858228683472,3.0174169540405273
1684200687937839400,0.46883935546875,-3.7264978885650635,-2.585967779159546,2.600468635559082
1684200687947865300,0.478865234375,-2.880462646484375,-3.025869846343994,2.2027993202209473
1684200687957891300,0.488891357421875,-2.064638376235962,-3.2568259239196777,1.8498209714889526
1684200687967917600,0.49891748046875,-1.3813434839248657,-3.469468832015991,1.4823366403579712
1684200687977943300,0.508943359375,-0.783368706703186,-3.5863099098205566,1.1135990619659424
1684200687987969300,0.51896923828125,-0.2095058709383011,-3.5794899463653564,0.9524576663970947
1684200687997995300,0.528995361328125,0.355299711227417,-3.736213207244873,0.6691186428070068
1684200688008021200,0.539021240234375,0.7888198494911194,-3.7448549270629883,0.33400630950927734
1684200688018047200,0.549047119140625,1.0397744178771973,-3.7570738792419434,0.1256328821182251
1684200688028073200,0.5590732421875,1.0869115591049194,-3.7821788787841797,0.03493840619921684
1684200688038099200,0.56909912109375,1.1635786294937134,-3.685035228729248,-0.02958466112613678
1684200688048125200,0.579125244140625,1.420228123664856,-3.3509883880615234,-0.05497252941131592
1684200688058151200,0.589151123046875,1.8068798780441284,-2.6799874305725098,-0.024034585803747177
1684200688068177200,0.59917724609375,2.1741440296173096,-2.0121548175811768,0.1029432862997055
1684200688078202400,0.609202392578125,2.4975762367248535,-1.3565846681594849,0.39889848232269287
1684200688088228400,0.619228271484375,2.8367464542388916,-0.6702716946601868,0.7591099143028259
1684200688098254300,0.62925439453125,3.12449049949646,0.026695944368839264,0.9806370139122009
1684200688108280300,0.6392802734375,2.1536002159118652,0.0076264976523816586,-0.14283744990825653
1684200688118306300,0.649306396484375,0.6811432242393494,-0.08712024986743927,-2.25832462310791
1684200688128332300,0.659332275390625,0.4640527069568634,0.9265795946121216,-2.59824275970459
1684200688138358300,0.669358154296875,0.4800684452056885,1.9785630702972412,-1.4472912549972534
1684200688148384300,0.67938427734375,0.0033908779732882977,2.4544479846954346,-0.3606160581111908
1684200688158410200,0.68941015625,-0.7772809863090515,2.662334680557251,0.015750113874673843
1684200688168436200,0.699436279296875,-1.1375542879104614,2.5498645305633545,-0.041998665779829025
1684200688178462200,0.709462158203125,-0.9185146689414978,2.597191333770752,-0.1507565826177597
1684200688188488200,0.71948828125,-0.5406799912452698,2.2582154273986816,-0.3357865512371063
1684200688198514200,0.72951416015625,-0.06521628051996231,1.7199276685714722,-0.4941578209400177
1684200688208540400,0.73954052734375,0.906998872756958,0.9542572498321533,-0.8523445129394531
1684200688218565000,0.749565185546875,2.835751533508301,0.4877428114414215,-1.2146140336990356
1684200688228591400,0.75959130859375,4.334566593170166,-0.04731461778283119,-0.9877169728279114
1684200688238617300,0.769617431640625,4.563654899597168,-0.7345001697540283,-0.8090340495109558
1684200688248643300,0.779643310546875,3.642777442932129,-0.735470712184906,-0.8971515893936157
1684200688258669300,0.78966943359375,3.0003108978271484,-0.592469334602356,-1.0578893423080444
1684200688268695300,0.7996953125,2.249877452850342,-0.1624508798122406,-0.2685892879962921
1684200688278721300,0.80972119140625,1.7170864343643188,0.5219519138336182,1.0116212368011475
1684200688288747300,0.819747314453125,1.5875426530838013,1.336567997932434,2.035567283630371
1684200688298773200,0.829773193359375,1.4193459749221802,1.6372092962265015,2.357288122177124
1684200688308799200,0.83979931640625,1.3677117824554443,1.5567606687545776,2.044175624847412
1684200688318825200,0.8498251953125,1.3038856983184814,1.6616785526275635,1.598903775215149
1684200688328851200,0.859851318359375,1.0167591571807861,1.8089369535446167,1.0391863584518433
1684200688338877400,0.86987744140625,0.48606011271476746,1.31632399559021,0.34448665380477905
1684200688348903400,0.8799033203125,-0.04126366600394249,0.4694034457206726,-0.505655825138092
1684200688358929400,0.889929443359375,-0.6283953785896301,-0.06862220168113708,-1.3156110048294067
1684200688368954400,0.899954345703125,-1.3370554447174072,-0.6751788258552551,-1.881024718284607
1684200688378980400,0.90998046875,-1.804046869277954,-1.1265465021133423,-2.4664552211761475
1684200688389006300,0.92000634765625,-1.9260586500167847,-1.4944294691085815,-2.791135311126709
1684200688399032300,0.9300322265625,-2.133784532546997,-1.4557840824127197,-2.722682237625122
1684200688409058300,0.940058349609375,-2.525892734527588,-1.1079039573669434,-2.4863109588623047
1684200688419084300,0.950084228515625,-2.4331960678100586,-0.48997411131858826,-2.37984561920166
1684200688429110300,0.9601103515625,-2.177557945251465,0.28630852699279785,-2.091273784637451
1684200688439136300,0.97013623046875,-1.9573585987091064,0.2540065050125122,-1.7372560501098633
1684200688449162200,0.980162353515625,-1.9207643270492554,0.8825119733810425,-1.5433483123779297
1684200688459188500,0.9901884765625,-2.0448780059814453,1.0304876565933228,-0.6502932906150818
1684200688469214500,1.00021435546875,-2.129347562789917,1.1589951515197754,0.42188915610313416
1684200688479240400,1.010240478515625,-2.2595009803771973,1.5869413614273071,1.2750098705291748
1684200688489266400,1.020266357421875,-2.2967658042907715,1.7704657316207886,1.6340272426605225
1684200688499291400,1.03029150390625,-2.049852132797241,1.3605732917785645,1.277572751045227
1684200688509317400,1.0403173828125,-1.8743430376052856,1.3166815042495728,0.2994939982891083
1684200688519343400,1.05034326171875,-2.14790415763855,1.538089632987976,-0.9745604395866394
1684200688529369300,1.060369384765625,-2.925929069519043,1.8590127229690552,-2.102543354034424
1684200688539395300,1.070395263671875,-3.764096975326538,2.1335129737854004,-2.8033177852630615
1684200688549421300,1.08042138671875,-3.844543695449829,1.5806653499603271,-2.5975229740142822
1684200688559447300,1.090447265625,-2.7900397777557373,-0.14840367436408997,-1.2246689796447754
1684200688569473300,1.100473388671875,-1.1700994968414307,-1.0002413988113403,0.16756585240364075
1684200688579499500,1.11049951171875,0.2089410126209259,-1.7055351734161377,1.1842796802520752
1684200688589525500,1.120525390625,0.6566260457038879,-2.5800514221191406,1.8564907312393188
1684200688599551500,1.130551513671875,0.4556296169757843,-3.114290714263916,2.399859666824341
1684200688609577500,1.140577392578125,-0.19578313827514648,-2.8774266242980957,2.673081874847412
1684200688619603500,1.150603515625,-0.8452234864234924,-2.3131864070892334,2.8213722705841064
1684200688629629400,1.16062939453125,-1.2864350080490112,-1.7126359939575195,2.8824288845062256
1684200688639654400,1.170654296875,-1.510833740234375,-1.030176043510437,2.855041027069092
1684200688649680400,1.180680419921875,-1.4215141534805298,-0.2203449308872223,2.637930154800415
1684200688659706400,1.190706298828125,-1.1283073425292969,0.5253990292549133,2.170226573944092
1684200688669732400,1.200732421875,-1.0318419933319092,0.6854252219200134,1.6162294149398804
1684200688679758300,1.21075830078125,-1.291632890701294,0.6605169177055359,1.0776513814926147
1684200688689784300,1.220784423828125,-1.4583860635757446,0.6682667136192322,0.6941049098968506
1684200688699810300,1.230810302734375,-1.5644932985305786,1.0991746187210083,0.4635627865791321
1684200688709836500,1.24083642578125,-1.5357272624969482,1.690508484840393,0.43189990520477295
1684200688719862500,1.250862548828125,-1.451541543006897,2.0340635776519775,0.5901302695274353
1684200688729888500,1.260888427734375,-1.2155135869979858,2.383695363998413,0.9037029147148132
1684200688739914500,1.27091455078125,-0.9737928509712219,2.3750407695770264,1.187350869178772
1684200688749940500,1.2809404296875,-1.6559944152832031,1.6245653629302979,1.1519309282302856
1684200688759966500,1.290966552734375,-2.8531699180603027,1.6090092658996582,0.7721620798110962
1684200688769992400,1.300992431640625,-3.3281545639038086,2.1612257957458496,0.36833545565605164
1684200688780017400,1.311017333984375,-3.3898463249206543,2.246117353439331,-0.08331803232431412
1684200688790043400,1.32104345703125,-3.254493236541748,1.8225082159042358,-0.4769679009914398
1684200688800069400,1.3310693359375,-2.5820698738098145,1.2138776779174805,-0.6712372899055481
1684200688810095400,1.341095458984375,-1.778624176979065,0.45438894629478455,-0.7377501130104065
1684200688820121300,1.351121337890625,-1.2053608894348145,-0.12715888023376465,-0.7460722327232361
1684200688830147300,1.361147216796875,-0.7863146662712097,-0.6441829800605774,-0.6711049675941467
1684200688840173600,1.371173583984375,-0.39169782400131226,-1.2149747610092163,-0.5464490652084351
1684200688850199600,1.381199462890625,-0.03953099995851517,-1.8622384071350098,-0.34358206391334534
1684200688860225500,1.3912255859375,0.21736204624176025,-2.3154399394989014,-0.13496680557727814
1684200688870251500,1.40125146484375,0.26796239614486694,-2.5997016429901123,0.028084762394428253
1684200688880277500,1.411277587890625,0.25003746151924133,-2.4977521896362305,0.12922710180282593
1684200688890303500,1.421303466796875,0.24122220277786255,-2.0785129070281982,0.14475683867931366
1684200688900329500,1.43132958984375,0.26711851358413696,-1.5977777242660522,0.1351446807384491
1684200688910355500,1.44135546875,0.22485679388046265,-1.1710282564163208,0.14436370134353638
1684200688920380400,1.45138037109375,0.2942736744880676,-0.722158670425415,0.18150654435157776
1684200688930406400,1.461406494140625,0.40769243240356445,-0.3090643286705017,0.22896598279476166
1684200688940432400,1.471432373046875,0.46698105335235596,-0.004020258784294128,0.2852862477302551
1684200688950458400,1.481458251953125,0.4579661190509796,0.22739177942276,0.3397461473941803
1684200688960484400,1.491484375,0.3491520285606384,0.4388539493083954,0.3452804684638977
1684200688970510600,1.501510498046875,0.1909266859292984,0.657577395439148,0.28807803988456726
1684200688980536600,1.51153662109375,0.09239425510168076,0.9082474708557129,0.16106975078582764
1684200688990562600,1.5215625,0.11679326742887497,1.071602702140808,-0.040305644273757935
1684200689000588500,1.531588623046875,0.14823082089424133,1.0334312915802002,-0.2836027145385742
1684200689010614300,1.5416142578125,-0.2368299514055252,0.9647881984710693,-0.5731282830238342
1684200689020640300,1.55164013671875,-0.6176121830940247,0.9614847898483276,-0.7397699952125549
1684200689030666200,1.561666259765625,-1.1313802003860474,1.2077916860580444,-0.8595836758613586
1684200689040692200,1.571692138671875,-1.6436525583267212,1.2148000001907349,-0.8718851208686829
1684200689050718200,1.58171826171875,-1.9668406248092651,1.0702372789382935,-0.7713268399238586
1684200689060743400,1.591743408203125,-2.102182388305664,0.926724910736084,-0.5754616856575012
1684200689070769400,1.601769287109375,-2.1204092502593994,0.9151525497436523,-0.3265221118927002
1684200689080795400,1.61179541015625,-2.10939884185791,1.0070204734802246,-0.05824964866042137
1684200689090821400,1.6218212890625,-2.0420165061950684,1.053873896598816,0.21201911568641663
1684200689100847400,1.631847412109375,-1.9488109350204468,0.9829501509666443,0.44531577825546265
1684200689110873300,1.641873291015625,-1.8626450300216675,0.8618904948234558,0.6376193761825562
1684200689120899300,1.6518994140625,-1.8097789287567139,0.6726739406585693,0.7716423869132996
1684200689130925300,1.66192529296875,-1.8212538957595825,0.5102821588516235,0.8860920667648315
1684200689140951300,1.671951416015625,-1.768216848373413,0.3545634150505066,0.9686732292175293
1684200689150977300,1.681977294921875,-1.6434483528137207,0.19329220056533813,1.0439907312393188
1684200689161003300,1.692003173828125,-1.534105658531189,-0.031846899539232254,1.067365050315857
1684200689171029200,1.702029296875,-1.4839686155319214,-0.5413194894790649,1.0472099781036377
1684200689181055200,1.71205517578125,-1.50546133518219,-1.3966580629348755,0.9764087200164795
1684200689191081200,1.722081298828125,-1.6288734674453735,-2.651228189468384,0.8258739113807678
1684200689201106400,1.7321064453125,-1.6998043060302734,-3.7704250812530518,0.4200071096420288
1684200689211132200,1.742132080078125,-1.6525911092758179,-4.531219482421875,-0.14365999400615692
1684200689221158100,1.752158203125,-1.5923161506652832,-4.865372180938721,-0.6290762424468994
1684200689231184400,1.762184326171875,-1.5155526399612427,-4.79812479019165,-0.9640077948570251
1684200689241210400,1.77221044921875,-1.5164130926132202,-4.570007801055908,-1.1436034440994263
1684200689251236400,1.782236328125,-1.660075306892395,-4.335989475250244,-1.2508870363235474
1684200689261262300,1.792262451171875,-1.8418680429458618,-3.988804817199707,-1.363581657409668
1684200689271288300,1.802288330078125,-1.9953430891036987,-3.0086772441864014,-1.3606431484222412
1684200689281314300,1.812314208984375,-2.0343687534332275,-0.7113388776779175,-0.8094491958618164
1684200689291340300,1.82234033203125,-1.939705491065979,2.8163161277770996,0.4921897351741791
1684200689301366300,1.8323662109375,-1.7119988203048706,3.9175970554351807,1.0524253845214844
1684200689311392300,1.842392333984375,-1.3822773694992065,3.849539041519165,1.2120933532714844
1684200689321418200,1.852418212890625,-1.0379961729049683,3.5586118698120117,1.2862468957901
1684200689331444200,1.8624443359375,-0.7380651831626892,3.0480005741119385,1.4460614919662476
1684200689341469200,1.87246923828125,-0.6039941906929016,2.4036927223205566,1.6292356252670288
1684200689351495200,1.8824951171875,-0.5560743808746338,1.8987399339675903,1.7464998960494995
1684200689361521400,1.892521484375,-0.5526737570762634,1.4117028713226318,1.8567209243774414
1684200689371547400,1.90254736328125,-0.5668045282363892,1.0007729530334473,1.9537445306777954
1684200689381573400,1.912573486328125,-0.5902467370033264,0.7089824080467224,1.994350790977478
1684200689391599400,1.922599365234375,-0.6425149440765381,0.45959728956222534,1.9408130645751953
1684200689401625300,1.932625244140625,-0.6099922060966492,0.2573850750923157,1.622152328491211
1684200689411651300,1.9426513671875,-0.4211142957210541,0.1992749720811844,1.0188632011413574
1684200689421677300,1.95267724609375,-0.19861596822738647,0.18338894844055176,0.28297457098960876
1684200689431703300,1.962703369140625,-0.07199207693338394,-0.0007570154266431928,-0.3345714807510376
1684200689441729300,1.972729248046875,-0.0486859492957592,-0.3957538604736328,-0.6920334696769714
1684200689451755000,1.982755126953125,-0.04403650015592575,-0.8521994352340698,-0.8143383860588074
1684200689461781000,1.992781005859375,0.0030897315591573715,-1.2737964391708374,-0.7985032200813293
1684200689471807000,2.002806884765625,0.013843958266079426,-1.64763605594635,-0.7432532906532288
1684200689481833000,2.0128330078125,0.004226484335958958,-1.9372718334197998,-0.6861737370491028
1684200689491858000,2.02285791015625,0.002721891738474369,-2.1379520893096924,-0.6501679420471191
1684200689501884000,2.0328837890625,-0.0033378649968653917,-2.267940044403076,-0.6223238110542297
1684200689511910000,2.042909912109375,-0.04712600260972977,-2.313810348510742,-0.590242326259613
1684200689521936000,2.052935791015625,-0.09567809104919434,-2.26406192779541,-0.5509527325630188
1684200689531961900,2.0629619140625,-0.11848374456167221,-2.112886667251587,-0.520313560962677
1684200689541987800,2.07298779296875,-0.12962587177753448,-1.8484398126602173,-0.4976639449596405
1684200689552014000,2.08301416015625,-0.11739684641361237,-1.4797394275665283,-0.48334038257598877
1684200689562040000,2.0930400390625,-0.0853361189365387,-1.0236504077911377,-0.49507614970207214
1684200689572066000,2.103066162109375,-0.02875002659857273,-0.4551790654659271,-0.519575297832489
1684200689582092000,2.113092041015625,0.0020166749600321054,0.18106235563755035,-0.5342016220092773
1684200689592118000,2.123117919921875,-0.00048080342821776867,0.7468385696411133,-0.47527068853378296
1684200689602144000,2.13314404296875,-0.010883643291890621,1.2200520038604736,-0.3564143478870392
1684200689612170000,2.143169921875,-0.006941540166735649,1.6084028482437134,-0.21345308423042297
1684200689622196000,2.153196044921875,0.04196634888648987,1.9065998792648315,-0.07586992532014847
1684200689632221000,2.163220947265625,0.12293533980846405,2.0608317852020264,0.0436263345181942
1684200689642247000,2.173246826171875,0.20981377363204956,2.049255132675171,0.1315244883298874
1684200689652273000,2.18327294921875,0.3306962251663208,1.804945945739746,0.1425570547580719
1684200689662299000,2.193298828125,0.5255786180496216,1.2250761985778809,0.04708992689847946
1684200689672324900,2.203324951171875,0.7986166477203369,-0.12005874514579773,-0.38401514291763306
1684200689682351000,2.21335107421875,1.2266931533813477,-3.0409250259399414,-1.8299685716629028
1684200689692377000,2.223377197265625,1.5161575078964233,-4.519357204437256,-3.023167610168457
1684200689702403000,2.233403076171875,1.5693199634552002,-4.285339832305908,-3.4447078704833984
1684200689712429000,2.243428955078125,1.5078577995300293,-3.133124351501465,-3.3044686317443848
1684200689722455000,2.253455078125,1.514744520187378,-1.5907275676727295,-2.967562198638916
1684200689732481000,2.26348095703125,1.5694804191589355,-0.23089373111724854,-2.5724096298217773
1684200689742507000,2.273507080078125,1.5859880447387695,0.7251880168914795,-2.259648084640503
1684200689752533000,2.283532958984375,1.535917043685913,1.4084550142288208,-2.0484201908111572
1684200689762559000,2.29355908203125,1.3751832246780396,2.09535813331604,-1.8708860874176025
1684200689772584000,2.303583984375,1.2401896715164185,2.7400567531585693,-1.7555780410766602
1684200689782610000,2.31360986328125,1.2700910568237305,2.773521661758423,-1.5862500667572021
1684200689792636000,2.323635986328125,1.3726954460144043,2.19852614402771,-1.3729064464569092
1684200689802662000,2.333661865234375,1.4650720357894897,1.3525424003601074,-1.1859190464019775
1684200689812688100,2.343688232421875,1.4581912755966187,0.5424744486808777,-1.1274993419647217
1684200689822714000,2.353714111328125,1.406019687652588,0.09626074880361557,-1.1747158765792847
1684200689832740000,2.363739990234375,1.4034502506256104,-0.16469092667102814,-1.1906758546829224
1684200689842766000,2.37376611328125,1.4120514392852783,-0.28019461035728455,-1.1466951370239258
1684200689852792000,2.3837919921875,1.3659937381744385,-0.16928987205028534,-1.0906144380569458
1684200689862818000,2.393818115234375,1.2943885326385498,0.215555801987648,-1.0113794803619385
1684200689872844000,2.403843994140625,1.2216401100158691,0.6651563048362732,-0.8801615834236145
1684200689882870000,2.4138701171875,1.2243828773498535,1.025924563407898,-0.699529767036438
1684200689892896000,2.42389599609375,1.2037570476531982,1.2110284566879272,-0.5408673286437988
1684200689902922000,2.433921875,1.2014153003692627,1.1725037097930908,-0.4285029172897339
1684200689912948000,2.443947998046875,1.21598219871521,1.0162017345428467,-0.35728588700294495
1684200689922973000,2.453972900390625,1.2099024057388306,0.9277461767196655,-0.3402368426322937
1684200689932999000,2.4639990234375,1.1800140142440796,0.9428166747093201,-0.3580242097377777
1684200689943025200,2.474025146484375,1.127358317375183,0.9733681678771973,-0.3962504267692566
1684200689953051100,2.484051025390625,1.0390985012054443,0.9315003156661987,-0.40748509764671326
1684200689963077000,2.4940771484375,0.9357561469078064,0.8449670076370239,-0.3917876183986664
1684200689973103000,2.50410302734375,0.8424904346466064,0.7568435072898865,-0.3527015745639801
1684200689983129000,2.514129150390625,0.7633431553840637,0.6894139051437378,-0.25887200236320496
1684200689993155000,2.524155029296875,0.6814262866973877,0.6286227107048035,-0.14196936786174774
1684200690003181000,2.53418115234375,0.6114011406898499,0.5495774149894714,-0.02646886743605137
1684200690013207000,2.54420703125,0.5182593464851379,0.4494399130344391,0.10516292601823807
1684200690023233000,2.55423291015625,0.42889803647994995,0.30445370078086853,0.22178755700588226
1684200690033259000,2.564259033203125,0.34869423508644104,0.16451412439346313,0.29163914918899536
1684200690043285000,2.574284912109375,0.2771635949611664,0.07681941241025925,0.2972799837589264
1684200690053311200,2.584311279296875,0.21210512518882751,0.04049102962017059,0.2917804419994354
1684200690063336000,2.5943359375,0.13139589130878448,0.06003117561340332,0.28839102387428284
1684200690073362200,2.604362060546875,0.039181217551231384,0.13058651983737946,0.29192620515823364
1684200690083388200,2.61438818359375,-0.051930319517850876,0.2627139389514923,0.28776395320892334
1684200690093414100,2.6244140625,-0.1393391638994217,0.3900235891342163,0.28610411286354065
1684200690103440100,2.634440185546875,-0.21959511935710907,0.458263099193573,0.2993312180042267
1684200690113466000,2.644466064453125,-0.28069549798965454,0.4576871395111084,0.3415343463420868
1684200690123492000,2.6544921875,-0.33350279927253723,0.38311782479286194,0.4414665400981903
1684200690133518000,2.66451806640625,-0.3774469196796417,0.23942600190639496,0.5672107934951782
1684200690143544000,2.6745439453125,-0.412361204624176,0.05758668854832649,0.7088401317596436
1684200690153570000,2.684570068359375,-0.44163936376571655,-0.11090313643217087,0.8523452281951904
1684200690163596000,2.694595947265625,-0.47003212571144104,-0.19682097434997559,0.9770994186401367
1684200690173622000,2.7046220703125,-0.48366114497184753,-0.19111861288547516,1.068755030632019
1684200690183648000,2.71464794921875,-0.4753776490688324,-0.11647821217775345,1.1378533840179443
1684200690193674000,2.724674072265625,-0.4413987398147583,-0.042108744382858276,1.1893689632415771
1684200690203700000,2.734699951171875,-0.3886984884738922,-0.004018619656562805,1.2254518270492554
1684200690213725200,2.74472509765625,-0.31876102089881897,-0.048211872577667236,1.244948148727417
1684200690223751200,2.754751220703125,-0.2527737319469452,-0.12266959249973297,1.2603492736816406
1684200690233777200,2.764777099609375,-0.20585091412067413,-0.18511782586574554,1.2837200164794922
1684200690243803100,2.77480322265625,-0.1850588172674179,-0.21078911423683167,1.2874889373779297
1684200690253829000,2.7848291015625,-0.1649230718612671,-0.1772518903017044,1.2430832386016846
1684200690263855000,2.794855224609375,-0.156635582447052,-0.09161687642335892,1.142186164855957
1684200690273880800,2.804880859375,-0.15051071345806122,0.04109806939959526,0.9876960515975952
1684200690283906800,2.81490673828125,-0.1696854680776596,0.20361746847629547,0.8466007113456726
1684200690293932800,2.824932861328125,-0.23383517563343048,0.3747482895851135,0.7523618936538696
1684200690303958800,2.834958740234375,-0.33648139238357544,0.48037779331207275,0.7049837112426758
1684200690313985000,2.844985107421875,-0.48361584544181824,0.4908806383609772,0.6896304488182068
1684200690324011000,2.855010986328125,-0.6519875526428223,0.4699234366416931,0.6962057948112488
1684200690334037000,2.865037109375,-0.8386198878288269,0.40836653113365173,0.7211681604385376
1684200690344063000,2.87506298828125,-1.0243465900421143,0.2974613308906555,0.8471572399139404
1684200690354088200,2.885088134765625,-1.2038201093673706,0.25236356258392334,1.0141348838806152
1684200690364114000,2.895114013671875,-1.3375118970870972,0.24814379215240479,1.1924598217010498
1684200690374140000,2.905139892578125,-1.4089275598526,0.28097349405288696,1.3344722986221313
1684200690384166000,2.915165771484375,-1.4445102214813232,0.3447255790233612,1.4038777351379395
1684200690394192000,2.92519189453125,-1.4748612642288208,0.3534339964389801,1.4048737287521362
1684200690404217900,2.9352177734375,-1.4864838123321533,0.26743146777153015,1.3110265731811523
1684200690414243800,2.945243896484375,-1.4585530757904053,0.06298529356718063,1.15615975856781
1684200690424269800,2.955269775390625,-1.3795446157455444,-0.21342924237251282,0.959064781665802
1684200690434295800,2.9652958984375,-1.2321767807006836,-0.45912617444992065,0.7671709060668945
1684200690444322000,2.975322021484375,-0.9972851276397705,-0.5960670113563538,0.6397173404693604
1684200690454348800,2.985348876953125,-0.711272120475769,-0.614479660987854,0.582954466342926
1684200690464374800,2.995374755859375,-0.37961530685424805,-0.5344244837760925,0.5512159466743469
1684200690474400800,3.00540087890625,-0.07409847527742386,-0.3621475398540497,0.46885839104652405
1684200690484427000,3.015427001953125,0.020890356972813606,-0.1231517493724823,0.25441133975982666
1684200690494451700,3.02545166015625,-0.06581354886293411,0.16761237382888794,-0.08489766716957092
1684200690504478000,3.03547802734375,-0.20335596799850464,0.41814684867858887,-0.40174514055252075
1684200690514504000,3.04550390625,-0.30104076862335205,0.5687332153320312,-0.5775979161262512
1684200690524530000,3.055530029296875,-0.3776947855949402,0.6768128275871277,-0.6027222275733948
1684200690534556000,3.065555908203125,-0.47026339173316956,0.7122422456741333,-0.5177863240242004
1684200690544582000,3.075581787109375,-0.5810416340827942,0.6579673290252686,-0.3738999664783478
1684200690554607900,3.08560791015625,-0.6957259774208069,0.5366145968437195,-0.2012384980916977
1684200690564633900,3.0956337890625,-0.7976776361465454,0.4183278977870941,-0.04012790322303772
1684200690574659800,3.105659912109375,-0.8491929769515991,0.33838656544685364,0.08488993346691132
1684200690584685800,3.115685791015625,-0.8390870690345764,0.2940915524959564,0.16198791563510895
1684200690594711800,3.1257119140625,-0.7751640677452087,0.26914530992507935,0.1890651285648346
1684200690604737800,3.13573779296875,-0.6900483965873718,0.20681960880756378,0.19507640600204468
1684200690614764000,3.145763916015625,-0.5998222231864929,0.07297038286924362,0.19515880942344666
1684200690624790000,3.1557900390625,-0.5191444754600525,-0.12265637516975403,0.20469212532043457
1684200690634816000,3.16581591796875,-0.4410445988178253,-0.3416524827480316,0.22981122136116028
1684200690644841000,3.175841064453125,-0.3625364601612091,-0.48510071635246277,0.2516062557697296
1684200690654867000,3.185866943359375,-0.3057766556739807,-0.49015793204307556,0.2598680257797241
1684200690664893000,3.195892822265625,-0.2719497084617615,-0.34864741563796997,0.23795980215072632
1684200690674919000,3.2059189453125,-0.256811261177063,-0.14180545508861542,0.18968605995178223
1684200690684945000,3.21594482421875,-0.2632177770137787,0.05041458457708359,0.14297901093959808
1684200690694971000,3.225970947265625,-0.2802037298679352,0.21446041762828827,0.0990656167268753
1684200690704996900,3.235996826171875,-0.2883453071117401,0.4204085171222687,0.03379020839929581
1684200690715022800,3.24602294921875,-0.2998701333999634,0.6735670566558838,-0.04256176948547363
1684200690725048800,3.256048828125,-0.34816282987594604,0.9921761751174927,-0.13601742684841156
1684200690735074800,3.26607470703125,-0.3771125078201294,1.3898202180862427,-0.27079451084136963
1684200690745101000,3.27610107421875,-0.36671632528305054,1.7466126680374146,-0.3787883520126343
1684200690755127000,3.286126953125,-0.32541701197624207,1.9065152406692505,-0.40024879574775696
1684200690765153000,3.296153076171875,-0.25832822918891907,1.8005146980285645,-0.359001487493515
1684200690775179000,3.306178955078125,-0.17914849519729614,1.4643393754959106,-0.258848637342453
1684200690785204000,3.316203857421875,-0.10190536826848984,1.023930311203003,-0.11415056884288788
1684200690795230000,3.32622998046875,-0.03586781024932861,0.6343711018562317,0.03276398777961731
1684200690805256000,3.336255859375,0.04063788428902626,0.36868858337402344,0.1498274952173233
1684200690815282000,3.346281982421875,0.11250019073486328,0.2192094326019287,0.24104587733745575
1684200690825308000,3.356307861328125,0.15909379720687866,0.15162746608257294,0.30797722935676575
1684200690835334000,3.366333984375,0.18033038079738617,0.17637453973293304,0.3400368392467499
1684200690845359900,3.37635986328125,0.17026443779468536,0.25672024488449097,0.34356924891471863
1684200690855385900,3.3863857421875,0.1452217549085617,0.31905412673950195,0.33299875259399414
1684200690865411800,3.396411865234375,0.12728962302207947,0.36727866530418396,0.2987089455127716
1684200690875438000,3.40643798828125,0.125558003783226,0.3842097222805023,0.2519536316394806
1684200690885464000,3.416464111328125,0.12175846099853516,0.3394835293292999,0.22956711053848267
1684200690895490000,3.426489990234375,0.10928738117218018,0.22235926985740662,0.23250287771224976
1684200690905516000,3.43651611328125,0.09895218908786774,0.0891980230808258,0.25974008440971375
1684200690915541800,3.446541748046875,0.1010315865278244,-0.03883085772395134,0.29244980216026306
1684200690925567700,3.456567626953125,0.11935999989509583,-0.1290728747844696,0.3269380033016205
1684200690935593000,3.466593017578125,0.13635607063770294,-0.1926601529121399,0.36575865745544434
1684200690945619000,3.476618896484375,0.13698138296604156,-0.23374447226524353,0.3955405056476593
1684200690955645000,3.48664501953125,0.11343634873628616,-0.22101013362407684,0.39965495467185974
1684200690965671000,3.4966708984375,0.07306762039661407,-0.16478946805000305,0.35321980714797974
1684200690975697000,3.50669677734375,0.02579738199710846,-0.10144957900047302,0.2771585285663605
1684200690985723000,3.516722900390625,-0.021587975323200226,-0.028011847287416458,0.19659394025802612
1684200690995748900,3.526748779296875,-0.06598237156867981,0.013722513802349567,0.13832412660121918
1684200691005774800,3.53677490234375,-0.09716878831386566,0.01996230147778988,0.1151687428355217
1684200691015800800,3.54680078125,-0.12886597216129303,0.01772375963628292,0.11758597940206528
1684200691025826800,3.556826904296875,-0.1397809386253357,0.04021841660141945,0.14263194799423218
1684200691035852800,3.566852783203125,-0.14403460919857025,0.08749166131019592,0.18919555842876434
1684200691045878800,3.576878662109375,-0.15227390825748444,0.12673068046569824,0.23833593726158142
1684200691055904800,3.58690478515625,-0.15907450020313263,0.16928555071353912,0.2860284149646759
1684200691065930800,3.5969306640625,-0.19258558750152588,0.17154283821582794,0.29792553186416626
1684200691075956000,3.6069560546875,-0.20358124375343323,0.11318793892860413,0.2749060392379761
1684200691085982000,3.61698193359375,-0.19063028693199158,0.0034686364233493805,0.2272184193134308
1684200691096008000,3.627008056640625,-0.18435141444206238,-0.14235006272792816,0.1664058268070221
1684200691106034000,3.637033935546875,-0.18198280036449432,-0.2830573618412018,0.0986504852771759
1684200691116060000,3.647059814453125,-0.18539337813854218,-0.35179564356803894,0.027902334928512573
1684200691126085600,3.657085693359375,-0.1893891841173172,-0.327058881521225,-0.038580551743507385
1684200691136111900,3.66711181640625,-0.19946114718914032,-0.24286453425884247,-0.0736740380525589
1684200691146137900,3.677137939453125,-0.2052103877067566,-0.11620058864355087,-0.06757033616304398
1684200691156163800,3.687163818359375,-0.20038248598575592,0.010375489480793476,-0.03084668330848217
1684200691166189800,3.69718994140625,-0.18757560849189758,0.10503088682889938,0.029180701822042465
1684200691176215800,3.7072158203125,-0.1788434237241745,0.157770574092865,0.09440332651138306
1684200691186241800,3.71724169921875,-0.1905655860900879,0.17366911470890045,0.15483151376247406
1684200691196267800,3.727267822265625,-0.1954842358827591,0.17001138627529144,0.18324825167655945
1684200691206293800,3.737293701171875,-0.17656753957271576,0.15015378594398499,0.19034451246261597
1684200691216319700,3.74731982421875,-0.16092413663864136,0.08469808101654053,0.18516358733177185
1684200691226344700,3.7573447265625,-0.1569187343120575,-0.04045424237847328,0.1845710426568985
1684200691236370700,3.76737060546875,-0.1502888947725296,-0.1931479275226593,0.18578842282295227
1684200691246396700,3.777396728515625,-0.13021345436573029,-0.3092319369316101,0.19541709125041962
1684200691256422700,3.787422607421875,-0.114249087870121,-0.365226149559021,0.21550360321998596
1684200691266449000,3.797448974609375,-0.11988913267850876,-0.3756311237812042,0.25802338123321533
1684200691276475000,3.807474853515625,-0.13354912400245667,-0.34958750009536743,0.30485886335372925
1684200691286500900,3.8175009765625,-0.12362192571163177,-0.28874677419662476,0.3359470069408417
1684200691296526800,3.82752685546875,-0.12019055336713791,-0.2333536595106125,0.3523517847061157
1684200691306552800,3.837552734375,-0.1297915130853653,-0.19479773938655853,0.3534463346004486
1684200691316578800,3.847578857421875,-0.1426428109407425,-0.17941536009311676,0.33790817856788635
1684200691326604800,3.857604736328125,-0.1445762664079666,-0.18508309125900269,0.30111899971961975
1684200691336630800,3.867630859375,-0.14566707611083984,-0.23176375031471252,0.2719516456127167
1684200691346656800,3.87765673828125,-0.14057910442352295,-0.27601030468940735,0.23912498354911804
1684200691356682800,3.887682861328125,-0.13817618787288666,-0.2919937074184418,0.20006920397281647
1684200691366707700,3.897707763671875,-0.13167116045951843,-0.3298792839050293,0.18012718856334686
1684200691376733700,3.907733642578125,-0.132742241024971,-0.39608436822891235,0.17147254943847656
1684200691386759700,3.917759765625,-0.1283237785100937,-0.4745733141899109,0.17069649696350098
1684200691396786000,3.927785888671875,-0.11972466111183167,-0.554205596446991,0.16863927245140076
1684200691406812000,3.93781201171875,-0.11882610619068146,-0.6047660112380981,0.15419772267341614
1684200691416838000,3.947837890625,-0.12784329056739807,-0.6113930344581604,0.13904748857021332
1684200691426863900,3.95786376953125,-0.13766342401504517,-0.5862829089164734,0.12548641860485077
1684200691436889900,3.967889892578125,-0.13978911936283112,-0.5500523447990417,0.10724029690027237
1684200691446915800,3.977915771484375,-0.1286906599998474,-0.5209605097770691,0.0871288999915123
1684200691456940800,3.98794091796875,-0.10852745920419693,-0.49840614199638367,0.06021078675985336
1684200691466967000,3.997967041015625,-0.06885461509227753,-0.45277154445648193,0.008681286126375198
1684200691476993000,4.007992919921875,-0.04225419834256172,-0.37598732113838196,-0.07455351948738098
1684200691487019000,4.01801904296875,-0.038966525346040726,-0.2960338890552521,-0.1752266138792038
1684200691497045000,4.028044921875,-0.027955209836363792,-0.17338579893112183,-0.2887868881225586
1684200691507071000,4.038071044921875,0.005110330879688263,-0.06427022069692612,-0.40246471762657166
1684200691517096000,4.048095947265625,0.06904464960098267,-0.00042929325718432665,-0.4866671562194824
1684200691527122000,4.058121826171875,0.16921359300613403,-0.06430361419916153,-0.5277038216590881
1684200691537148000,4.06814794921875,0.2919269800186157,-0.32976043224334717,-0.5408945679664612
1684200691547174000,4.078173828125,0.4230668842792511,-0.866381049156189,-0.5715718269348145
1684200691557200000,4.088199951171875,0.5829455256462097,-1.7532908916473389,-0.6929469704627991
1684200691567225900,4.098225830078125,0.7746114134788513,-2.8535053730010986,-0.9860960841178894
1684200691577251800,4.108251953125,0.9757033586502075,-3.7829058170318604,-1.421028733253479
1684200691587277800,4.11827783203125,1.0964998006820679,-4.103732585906982,-1.9461050033569336
1684200691597304000,4.128303955078125,1.0676170587539673,-3.6239330768585205,-2.4270052909851074
1684200691607330000,4.138330078125,1.0020948648452759,-2.583725929260254,-2.8342974185943604
1684200691617356000,4.14835595703125,1.0607959032058716,-1.462478518486023,-3.1526989936828613
1684200691627382000,4.158382080078125,1.0653352737426758,-0.7095637917518616,-3.19586181640625
1684200691637408000,4.168407958984375,0.9981908798217773,-0.48046058416366577,-3.007209062576294
1684200691647434000,4.17843408203125,0.9978166818618774,-0.4688777029514313,-2.725832462310791
1684200691657459000,4.188458984375,1.0034559965133667,-0.5516440272331238,-2.3804285526275635
1684200691667485000,4.19848486328125,0.9476803541183472,-0.7139586210250854,-1.953018307685852
1684200691677511000,4.208510986328125,0.8571733236312866,-0.799362063407898,-1.4912968873977661
1684200691687537000,4.218536865234375,1.0140212774276733,-0.4718230366706848,-0.8496795892715454
1684200691697563000,4.22856298828125,1.4216408729553223,-0.2920522391796112,-0.29092374444007874
1684200691707588900,4.2385888671875,1.8273327350616455,-0.7215895056724548,-0.14792877435684204
1684200691717614800,4.24861474609375,1.9654048681259155,-1.0813994407653809,-0.37276914715766907
1684200691727641000,4.25864111328125,1.8615589141845703,-0.85970139503479,-0.7187483310699463
1684200691737667000,4.2686669921875,1.65967857837677,-0.2957218587398529,-0.9952710866928101
1684200691747693000,4.278693115234375,1.481139898300171,0.33896881341934204,-1.1606251001358032
1684200691757719000,4.288718994140625,1.4354509115219116,0.933722972869873,-1.152923345565796
1684200691767745000,4.2987451171875,1.4278373718261719,1.373582124710083,-1.0508770942687988
1684200691777771000,4.30877099609375,1.3131189346313477,1.6834282875061035,-1.007286787033081
1684200691787797000,4.318796875,1.1810929775238037,1.8202623128890991,-1.0409162044525146
1684200691797823000,4.328822998046875,1.1373201608657837,1.6193979978561401,-1.0589110851287842
1684200691807848000,4.338847900390625,1.134333610534668,1.1769219636917114,-0.9909783601760864
1684200691817874000,4.3488740234375,1.1325063705444336,0.8549817800521851,-0.9093416929244995
1684200691827900000,4.35889990234375,1.0846527814865112,0.7070279717445374,-0.7824087738990784
1684200691837926000,4.36892578125,1.0741524696350098,0.7774636149406433,-0.7267672419548035
1684200691847952000,4.378951904296875,1.112152338027954,0.8826481103897095,-0.6941872239112854
1684200691857978000,4.38897802734375,1.1580036878585815,0.8628796339035034,-0.6000798940658569
1684200691868004000,4.399004150390625,1.1551482677459717,0.7568693161010742,-0.4856278598308563
1684200691878030000,4.409030029296875,1.085008144378662,0.6655401587486267,-0.3519939184188843
1684200691888056000,4.41905615234375,0.9977681040763855,0.6875847578048706,-0.23123155534267426
1684200691898082000,4.42908203125,0.9302219748497009,0.7872897386550903,-0.14403235912322998
1684200691908108000,4.43910791015625,0.8506371378898621,0.876152753829956,-0.10093788802623749
1684200691918134000,4.449134033203125,0.7350082397460938,0.83793705701828,-0.06867928057909012
1684200691928160000,4.459159912109375,0.6045804619789124,0.697476863861084,-0.043324120342731476
1684200691938186000,4.46918603515625,0.49508795142173767,0.5339443683624268,0.023841114714741707
1684200691948212000,4.4792119140625,0.3939938247203827,0.5037428140640259,0.11620033532381058
1684200691958237000,4.48923681640625,0.3119797110557556,0.5327593088150024,0.22596295177936554
1684200691968263000,4.499262939453125,0.23879924416542053,0.5554563999176025,0.3209728002548218
1684200691978289000,4.509288818359375,0.17036765813827515,0.5697753429412842,0.3766694664955139
1684200691988315100,4.519315185546875,0.0937541127204895,0.5644679665565491,0.4016938805580139
1684200691998341000,4.529341064453125,0.018934082239866257,0.5762119293212891,0.41222187876701355
1684200692008367000,4.5393671875,-0.04774162173271179,0.5967355966567993,0.44151532649993896
1684200692018393000,4.54939306640625,-0.09017142653465271,0.5965210199356079,0.5047376751899719
1684200692028419000,4.559419189453125,-0.13159184157848358,0.5354099869728088,0.5726381540298462
1684200692038445000,4.569445068359375,-0.17720821499824524,0.41439005732536316,0.639183521270752
1684200692048471000,4.579470947265625,-0.23137158155441284,0.2623983919620514,0.710598349571228
1684200692058497000,4.5894970703125,-0.2726069688796997,0.12992240488529205,0.7817259430885315
1684200692068523000,4.59952294921875,-0.30390283465385437,0.04767199978232384,0.8365926742553711
1684200692078549000,4.609549072265625,-0.3227537274360657,-0.009966402314603329,0.8940426111221313
1684200692088575000,4.619574951171875,-0.3372141420841217,-0.0785827487707138,0.9693578481674194
1684200692098601200,4.629601318359375,-0.33066684007644653,-0.19133031368255615,1.0513076782226562
1684200692108626000,4.6396259765625,-0.26861438155174255,-0.3826259672641754,1.1411195993423462
1684200692118652200,4.649652099609375,-0.1668161302804947,-0.6494914293289185,1.2576791048049927
1684200692128678100,4.65967822265625,-0.05862333998084068,-0.914025604724884,1.4151557683944702
1684200692138704100,4.6697041015625,0.021244235336780548,-1.0868982076644897,1.5562212467193604
1684200692148730000,4.679730224609375,0.03577151149511337,-1.1851626634597778,1.6542320251464844
1684200692158756000,4.689756103515625,-0.0314214751124382,-1.1650502681732178,1.6954212188720703
1684200692168782000,4.699781982421875,-0.10947420448064804,-1.0078442096710205,1.6308579444885254
1684200692178808000,4.70980810546875,-0.18077842891216278,-0.7095012664794922,1.468548059463501
1684200692188834000,4.719833984375,-0.2601720690727234,-0.3371122479438782,1.26793372631073
1684200692198860000,4.729860107421875,-0.3155485689640045,0.004171828273683786,1.0857741832733154
1684200692208886000,4.739885986328125,-0.36266013979911804,0.23076315224170685,0.916719377040863
1684200692218912000,4.749912109375,-0.41311880946159363,0.3191814720630646,0.7502323985099792
1684200692228938000,4.75993798828125,-0.4726244807243347,0.3003007173538208,0.6059429049491882
1684200692238964000,4.7699638671875,-0.5406624674797058,0.22757568955421448,0.5078941583633423
1684200692248989200,4.7799892578125,-0.6020278334617615,0.12304501980543137,0.484720379114151
1684200692259015200,4.79001513671875,-0.6547103524208069,0.04387415945529938,0.5127769112586975
1684200692269041200,4.800041259765625,-0.711634635925293,0.014388968236744404,0.5784978866577148
1684200692279067100,4.810067138671875,-0.7845751047134399,0.06603600829839706,0.6632050275802612
1684200692289093000,4.820093017578125,-0.8905918002128601,0.19395722448825836,0.7560867667198181
1684200692299119000,4.830119140625,-1.0381314754486084,0.3960140645503998,0.8599612712860107
1684200692309145000,4.84014501953125,-1.2243202924728394,0.6104139685630798,0.964708685874939
1684200692319171000,4.850171142578125,-1.4152987003326416,0.7279423475265503,1.0419714450836182
1684200692329197000,4.860197021484375,-1.5740410089492798,0.691796064376831,1.0705287456512451
1684200692339222800,4.870222900390625,-1.6791869401931763,0.5307355523109436,1.07553231716156
1684200692349248800,4.880248779296875,-1.688076376914978,0.347725510597229,1.069177508354187
1684200692359275000,4.89027490234375,-1.5790131092071533,0.21048583090305328,1.0874578952789307
1684200692369301000,4.900301025390625,-1.3544870615005493,0.11615853011608124,1.1779848337173462
1684200692379327000,4.910326904296875,-1.049867868423462,-0.14871229231357574,1.2632039785385132
1684200692389353000,4.92035302734375,-0.8213928937911987,-0.5417405366897583,1.2705761194229126
1684200692399379000,4.93037890625,-0.6949499249458313,-0.7953710556030273,1.1972122192382812
1684200692409404200,4.940404052734375,-0.5935066938400269,-0.9022665619850159,1.013221263885498
1684200692419430100,4.95043017578125,-0.4368245303630829,-0.9309974312782288,0.6993950605392456
1684200692429456000,4.960455810546875,-0.29582586884498596,-0.9046939015388489,0.3226429522037506
1684200692439481900,4.97048193359375,-0.24247503280639648,-0.5216962695121765,0.04270604997873306
1684200692449507800,4.9805078125,-0.1987571120262146,0.08176377415657043,-0.08438532799482346
1684200692459534000,4.9905341796875,-0.13973361253738403,0.47974199056625366,-0.17435309290885925
1684200692469560000,5.00056005859375,-0.1369066685438156,0.554811954498291,-0.2757204473018646
1684200692479586000,5.0105859375,-0.21214412152767181,0.42994698882102966,-0.36420154571533203
1684200692489612000,5.020612060546875,-0.3061419725418091,0.33831506967544556,-0.4308980107307434
1684200692499638300,5.03063818359375,-0.3888208866119385,0.39289069175720215,-0.4452178478240967
1684200692509664300,5.040664306640625,-0.4664866626262665,0.5247613191604614,-0.3882181942462921
1684200692519690200,5.050690185546875,-0.5362103581428528,0.6368877291679382,-0.28837063908576965
1684200692529716200,5.06071630859375,-0.6000458002090454,0.6725432276725769,-0.19149921834468842
1684200692539742200,5.0707421875,-0.6695752739906311,0.6300399899482727,-0.1179330125451088
1684200692549767200,5.08076708984375,-0.7087964415550232,0.4950754940509796,-0.09249716252088547
1684200692559793200,5.090793212890625,-0.6602330803871155,0.26366451382637024,-0.10569775849580765
1684200692569819100,5.100819091796875,-0.5365140438079834,-0.09036014974117279,-0.1325778365135193
1684200692579845000,5.11084521484375,-0.4114079475402832,-0.41959068179130554,-0.1786738932132721
1684200692589871000,5.12087109375,-0.3815200924873352,-0.3950459063053131,-0.3431781530380249
1684200692599897000,5.13089697265625,-0.3929472267627716,0.06241324171423912,-0.613257646560669
1684200692609923000,5.140923095703125,-0.40255165100097656,0.7731726169586182,-0.8867768049240112
1684200692619949000,5.150948974609375,-0.39577847719192505,1.3547792434692383,-1.0349690914154053
1684200692629975300,5.160975341796875,-0.35816851258277893,1.6621708869934082,-1.0319950580596924
1684200692640001300,5.171001220703125,-0.3215670585632324,1.7328120470046997,-0.9454886317253113
1684200692650027300,5.18102734375,-0.29930490255355835,1.6711950302124023,-0.8400628566741943
1684200692660053200,5.19105322265625,-0.2577434182167053,1.5277535915374756,-0.7461035251617432
1684200692670079200,5.201079345703125,-0.20457445085048676,1.2980021238327026,-0.6275486946105957
1684200692680105200,5.211105224609375,-0.12943361699581146,0.9389539957046509,-0.4667570888996124
1684200692690131200,5.221131103515625,-0.04233971983194351,0.4759799838066101,-0.2654772400856018
1684200692700156200,5.23115625,0.05997588112950325,0.027644071727991104,-0.05234143137931824
1684200692710182100,5.24118212890625,0.1700725555419922,-0.3716822862625122,0.14954935014247894
1684200692720208100,5.2512080078125,0.2530243396759033,-0.7048092484474182,0.3394598662853241
1684200692730234000,5.261234130859375,0.28166264295578003,-0.9467718005180359,0.5043926239013672
1684200692740260000,5.271260009765625,0.3029607832431793,-1.0730031728744507,0.6375563144683838
1684200692750286000,5.2812861328125,0.3063722848892212,-1.0809301137924194,0.7345776557922363
1684200692760312300,5.291312255859375,0.32000529766082764,-0.9212616682052612,0.793659508228302
1684200692770338300,5.30133837890625,0.30949434638023376,-0.6562784314155579,0.830653965473175
1684200692780364300,5.3113642578125,0.27116161584854126,-0.33119437098503113,0.8463956713676453
1684200692790390300,5.321390380859375,0.2580447494983673,-0.031505897641181946,0.8583652377128601
1684200692800416300,5.331416259765625,0.2235747128725052,0.20195119082927704,0.8599849343299866
1684200692810442200,5.341442138671875,0.20599810779094696,0.3644886910915375,0.8458307981491089
1684200692820468200,5.35146826171875,0.19295455515384674,0.429047167301178,0.8289750218391418
1684200692830494200,5.361494140625,0.1918831616640091,0.41995593905448914,0.8025359511375427
1684200692840520200,5.371520263671875,0.21429488062858582,0.3418307602405548,0.7645571231842041
1684200692850545200,5.381545166015625,0.24036429822444916,0.20677733421325684,0.741921603679657
1684200692860571100,5.391571044921875,0.25239098072052,0.04191755875945091,0.7332580089569092
1684200692870597000,5.40159716796875,0.2403460144996643,-0.11980263143777847,0.7111191153526306
1684200692880623000,5.411623046875,0.22716033458709717,-0.2580636143684387,0.6763395667076111
1684200692890649300,5.4216494140625,0.2020893394947052,-0.3144432604312897,0.6234526634216309
1684200692900675300,5.43167529296875,0.16630038619041443,-0.21711595356464386,0.5404609441757202
1684200692910701300,5.441701416015625,0.12996822595596313,-0.01835465058684349,0.42281875014305115
1684200692920727300,5.451727294921875,0.10327491909265518,0.13027460873126984,0.2790485918521881
1684200692930753300,5.461753173828125,0.07291515171527863,0.15564148128032684,0.15164589881896973
1684200692940779300,5.471779296875,0.047639913856983185,0.07211154699325562,0.0584748312830925
1684200692950805200,5.48180517578125,0.021772362291812897,-0.044552743434906006,-0.018257763236761093
1684200692960831200,5.491831298828125,0.0012336241779848933,-0.11290987581014633,-0.08698488771915436
1684200692970857200,5.501857177734375,-0.0037105341907590628,-0.12047112733125687,-0.1379985511302948
1684200692980883200,5.51188330078125,0.0024038057308644056,-0.10649717599153519,-0.14542923867702484
1684200692990909200,5.5219091796875,-0.0030474187806248665,-0.11522834748029709,-0.10387539863586426
1684200693000934100,5.53193408203125,0.0003700425149872899,-0.1314081996679306,-0.029298800975084305
1684200693010960100,5.541960205078125,-0.0133401770144701,-0.15164662897586823,0.06984616070985794
1684200693020986400,5.551986328125,-0.05464247986674309,-0.18456609547138214,0.1766214519739151
1684200693031012400,5.562012451171875,-0.09950023889541626,-0.20641574263572693,0.27207422256469727
1684200693041038300,5.572038330078125,-0.1256440132856369,-0.21941103041172028,0.32671058177948
1684200693051064300,5.582064208984375,-0.12438512593507767,-0.25291651487350464,0.3553246557712555
1684200693061090300,5.59209033203125,-0.1215289905667305,-0.32776185870170593,0.3682324290275574
1684200693071116300,5.6021162109375,-0.1414094865322113,-0.4247528314590454,0.37633511424064636
1684200693081142300,5.612142333984375,-0.1864081621170044,-0.5236222147941589,0.37610942125320435
1684200693091168300,5.622168212890625,-0.20654457807540894,-0.5862951874732971,0.3558560907840729
1684200693101194200,5.6321943359375,-0.20051120221614838,-0.5960603356361389,0.3092831075191498
1684200693111220200,5.64222021484375,-0.1675221025943756,-0.5797367691993713,0.24368010461330414
1684200693121246200,5.65224609375,-0.1412435621023178,-0.639945924282074,0.1768035590648651
1684200693131272200,5.662272216796875,-0.1396733671426773,-0.7553907632827759,0.13008718192577362
1684200693141298200,5.672298095703125,-0.15362100303173065,-0.8075310587882996,0.11360099911689758
1684200693151323400,5.682323486328125,-0.20235152542591095,-0.7612290978431702,0.12544114887714386
1684200693161349400,5.692349365234375,-0.26261603832244873,-0.6336609721183777,0.1493431180715561
1684200693171375400,5.702375244140625,-0.31217160820961,-0.4374493360519409,0.17868608236312866
1684200693181401300,5.7124013671875,-0.34434327483177185,-0.20002628862857819,0.22301025688648224
1684200693191427300,5.72242724609375,-0.37232646346092224,0.058134954422712326,0.2840842604637146
1684200693201453300,5.732453369140625,-0.3893973231315613,0.3010374903678894,0.3473786413669586
1684200693211479300,5.742479248046875,-0.39297765493392944,0.48029008507728577,0.4043615162372589
1684200693221505300,5.75250537109375,-0.3638801872730255,0.5575227737426758,0.4466164708137512
1684200693231531300,5.76253125,-0.3096502125263214,0.5120314359664917,0.4595660865306854
1684200693241557200,5.77255712890625,-0.2498425990343094,0.3203369379043579,0.44500812888145447
1684200693251583000,5.7825830078125,-0.18999017775058746,-0.020659267902374268,0.38419055938720703
1684200693261609200,5.792609130859375,-0.11912938207387924,-0.4224451184272766,0.2668762505054474
1684200693271635200,5.80263525390625,-0.05486944317817688,-0.7212252020835876,0.12287886440753937
1684200693281661200,5.8126611328125,-0.03370147570967674,-0.8312978744506836,-0.01359195914119482
1684200693291687200,5.822687255859375,-0.054596107453107834,-0.8176547884941101,-0.10891128331422806
1684200693301712400,5.83271240234375,-0.07089661061763763,-0.7457313537597656,-0.16315077245235443
1684200693311738400,5.84273828125,-0.06375055015087128,-0.6830629110336304,-0.2059837132692337
1684200693321764400,5.852764404296875,-0.014415272511541843,-0.6196363568305969,-0.2650581896305084
1684200693331790300,5.862790283203125,0.0851893499493599,-0.5298742055892944,-0.34492024779319763
1684200693341816000,5.872816162109375,0.1903202384710312,-0.42230474948883057,-0.41300737857818604
1684200693351842000,5.882842041015625,0.26058268547058105,-0.33922213315963745,-0.4533630609512329
1684200693361868000,5.892867919921875,0.31779682636260986,-0.33647704124450684,-0.4689437448978424
1684200693371894000,5.90289404296875,0.3806708753108978,-0.40833231806755066,-0.47162556648254395
1684200693381920000,5.912919921875,0.44225189089775085,-0.5616790652275085,-0.4564577043056488
1684200693391946200,5.9229462890625,0.48240596055984497,-0.7360295057296753,-0.4559655487537384
1684200693401972200,5.93297216796875,0.5114191770553589,-0.9602002501487732,-0.48101386427879333
1684200693411998200,5.942998291015625,0.546746551990509,-1.3655540943145752,-0.5551612973213196
1684200693422024200,5.953024169921875,0.6276095509529114,-1.9855417013168335,-0.691292941570282
1684200693432050200,5.96305029296875,0.7489743232727051,-2.5399253368377686,-0.9350182414054871
1684200693442075100,5.9730751953125,0.8724815845489502,-2.7407867908477783,-1.2787691354751587
1684200693452101000,5.98310107421875,0.9358155727386475,-2.536508798599243,-1.6500643491744995
1684200693462127600,5.993127685546875,0.9003588557243347,-2.0995492935180664,-1.929530382156372
1684200693472153600,6.003153564453125,0.8286671042442322,-1.7252117395401,-2.153998613357544
1684200693482179600,6.0131796875,0.7701655030250549,-1.551069974899292,-2.2674245834350586
1684200693492205600,6.02320556640625,0.676092803478241,-1.4117772579193115,-2.2596001625061035
1684200693502231600,6.0332314453125,0.5346413254737854,-1.1683882474899292,-2.204287528991699
1684200693512257800,6.0432578125,0.4003485143184662,-0.8506658673286438,-2.1085362434387207
1684200693522283800,6.05328369140625,0.3103838860988617,-0.5688488483428955,-1.9084527492523193
1684200693532309800,6.063309814453125,0.2423396110534668,-0.23681338131427765,-1.576877236366272
1684200693542335700,6.073335693359375,0.18545366823673248,0.16948005557060242,-1.1493746042251587
1684200693552361700,6.08336181640625,0.17815101146697998,0.6690787076950073,-0.6005733013153076
1684200693562387700,6.0933876953125,0.23268499970436096,1.1084080934524536,-0.031829386949539185
1684200693572413700,6.10341357421875,0.37726345658302307,1.2418402433395386,0.43188366293907166
1684200693582439700,6.113439697265625,0.5705267190933228,1.0604926347732544,0.6352737545967102
1684200693592465700,6.123465576171875,0.7620927095413208,0.7042785286903381,0.5626320838928223
1684200693602490600,6.13349072265625,0.916142463684082,0.27748700976371765,0.36624041199684143
1684200693612516600,6.1435166015625,0.9827680587768555,0.008869661018252373,0.21612709760665894
1684200693622542600,6.15354248046875,0.9414611458778381,-0.046660445630550385,0.17821434140205383
1684200693632568600,6.163568603515625,0.8942800164222717,0.01878887228667736,0.20715650916099548
1684200693642594800,6.1735947265625,0.832646906375885,0.11303193867206573,0.22706666588783264
1684200693652620800,6.183620849609375,0.7688764333724976,0.1633869856595993,0.2358122169971466
1684200693662646800,6.193646728515625,0.7120262384414673,0.21069744229316711,0.21430081129074097
1684200693672672800,6.2036728515625,0.6532033681869507,0.2948232591152191,0.17211927473545074
1684200693682698800,6.21369873046875,0.5786001086235046,0.48060324788093567,0.09473313391208649
1684200693692724700,6.223724853515625,0.5157196521759033,0.6692311763763428,0.003102282527834177
1684200693702750700,6.233750732421875,0.4706707000732422,0.7782489657402039,-0.0888434574007988
1684200693712776700,6.243776611328125,0.45779457688331604,0.9376375675201416,-0.16342288255691528
1684200693722802700,6.253802734375,0.4586683213710785,1.1459262371063232,-0.20512042939662933
1684200693732828700,6.26382861328125,0.48077282309532166,1.354206919670105,-0.1895390748977661
1684200693742854700,6.273854736328125,0.514175295829773,1.5222089290618896,-0.13862161338329315
1684200693752879600,6.283879638671875,0.5300469398498535,1.607344627380371,-0.0855480208992958
1684200693762905600,6.293905517578125,0.5237400531768799,1.6428964138031006,-0.038331445306539536
1684200693772931800,6.303931884765625,0.4999138116836548,1.6446176767349243,-0.03352736681699753
1684200693782957800,6.313957763671875,0.4812559187412262,1.6215628385543823,-0.08466479927301407
1684200693792983800,6.32398388671875,0.4751266539096832,1.5852848291397095,-0.1507260948419571
1684200693803009800,6.334009765625,0.47572845220565796,1.557235598564148,-0.21261169016361237
1684200693813035800,6.344035888671875,0.48104602098464966,1.5462303161621094,-0.24665966629981995
1684200693823061800,6.354061767578125,0.4798131287097931,1.5732535123825073,-0.23135288059711456
1684200693833087700,6.364087646484375,0.4735933244228363,1.6481655836105347,-0.17817488312721252
1684200693843113700,6.37411376953125,0.4472516179084778,1.778181552886963,-0.11309244483709335
1684200693853139700,6.3841396484375,0.418361097574234,1.9523736238479614,-0.06083323433995247
1684200693863165700,6.394165771484375,0.39581796526908875,2.134382486343384,-0.040731269866228104
1684200693873191700,6.404191650390625,0.3702353835105896,2.268803834915161,-0.04060104116797447
1684200693883218000,6.414218017578125,0.34416940808296204,2.3428754806518555,-0.04976721480488777
1684200693893244000,6.424243896484375,0.32495230436325073,2.366384506225586,-0.050270553678274155
1684200693903268900,6.434268798828125,0.3128523528575897,2.347172498703003,-0.043428629636764526
1684200693913294800,6.444294921875,0.29741185903549194,2.3059706687927246,-0.024528175592422485
1684200693923320800,6.45432080078125,0.27200138568878174,2.2742652893066406,-0.00031066685914993286
1684200693933346800,6.464346923828125,0.2398301064968109,2.2732298374176025,0.00450752442702651
1684200693943372800,6.474372802734375,0.197207510471344,2.335740566253662,-0.013406334444880486
1684200693953398800,6.484398681640625,0.1480759233236313,2.4239368438720703,-0.06272275000810623
1684200693963424800,6.4944248046875,0.108994260430336,2.4898459911346436,-0.13346435129642487
1684200693973450800,6.50445068359375,0.08047260344028473,2.5346624851226807,-0.19082938134670258
1684200693983476700,6.514476806640625,0.049166712909936905,2.546349048614502,-0.23545920848846436
1684200693993502700,6.524502685546875,0.0020460733212530613,2.5271100997924805,-0.3091866970062256
1684200694003528700,6.53452880859375,-0.05480916053056717,2.519272565841675,-0.4212764799594879
1684200694013554700,6.5445546875,-0.11962890625,2.539745807647705,-0.5520363450050354
1684200694023580700,6.55458056640625,-0.18577644228935242,2.6144988536834717,-0.6574482917785645
1684200694033606700,6.564606689453125,-0.23910197615623474,2.6907529830932617,-0.714653491973877
1684200694043632600,6.574632568359375,-0.2697950005531311,2.702425479888916,-0.7432196140289307
1684200694053657900,6.584657958984375,-0.276487797498703,2.646956205368042,-0.754400372505188
1684200694063683800,6.594683837890625,-0.2683858871459961,2.558927297592163,-0.7287112474441528
1684200694073709800,6.604709716796875,-0.2562037706375122,2.4988574981689453,-0.6388460397720337
1684200694083735800,6.61473583984375,-0.24927212297916412,2.5047566890716553,-0.4935333728790283
1684200694093761800,6.62476171875,-0.2508940100669861,2.5174334049224854,-0.30554723739624023
1684200694103787800,6.634787841796875,-0.26288485527038574,2.5111422538757324,-0.14592571556568146
1684200694113813800,6.644813720703125,-0.28053203225135803,2.484004020690918,-0.0436701737344265
1684200694123839700,6.65483984375,-0.3023230731487274,2.424239158630371,0.0031833508983254433
1684200694133865500,6.664865478515625,-0.3307914733886719,2.343053102493286,0.008469300344586372
1684200694143891700,6.6748916015625,-0.36838021874427795,2.251598358154297,-0.013795683160424232
1684200694153917700,6.684917724609375,-0.4017120599746704,2.1702847480773926,-0.06980755180120468
1684200694163943700,6.694943603515625,-0.4243830144405365,2.1334218978881836,-0.16526472568511963
1684200694173969700,6.7049697265625,-0.44271063804626465,2.1579487323760986,-0.28635308146476746
1684200694183995600,6.71499560546875,-0.4579469859600067,2.29008150100708,-0.376850426197052
1684200694194021600,6.725021728515625,-0.46534472703933716,2.515693187713623,-0.3969295918941498
1684200694204046800,6.735046875,-0.443729043006897,2.814328670501709,-0.3680723309516907
1684200694214072800,6.74507275390625,-0.3855384588241577,3.113837718963623,-0.31900572776794434
1684200694224098600,6.7550986328125,-0.2995748221874237,3.275054931640625,-0.228860542178154
1684200694234124500,6.76512451171875,-0.2184581458568573,3.2151429653167725,-0.09330510348081589
1684200694244150500,6.775150634765625,-0.1489153802394867,2.999533176422119,0.05743556097149849
1684200694254176500,6.785176513671875,-0.09680743515491486,2.7196176052093506,0.19625070691108704
1684200694264202500,6.795202392578125,-0.049597229808568954,2.365642547607422,0.32603389024734497
1684200694274228700,6.805228759765625,-0.011824815534055233,1.9353399276733398,0.4383060932159424
1684200694284254700,6.815254638671875,-0.06398425996303558,1.4465219974517822,0.5461116433143616
1684200694294280700,6.82528076171875,-0.2522127628326416,0.9759317636489868,0.6522601842880249
1684200694304306700,6.835306640625,-0.41846317052841187,0.8493250608444214,0.7756344676017761
1684200694314332700,6.845332763671875,-0.21561817824840546,1.404867172241211,0.6195899844169617
1684200694324358700,6.855358642578125,0.03751960024237633,2.1388161182403564,0.10333354026079178
1684200694334384600,6.865384521484375,-0.14213670790195465,2.752042531967163,-0.3320906162261963
1684200694344410600,6.87541064453125,-0.4130105972290039,3.1795568466186523,-0.7106471657752991
1684200694354435600,6.885435546875,-0.5613473057746887,3.2515347003936768,-0.955655574798584
1684200694364461600,6.895461669921875,-0.6253746151924133,3.163316011428833,-1.031850814819336
1684200694374487600,6.905487548828125,-0.6809853911399841,3.1884419918060303,-1.002697467803955
1684200694384513500,6.915513427734375,-0.7096823453903198,3.336167097091675,-0.9125260710716248
1684200694394539500,6.92553955078125,-0.6892929077148438,3.5403754711151123,-0.7149946093559265
1684200694404565800,6.935565673828125,-0.5977484583854675,3.6723055839538574,-0.42324110865592957
1684200694414591700,6.945591796875,-0.4455285370349884,3.5662567615509033,-0.04504559561610222
1684200694424617700,6.95561767578125,-0.2552684247493744,3.1443166732788086,0.37271934747695923
1684200694434643700,6.965643798828125,-0.08831112831830978,2.5647666454315186,0.6317676901817322
1684200694444669700,6.975669677734375,-0.006894505582749844,2.1811482906341553,0.6036463379859924
1684200694454695700,6.98569580078125,0.014518375508487225,2.1695101261138916,0.3295156955718994
1684200694464722000,6.995721923828125,-0.015847334638237953,2.4958457946777344,-0.04466071352362633
1684200694474748000,7.005747802734375,-0.07563184201717377,2.9737954139709473,-0.38636985421180725
1684200694484774000,7.01577392578125,-0.1316894143819809,3.412933349609375,-0.6088944673538208
1684200694494800000,7.0257998046875,-0.20615725219249725,3.652684211730957,-0.71236652135849
1684200694504824800,7.035824951171875,-0.23627661168575287,3.7055702209472656,-0.7493090033531189
1684200694514850800,7.045850830078125,-0.18135477602481842,3.579570770263672,-0.7482128739356995
1684200694524876800,7.055876708984375,-0.098293237388134,3.286112070083618,-0.7245336174964905
1684200694534902800,7.06590283203125,-0.019794175401329994,2.866091012954712,-0.6959565281867981
1684200694544928800,7.0759287109375,0.03226082772016525,2.49580454826355,-0.682576060295105
1684200694554954800,7.085954833984375,0.06319717317819595,2.2520148754119873,-0.6901593804359436
1684200694564980700,7.095980712890625,0.04375162720680237,2.1385998725891113,-0.6810939908027649
1684200694575006700,7.1060068359375,-0.00015537580475211143,2.1979143619537354,-0.6578056812286377
1684200694585033000,7.116032958984375,-0.0536949560046196,2.4018959999084473,-0.6085970997810364
1684200694595059000,7.126058837890625,-0.11686459928750992,2.7275352478027344,-0.555580735206604
1684200694605085000,7.1360849609375,-0.19347666203975677,3.112365484237671,-0.5219873189926147
1684200694615111000,7.14611083984375,-0.27037757635116577,3.4600846767425537,-0.514435887336731
1684200694625137000,7.156136962890625,-0.35586482286453247,3.731692314147949,-0.546565055847168
1684200694635163000,7.166162841796875,-0.4411248564720154,3.9344091415405273,-0.6092686653137207
1684200694645188900,7.17618896484375,-0.5087583065032959,4.045730113983154,-0.6825365424156189
1684200694655213800,7.1862138671875,-0.5445341467857361,4.061417579650879,-0.7486809492111206
1684200694665239800,7.19623974609375,-0.5635283589363098,4.012960910797119,-0.8130739331245422
1684200694675265800,7.206265869140625,-0.5565279722213745,3.9261858463287354,-0.8677667379379272
1684200694685291800,7.216291748046875,-0.5252947807312012,3.834402084350586,-0.9070647358894348
1684200694695317800,7.22631787109375,-0.4795054793357849,3.7641797065734863,-0.9276195168495178
1684200694705343700,7.23634375,-0.4155217707157135,3.6411995887756348,-0.9215614795684814
1684200694715370000,7.246369873046875,-0.361613005399704,3.4321300983428955,-0.888638973236084
1684200694725396000,7.25639599609375,-0.31271272897720337,3.166995048522949,-0.8414666652679443
1684200694735422000,7.266421875,-0.2554561197757721,2.886753797531128,-0.7985884547233582
1684200694745448000,7.276447998046875,-0.2146739959716797,2.5958268642425537,-0.7434078454971313
1684200694755474000,7.286473876953125,-0.18172164261341095,2.3003594875335693,-0.676636815071106
1684200694765500000,7.2965,-0.15736576914787292,1.996883749961853,-0.6193118691444397
1684200694775526000,7.30652587890625,-0.14948999881744385,1.7314025163650513,-0.5791287422180176
1684200694785552000,7.3165517578125,-0.15438787639141083,1.5283437967300415,-0.5487410426139832
1684200694795577900,7.326577880859375,-0.17259271442890167,1.4210652112960815,-0.5314025282859802
1684200694805602800,7.336602783203125,-0.1928912252187729,1.4379040002822876,-0.5131912231445312
1684200694815628800,7.34662890625,-0.21983282268047333,1.6113766431808472,-0.48307034373283386
1684200694825654800,7.35665478515625,-0.2747754156589508,1.935731053352356,-0.43602779507637024
1684200694835680800,7.3666806640625,-0.3738868236541748,2.3115599155426025,-0.3906802833080292
1684200694845707000,7.37670703125,-0.47781988978385925,2.54827880859375,-0.4120292663574219
1684200694855733000,7.38673291015625,-0.5384374260902405,2.5677292346954346,-0.5252473950386047
1684200694865759000,7.396759033203125,-0.5782755017280579,2.4502956867218018,-0.6827338337898254
1684200694875785000,7.406784912109375,-0.614660918712616,2.294278621673584,-0.8229469060897827
1684200694885811000,7.41681103515625,-0.6347225904464722,2.1793124675750732,-0.9225945472717285
1684200694895837000,7.4268369140625,-0.6251163482666016,2.13631010055542,-0.9672136902809143
1684200694905863000,7.43686279296875,-0.5949322581291199,2.1596415042877197,-0.9668859243392944
1684200694915889000,7.446888916015625,-0.5558059215545654,2.1907591819763184,-0.9227224588394165
1684200694925915000,7.456914794921875,-0.4988511800765991,2.1715304851531982,-0.8501406311988831
1684200694935940900,7.46694091796875,-0.42036592960357666,2.1057872772216797,-0.7691406011581421
1684200694945966800,7.476966796875,-0.33122843503952026,2.012634038925171,-0.6881106495857239
1684200694955991800,7.48699169921875,-0.24484799802303314,1.8895323276519775,-0.630939781665802
1684200694966017800,7.497017822265625,-0.16249538958072662,1.6974750757217407,-0.5954517722129822
1684200694976044000,7.5070439453125,-0.08585574477910995,1.402989387512207,-0.6094525456428528
1684200694986070000,7.517070068359375,-0.007986354641616344,1.0697805881500244,-0.7036392092704773
1684200694996096000,7.527095947265625,0.0600757859647274,0.7273143529891968,-0.8546407222747803
1684200695006122000,7.5371220703125,0.11867108196020126,0.36152079701423645,-1.1056586503982544
1684200695016148000,7.54714794921875,0.17659644782543182,-0.11598959565162659,-1.6005882024765015
1684200695026174000,7.557174072265625,0.22653338313102722,-0.7965525388717651,-2.376134157180786
1684200695036200000,7.567199951171875,0.22319777309894562,-1.2624802589416504,-2.93593430519104
1684200695046225700,7.5772255859375,0.1879018247127533,-1.379839539527893,-3.1738266944885254
1684200695056251600,7.587251708984375,0.1987864375114441,-1.109725832939148,-3.100825786590576
1684200695066277600,7.597277587890625,0.2102295458316803,-0.6847995519638062,-2.715391159057617
1684200695076303600,7.6073037109375,0.2691900432109833,-0.15771444141864777,-2.2330493927001953
1684200695086329900,7.617329833984375,0.3746226727962494,0.33206814527511597,-1.784254550933838
1684200695096355800,7.62735595703125,0.527326762676239,0.6397674083709717,-1.387338638305664
1684200695106381800,7.6373818359375,0.670007586479187,0.5803350806236267,-1.0593557357788086
1684200695116407000,7.647406982421875,0.773041307926178,0.26529672741889954,-0.8813176155090332
1684200695126432800,7.657432861328125,0.8169293999671936,-0.2160550206899643,-0.856711208820343
1684200695136458800,7.667458740234375,0.9056875109672546,-0.8880698680877686,-0.8899751305580139
1684200695146484700,7.677484619140625,1.0738492012023926,-1.2919409275054932,-0.8010499477386475
1684200695156510700,7.6875107421875,1.2720504999160767,-1.25901198387146,-0.5451793074607849
1684200695166536700,7.69753662109375,1.4550098180770874,-0.882727324962616,-0.21286819875240326
1684200695176562700,7.707562744140625,1.636763095855713,-0.1710529327392578,0.07934793829917908
1684200695186588700,7.717588623046875,1.758062720298767,0.5533849596977234,0.10329385846853256
1684200695196614700,7.72761474609375,1.7749756574630737,0.9824020862579346,-0.09920518100261688
1684200695206640600,7.737640625,1.6919093132019043,1.1074283123016357,-0.2921496033668518
1684200695216667000,7.7476669921875,1.5875937938690186,1.2008682489395142,-0.3836555480957031
1684200695226692900,7.75769287109375,1.4824106693267822,1.1337342262268066,-0.4306184649467468
1684200695236718800,7.76771875,1.3920725584030151,1.1147807836532593,-0.4902104437351227
1684200695246744800,7.777744873046875,1.291533350944519,1.1839929819107056,-0.5470431447029114
1684200695256770800,7.787770751953125,1.1835116147994995,1.2335381507873535,-0.5777744054794312
1684200695266795800,7.797795654296875,1.0798078775405884,1.2382999658584595,-0.6103981733322144
1684200695276821800,7.80782177734375,0.9714754223823547,1.1699185371398926,-0.6578533053398132
1684200695286847700,7.81784765625,0.8891224265098572,1.0562164783477783,-0.6788113117218018
1684200695296873700,7.827873779296875,0.8348256349563599,0.9233390688896179,-0.623116135597229
1684200695306899700,7.837899658203125,0.7872030735015869,0.8087431788444519,-0.4924358129501343
1684200695316925700,7.84792578125,0.7232440710067749,0.6246724128723145,-0.30567818880081177
1684200695326951700,7.85795166015625,0.648637592792511,0.4123777449131012,-0.09223057329654694
1684200695336977700,7.867977783203125,0.5927900671958923,0.2560235559940338,0.07334214448928833
1684200695347004000,7.87800390625,0.5657368898391724,0.16945402324199677,0.18646208941936493
1684200695357030000,7.88802978515625,0.5636210441589355,0.13483932614326477,0.24846582114696503
1684200695367056000,7.898055908203125,0.5530819296836853,0.13448818027973175,0.2553112804889679
1684200695377081900,7.908081787109375,0.5012813210487366,0.20462678372859955,0.2003660351037979
1684200695387107800,7.91810791015625,0.43631118535995483,0.40656691789627075,0.11363859474658966
1684200695397133800,7.9281337890625,0.39890870451927185,0.7025352120399475,0.016444131731987
1684200695407159800,7.938159912109375,0.3896164298057556,0.9801506400108337,-0.052507877349853516
1684200695417185800,7.948185791015625,0.38333189487457275,1.1518504619598389,-0.08582455664873123
1684200695427210800,7.958210693359375,0.3700112998485565,1.1695705652236938,-0.08626951277256012
1684200695437236700,7.96823681640625,0.35777488350868225,1.0811389684677124,-0.05684478208422661
1684200695447262700,7.9782626953125,0.3518414795398712,0.9065677523612976,0.04484637454152107
1684200695457288200,7.9882880859375,0.3356984853744507,0.695313572883606,0.21721521019935608
1684200695467314200,7.998314208984375,0.29419609904289246,0.4845973253250122,0.41308143734931946
1684200695477340200,8.008340087890625,0.2195008248090744,0.3613632619380951,0.5842002034187317
1684200695487366400,8.018366455078125,0.1266496479511261,0.34133297204971313,0.7063716053962708
1684200695497392400,8.028392333984375,0.02208542264997959,0.45855891704559326,0.77180016040802
1684200695507418400,8.03841845703125,-0.06859632581472397,0.6543561220169067,0.7670882344245911
1684200695517444400,8.0484443359375,-0.13076435029506683,0.8904165625572205,0.7241740226745605
1684200695527470300,8.05847021484375,-0.17101089656352997,1.128355860710144,0.6745434999465942
1684200695537496300,8.068496337890625,-0.18245503306388855,1.2978647947311401,0.626825213432312
1684200695547522300,8.078522216796875,-0.18294574320316315,1.3521043062210083,0.5882989764213562
1684200695557548300,8.08854833984375,-0.16060929000377655,1.2632700204849243,0.5728739500045776
1684200695567574300,8.09857421875,-0.11442720144987106,1.0699526071548462,0.570355236530304
1684200695577599200,8.10859912109375,-0.07737410813570023,0.8683266043663025,0.5728676915168762
1684200695587625200,8.118625244140626,-0.0795903205871582,0.739194929599762,0.5892001390457153
1684200695597651200,8.128651123046875,-0.11922507733106613,0.6896671056747437,0.624644935131073
1684200695607677200,8.13867724609375,-0.18351754546165466,0.6450255513191223,0.6825025677680969
1684200695617703400,8.148703369140625,-0.2546045184135437,0.6358030438423157,0.7779055237770081
1684200695627729400,8.1587294921875,-0.3326161801815033,0.6563557982444763,0.9058131575584412
1684200695637755400,8.16875537109375,-0.4427464008331299,0.6070074439048767,1.0350425243377686
1684200695647781400,8.178781494140624,-0.5642611384391785,0.4392136037349701,1.1332052946090698
1684200695657807400,8.188807373046876,-0.6629354953765869,0.22086074948310852,1.163683295249939
1684200695667833300,8.198833251953126,-0.6896812915802002,0.06578890234231949,1.1420847177505493
1684200695677859300,8.208859375,-0.6809325218200684,0.002026438480243087,1.0934292078018188
1684200695687885300,8.21888525390625,-0.66722172498703,0.005148702766746283,1.0428425073623657
1684200695697911300,8.228911376953125,-0.6208992004394531,0.10300283133983612,0.9760618805885315
1684200695707937300,8.238937255859375,-0.5449790954589844,0.2619394063949585,0.8850317001342773
1684200695717963300,8.24896337890625,-0.4892556369304657,0.37229493260383606,0.8160417079925537
1684200695727988200,8.25898828125,-0.42225170135498047,0.3507751226425171,0.7801445722579956
1684200695738014200,8.26901416015625,-0.3196544647216797,0.19605693221092224,0.7044815421104431
1684200695748040400,8.27904052734375,-0.2314036637544632,0.08398821949958801,0.5731425285339355
1684200695758066400,8.28906640625,-0.2084280401468277,0.07537981867790222,0.4055497944355011
1684200695768092400,8.299092529296875,-0.18975389003753662,0.13346752524375916,0.25294461846351624
1684200695778118400,8.309118408203124,-0.14609003067016602,0.181410551071167,0.16558626294136047
1684200695788144400,8.319144287109374,-0.10595350712537766,0.2162511944770813,0.1460617333650589
1684200695798170400,8.32917041015625,-0.09264169633388519,0.2128676474094391,0.13302288949489594
1684200695808196400,8.3391962890625,-0.1001785397529602,0.16909831762313843,0.07916104048490524
1684200695818222300,8.349222412109375,-0.11959990859031677,0.11015697568655014,-0.00547741400077939
1684200695828248300,8.359248291015625,-0.15610277652740479,0.10660362988710403,-0.07787821441888809
1684200695838274300,8.3692744140625,-0.21309815347194672,0.1874324381351471,-0.10635247081518173
1684200695848300300,8.37930029296875,-0.26488369703292847,0.3258150517940521,-0.08648501336574554
1684200695858326500,8.389326416015624,-0.306912362575531,0.45362359285354614,-0.030967965722084045
1684200695868352500,8.3993525390625,-0.34310969710350037,0.49940407276153564,0.036686550825834274
1684200695878377500,8.40937744140625,-0.3961170017719269,0.4522320330142975,0.10690159350633621
1684200695888403500,8.419403564453125,-0.4399139881134033,0.30167797207832336,0.17705917358398438
1684200695898429400,8.429429443359375,-0.4750666320323944,0.0726972371339798,0.2500723898410797
1684200695908455400,8.439455322265625,-0.504295825958252,-0.20095519721508026,0.318863183259964
1684200695918481400,8.4494814453125,-0.5195464491844177,-0.4798099994659424,0.39649882912635803
1684200695928507400,8.45950732421875,-0.536994218826294,-0.8075252771377563,0.46264931559562683
1684200695938533400,8.469533447265626,-0.512858510017395,-1.1373425722122192,0.5097697377204895
1684200695948559400,8.479559326171875,-0.4394943416118622,-1.395336627960205,0.5475571751594543
1684200695958585300,8.48958544921875,-0.3438458740711212,-1.5093410015106201,0.5720276832580566
1684200695968611300,8.499611328125,-0.26827386021614075,-1.4851527214050293,0.5656918883323669
1684200695978637300,8.50963720703125,-0.22316817939281464,-1.4012665748596191,0.5116563439369202
1684200695988663600,8.51966357421875,-0.20252157747745514,-1.2573524713516235,0.41220590472221375
1684200695998689500,8.529689453125,-0.21185995638370514,-1.0939449071884155,0.2801021933555603
1684200696008715300,8.53971533203125,-0.26041626930236816,-0.9320379495620728,0.13742126524448395
1684200696018741200,8.5497412109375,-0.32687997817993164,-0.7786492109298706,0.0013475790619850159
1684200696028767200,8.559767333984375,-0.3848366141319275,-0.5932059288024902,-0.1431768536567688
1684200696038792400,8.56979248046875,-0.4341317415237427,-0.33990469574928284,-0.30373936891555786
1684200696048818400,8.579818359375,-0.49171632528305054,-0.0347822867333889,-0.4652368426322937
1684200696058844400,8.589844482421874,-0.5287427306175232,0.30578193068504333,-0.575651228427887
1684200696068870400,8.599870361328126,-0.5338467955589294,0.686764121055603,-0.6252275705337524
1684200696078896400,8.609896484375,-0.48960500955581665,1.0707322359085083,-0.585740864276886
1684200696088922400,8.61992236328125,-0.4424336850643158,1.3842614889144897,-0.5390757322311401
1684200696098948400,8.6299482421875,-0.3845384418964386,1.549602746963501,-0.46040698885917664
1684200696108974300,8.639974365234375,-0.3255247175693512,1.5230287313461304,-0.34704235196113586
1684200696119000300,8.650000244140625,-0.2757672667503357,1.322654128074646,-0.21429575979709625
1684200696129026300,8.6600263671875,-0.19178462028503418,0.9421224594116211,-0.054562024772167206
1684200696139052300,8.67005224609375,-0.08254307508468628,0.37519723176956177,0.11551596224308014
1684200696149078300,8.680078369140626,0.018593071028590202,-0.2515828013420105,0.24093790352344513
1684200696159104300,8.690104248046875,0.10356388986110687,-0.7428825497627258,0.325849324464798
1684200696169130200,8.700130126953125,0.1341697722673416,-0.9716563820838928,0.36873820424079895
1684200696179156200,8.71015625,0.11543896049261093,-0.964915931224823,0.39433571696281433
1684200696189181400,8.720181396484374,0.1179734319448471,-0.8061779737472534,0.4225893020629883
1684200696199207400,8.73020751953125,0.11445539444684982,-0.6316413283348083,0.4658832550048828
1684200696209233400,8.7402333984375,0.10563136637210846,-0.41965413093566895,0.5119721293449402
1684200696219259100,8.750259033203125,0.09952899813652039,-0.20353595912456512,0.5748246312141418
1684200696229285000,8.76028515625,0.09533433616161346,0.014965488575398922,0.6333549618721008
1684200696239311000,8.77031103515625,0.09459637105464935,0.19750280678272247,0.6882080435752869
1684200696249337300,8.78033740234375,0.09758599102497101,0.3247217833995819,0.7278963327407837
1684200696259363300,8.79036328125,0.10608839988708496,0.39492619037628174,0.7368773221969604
1684200696269389300,8.800389404296874,0.16597118973731995,0.3432486057281494,0.7396171689033508
1684200696279415300,8.810415283203126,0.22028662264347076,0.16229641437530518,0.7399958968162537
1684200696289441300,8.820441162109375,0.2606917917728424,-0.09703612327575684,0.7267633676528931
1684200696299467300,8.83046728515625,0.27537378668785095,-0.40971624851226807,0.6969772577285767
1684200696309493200,8.8404931640625,0.27859774231910706,-0.6948139667510986,0.6373422741889954
1684200696319519200,8.850519287109375,0.27558809518814087,-0.88756263256073,0.5296789407730103
1684200696329545200,8.860545166015624,0.25246095657348633,-0.9593744277954102,0.376120924949646
1684200696339571200,8.8705712890625,0.20938140153884888,-0.8939637541770935,0.20585624873638153
1684200696349596200,8.88059619140625,0.15843608975410461,-0.7345200777053833,0.0523548386991024
1684200696359622100,8.8906220703125,0.11602845042943954,-0.5375326871871948,-0.0515582449734211
1684200696369648000,8.900648193359375,0.09288416057825089,-0.33768266439437866,-0.09217821061611176
1684200696379674400,8.91067431640625,0.07474483549594879,-0.16854237020015717,-0.07804667949676514
1684200696389700400,8.920700439453125,0.05452500656247139,-0.046798478811979294,-0.025324568152427673
1684200696399726300,8.930726318359374,0.030024457722902298,0.031627357006073,0.06326628476381302
1684200696409752300,8.94075244140625,0.009379805997014046,0.08850962668657303,0.15632714331150055
1684200696419778300,8.9507783203125,0.001731473719701171,0.12134986370801926,0.23949554562568665
1684200696429804300,8.96080419921875,-0.004069528542459011,0.13995859026908875,0.30919602513313293
1684200696439830300,8.970830322265625,-0.01399006973952055,0.15846756100654602,0.348417192697525
1684200696449856300,8.980856201171875,-0.027358848601579666,0.17643655836582184,0.35674265027046204
1684200696459882500,8.990882568359375,-0.04596768692135811,0.2036823034286499,0.340910404920578
1684200696469908500,9.000908447265624,-0.057139139622449875,0.23177321255207062,0.31983667612075806
1684200696479934500,9.0109345703125,-0.06826476007699966,0.238753080368042,0.3072654902935028
1684200696489960400,9.02096044921875,-0.08487601578235626,0.22615201771259308,0.3138345181941986
1684200696499985400,9.0309853515625,-0.10578795522451401,0.18639661371707916,0.3323799669742584
1684200696510011400,9.041011474609375,-0.1260509490966797,0.1236647218465805,0.3637949526309967
1684200696520037400,9.051037353515625,-0.13391420245170593,0.043509431183338165,0.38877353072166443
1684200696530063400,9.0610634765625,-0.12866517901420593,-0.04573369771242142,0.4011114835739136
1684200696540089600,9.071089599609374,-0.1019829735159874,-0.13266140222549438,0.3935968577861786
1684200696550115600,9.081115478515626,-0.07686609774827957,-0.2235206663608551,0.35982683300971985
1684200696560141600,9.0911416015625,-0.07245563715696335,-0.29471707344055176,0.27465149760246277
1684200696570167600,9.10116748046875,-0.09858646243810654,-0.3382589519023895,0.15241825580596924
1684200696580193500,9.111193603515625,-0.12675710022449493,-0.3789009153842926,0.03614731505513191
1684200696590219500,9.121219482421875,-0.13678719103336334,-0.4485492408275604,-0.038477327674627304
1684200696600245500,9.13124560546875,-0.14345601201057434,-0.5504846572875977,-0.059425488114356995
1684200696610271500,9.141271484375,-0.1502576768398285,-0.6617212891578674,-0.04002436250448227
1684200696620297500,9.15129736328125,-0.15495629608631134,-0.7462923526763916,-0.006015259772539139
1684200696630323500,9.161323486328126,-0.1542610079050064,-0.7754632830619812,0.0314830020070076
1684200696640349400,9.171349365234375,-0.1596089005470276,-0.7414237856864929,0.06623991578817368
1684200696650375700,9.181375732421875,-0.17099139094352722,-0.6616162657737732,0.09834032505750656
1684200696660400400,9.191400390625,-0.19065190851688385,-0.5643898844718933,0.12594719231128693
1684200696670426600,9.201426513671874,-0.20322929322719574,-0.4723908603191376,0.15206055343151093
1684200696680452600,9.21145263671875,-0.2109718918800354,-0.40622782707214355,0.17470647394657135
1684200696690478600,9.221478515625,-0.21227234601974487,-0.37276291847229004,0.1920565366744995
1684200696700504600,9.231504638671876,-0.21335464715957642,-0.3763480484485626,0.1989607959985733
1684200696710530600,9.241530517578125,-0.2018238753080368,-0.39334163069725037,0.19419853389263153
1684200696720556500,9.251556640625,-0.18299239873886108,-0.4034094512462616,0.18299461901187897
1684200696730582500,9.26158251953125,-0.16533377766609192,-0.3900447189807892,0.17139270901679993
1684200696740608500,9.2716083984375,-0.1618431657552719,-0.3432612121105194,0.16802673041820526
1684200696750634500,9.281634521484374,-0.17294363677501678,-0.24315927922725677,0.17697080969810486
1684200696760660500,9.291660400390626,-0.18691058456897736,-0.08563968539237976,0.1753406822681427
1684200696770686500,9.3016865234375,-0.1909187138080597,0.11134033650159836,0.16886067390441895
1684200696780712700,9.311712646484375,-0.18916314840316772,0.33638277649879456,0.15767087042331696
1684200696790738700,9.32173876953125,-0.1836511641740799,0.5737407207489014,0.13997581601142883
1684200696800764700,9.3317646484375,-0.17312714457511902,0.7891678214073181,0.12457529455423355
1684200696810789600,9.34178955078125,-0.1442164033651352,0.9340028762817383,0.1202603429555893
1684200696820815600,9.351815673828124,-0.11643936485052109,0.9429343342781067,0.1301630288362503
1684200696830841600,9.361841552734376,-0.07065357267856598,0.784946858882904,0.1458132565021515
1684200696840867600,9.37186767578125,-0.002924056490883231,0.4767057001590729,0.15061654150485992
1684200696850893600,9.3818935546875,0.052587613463401794,0.06046571582555771,0.14783033728599548
1684200696860919600,9.39191943359375,0.09680408239364624,-0.38076093792915344,0.13110701739788055
1684200696870945500,9.401945556640625,0.12181425094604492,-0.75132155418396,0.09800893068313599
1684200696880971500,9.411971435546874,0.1291925460100174,-1.0079573392868042,0.06055796146392822
1684200696890997500,9.42199755859375,0.12352798879146576,-1.158496618270874,0.027863552793860435
1684200696901023500,9.4320234375,0.11979369819164276,-1.2319519519805908,-0.008779145777225494
1684200696911049700,9.4420498046875,0.11505948007106781,-1.2386765480041504,-0.04835249483585358
1684200696921075500,9.452075439453125,0.11884117126464844,-1.1781202554702759,-0.0929495245218277
1684200696931101400,9.462101318359375,0.12798269093036652,-1.0408748388290405,-0.1414923518896103
1684200696941127400,9.47212744140625,0.1370326429605484,-0.8354929685592651,-0.2030489295721054
1684200696951153400,9.4821533203125,0.13829347491264343,-0.5988755226135254,-0.2901284098625183
1684200696961178600,9.4921787109375,0.13382230699062347,-0.37890321016311646,-0.4083285629749298
1684200696971204600,9.50220458984375,0.12870997190475464,-0.22682225704193115,-0.5675942897796631
1684200696981230600,9.512230712890625,0.12989641726016998,-0.1875438392162323,-0.7488663196563721
1684200696991256600,9.522256591796875,0.13479144871234894,-0.28969261050224304,-0.9446728825569153
1684200697001282600,9.532282470703125,0.1616544872522354,-0.5279733538627625,-1.1643146276474
1684200697011308500,9.54230859375,0.2210657298564911,-0.8546581268310547,-1.4469563961029053
1684200697021334500,9.55233447265625,0.2993597388267517,-1.2176188230514526,-1.8317408561706543
1684200697031360500,9.562360595703124,0.36124491691589355,-1.4691722393035889,-2.2761316299438477
1684200697041386500,9.572386474609376,0.38118505477905273,-1.5193885564804077,-2.608947515487671
1684200697051412500,9.58241259765625,0.3834826648235321,-1.3978683948516846,-2.7882041931152344
1684200697061438500,9.5924384765625,0.43381214141845703,-1.2705000638961792,-2.7899816036224365
1684200697071464400,9.60246435546875,0.5290818810462952,-1.1863231658935547,-2.7010691165924072
1684200697081490400,9.612490478515625,0.6141499280929565,-1.0875986814498901,-2.5054752826690674
1684200697091516400,9.622516357421874,0.6932172775268555,-0.9362866282463074,-2.174879312515259
1684200697101542400,9.63254248046875,0.792104959487915,-0.7079083323478699,-1.7950807809829712
1684200697111568400,9.642568359375,0.8198763728141785,-0.5351294279098511,-1.3450719118118286
1684200697121593600,9.652593505859375,0.8580208420753479,-0.31558698415756226,-0.786737322807312
1684200697131619300,9.662619384765625,1.0181171894073486,-0.151703342795372,-0.2105020433664322
1684200697141645300,9.672645263671875,1.323387861251831,-0.2740441858768463,0.20026738941669464
1684200697151671300,9.68267138671875,1.6297527551651,-0.6988994479179382,0.2770788371562958
1684200697161697300,9.692697265625,1.7303695678710938,-0.9589768648147583,0.10310866683721542
1684200697171723500,9.7027236328125,1.6697652339935303,-0.7511710524559021,-0.14481277763843536
1684200697181749500,9.71274951171875,1.6214309930801392,-0.31838473677635193,-0.3206660747528076
1684200697191775500,9.722775390625,1.601610779762268,0.2013450562953949,-0.38077348470687866
1684200697201801500,9.732801513671875,1.596916675567627,0.825721025466919,-0.36942175030708313
1684200697211827500,9.742827392578125,1.537023663520813,1.4752272367477417,-0.3988085389137268
1684200697221853400,9.752853515625,1.4041842222213745,1.825726866722107,-0.5149921774864197
1684200697231879400,9.76287939453125,1.2601274251937866,1.8910644054412842,-0.6847211122512817
1684200697241905400,9.772905517578126,1.1786668300628662,1.7273237705230713,-0.8124234080314636
1684200697251931400,9.782931396484376,1.140466570854187,1.4746822118759155,-0.9415497183799744
1684200697261957400,9.792957275390625,1.0844948291778564,1.3253268003463745,-1.0607746839523315
1684200697271983400,9.8029833984375,1.0215468406677246,1.2553776502609253,-1.087950348854065
1684200697282008300,9.81300830078125,0.956823468208313,1.1289441585540771,-0.968845546245575
1684200697292034300,9.823034423828124,0.8796529173851013,0.9185066223144531,-0.8209294080734253
1684200697302060500,9.833060546875,0.8132451772689819,0.7844969034194946,-0.7946376204490662
1684200697312086500,9.84308642578125,0.7525899410247803,0.8158735632896423,-0.8453560471534729
1684200697322112500,9.853112548828125,0.7063859105110168,0.9501885175704956,-0.8537181615829468
1684200697332138500,9.863138427734375,0.6878746747970581,1.0483734607696533,-0.8296303749084473
1684200697342164500,9.87316455078125,0.6786734461784363,1.0031253099441528,-0.7646175622940063
1684200697352190500,9.8831904296875,0.6727257966995239,0.8994513750076294,-0.6851605176925659
1684200697362216400,9.893216552734375,0.6467599868774414,0.8175434470176697,-0.6058667302131653
1684200697372242400,9.903242431640624,0.6024655103683472,0.7552120685577393,-0.5387852191925049
1684200697382268400,9.913268310546876,0.5568154454231262,0.6759002208709717,-0.4998205602169037
1684200697392294400,9.92329443359375,0.5144393444061279,0.5403209328651428,-0.44698506593704224
1684200697402320400,9.9333203125,0.4649103879928589,0.42063766717910767,-0.38824185729026794
1684200697412346600,9.9433466796875,0.4046977460384369,0.3441442549228668,-0.3114202916622162
1684200697422372600,9.95337255859375,0.34637585282325745,0.32277077436447144,-0.2327425330877304
1684200697432397600,9.9633974609375,0.29613637924194336,0.3590129315853119,-0.14635464549064636
1684200697442423600,9.973423583984374,0.24440716207027435,0.430357962846756,-0.05142093077301979
1684200697452449500,9.983449462890626,0.200678288936615,0.5083578824996948,0.0437648668885231
1684200697462475500,9.9934755859375,0.1475551575422287,0.5153348445892334,0.15380561351776123
1684200697472501500,10.00350146484375,0.07570760697126389,0.5038102269172668,0.2944638729095459
1684200697482527500,10.013527587890625,-0.005853834096342325,0.4917660653591156,0.45132753252983093
1684200697492553500,10.023553466796875,-0.08067099750041962,0.517092227935791,0.577949047088623
1684200697502579500,10.033579345703124,-0.150911346077919,0.5712129473686218,0.660302996635437
1684200697512605400,10.04360546875,-0.21072928607463837,0.5850040912628174,0.7453960180282593
1684200697522631400,10.05363134765625,-0.27306482195854187,0.5325472950935364,0.8494129776954651
1684200697532657400,10.063657470703125,-0.31940627098083496,0.42634862661361694,0.9810965061187744
1684200697542683600,10.07368359375,-0.3598026931285858,0.2750054597854614,1.1024924516677856
1684200697552709600,10.083709716796875,-0.37382403016090393,0.09170808643102646,1.1990489959716797
1684200697562735600,10.093735595703125,-0.37763822078704834,-0.05241846293210983,1.2551381587982178
1684200697572761600,10.10376171875,-0.3878948390483856,-0.10637730360031128,1.2636951208114624
1684200697582787600,10.11378759765625,-0.4173262417316437,-0.05019019916653633,1.2499725818634033
1684200697592812500,10.1238125,-0.4797910153865814,0.04334093630313873,1.2315541505813599
1684200697602838500,10.133838623046875,-0.5489258766174316,0.11254850775003433,1.2161552906036377
1684200697612864500,10.143864501953125,-0.5911082029342651,0.1342516988515854,1.1906276941299438
1684200697622890500,10.153890380859375,-0.5944088697433472,0.1374075561761856,1.1565808057785034
1684200697632916500,10.16391650390625,-0.5706751942634583,0.14610233902931213,1.1533600091934204
1684200697642942500,10.1739423828125,-0.5517095327377319,0.1763467937707901,1.2015410661697388
1684200697652968400,10.183968505859376,-0.5371763706207275,0.22756639122962952,1.2801834344863892
1684200697662994400,10.193994384765626,-0.5308449864387512,0.2615158259868622,1.3452929258346558
1684200697673020700,10.204020751953125,-0.5226269960403442,0.2519703209400177,1.3648278713226318
1684200697683046700,10.214046630859375,-0.5492833852767944,0.21503305435180664,1.3204679489135742
1684200697693072600,10.22407275390625,-0.6125673651695251,0.19094005227088928,1.2283191680908203
1684200697703098600,10.2340986328125,-0.6828694343566895,0.14016768336296082,1.109568476676941
1684200697713124600,10.24412451171875,-0.7150106430053711,0.04394478350877762,0.9328213334083557
1684200697723150600,10.254150634765624,-0.6691677570343018,-0.11109859496355057,0.6606007218360901
1684200697733176600,10.264176513671876,-0.5044748783111572,-0.3877815306186676,0.2655337452888489
1684200697743202600,10.27420263671875,-0.32248830795288086,-0.52870112657547,-0.060134366154670715
1684200697753227500,10.2842275390625,-0.2678181231021881,-0.28267401456832886,-0.11810813844203949
1684200697763253500,10.29425341796875,-0.25748133659362793,0.210227832198143,-0.0015884528402239084
1684200697773279500,10.304279541015624,-0.21377813816070557,0.6045887470245361,0.11230520159006119
1684200697783305500,10.314305419921874,-0.19943435490131378,0.7131106853485107,0.152772456407547
1684200697793331500,10.32433154296875,-0.25027990341186523,0.661677896976471,0.16151531040668488
1684200697803357700,10.334357666015626,-0.3506182134151459,0.5497838854789734,0.1642943173646927
1684200697813383700,10.3443837890625,-0.46022865176200867,0.39256107807159424,0.21650080382823944
1684200697823409700,10.35440966796875,-0.5532954931259155,0.21787476539611816,0.29746246337890625
1684200697833435600,10.364435546875,-0.6471719145774841,0.07512339949607849,0.3832590878009796
1684200697843461600,10.374461669921875,-0.7054352164268494,0.01615328900516033,0.45026421546936035
1684200697853487600,10.384487548828124,-0.7141261100769043,0.06616733223199844,0.493320107460022
1684200697863513300,10.394513427734376,-0.7088479995727539,0.13632431626319885,0.5012714862823486
1684200697873539300,10.404539306640626,-0.6911423206329346,0.1903051882982254,0.46165382862091064
1684200697883565300,10.4145654296875,-0.6665765047073364,0.19921240210533142,0.3733713626861572
1684200697893591300,10.42459130859375,-0.6282803416252136,0.16761644184589386,0.2731570899486542
1684200697903616500,10.434616455078125,-0.579095184803009,0.1230819821357727,0.1931868940591812
1684200697913642500,10.444642578125,-0.5259394645690918,0.06819263100624084,0.1476757675409317
1684200697923668500,10.45466845703125,-0.46672138571739197,-0.00719399843364954,0.14315851032733917
1684200697933694700,10.46469482421875,-0.430147647857666,-0.08694043755531311,0.1698605865240097
1684200697943720700,10.474720703125,-0.4187021851539612,-0.17553183436393738,0.2219509482383728
1684200697953746400,10.484746337890625,-0.41908708214759827,-0.2783162593841553,0.2730719745159149
1684200697963772400,10.4947724609375,-0.42711278796195984,-0.4223935604095459,0.3172977566719055
1684200697973798400,10.50479833984375,-0.44513994455337524,-0.5967269539833069,0.3624233603477478
1684200697983824400,10.514824462890624,-0.47029775381088257,-0.7734452486038208,0.40501901507377625
1684200697993850400,10.524850341796874,-0.49675703048706055,-0.9373601078987122,0.4726645052433014
1684200698003876400,10.53487646484375,-0.5328529477119446,-1.051325798034668,0.5417793989181519
1684200698013902300,10.54490234375,-0.5664888620376587,-1.0708386898040771,0.5912313461303711
1684200698023928300,10.55492822265625,-0.6027126908302307,-0.9633569121360779,0.6213958859443665
1684200698033954300,10.564954345703125,-0.6381101012229919,-0.7146065831184387,0.6431338787078857
1684200698043980500,10.57498046875,-0.6620716452598572,-0.29359787702560425,0.6312031745910645
1684200698054005500,10.585005615234374,-0.6580881476402283,0.1874043494462967,0.5708056092262268
1684200698064031500,10.595031494140626,-0.6370142698287964,0.5869685411453247,0.471387654542923
1684200698074057500,10.605057373046876,-0.5895156860351562,0.8429427146911621,0.3477768301963806
1684200698084083500,10.61508349609375,-0.5219563841819763,0.9564341306686401,0.19951918721199036
1684200698094109400,10.625109375,-0.46750229597091675,0.9359433054924011,0.057779695838689804
1684200698104135400,10.635135498046875,-0.41058415174484253,0.7649707198143005,-0.04543936997652054
1684200698114161400,10.645161376953125,-0.31091928482055664,0.4263279438018799,-0.07907737791538239
1684200698124187400,10.6551875,-0.19567976891994476,0.04868001118302345,-0.0781702995300293
1684200698134213400,10.66521337890625,-0.09511803090572357,-0.2700314223766327,-0.08707916736602783
1684200698144239400,10.6752392578125,-0.016209373250603676,-0.4692142903804779,-0.1015356034040451
1684200698154265300,10.685265380859375,0.026074642315506935,-0.5442079305648804,-0.11661682277917862
1684200698164291300,10.695291259765625,0.03427185118198395,-0.533919632434845,-0.11807596683502197
1684200698174317600,10.705317626953125,0.024332795292139053,-0.45018070936203003,-0.11359269171953201
1684200698184343600,10.715343505859375,-0.025886699557304382,-0.3042900860309601,-0.0984257236123085
1684200698194369500,10.72536962890625,-0.06356348842382431,-0.12078024446964264,-0.0749707818031311
1684200698204395500,10.7353955078125,-0.05761425942182541,0.07739276438951492,-0.02597661316394806
1684200698214420500,10.74542041015625,-0.011114156804978848,0.2809399366378784,0.048095591366291046
1684200698224446500,10.755446533203125,0.036585722118616104,0.43789786100387573,0.13905878365039825
1684200698234472400,10.765472412109375,0.057964928448200226,0.5249217748641968,0.21291819214820862
1684200698244498400,10.77549853515625,0.07119178771972656,0.5566563010215759,0.2440393716096878
1684200698254524400,10.7855244140625,0.08233718574047089,0.4927026331424713,0.27959758043289185
1684200698264550400,10.79555029296875,0.10433808714151382,0.3415975570678711,0.31197044253349304
1684200698274576400,10.805576416015626,0.1561494767665863,0.18723516166210175,0.34944429993629456
1684200698284602400,10.815602294921876,0.2449358105659485,0.0628567561507225,0.40171629190444946
1684200698294628400,10.82562841796875,0.3072049915790558,-0.055270642042160034,0.4731414020061493
1684200698304654600,10.835654541015625,0.32989591360092163,-0.1563650220632553,0.5241220593452454
1684200698314680600,10.8456806640625,0.331674188375473,-0.21902810037136078,0.5438860654830933
1684200698324706600,10.85570654296875,0.333094984292984,-0.31298333406448364,0.5487966537475586
1684200698334732500,10.865732666015624,0.32726532220840454,-0.4612315893173218,0.5482319593429565
1684200698344758500,10.875758544921876,0.3139537572860718,-0.611172616481781,0.5414597988128662
1684200698354784500,10.885784423828126,0.28905510902404785,-0.7288352251052856,0.5262341499328613
1684200698364810500,10.895810546875,0.25752779841423035,-0.771181583404541,0.4933648705482483
1684200698374835500,10.90583544921875,0.23408930003643036,-0.6798356771469116,0.448125958442688
1684200698384861400,10.915861328125,0.19754274189472198,-0.4694978594779968,0.39929211139678955
1684200698394887400,10.925887451171874,0.18435093760490417,-0.23026664555072784,0.3607165515422821
1684200698404913400,10.935913330078124,0.1808435469865799,-0.0378817580640316,0.3487469553947449
1684200698414939400,10.945939453125,0.17219117283821106,0.08947794884443283,0.3578881323337555
1684200698424965400,10.95596533203125,0.16185039281845093,0.17409296333789825,0.35173913836479187
1684200698434991600,10.96599169921875,0.15065816044807434,0.18665853142738342,0.34447818994522095
1684200698445017600,10.976017578125,0.14009499549865723,0.11954553425312042,0.33684131503105164
1684200698455043600,10.986043701171875,0.1446773260831833,0.03934640809893608,0.3040887415409088
1684200698465069800,10.99606982421875,0.1639692783355713,-0.07477030903100967,0.2687515318393707
1684200698475096000,11.006095947265624,0.1678430736064911,-0.19283446669578552,0.2381543070077896
1684200698485122000,11.0161220703125,0.15221644937992096,-0.2850853204727173,0.2123671919107437
1684200698495148000,11.02614794921875,0.13371220231056213,-0.3245990574359894,0.18998651206493378
1684200698505174000,11.036174072265625,0.1151646226644516,-0.3145104646682739,0.17717671394348145
1684200698515200000,11.046199951171875,0.09506732225418091,-0.29926398396492004,0.1756548285484314
1684200698525226000,11.05622607421875,0.058778028935194016,-0.3078018128871918,0.1823287159204483
1684200698535251000,11.0662509765625,0.014859572984278202,-0.3511887192726135,0.18119660019874573
1684200698545277000,11.07627685546875,-0.016857076436281204,-0.387168288230896,0.17145130038261414
1684200698555303000,11.086302978515626,-0.03917090594768524,-0.39296117424964905,0.14943601191043854
1684200698565329000,11.096328857421875,-0.0688992440700531,-0.36747366189956665,0.12707823514938354
1684200698575355000,11.10635498046875,-0.10667677968740463,-0.29754912853240967,0.12086816877126694
1684200698585380900,11.116380859375,-0.14218683540821075,-0.2110683172941208,0.1336185783147812
1684200698595406800,11.12640673828125,-0.17053107917308807,-0.10636413842439651,0.156936377286911
1684200698605433000,11.13643310546875,-0.19889721274375916,-0.003850282169878483,0.17844273149967194
1684200698615459000,11.146458984375,-0.2355043590068817,0.0674068033695221,0.19882597029209137
1684200698625485000,11.156485107421876,-0.2646542489528656,0.13133679330348969,0.20119991898536682
1684200698635511000,11.166510986328126,-0.2779184877872467,0.2071528136730194,0.1982777863740921
1684200698645537000,11.176537109375,-0.2840850353240967,0.2848457396030426,0.2053530067205429
1684200698655562800,11.186562744140625,-0.2880869209766388,0.35461047291755676,0.22335980832576752
1684200698665588700,11.196588623046875,-0.29095062613487244,0.4088444113731384,0.2532846927642822
1684200698675614700,11.20661474609375,-0.2924475371837616,0.4102832078933716,0.26849639415740967
1684200698685640000,11.216639892578126,-0.2562306821346283,0.35784900188446045,0.26469022035598755
1684200698695666000,11.226666015625,-0.20319822430610657,0.2986217737197876,0.23514467477798462
1684200698705692000,11.23669189453125,-0.16557788848876953,0.2712023854255676,0.21130111813545227
1684200698715718000,11.2467177734375,-0.1412172168493271,0.27852824330329895,0.20499810576438904
1684200698725743900,11.256743896484375,-0.13303224742412567,0.2898530662059784,0.225920170545578
1684200698735770000,11.26677001953125,-0.11771339178085327,0.28522592782974243,0.2678026556968689
1684200698745795800,11.2767958984375,-0.09130815416574478,0.2688498795032501,0.3052610754966736
1684200698755821800,11.28682177734375,-0.04964444786310196,0.2495208978652954,0.31358399987220764
1684200698765847800,11.296847900390626,-0.03056183271110058,0.20618487894535065,0.29577943682670593
1684200698775873800,11.306873779296875,-0.03448091447353363,0.12755338847637177,0.23536373674869537
1684200698785899800,11.316899658203125,-0.05856015160679817,-0.004138067830353975,0.13688111305236816
1684200698795925800,11.32692578125,-0.06537308543920517,-0.23247097432613373,0.028286254033446312
1684200698805951700,11.33695166015625,-0.07761803269386292,-0.5255686640739441,-0.03701525181531906
1684200698815977700,11.346977783203124,-0.10437235236167908,-0.793680727481842,-0.060175757855176926
1684200698826003700,11.357003662109374,-0.13211636245250702,-0.9660892486572266,-0.06140720471739769
1684200698836029700,11.36702978515625,-0.15229034423828125,-1.0288647413253784,-0.060479890555143356
1684200698846055000,11.377054931640625,-0.1595141589641571,-0.991451621055603,-0.0720212310552597
1684200698856081000,11.387080810546875,-0.15581639111042023,-0.8733675479888916,-0.09389649331569672
1684200698866107000,11.39710693359375,-0.13503627479076385,-0.7080457210540771,-0.1198069229722023
1684200698876132900,11.4071328125,-0.12448102235794067,-0.5430374145507812,-0.1411142796278
1684200698886158800,11.417158935546874,-0.13812918961048126,-0.40387338399887085,-0.15367881953716278
1684200698896184800,11.427184814453126,-0.16821451485157013,-0.2511248290538788,-0.16905318200588226
1684200698906210800,11.4372109375,-0.17845730483531952,-0.056434694677591324,-0.2078903168439865
1684200698916236800,11.44723681640625,-0.14622654020786285,0.19791266322135925,-0.25964298844337463
1684200698926262800,11.4572626953125,-0.07374941557645798,0.47894567251205444,-0.30450528860092163
1684200698936288800,11.467288818359375,-0.00950030516833067,0.693676769733429,-0.3043539524078369
1684200698946314800,11.477314697265625,0.013203675858676434,0.7907441854476929,-0.2565608620643616
1684200698956340700,11.4873408203125,0.061813369393348694,0.7106248736381531,-0.1705866903066635
1684200698966366700,11.49736669921875,0.17632344365119934,0.41891419887542725,-0.08448322862386703
1684200698976393000,11.50739306640625,0.2873426675796509,-0.0036417515948414803,-0.023351268842816353
1684200698986419000,11.5174189453125,0.36249974370002747,-0.5058425664901733,-0.0006789788603782654
1684200698996445000,11.52744482421875,0.4075523614883423,-1.2347863912582397,0.012485825456678867
1684200699006470000,11.537469970703125,0.4671531021595001,-2.168242931365967,-0.021842587739229202
1684200699016495900,11.547495849609374,0.5785513520240784,-2.7997374534606934,-0.2329074889421463
1684200699026521900,11.55752197265625,0.668922483921051,-2.883897304534912,-0.6640895009040833
1684200699036547800,11.5675478515625,0.6401529312133789,-2.4783449172973633,-1.2622952461242676
1684200699046573800,11.57757373046875,0.4915999472141266,-1.8481776714324951,-1.9237256050109863
1684200699056599800,11.587599853515625,0.3218878507614136,-1.1940611600875854,-2.5525684356689453
1684200699066625800,11.597625732421875,0.19278207421302795,-0.7211443185806274,-3.000537872314453
1684200699076651800,11.60765185546875,0.15849269926548004,-0.4700702726840973,-3.1798858642578125
1684200699086677800,11.617677734375,0.11769971996545792,-0.5057414770126343,-3.197361946105957
1684200699096703700,11.627703857421874,0.10800033062696457,-0.6745867133140564,-3.126926898956299
1684200699106730000,11.63772998046875,0.11005442589521408,-0.927147626876831,-2.9932589530944824
1684200699116756000,11.647755859375,0.18054084479808807,-1.0513631105422974,-2.7504332065582275
1684200699126782000,11.657781982421875,0.26787441968917847,-1.0287166833877563,-2.3628408908843994
1684200699136808000,11.667807861328125,0.36690250039100647,-1.0479135513305664,-1.9152698516845703
1684200699146834000,11.677833984375,0.5064697265625,-0.9025262594223022,-1.4145989418029785
1684200699156860000,11.68785986328125,0.6881167888641357,-0.7028103470802307,-0.9845337271690369
1684200699166884900,11.697884765625,0.9815835952758789,-0.4686200022697449,-0.6654720902442932
1684200699176910800,11.707910888671876,1.3015767335891724,-0.385135293006897,-0.4981857240200043
1684200699186936800,11.717936767578125,1.5363636016845703,-0.5434767603874207,-0.48869314789772034
1684200699196962800,11.727962890625,1.6486327648162842,-0.6177386045455933,-0.5143923163414001
1684200699206988800,11.73798876953125,1.6754755973815918,-0.5058192610740662,-0.5063714385032654
1684200699217014800,11.748014892578125,1.6642050743103027,-0.2744821012020111,-0.48970848321914673
1684200699227040800,11.758040771484374,1.6349326372146606,-0.03057195618748665,-0.46577146649360657
1684200699237067000,11.76806689453125,1.6027237176895142,0.24343310296535492,-0.4513337314128876
1684200699247093000,11.778093017578126,1.5012778043746948,0.592745304107666,-0.5301257371902466
1684200699257119000,11.788118896484375,1.4007482528686523,0.9463369250297546,-0.686703622341156
1684200699267145000,11.79814501953125,1.3485546112060547,1.1483385562896729,-0.8966717720031738
1684200699277171000,11.8081708984375,1.2434444427490234,1.2225759029388428,-1.1685606241226196
1684200699287197000,11.818197021484375,1.1222314834594727,1.1847195625305176,-1.4183109998703003
1684200699297223000,11.828222900390625,1.0400516986846924,1.095115065574646,-1.546284556388855
1684200699307249000,11.838248779296874,0.9980376958847046,1.1075248718261719,-1.5177439451217651
1684200699317273900,11.84827392578125,0.9737762212753296,1.1882927417755127,-1.3784160614013672
1684200699327299800,11.8582998046875,0.9649345278739929,1.2656621932983398,-1.2018681764602661
1684200699337325800,11.868325927734375,0.9548267126083374,1.2907447814941406,-1.0678069591522217
1684200699347351800,11.878351806640625,0.9526118040084839,1.285048007965088,-0.9542300701141357
1684200699357377800,11.888377685546875,0.9501429796218872,1.233906865119934,-0.8346123695373535
1684200699367404000,11.898404052734374,0.9348987936973572,1.1611559391021729,-0.7224778532981873
1684200699377430000,11.908429931640624,0.899657666683197,1.0387465953826904,-0.6035851240158081
1684200699387456000,11.9184560546875,0.8320309519767761,0.8828523755073547,-0.5176443457603455
1684200699397482000,11.92848193359375,0.7265620827674866,0.7284112572669983,-0.46767568588256836
1684200699407508000,11.938508056640625,0.6213461756706238,0.6214752197265625,-0.4315909147262573
1684200699417534000,11.948533935546875,0.546876847743988,0.5382001399993896,-0.3721024990081787
1684200699427560000,11.958559814453125,0.5047616362571716,0.45361438393592834,-0.27729395031929016
1684200699437586000,11.9685859375,0.4884984493255615,0.38807082176208496,-0.16392064094543457
1684200699447612000,11.97861181640625,0.476360023021698,0.37480536103248596,-0.06396660953760147
1684200699457638000,11.988637939453126,0.44981321692466736,0.4043309688568115,-0.0022045481018722057
1684200699467663400,11.998663330078125,0.39027851819992065,0.46108320355415344,0.03403627872467041
1684200699477688300,12.008688232421875,0.32610636949539185,0.5419992804527283,0.055560801178216934
1684200699487714300,12.01871435546875,0.2761057913303375,0.6468260884284973,0.07898277044296265
1684200699497740300,12.028740234375,0.23432879149913788,0.7373206615447998,0.13213078677654266
1684200699507766300,12.038766357421874,0.20185339450836182,0.7543960809707642,0.22064600884914398
1684200699517792300,12.048792236328126,0.18034885823726654,0.7044464349746704,0.3382006585597992
1684200699527818200,12.058818359375,0.15056273341178894,0.6269457936286926,0.47610044479370117
1684200699537844200,12.06884423828125,0.10752863436937332,0.5666640996932983,0.6146140098571777
1684200699547870200,12.0788701171875,0.03906915336847305,0.5092260837554932,0.7635089159011841
1684200699557896200,12.088896240234375,-0.028702866286039352,0.33233392238616943,0.930824875831604
1684200699567922200,12.098922119140624,-0.07421762496232986,0.16049663722515106,1.0279759168624878
1684200699577948200,12.1089482421875,-0.09850788116455078,0.062107209116220474,1.0616202354431152
1684200699587974400,12.118974365234376,-0.12187366187572479,0.030476845800876617,1.0687806606292725
1684200699598000400,12.12900048828125,-0.13703304529190063,0.022396767511963844,1.0532000064849854
1684200699608026400,12.1390263671875,-0.1488385647535324,0.017649415880441666,1.0208077430725098
1684200699618052400,12.14905224609375,-0.19528695940971375,0.016908597201108932,1.0240892171859741
1684200699628078300,12.159078369140625,-0.2995515763759613,0.05593802034854889,1.0811396837234497
1684200699638103300,12.169103271484374,-0.41998550295829773,0.1716284155845642,1.2130935192108154
1684200699648129300,12.17912939453125,-0.5172302722930908,0.30580511689186096,1.4093432426452637
1684200699658155300,12.1891552734375,-0.5708524584770203,0.3871861398220062,1.6465578079223633
1684200699668181200,12.19918115234375,-0.5957468748092651,0.3357069790363312,1.892533779144287
1684200699678207200,12.209207275390625,-0.5981640815734863,0.09715314954519272,2.112454414367676
1684200699688233200,12.219233154296875,-0.6031827926635742,-0.2263316959142685,2.2561700344085693
1684200699698259200,12.22925927734375,-0.6107981204986572,-0.5084613561630249,2.2937471866607666
1684200699708285200,12.23928515625,-0.6202512979507446,-0.6589856147766113,2.2493765354156494
1684200699718311400,12.2493115234375,-0.6606197953224182,-0.651674211025238,2.1331727504730225
1684200699728337400,12.25933740234375,-0.7398573756217957,-0.5604958534240723,1.9983071088790894
1684200699738363400,12.26936328125,-0.8439831733703613,-0.45892131328582764,1.852781057357788
1684200699748389000,12.27938916015625,-0.9481120109558105,-0.37535345554351807,1.684751033782959
1684200699758415000,12.2894150390625,-1.0414495468139648,-0.32965564727783203,1.499172568321228
1684200699768441000,12.299441162109375,-1.1063976287841797,-0.37335705757141113,1.3212028741836548
1684200699778467000,12.309467041015624,-1.145757794380188,-0.5151287913322449,1.1831011772155762
1684200699788493000,12.3194931640625,-1.113559603691101,-0.7332736849784851,0.9979413151741028
1684200699798518300,12.329518310546876,-0.7977872490882874,-0.7996565699577332,0.5230119228363037
1684200699808544300,12.339544189453125,-0.4450145363807678,-0.4958687126636505,-0.014762843027710915
1684200699818570200,12.3495703125,-0.22753947973251343,0.06872043758630753,-0.23640276491641998
1684200699828596200,12.35959619140625,-0.10516323894262314,0.3837156593799591,-0.23351749777793884
1684200699838622200,12.369622314453125,-0.10003520548343658,0.3214101493358612,-0.23685668408870697
1684200699848648200,12.379648193359374,-0.19860225915908813,0.27199387550354004,-0.32033878564834595
1684200699858674200,12.389674072265626,-0.40822893381118774,0.43285009264945984,-0.4258931279182434
1684200699868700200,12.3997001953125,-0.6266055107116699,0.8301782608032227,-0.453081876039505
1684200699878726100,12.40972607421875,-0.7423780560493469,1.1411019563674927,-0.32310566306114197
1684200699888752000,12.419752197265625,-0.8045881390571594,1.2127524614334106,-0.06632152944803238
1684200699898778000,12.429778076171875,-0.7261351943016052,1.1415127515792847,0.19464530050754547
1684200699908804000,12.43980419921875,-0.6877792477607727,0.7098211050033569,0.5194917917251587
1684200699918830000,12.449830078125,-0.7696483731269836,0.30513277649879456,0.9376503229141235
1684200699928856000,12.45985595703125,-0.7089405655860901,-0.04097987711429596,1.3129792213439941
1684200699938882000,12.469882080078126,-0.45907044410705566,-0.4900781512260437,1.5647181272506714
1684200699948907300,12.4799072265625,-0.1226535513997078,-1.467574954032898,1.5584365129470825
1684200699958933000,12.48993310546875,0.12017608433961868,-2.5387659072875977,1.2091649770736694
1684200699968959000,12.499958984375,-0.008717716671526432,-2.5859177112579346,0.9251442551612854
1684200699978985200,12.509985107421874,-0.2682180404663086,-1.8723312616348267,0.6362455487251282
