time,seconds_elapsed,z,y,x
1684200566318879200,0.038879150390625,0.9435811638832092,0.3632964491844177,1.791562557220459
1684200566328903400,0.0489033203125,1.1730438470840454,1.9998079538345337,1.7755820751190186
1684200566338929400,0.058929443359375,1.5522435903549194,3.1435678005218506,1.89457368850708
1684200566348955600,0.06895556640625,1.8950579166412354,4.133675575256348,1.933437466621399
1684200566358981600,0.078981689453125,2.154005527496338,4.78925085067749,1.8984731435775757
1684200566369007600,0.089007568359375,2.3580942153930664,4.9106974601745605,1.731758952140808
1684200566379033600,0.09903369140625,2.4381957054138184,4.518829345703125,1.4374197721481323
1684200566389058600,0.10905859375,2.413296937942505,3.517843246459961,0.9897925853729248
1684200566399084500,0.11908447265625,2.239774703979492,2.246460199356079,0.4633844494819641
1684200566409110500,0.129110595703125,1.9482053518295288,0.8943737745285034,-0.06369511783123016
1684200566419136500,0.139136474609375,1.591723918914795,-0.332611620426178,-0.46317169070243835
1684200566429162500,0.14916259765625,1.2372277975082397,-1.4298169612884521,-0.6944654583930969
1684200566439188500,0.1591884765625,0.922642171382904,-1.9112465381622314,-0.8873600959777832
1684200566449214500,0.16921435546875,0.63397216796875,-2.0713322162628174,-1.0876606702804565
1684200566459239400,0.179239501953125,0.2024204581975937,-1.2600806951522827,-1.3448197841644287
1684200566469265400,0.189265380859375,-0.45362588763237,0.7713029980659485,-1.2919621467590332
1684200566479291400,0.19929150390625,-0.8727962374687195,1.0590559244155884,-1.0031341314315796
1684200566489317400,0.2093173828125,-1.1874291896820068,0.7941907048225403,-0.7141453623771667
1684200566499343600,0.219343505859375,-1.613077163696289,0.5560926795005798,-0.38558024168014526
1684200566509369600,0.22936962890625,-2.129152536392212,0.6894052624702454,-0.010141929611563683
1684200566519395600,0.2393955078125,-2.4640562534332275,0.8836338520050049,0.34223318099975586
1684200566529420500,0.249420654296875,-2.420318603515625,1.2414581775665283,0.5200441479682922
1684200566539446500,0.259446533203125,-2.0998411178588867,1.6584389209747314,0.43542084097862244
1684200566549472500,0.269472412109375,-1.7501027584075928,1.4573819637298584,0.2826688885688782
1684200566559498500,0.27949853515625,-1.4886658191680908,1.3426662683486938,0.13634763658046722
1684200566569524500,0.2895244140625,-1.2807258367538452,1.6250927448272705,0.03609267622232437
1684200566579550500,0.299550537109375,-1.0624853372573853,2.2718114852905273,-0.04477820172905922
1684200566589576400,0.309576416015625,-0.8702269792556763,2.8116002082824707,-0.1233811303973198
1684200566599601400,0.319601318359375,-0.69399493932724,3.0657293796539307,-0.215312659740448
1684200566609627400,0.32962744140625,-0.5480759143829346,2.977938175201416,-0.3581598103046417
1684200566619653400,0.3396533203125,-0.5608385801315308,2.948364019393921,-0.6058892011642456
1684200566629679400,0.349679443359375,-1.2706365585327148,3.064700126647949,-0.844055712223053
1684200566639705300,0.359705322265625,-3.1796255111694336,2.928495407104492,-0.7699140906333923
1684200566649731600,0.369731689453125,-3.260772943496704,2.011141300201416,-0.948898196220398
1684200566659757600,0.379757568359375,-3.4696877002716064,2.065877676010132,-0.9895612001419067
1684200566669782500,0.389782470703125,-3.6491000652313232,2.4451918601989746,-1.0077389478683472
1684200566679808500,0.39980859375,-3.605757713317871,2.9883828163146973,-0.934360682964325
1684200566689834500,0.40983447265625,-3.3808131217956543,3.5181760787963867,-0.7043907046318054
1684200566699860500,0.419860595703125,-2.955878257751465,3.433779716491699,-0.49410563707351685
1684200566709886500,0.429886474609375,-2.442138671875,2.34769344329834,-0.7228148579597473
1684200566719912400,0.439912353515625,-2.378117084503174,1.6297541856765747,-1.3781414031982422
1684200566729938400,0.4499384765625,-2.692333936691284,1.0487200021743774,-2.178497791290283
1684200566739963600,0.459963623046875,-3.133657455444336,0.8266654014587402,-2.9151103496551514
1684200566749989600,0.46998974609375,-3.589067220687866,1.2021900415420532,-3.2018134593963623
1684200566760015400,0.480015380859375,-4.361844062805176,2.1466622352600098,-2.8825135231018066
1684200566770041300,0.490041259765625,-5.34904670715332,3.612658977508545,-2.058022975921631
1684200566780067300,0.5000673828125,-6.252806186676025,5.57924222946167,-0.8420478701591492
1684200566790093300,0.51009326171875,-6.749550819396973,7.33903694152832,0.5347726345062256
1684200566800119600,0.52011962890625,-6.2566070556640625,8.37641429901123,1.723497748374939
1684200566810144500,0.53014453125,-5.141032695770264,8.97736644744873,2.387300491333008
1684200566820170800,0.540170654296875,-5.005417346954346,8.529940605163574,2.8013393878936768
1684200566830196700,0.55019677734375,-5.62634801864624,7.42643404006958,3.075131416320801
1684200566840222700,0.56022265625,-6.056975841522217,6.1775665283203125,3.0350027084350586
1684200566850248400,0.57024853515625,-6.241206169128418,4.946004867553711,2.815993070602417
1684200566860274400,0.5802744140625,-6.099364280700684,3.6968724727630615,2.6713967323303223
1684200566870299600,0.590299560546875,-5.729097843170166,2.5063607692718506,2.6583433151245117
1684200566880325600,0.60032568359375,-5.179297924041748,1.5329501628875732,2.702859401702881
1684200566890351600,0.6103515625,-4.562716007232666,0.7569067478179932,2.6256632804870605
1684200566900377600,0.620377685546875,-4.022830009460449,0.2989751696586609,2.3659417629241943
1684200566910403600,0.630403564453125,-3.717284679412842,-0.037539392709732056,2.0376410484313965
1684200566920429600,0.6404296875,-3.538262367248535,-0.1904919296503067,1.765516996383667
1684200566930455600,0.65045556640625,-3.4293971061706543,0.04586426913738251,1.6715025901794434
1684200566940480500,0.66048046875,-3.461406707763672,0.35286441445350647,1.693873405456543
1684200566950506500,0.670506591796875,-3.486090660095215,0.49070069193840027,1.6423285007476807
1684200566960532500,0.680532470703125,-3.319074869155884,0.7349793910980225,1.5789867639541626
1684200566970558700,0.690558837890625,-2.9677107334136963,0.7965233325958252,1.4810770750045776
1684200566980584700,0.700584716796875,-2.485224485397339,0.47569602727890015,1.155515432357788
1684200566990610700,0.710610595703125,-1.9770375490188599,0.039232686161994934,0.7065804600715637
1684200567000636700,0.72063671875,-1.6075156927108765,-0.5927562117576599,0.3146265745162964
1684200567010661600,0.73066162109375,-1.2301040887832642,-1.1053862571716309,0.11195676028728485
1684200567020687600,0.7406875,-0.8040624260902405,-1.5508705377578735,-0.01185040082782507
1684200567030713600,0.750713623046875,-0.45476630330085754,-2.098093271255493,-0.13438943028450012
1684200567040739600,0.760739501953125,-0.13610123097896576,-2.4369516372680664,-0.030155157670378685
1684200567050765600,0.770765625,0.16657638549804688,-2.923490285873413,0.11834920197725296
1684200567060791600,0.78079150390625,0.432526558637619,-3.8604018688201904,-0.1492457538843155
1684200567070817500,0.790817626953125,0.4472600221633911,-3.7489123344421387,-0.5999611020088196
1684200567080842500,0.800842529296875,0.2557161748409271,-3.001044273376465,-0.6866956949234009
1684200567090868500,0.810868408203125,0.4204927086830139,-3.1560263633728027,-0.2896422743797302
1684200567100894500,0.82089453125,0.8560470938682556,-3.442403793334961,0.23578953742980957
1684200567110920400,0.83092041015625,1.3516346216201782,-3.19726824760437,0.8173018097877502
1684200567120946700,0.84094677734375,1.7260830402374268,-3.0424835681915283,0.9703832268714905
1684200567130972700,0.85097265625,1.9707132577896118,-2.771430730819702,0.58790522813797
1684200567140998700,0.86099853515625,2.0494935512542725,-2.463770866394043,-0.3869020342826843
1684200567151023600,0.871023681640625,2.095702648162842,-1.9168978929519653,-1.550656795501709
1684200567161049600,0.881049560546875,2.1959660053253174,-0.9076623320579529,-2.2136847972869873
1684200567171075600,0.89107568359375,2.308800220489502,0.12978297472000122,-1.8659024238586426
1684200567181101600,0.9011015625,2.186174154281616,0.7102724313735962,-1.0485785007476807
1684200567191127600,0.91112744140625,1.9300072193145752,1.0706813335418701,-0.38336381316185
1684200567201153500,0.921153564453125,1.704967975616455,1.4363019466400146,-0.09904874116182327
1684200567211178500,0.931178466796875,1.968390703201294,1.7177503108978271,0.08024416118860245
1684200567221204500,0.94120458984375,2.2125391960144043,2.1053719520568848,0.5537371635437012
1684200567231230500,0.95123046875,1.6809474229812622,1.9500187635421753,-0.048887938261032104
1684200567241256400,0.96125634765625,1.2035256624221802,1.649678111076355,-0.48370519280433655
1684200567251282400,0.971282470703125,0.9168433547019958,1.6694499254226685,-0.31533557176589966
1684200567261308400,0.981308349609375,0.4356434643268585,1.8578561544418335,-0.003906297031790018
1684200567271334700,0.991334716796875,-0.05449393019080162,2.3129489421844482,0.42175978422164917
1684200567281359400,1.001359375,-0.4378698170185089,2.5678799152374268,0.7274842858314514
1684200567291385600,1.011385498046875,-0.5603562593460083,2.5996081829071045,0.6517505645751953
1684200567301411600,1.02141162109375,-0.3972368538379669,2.630991220474243,0.36479225754737854
1684200567311437600,1.0314375,0.07662036269903183,2.3893425464630127,0.01353847049176693
1684200567321463600,1.041463623046875,1.321182370185852,1.854943871498108,-0.4774797260761261
1684200567331489500,1.051489501953125,2.4734702110290527,0.9516772627830505,-0.8594544529914856
1684200567341515500,1.061515625,2.5444586277008057,-0.2545786499977112,-1.298523187637329
1684200567351540500,1.07154052734375,2.181356906890869,-1.3088091611862183,-1.6028566360473633
1684200567361566500,1.08156640625,1.7438770532608032,-1.9465802907943726,-1.5059229135513306
1684200567371592400,1.091592529296875,0.9508763551712036,-1.6754118204116821,-1.1357866525650024
1684200567381618400,1.101618408203125,0.3580838441848755,-0.876308262348175,-0.7462685704231262
1684200567391644400,1.11164453125,0.0786893293261528,0.35661911964416504,-0.29662951827049255
1684200567401670400,1.12167041015625,-0.03834968060255051,1.4312992095947266,0.06237099692225456
1684200567411696600,1.131696533203125,0.11950311809778214,2.3192152976989746,0.3770301342010498
1684200567421721300,1.141721435546875,0.3964073956012726,3.0451722145080566,0.6006374359130859
1684200567431747600,1.15174755859375,0.32142430543899536,3.1496641635894775,0.5143749713897705
1684200567441773600,1.161773681640625,-0.21529853343963623,2.3323111534118652,0.32273605465888977
1684200567451799600,1.171799560546875,-1.0116620063781738,1.0821974277496338,0.35154780745506287
1684200567461825500,1.181825439453125,-1.8401042222976685,-0.14419199526309967,0.5289572477340698
1684200567471851500,1.1918515625,-2.7280514240264893,-1.2038923501968384,0.6693559288978577
1684200567481876700,1.201876708984375,-3.4130146503448486,-2.340627908706665,0.5465386509895325
1684200567491902500,1.21190234375,-3.8173089027404785,-2.164738655090332,-0.35392531752586365
1684200567501928400,1.221928466796875,-3.6954848766326904,-0.5351484417915344,-1.3936083316802979
1684200567511954400,1.231954345703125,-3.5434296131134033,1.0424830913543701,-1.4266482591629028
1684200567521980400,1.24198046875,-3.9207892417907715,1.4715481996536255,-0.9605674743652344
1684200567532006400,1.25200634765625,-4.4700026512146,1.039299488067627,-0.6670753955841064
1684200567542032400,1.262032470703125,-5.1649861335754395,0.8399811387062073,-0.6512194871902466
1684200567552057600,1.2720576171875,-5.859155178070068,1.1930053234100342,-0.745170533657074
1684200567562083600,1.28208349609375,-6.488574981689453,2.2797346115112305,-1.0005168914794922
1684200567572109600,1.292109619140625,-6.728670597076416,3.8217289447784424,-1.2345573902130127
1684200567582135600,1.302135498046875,-7.018121242523193,5.546148777008057,-1.2881391048431396
1684200567592161500,1.31216162109375,-6.99222993850708,6.9239583015441895,-1.0283105373382568
1684200567602187500,1.3221875,-6.806125640869141,7.227126598358154,-0.596261203289032
1684200567612213500,1.332213623046875,-5.9060821533203125,4.535068035125732,0.32950085401535034
1684200567622238700,1.34223876953125,-3.7397499084472656,1.8485749959945679,1.0394636392593384
1684200567632264700,1.3522646484375,-2.1474273204803467,0.7433595061302185,1.06071937084198
1684200567642290700,1.362290771484375,-1.437593936920166,0.22043873369693756,0.7056092619895935
1684200567652316700,1.372316650390625,-1.0482072830200195,-0.21070557832717896,0.40249335765838623
1684200567662342700,1.3823427734375,-0.5339068174362183,-0.5042336583137512,0.2918432950973511
1684200567672368600,1.39236865234375,0.09112491458654404,-0.5676857233047485,0.28984197974205017
1684200567682394600,1.40239453125,0.7696824073791504,-0.5224849581718445,0.25854822993278503
1684200567692419600,1.412419677734375,1.5059233903884888,-0.6309373378753662,0.2601698637008667
1684200567702445600,1.422445556640625,2.2808115482330322,-0.954616367816925,0.36812642216682434
1684200567712471600,1.432471435546875,2.8820834159851074,-1.2938308715820312,0.6316559910774231
1684200567722497500,1.44249755859375,3.1529533863067627,-1.2420285940170288,0.9883754849433899
1684200567732523800,1.452523681640625,2.9799563884735107,-0.8924737572669983,1.3315174579620361
1684200567742549800,1.4625498046875,2.3616933822631836,-0.24705879390239716,1.6147509813308716
1684200567752574700,1.47257470703125,1.4245988130569458,0.8451200723648071,1.8930060863494873
1684200567762600700,1.4826005859375,0.7181180715560913,1.878267765045166,2.0171308517456055
1684200567772626700,1.492626708984375,1.0668716430664062,3.074524402618408,1.7280923128128052
1684200567782652700,1.502652587890625,1.7417138814926147,3.995917558670044,1.2739434242248535
1684200567792678700,1.5126787109375,1.1438225507736206,2.6246581077575684,0.5350296497344971
1684200567802704600,1.52270458984375,-0.4567537009716034,0.49634718894958496,-0.32376259565353394
1684200567812730600,1.532730712890625,-1.7970963716506958,0.8951791524887085,-0.4207864999771118
1684200567822755600,1.542755615234375,-3.18855619430542,1.5685670375823975,-0.3489932715892792
1684200567832781600,1.552781494140625,-4.3048319816589355,2.157273530960083,-0.13578657805919647
1684200567842807600,1.5628076171875,-5.090424060821533,2.378586769104004,0.17811809480190277
1684200567852833500,1.57283349609375,-5.340926647186279,2.75258207321167,0.5979791283607483
1684200567862859500,1.582859619140625,-5.0822529792785645,3.613152265548706,1.0632338523864746
1684200567872885500,1.592885498046875,-4.399994850158691,5.201984882354736,1.2045221328735352
1684200567882911700,1.602911865234375,-3.827542304992676,4.0358567237854,0.17739254236221313
1684200567892936400,1.6129365234375,-3.07706880569458,4.650969505310059,-0.1698753982782364
1684200567902962700,1.622962646484375,-2.439647912979126,5.55832576751709,-0.13240578770637512
1684200567912988700,1.63298876953125,-1.7437089681625366,5.3535919189453125,-0.005165280308574438
1684200567923014700,1.6430146484375,0.12554968893527985,1.2621853351593018,0.7777675986289978
1684200567933040600,1.65304052734375,1.3473526239395142,-0.9534202218055725,1.1626324653625488
1684200567943066600,1.663066650390625,1.4273457527160645,-1.513401746749878,1.1223456859588623
1684200567953091600,1.673091552734375,0.38537245988845825,-2.402165174484253,0.47875040769577026
1684200567963117600,1.68311767578125,0.06565302610397339,-2.651470899581909,0.21815265715122223
1684200567973143600,1.6931435546875,0.13509537279605865,-2.2902324199676514,0.28806260228157043
1684200567983169500,1.70316943359375,0.25855711102485657,-1.7797118425369263,0.44142234325408936
1684200567993195500,1.713195556640625,0.4559192657470703,-1.2751394510269165,0.5778772830963135
1684200568003221500,1.723221435546875,0.5872805118560791,-0.9769445061683655,0.6299708485603333
1684200568013247500,1.73324755859375,0.42896410822868347,-1.414483904838562,0.32316142320632935
1684200568023272400,1.7432724609375,0.22824831306934357,-2.0635275840759277,-0.1416747123003006
1684200568033298400,1.75329833984375,0.20067790150642395,-2.1334073543548584,-0.3618118464946747
1684200568043324400,1.763324462890625,0.3125213384628296,-1.9293872117996216,-0.44175541400909424
1684200568053350700,1.7733505859375,0.4907796382904053,-1.775015115737915,-0.5030724406242371
1684200568063376600,1.783376708984375,0.6577707529067993,-1.573507308959961,-0.49463874101638794
1684200568073402600,1.793402587890625,0.6996232271194458,-1.3398852348327637,-0.429877370595932
1684200568083428600,1.8034287109375,0.5496691465377808,-1.1432613134384155,-0.3637915551662445
1684200568093453600,1.81345361328125,0.41763776540756226,-0.9988169074058533,-0.2937648296356201
1684200568103479600,1.8234794921875,0.32917237281799316,-0.9362962245941162,-0.21941174566745758
1684200568113505500,1.833505615234375,0.2293996512889862,-0.943193256855011,-0.15006521344184875
1684200568123531500,1.843531494140625,0.13482333719730377,-0.9984538555145264,-0.12461205571889877
1684200568133557500,1.8535576171875,0.1036912053823471,-1.1419587135314941,-0.15325914323329926
1684200568143583500,1.86358349609375,0.13932137191295624,-1.2766335010528564,-0.1948672980070114
1684200568153608400,1.8736083984375,0.25443679094314575,-1.3693784475326538,-0.23818208277225494
1684200568163634400,1.883634521484375,0.41424134373664856,-1.905295968055725,-0.11507692188024521
1684200568173660400,1.893660400390625,0.6242236495018005,-3.212310552597046,0.2967572510242462
1684200568183686400,1.903686279296875,1.0806667804718018,-3.9232254028320312,0.6370322108268738
1684200568193712400,1.91371240234375,1.8424813747406006,-3.797952175140381,0.8690252900123596
1684200568203738600,1.923738525390625,2.6275382041931152,-3.525489330291748,1.0121617317199707
1684200568213764600,1.9337646484375,3.3403563499450684,-3.5201148986816406,1.086033582687378
1684200568223789600,1.94378955078125,3.8961265087127686,-3.754429817199707,0.9842055439949036
1684200568233815600,1.953815673828125,4.104248523712158,-3.9807076454162598,0.6881470084190369
1684200568243841500,1.963841552734375,3.9539055824279785,-3.672440528869629,0.32591554522514343
1684200568253867500,1.973867431640625,3.2391293048858643,-2.7807953357696533,0.09370191395282745
1684200568263893500,1.9838935546875,1.3385822772979736,-1.8707236051559448,-0.2174498438835144
1684200568273919500,1.99391943359375,-0.3058018684387207,-1.1486451625823975,-0.5984374284744263
1684200568283945500,2.003945556640625,-0.7876929044723511,-0.4834271967411041,-0.7168575525283813
1684200568293970700,2.013970703125,-0.5496160387992859,-0.034489087760448456,-0.6952971816062927
1684200568303996700,2.02399658203125,-0.10506922751665115,0.26498737931251526,-0.6400579214096069
1684200568314022700,2.034022705078125,0.197107195854187,0.46101000905036926,-0.5680031776428223
1684200568324048600,2.044048583984375,0.30262458324432373,0.62857985496521,-0.4686776399612427
1684200568334074400,2.054074462890625,0.2752988040447235,0.8134261965751648,-0.3369448482990265
1684200568344100400,2.064100341796875,0.20151646435260773,1.0188443660736084,-0.1678333431482315
1684200568354125300,2.074125244140625,0.13702934980392456,1.209343433380127,0.021107813343405724
1684200568364151300,2.0841513671875,0.08547715097665787,1.3402007818222046,0.2062327265739441
1684200568374177300,2.09417724609375,0.015318595804274082,1.400636911392212,0.36114463210105896
1684200568384203300,2.104203369140625,-0.03194345906376839,1.403538703918457,0.47803425788879395
1684200568394229200,2.114229248046875,-0.07679739594459534,1.297835350036621,0.532550573348999
1684200568404255500,2.12425537109375,-0.10732947289943695,1.0607647895812988,0.5093526244163513
1684200568414281500,2.134281494140625,-0.11071878671646118,0.7656568288803101,0.45838484168052673
1684200568424306400,2.144306396484375,-0.08803104609251022,0.473514199256897,0.3860637843608856
1684200568434332400,2.15433251953125,-0.08038638532161713,0.1393957883119583,0.2769836187362671
1684200568444358400,2.1643583984375,-0.05813940614461899,-0.2384905219078064,0.12197515368461609
1684200568454384400,2.17438427734375,-0.020643487572669983,-0.5976256728172302,-0.03907978534698486
1684200568464410400,2.184410400390625,0.02763030305504799,-0.8390257954597473,-0.17300376296043396
1684200568474436400,2.194436279296875,0.07127383351325989,-0.9321484565734863,-0.2416180968284607
1684200568484462300,2.20446240234375,0.08728209137916565,-0.8380105495452881,-0.24084150791168213
1684200568494487300,2.2144873046875,0.07993289828300476,-0.6324082612991333,-0.18075639009475708
1684200568504513300,2.22451318359375,0.0653318539261818,-0.40758341550827026,-0.0814010351896286
1684200568514539300,2.234539306640625,0.04829581081867218,-0.26694756746292114,0.022401845082640648
1684200568524565200,2.244565185546875,0.04931659996509552,-0.2507672607898712,0.09530109167098999
1684200568534591200,2.25459130859375,0.07856563478708267,-0.3412110507488251,0.11677037179470062
1684200568544617200,2.2646171875,0.11032462865114212,-0.4488570988178253,0.0949002280831337
1684200568554642200,2.27464208984375,0.1251240223646164,-0.5104390978813171,0.03365204855799675
1684200568564668200,2.284668212890625,0.12347526103258133,-0.4971608519554138,-0.036306530237197876
1684200568574694400,2.2946943359375,0.10705062747001648,-0.4271915555000305,-0.104377880692482
1684200568584720400,2.304720458984375,0.07626181840896606,-0.3380289077758789,-0.167494535446167
1684200568594746400,2.314746337890625,0.02569589577615261,-0.24959950149059296,-0.21410779654979706
1684200568604772400,2.3247724609375,-0.02502773515880108,-0.15444128215312958,-0.23319625854492188
1684200568614798300,2.33479833984375,-0.0828506126999855,-0.08627547323703766,-0.22279800474643707
1684200568624823300,2.3448232421875,-0.13581423461437225,-0.05849017947912216,-0.18158717453479767
1684200568634849300,2.354849365234375,-0.1483689248561859,-0.08432637155056,-0.1239737942814827
1684200568644875300,2.364875244140625,-0.14414168894290924,-0.1786683201789856,-0.06620343774557114
1684200568654901200,2.3749013671875,-0.13295292854309082,-0.3007600009441376,-0.020735399797558784
1684200568664927200,2.38492724609375,-0.12269790470600128,-0.4128521680831909,0.010840103030204773
1684200568674953200,2.394953125,-0.11834713071584702,-0.4937595725059509,0.019772028550505638
1684200568684979200,2.404979248046875,-0.13403528928756714,-0.5247741937637329,0.004377358127385378
1684200568695004200,2.415004150390625,-0.15315383672714233,-0.4949186146259308,-0.01862281933426857
1684200568705030100,2.425030029296875,-0.16790109872817993,-0.42226627469062805,-0.03986765444278717
1684200568715056000,2.43505615234375,-0.18440189957618713,-0.3454400599002838,-0.06477982550859451
1684200568725082400,2.445082275390625,-0.1909831017255783,-0.2940642237663269,-0.07969778776168823
1684200568735108400,2.4551083984375,-0.17756615579128265,-0.28602683544158936,-0.0796675905585289
1684200568745134300,2.46513427734375,-0.1618282049894333,-0.31052684783935547,-0.07759325206279755
1684200568755159300,2.4751591796875,-0.15082907676696777,-0.3450605273246765,-0.06098061054944992
1684200568765185300,2.485185302734375,-0.13774682581424713,-0.36399319767951965,-0.039342161267995834
1684200568775211300,2.495211181640625,-0.12305958569049835,-0.3536730706691742,-0.015618773177266121
1684200568785237200,2.5052373046875,-0.13777408003807068,-0.33686506748199463,-0.007023154757916927
1684200568795263200,2.51526318359375,-0.16791507601737976,-0.32348284125328064,-0.008961830288171768
1684200568805289200,2.525289306640625,-0.20431356132030487,-0.3090335726737976,-0.032169681042432785
1684200568815315200,2.535315185546875,-0.24084356427192688,-0.3015325963497162,-0.059291526675224304
1684200568825340200,2.545340087890625,-0.26379308104515076,-0.3048540949821472,-0.08828616142272949
1684200568835366100,2.5553662109375,-0.2729104459285736,-0.32327961921691895,-0.09713749587535858
1684200568845392100,2.56539208984375,-0.2657763659954071,-0.36038652062416077,-0.09630712121725082
1684200568855418000,2.575418212890625,-0.25244447588920593,-0.42144903540611267,-0.08306844532489777
1684200568865444000,2.585444091796875,-0.23387743532657623,-0.4845680594444275,-0.062471020966768265
1684200568875470300,2.59547021484375,-0.21858055889606476,-0.5331235527992249,-0.03575823828577995
1684200568885496300,2.605496337890625,-0.1980808824300766,-0.56463623046875,-0.021921787410974503
1684200568895521300,2.615521240234375,-0.1737486571073532,-0.5835971832275391,-0.02457599714398384
1684200568905547300,2.62554736328125,-0.1327543556690216,-0.6054734587669373,-0.03818075731396675
1684200568915573200,2.6355732421875,-0.07845968008041382,-0.6246927380561829,-0.0666675791144371
1684200568925599200,2.64559912109375,-0.01837051287293434,-0.6336289644241333,-0.1153046190738678
1684200568935625200,2.655625244140625,0.039512213319540024,-0.6116400361061096,-0.16773374378681183
1684200568945651200,2.665651123046875,0.08453535288572311,-0.5596972107887268,-0.22081533074378967
1684200568955676400,2.675676513671875,0.12995263934135437,-0.45025989413261414,-0.26532334089279175
1684200568965702400,2.685702392578125,0.1834680587053299,-0.29328998923301697,-0.2871335744857788
1684200568975728400,2.695728271484375,0.23828262090682983,-0.0947013720870018,-0.27782103419303894
1684200568985754400,2.70575439453125,0.28979164361953735,0.13265801966190338,-0.2316484898328781
1684200568995780400,2.7157802734375,0.33740511536598206,0.35958343744277954,-0.15678735077381134
1684200569005806000,2.72580615234375,0.384299635887146,0.5379169583320618,-0.061206500977277756
1684200569015832000,2.73583203125,0.4218766987323761,0.5933583378791809,0.02907167747616768
1684200569025857300,2.745857177734375,0.44620442390441895,0.4094625413417816,0.08113008737564087
1684200569035883300,2.75588330078125,0.4493342936038971,-0.12838374078273773,0.05434465408325195
1684200569045909200,2.7659091796875,0.47849005460739136,-0.9415737986564636,-0.0756509006023407
1684200569055935500,2.775935546875,0.54549241065979,-1.6236718893051147,-0.3246428966522217
1684200569065961500,2.78596142578125,0.6394064426422119,-1.9581319093704224,-0.627149224281311
1684200569075987500,2.795987548828125,0.741486668586731,-1.9211429357528687,-0.912408709526062
1684200569086012400,2.806012451171875,0.8414710760116577,-1.586971402168274,-1.158463716506958
1684200569096038400,2.816038330078125,0.9480162262916565,-1.0997803211212158,-1.3926225900650024
1684200569106064400,2.826064453125,1.1352357864379883,-0.5322003960609436,-1.6354446411132812
1684200569116090400,2.83609033203125,1.378675937652588,0.14276577532291412,-1.8686059713363647
1684200569126116400,2.846116455078125,1.574554443359375,0.9014601707458496,-2.0268495082855225
1684200569136142300,2.856142333984375,1.6085495948791504,1.3628627061843872,-2.1405491828918457
1684200569146168300,2.866168212890625,1.5397911071777344,1.6298563480377197,-2.0845260620117188
1684200569156193300,2.876193359375,1.4718198776245117,1.5619981288909912,-1.9529411792755127
1684200569166219300,2.88621923828125,1.4536936283111572,1.3905936479568481,-1.7479193210601807
1684200569176245200,2.896245361328125,1.3648135662078857,1.3638455867767334,-1.493694543838501
1684200569186271200,2.906271240234375,1.2062708139419556,1.5212208032608032,-1.1999633312225342
1684200569196297200,2.916297119140625,1.009211540222168,1.7250417470932007,-0.9352119565010071
1684200569206323500,2.926323486328125,0.8546860814094543,1.9642735719680786,-0.7053766250610352
1684200569216348200,2.93634814453125,0.850944995880127,2.094001054763794,-0.6151044964790344
1684200569226374400,2.94637451171875,1.0247730016708374,1.7303873300552368,-0.8091543912887573
1684200569236400400,2.956400390625,1.3211034536361694,1.3377139568328857,-0.9900081753730774
1684200569246426400,2.96642626953125,1.5719820261001587,1.1357057094573975,-1.0084558725357056
1684200569256452400,2.976452392578125,1.695212721824646,1.0057624578475952,-0.943739652633667
1684200569266478300,2.986478271484375,1.7110460996627808,0.9270868301391602,-0.8529008030891418
1684200569276504300,2.99650439453125,1.5943124294281006,0.9262385964393616,-0.706737220287323
1684200569286529300,3.006529296875,1.4595290422439575,1.033276081085205,-0.530174970626831
1684200569296555300,3.01655517578125,1.3720924854278564,1.1683334112167358,-0.3592716455459595
1684200569306581200,3.026581298828125,1.345589518547058,1.302884817123413,-0.20531748235225677
1684200569316607200,3.036607177734375,1.3351364135742188,1.440394401550293,-0.10200564563274384
1684200569326633200,3.04663330078125,1.3104995489120483,1.527883768081665,-0.0497344546020031
1684200569336659700,3.05665966796875,1.284529209136963,1.5127816200256348,-0.04847632348537445
1684200569346684400,3.066684326171875,1.2270925045013428,1.3896516561508179,-0.07639744132757187
1684200569356710700,3.076710693359375,1.1756192445755005,1.2220215797424316,-0.06800560653209686
1684200569366736600,3.086736572265625,1.1015665531158447,1.0586841106414795,-0.01713203452527523
1684200569376762600,3.0967626953125,1.007720708847046,0.9743865728378296,0.06844166666269302
1684200569386788600,3.10678857421875,0.9014025926589966,0.9237503409385681,0.11583182215690613
1684200569396814600,3.116814697265625,0.8005478382110596,0.8622962832450867,0.12186292558908463
1684200569406840600,3.126840576171875,0.7309561967849731,0.7273927927017212,0.1591666042804718
1684200569416865500,3.136865478515625,0.6932721734046936,0.46855786442756653,0.2334083467721939
1684200569426891500,3.1468916015625,0.6417546272277832,0.16245627403259277,0.3096541464328766
1684200569436917500,3.15691748046875,0.5559004545211792,-0.12677952647209167,0.36737388372421265
1684200569446943500,3.166943603515625,0.4531159996986389,-0.32414907217025757,0.3893449604511261
1684200569456969500,3.176969482421875,0.3678198754787445,-0.38813677430152893,0.3684599697589874
1684200569466995500,3.186995361328125,0.31619691848754883,-0.2934507429599762,0.32420089840888977
1684200569477021400,3.197021484375,0.2595711350440979,-0.1283894181251526,0.29922568798065186
1684200569487046400,3.20704638671875,0.16955283284187317,0.05011242628097534,0.34644457697868347
1684200569497072400,3.217072265625,0.06152665987610817,0.23414963483810425,0.4588260352611542
1684200569507098600,3.2270986328125,-0.03663000091910362,0.4358784854412079,0.5747215151786804
1684200569517124600,3.23712451171875,-0.1257253885269165,0.6101738214492798,0.6601036787033081
1684200569527150600,3.247150634765625,-0.2071875035762787,0.6691268682479858,0.7273338437080383
1684200569537176600,3.257176513671875,-0.3033553659915924,0.5429293513298035,0.8048595190048218
1684200569547201500,3.267201416015625,-0.402617484331131,0.23578299582004547,0.8825995922088623
1684200569557227500,3.2772275390625,-0.5024483799934387,-0.1920033097267151,0.8997560143470764
1684200569567253500,3.28725341796875,-0.5736885070800781,-0.6023836731910706,0.8741846084594727
1684200569577279500,3.297279541015625,-0.590539813041687,-0.9365928173065186,0.8184955716133118
1684200569587305500,3.307305419921875,-0.573103666305542,-1.2161363363265991,0.7614647746086121
1684200569597331500,3.31733154296875,-0.5600854158401489,-1.3785189390182495,0.7345203757286072
1684200569607357400,3.327357421875,-0.5709068775177002,-1.3589560985565186,0.7359007000923157
1684200569617382400,3.33738232421875,-0.6179186701774597,-1.1860980987548828,0.7601824402809143
1684200569627408400,3.347408447265625,-0.6922328472137451,-0.9526572227478027,0.8070186376571655
1684200569637434400,3.357434326171875,-0.7490909099578857,-0.7833131551742554,0.8449051976203918
1684200569647460400,3.36746044921875,-0.7579888105392456,-0.7370803952217102,0.8733347058296204
1684200569657486600,3.377486572265625,-0.7217526435852051,-0.8755638599395752,0.9241592884063721
1684200569667512600,3.3875126953125,-0.6802422404289246,-1.0984671115875244,1.0088305473327637
1684200569677537800,3.397537841796875,-0.6997748017311096,-1.253606915473938,1.0335724353790283
1684200569687563800,3.407563720703125,-0.7644041180610657,-1.175158143043518,0.9376088380813599
1684200569697589800,3.41758984375,-0.8167003989219666,-0.8988471627235413,0.7504512071609497
1684200569707615500,3.427615478515625,-0.841844379901886,-0.6045204997062683,0.5898258686065674
1684200569717641500,3.437641357421875,-0.8773052096366882,-0.5493217706680298,0.5563467741012573
1684200569727667500,3.44766748046875,-0.9724642634391785,-0.8222084045410156,0.6594718098640442
1684200569737693400,3.457693359375,-1.112687349319458,-1.196622371673584,0.8528547286987305
1684200569747718700,3.46771875,-1.2656985521316528,-1.422057867050171,1.0604884624481201
1684200569757744600,3.47774462890625,-1.4177228212356567,-1.4236887693405151,1.200372576713562
1684200569767770600,3.4877705078125,-1.5444307327270508,-1.2542808055877686,1.2373348474502563
1684200569777796600,3.497796630859375,-1.6087095737457275,-0.967274010181427,1.1906888484954834
1684200569787822600,3.507822509765625,-1.6262925863265991,-0.629848837852478,1.0913654565811157
1684200569797848600,3.5178486328125,-1.5865062475204468,-0.2944239377975464,0.9552063345909119
1684200569807873500,3.52787353515625,-1.5197194814682007,-0.033859968185424805,0.7915841341018677
1684200569817899500,3.5378994140625,-1.4335711002349854,0.08413819223642349,0.5991783142089844
1684200569827925800,3.54792578125,-1.3318344354629517,0.07335318624973297,0.3684351444244385
1684200569837951700,3.55795166015625,-1.0925307273864746,0.026397928595542908,0.13302022218704224
1684200569847977700,3.567977783203125,-0.7216375470161438,-0.041266068816185,-0.03145446255803108
1684200569858003700,3.578003662109375,-0.3623892366886139,-0.10265390574932098,-0.06023503467440605
1684200569868029700,3.58802978515625,-0.15057286620140076,-0.21572907269001007,-0.04353328421711922
1684200569878054700,3.5980546875,-0.08049000054597855,-0.3804209530353546,-0.08194437623023987
1684200569888080600,3.60808056640625,-0.11492786556482315,-0.5317308306694031,-0.18669024109840393
1684200569898106600,3.618106689453125,-0.16496331989765167,-0.5938916206359863,-0.28818392753601074
1684200569908132600,3.628132568359375,-0.21436920762062073,-0.5701361894607544,-0.33054789900779724
1684200569918158600,3.63815869140625,-0.320436030626297,-0.4103434979915619,-0.3106386363506317
1684200569928184600,3.6481845703125,-0.4651956260204315,-0.03320125490427017,-0.225044384598732
1684200569938209500,3.65820947265625,-0.5677575469017029,0.5154571533203125,-0.08935248851776123
1684200569948235500,3.668235595703125,-0.6225425004959106,1.0096567869186401,0.028455369174480438
1684200569958261500,3.678261474609375,-0.6400739550590515,1.3349430561065674,0.10679987072944641
1684200569968287500,3.68828759765625,-0.6460367441177368,1.4971343278884888,0.1447152942419052
1684200569978313700,3.698313720703125,-0.6541435122489929,1.5267921686172485,0.16356632113456726
1684200569988339700,3.708339599609375,-0.6568114757537842,1.431033730506897,0.17546026408672333
1684200569998365700,3.71836572265625,-0.6354318857192993,1.1641931533813477,0.17083019018173218
1684200570008390700,3.728390625,-0.5779555439949036,0.6735605597496033,0.1393771916627884
1684200570018416600,3.738416748046875,-0.4850151538848877,-0.08013167232275009,0.07534453272819519
1684200570028442600,3.748442626953125,-0.3517950475215912,-0.9360649585723877,0.0036985715851187706
1684200570038468600,3.758468505859375,-0.2102091908454895,-1.4445619583129883,-0.04754149913787842
1684200570048494600,3.76849462890625,-0.09146177768707275,-1.5029501914978027,-0.0988670065999031
1684200570058520600,3.7785205078125,-0.0038358336314558983,-1.2428468465805054,-0.1581335812807083
1684200570068545500,3.788545654296875,0.03476029261946678,-0.768460214138031,-0.24842245876789093
1684200570078571500,3.798571533203125,0.03989589959383011,-0.08684546500444412,-0.3383500576019287
1684200570088597500,3.808597412109375,0.0061693619936704636,0.6700179576873779,-0.4116043150424957
1684200570098623500,3.81862353515625,-0.06820347905158997,1.375381588935852,-0.41338109970092773
1684200570108649500,3.8286494140625,-0.12946602702140808,1.8185068368911743,-0.3175451159477234
1684200570118675500,3.838675537109375,-0.11205191910266876,1.7193690538406372,-0.02244728058576584
1684200570128701700,3.84870166015625,-0.06259702146053314,0.9302236437797546,0.4649870991706848
1684200570138726400,3.858726318359375,-0.02359662391245365,0.27479517459869385,0.8435898423194885
1684200570148752600,3.868752685546875,0.008802061900496483,0.0042592985555529594,0.9261046648025513
1684200570158778600,3.878778564453125,0.06987981498241425,-0.14537900686264038,0.7934355139732361
1684200570168804600,3.8888046875,0.12942223250865936,-0.2854008078575134,0.5321482419967651
1684200570178830600,3.89883056640625,0.17920497059822083,-0.3843769133090973,0.24496392905712128
1684200570188856600,3.908856689453125,0.21057380735874176,-0.4155329763889313,0.017852207645773888
1684200570198882600,3.918882568359375,0.22994141280651093,-0.3832884132862091,-0.0837257131934166
1684200570208907500,3.928907470703125,0.23703767359256744,-0.30905333161354065,-0.07846410572528839
1684200570218933500,3.93893359375,0.2180333435535431,-0.13989825546741486,0.01442706398665905
1684200570228959500,3.94895947265625,0.1646912842988968,0.09283699095249176,0.16719183325767517
1684200570238985500,3.9589853515625,0.0862668976187706,0.3219239413738251,0.36223453283309937
1684200570249011500,3.969011474609375,0.02952584996819496,0.4831458628177643,0.5392596125602722
1684200570259037400,3.979037353515625,0.00509397778660059,0.5292590260505676,0.6643521785736084
1684200570269062400,3.9890625,-0.0061312466859817505,0.5059872269630432,0.7288440465927124
1684200570279088400,3.99908837890625,0.017073165625333786,0.45903104543685913,0.7241621613502502
1684200570289114400,4.0091142578125,0.03292723000049591,0.3996310830116272,0.6388616561889648
1684200570299140600,4.019140625,0.04308447986841202,0.36486247181892395,0.5005604028701782
1684200570309166600,4.02916650390625,0.036144550889730453,0.2739163339138031,0.3265566825866699
1684200570319192600,4.039192626953125,0.03461316600441933,0.1495853066444397,0.16676205396652222
1684200570329218600,4.049218505859375,0.06385307759046555,0.09926566481590271,0.05994933098554611
1684200570339243000,4.059242919921875,0.0836709514260292,0.15509381890296936,0.028060849756002426
1684200570349269000,4.06926904296875,0.07106541097164154,0.2550813853740692,0.04275723919272423
1684200570359295200,4.079295166015625,0.047293830662965775,0.31961625814437866,0.08507881313562393
1684200570369321200,4.0893212890625,0.019966337829828262,0.3024788200855255,0.127879798412323
1684200570379347200,4.09934716796875,-0.014839839190244675,0.23007269203662872,0.17726029455661774
1684200570389373200,4.109373291015625,-0.057316992431879044,0.1434837281703949,0.22884199023246765
1684200570399398100,4.119398193359375,-0.10992119461297989,0.037218887358903885,0.2527998983860016
1684200570409424100,4.129424072265625,-0.14622648060321808,-0.08440475165843964,0.24207215011119843
1684200570419450000,4.1394501953125,-0.16321410238742828,-0.19711580872535706,0.20941013097763062
1684200570429476000,4.14947607421875,-0.17535679042339325,-0.2961169481277466,0.15911874175071716
1684200570439502000,4.159502197265625,-0.19422121345996857,-0.35893428325653076,0.10903868079185486
1684200570449528000,4.169528076171875,-0.20766538381576538,-0.37751540541648865,0.055833518505096436
1684200570459554000,4.179553955078125,-0.1935727745294571,-0.36058327555656433,0.003614201210439205
1684200570469579000,4.1895791015625,-0.15714606642723083,-0.30962714552879333,-0.03893459215760231
1684200570479605000,4.19960498046875,-0.11448543518781662,-0.24016696214675903,-0.07438408583402634
1684200570489631000,4.209630859375,-0.09517379105091095,-0.17806071043014526,-0.09518098086118698
1684200570499657000,4.219656982421875,-0.10041532665491104,-0.16912329196929932,-0.10126757621765137
1684200570509683200,4.22968310546875,-0.1004994809627533,-0.2277064323425293,-0.08398286253213882
1684200570519709200,4.239709228515625,-0.09121450781822205,-0.36771899461746216,-0.04977541044354439
1684200570529734100,4.249734130859375,-0.0587196871638298,-0.5407512187957764,-0.0016997619532048702
1684200570539760000,4.259760009765625,-0.02924356423318386,-0.6040656566619873,0.03421514853835106
1684200570549786000,4.2697861328125,-0.027236072346568108,-0.5115229487419128,0.052909206598997116
1684200570559812000,4.27981201171875,-0.040090978145599365,-0.3891522288322449,0.05116366595029831
1684200570569838000,4.289838134765625,-0.05995416268706322,-0.29934269189834595,0.03786464035511017
1684200570579864000,4.299864013671875,-0.09027749300003052,-0.2749321460723877,0.019754022359848022
1684200570589889000,4.309888916015625,-0.10565564781427383,-0.28619223833084106,-0.01154610887169838
1684200570599915000,4.3199150390625,-0.11101055890321732,-0.3150658905506134,-0.04268895462155342
1684200570609941000,4.32994091796875,-0.1302361786365509,-0.34814873337745667,-0.05861865356564522
1684200570619967000,4.339967041015625,-0.1621628999710083,-0.37312665581703186,-0.06750135868787766
1684200570629993000,4.349992919921875,-0.18770606815814972,-0.3606409430503845,-0.07001645117998123
1684200570640019000,4.36001904296875,-0.20859569311141968,-0.3441144526004791,-0.06158365681767464
1684200570650045000,4.370044921875,-0.2237679660320282,-0.34356051683425903,-0.06408675760030746
1684200570660070000,4.38006982421875,-0.2252090871334076,-0.36288776993751526,-0.0760745033621788
1684200570670096000,4.390095947265625,-0.20542925596237183,-0.3773852288722992,-0.09505537897348404
1684200570680122000,4.4001220703125,-0.18596626818180084,-0.3647466003894806,-0.11335662752389908
1684200570690148000,4.410148193359375,-0.16310249269008636,-0.2988804876804352,-0.1286146640777588
1684200570700174000,4.420174072265625,-0.14020203053951263,-0.19164066016674042,-0.14135918021202087
1684200570710200000,4.430199951171875,-0.12474849820137024,-0.08890389651060104,-0.1482067108154297
1684200570720225000,4.44022509765625,-0.12355479598045349,-0.018836356699466705,-0.15065819025039673
1684200570730251000,4.4502509765625,-0.11014498025178909,-0.006571169011294842,-0.1463068425655365
1684200570740277000,4.460277099609375,-0.07976500689983368,-0.03962613269686699,-0.1307075470685959
1684200570750303000,4.470302978515625,-0.030152183026075363,-0.10226341336965561,-0.09941434115171432
1684200570760329000,4.480328857421875,0.03135807439684868,-0.19636529684066772,-0.06907624751329422
1684200570770355000,4.49035498046875,0.09262729436159134,-0.31859612464904785,-0.044854000210762024
1684200570780381000,4.500380859375,0.1579645276069641,-0.4341948926448822,-0.03475331887602806
1684200570790406000,4.510406005859375,0.2336965650320053,-0.49832192063331604,-0.03937683627009392
1684200570800431900,4.520431884765625,0.31793466210365295,-0.5215846300125122,-0.06333079934120178
1684200570810457900,4.530457763671875,0.38747406005859375,-0.5483552813529968,-0.12973645329475403
1684200570820483800,4.54048388671875,0.45021241903305054,-0.6251550316810608,-0.24631237983703613
1684200570830510000,4.550510009765625,0.5295721888542175,-0.7469853162765503,-0.43827569484710693
1684200570840536000,4.5605361328125,0.6109269857406616,-0.902351975440979,-0.7061596512794495
1684200570850562000,4.57056201171875,0.7015208005905151,-1.1175402402877808,-1.0529135465621948
1684200570860587000,4.5805869140625,0.8303744792938232,-1.3659420013427734,-1.4660269021987915
1684200570870613000,4.590613037109375,1.0148277282714844,-1.4892654418945312,-1.8965351581573486
1684200570880639000,4.600638916015625,1.260411262512207,-1.3518637418746948,-2.426366090774536
1684200570890665000,4.6106650390625,1.5092586278915405,-0.7599937915802002,-3.156970500946045
1684200570900691000,4.62069091796875,1.6345611810684204,0.1329129934310913,-3.4704883098602295
1684200570910717000,4.630717041015625,1.6530171632766724,1.0221836566925049,-3.135262966156006
1684200570920742100,4.6407421875,1.498772144317627,1.6502045392990112,-2.545703411102295
1684200570930768100,4.65076806640625,1.3366525173187256,1.748832106590271,-2.0404372215270996
1684200570940794000,4.660794189453125,1.2895785570144653,1.2441970109939575,-1.7948973178863525
1684200570950820000,4.670820068359375,1.356015682220459,0.5549279451370239,-1.648053765296936
1684200570960845800,4.680845703125,1.4275004863739014,0.2939738631248474,-1.4077311754226685
1684200570970871800,4.690871826171875,1.4017112255096436,0.25479742884635925,-1.1289772987365723
1684200570980897000,4.70089697265625,1.3965239524841309,0.2202911227941513,-0.8760067224502563
1684200570990923000,4.710923095703125,1.5366122722625732,0.3225184381008148,-0.7587722539901733
1684200571000949200,4.72094921875,1.8596855401992798,0.4188605844974518,-0.8383328318595886
1684200571010975200,4.730975341796875,2.0943703651428223,0.7472821474075317,-0.9332982301712036
1684200571021001200,4.741001220703125,2.068942070007324,1.4227385520935059,-0.9006927013397217
1684200571031027200,4.751027099609375,1.8658065795898438,2.1250321865081787,-0.7671477198600769
1684200571041053200,4.76105322265625,1.63393235206604,2.6374924182891846,-0.5215592980384827
1684200571051078100,4.771078125,1.448909044265747,2.687213659286499,-0.27739349007606506
1684200571061104000,4.781104248046875,1.2694423198699951,2.450590133666992,-0.08193366229534149
1684200571071130000,4.791130126953125,1.0962203741073608,2.2600739002227783,0.04059198126196861
1684200571081156000,4.801156005859375,1.0273014307022095,2.12861704826355,0.05353185161948204
1684200571091182000,4.81118212890625,1.0681711435317993,1.9580881595611572,-0.007457198575139046
1684200571101208000,4.8212080078125,1.160099983215332,1.662885069847107,-0.13294194638729095
1684200571111233000,4.83123291015625,1.2341749668121338,1.3702439069747925,-0.2273174524307251
1684200571121259000,4.841259033203125,1.2540334463119507,1.1216784715652466,-0.23575827479362488
1684200571131285000,4.851284912109375,1.1979014873504639,0.8852034211158752,-0.1643323004245758
1684200571141311000,4.86131103515625,1.0788494348526,0.6766967177391052,-0.08153413981199265
1684200571151337200,4.871337158203125,0.9232704639434814,0.5969792008399963,-0.012940965592861176
1684200571161363200,4.88136328125,0.7882140874862671,0.6167378425598145,0.05935964733362198
1684200571171389200,4.89138916015625,0.6563985347747803,0.6072615385055542,0.10568080842494965
1684200571181414100,4.9014140625,0.5260658264160156,0.551327109336853,0.17466510832309723
1684200571191440100,4.911440185546875,0.37106797099113464,0.38461801409721375,0.2846917510032654
1684200571201466000,4.921466064453125,0.21611052751541138,0.10078169405460358,0.4153240919113159
1684200571211492000,4.9314921875,0.06304588168859482,-0.19303980469703674,0.511029839515686
1684200571221518000,4.94151806640625,-0.059201888740062714,-0.39779478311538696,0.5607814192771912
1684200571231544000,4.9515439453125,-0.15372918546199799,-0.5020791292190552,0.579914927482605
1684200571241569000,4.961569091796875,-0.23208780586719513,-0.5571335554122925,0.5759592652320862
1684200571251595000,4.971594970703125,-0.3220784068107605,-0.5641712546348572,0.5847008228302002
1684200571261621000,4.98162109375,-0.4242970049381256,-0.5357949733734131,0.621579110622406
1684200571271647000,4.99164697265625,-0.5243117809295654,-0.505399763584137,0.6867807507514954
1684200571281673000,5.0016728515625,-0.6169551610946655,-0.505419909954071,0.766455888748169
1684200571291699000,5.011698974609375,-0.7018213272094727,-0.5308144688606262,0.8269040584564209
1684200571301725200,5.02172509765625,-0.7655088305473328,-0.6000754833221436,0.8578595519065857
1684200571311750000,5.03175,-0.8026722073554993,-0.7152793407440186,0.8677830696105957
1684200571321775900,5.04177587890625,-0.8215499520301819,-0.8873311877250671,0.871826708316803
1684200571331802000,5.051802001953125,-0.8328835368156433,-1.080058217048645,0.8598126769065857
1684200571341828000,5.061828125,-0.8442357182502747,-1.2848657369613647,0.8469078540802002
1684200571351854000,5.07185400390625,-0.8654224872589111,-1.4753559827804565,0.8422713279724121
1684200571361880000,5.081880126953125,-0.9006962180137634,-1.6156353950500488,0.8523948788642883
1684200571371905000,5.091905029296875,-0.9420321583747864,-1.6764881610870361,0.8703978657722473
1684200571381931000,5.101930908203125,-0.9803052544593811,-1.6432856321334839,0.8930661082267761
1684200571391957000,5.11195703125,-1.008704662322998,-1.5172046422958374,0.9109668135643005
1684200571401983000,5.12198291015625,-1.02476167678833,-1.3483484983444214,0.926403284072876
1684200571412009000,5.132009033203125,-1.032543659210205,-1.2013486623764038,0.9711840748786926
1684200571422035000,5.142034912109375,-1.0546495914459229,-1.0674470663070679,1.0294352769851685
1684200571432061000,5.15206103515625,-1.0771598815917969,-0.9413480758666992,1.0929862260818481
1684200571442086000,5.1620859375,-1.0939979553222656,-0.8258916735649109,1.1234967708587646
1684200571452112000,5.17211181640625,-1.1008042097091675,-0.7086204290390015,1.1173334121704102
1684200571462137900,5.182137939453125,-1.093976616859436,-0.5630133152008057,1.0619755983352661
1684200571472163800,5.192163818359375,-1.0704121589660645,-0.4497738778591156,0.9659374952316284
1684200571482190000,5.202190185546875,-1.039018988609314,-0.38160550594329834,0.8751294612884521
1684200571492216000,5.212216064453125,-1.0231904983520508,-0.395155668258667,0.8011950254440308
1684200571502241000,5.222240966796875,-1.0021100044250488,-0.4779053330421448,0.7425256967544556
1684200571512267000,5.23226708984375,-0.9899535179138184,-0.5902073979377747,0.6929943561553955
1684200571522293000,5.24229296875,-0.9878187775611877,-0.6720280051231384,0.6459963321685791
1684200571532319000,5.252319091796875,-0.9662119746208191,-0.6835659146308899,0.5975459814071655
1684200571542345000,5.262344970703125,-0.924943745136261,-0.621359646320343,0.534476101398468
1684200571552371000,5.272370849609375,-0.8854572772979736,-0.49605125188827515,0.46406903862953186
1684200571562396200,5.282396240234375,-0.874286949634552,-0.33793455362319946,0.40226519107818604
1684200571572422100,5.292422119140625,-0.877958357334137,-0.17916302382946014,0.3540601134300232
1684200571582448000,5.3024482421875,-0.8864057064056396,-0.032474786043167114,0.3193535804748535
1684200571592473900,5.312473876953125,-0.8587674498558044,0.13123451173305511,0.295672744512558
1684200571602499800,5.322499755859375,-0.8049418926239014,0.2963294982910156,0.262515664100647
1684200571612525800,5.33252587890625,-0.73825603723526,0.42065492272377014,0.21378165483474731
1684200571622551800,5.3425517578125,-0.6404297947883606,0.459582656621933,0.13926374912261963
1684200571632577000,5.352576904296875,-0.49287790060043335,0.37683185935020447,0.05152937024831772
1684200571642603000,5.36260302734375,-0.3025352656841278,0.14047522842884064,-0.07335323095321655
1684200571652629200,5.372629150390625,-0.08118878304958344,-0.22935368120670319,-0.20474588871002197
1684200571662655200,5.3826552734375,0.12786179780960083,-0.48409807682037354,-0.24525223672389984
1684200571672681200,5.39268115234375,0.2707952558994293,-0.3203512132167816,-0.1744457185268402
1684200571682707000,5.40270703125,0.2979971170425415,0.20562748610973358,-0.08720476180315018
1684200571692732200,5.412732177734375,0.2143794596195221,0.7582701444625854,-0.05429314821958542
1684200571702758100,5.422758056640625,0.1295749545097351,1.0923179388046265,-0.055244747549295425
1684200571712784100,5.4327841796875,0.07301207631826401,1.1944421529769897,-0.037189580500125885
1684200571722810000,5.44281005859375,0.006474106572568417,1.1277421712875366,-0.004882187116891146
1684200571732836000,5.452836181640625,-0.06647147238254547,0.9328932762145996,0.024269573390483856
1684200571742862000,5.462862060546875,-0.1143866702914238,0.6588810086250305,0.06089479848742485
1684200571752888000,5.47288818359375,-0.1239737793803215,0.353802889585495,0.10253705829381943
1684200571762913000,5.4829130859375,-0.10266412049531937,0.03372691199183464,0.14860068261623383
1684200571772939000,5.49293896484375,-0.0678507462143898,-0.2958161234855652,0.20259280502796173
1684200571782965000,5.502965087890625,-0.038933735340833664,-0.6171187162399292,0.24888606369495392
1684200571792991000,5.512990966796875,-0.021862072870135307,-0.8742748498916626,0.27808070182800293
1684200571803017200,5.523017333984375,-0.02127814292907715,-1.0256030559539795,0.27617383003234863
1684200571813043200,5.533043212890625,-0.043104879558086395,-1.0550956726074219,0.2245391309261322
1684200571823068200,5.543068115234375,-0.08140047639608383,-0.9386695027351379,0.1568620204925537
1684200571833094100,5.55309423828125,-0.13036642968654633,-0.6843663454055786,0.07188375294208527
1684200571843120000,5.5631201171875,-0.15373170375823975,-0.30567070841789246,-0.035065390169620514
1684200571853146000,5.57314599609375,-0.17557361721992493,0.213098406791687,-0.1409822404384613
1684200571863172000,5.583172119140625,-0.19734160602092743,0.8116609454154968,-0.20780780911445618
1684200571873198000,5.593197998046875,-0.26548153162002563,1.4679491519927979,-0.20582908391952515
1684200571883224000,5.60322412109375,-0.3332560062408447,2.022986888885498,-0.12991802394390106
1684200571893249000,5.6132490234375,-0.34198635816574097,2.2401788234710693,-0.004141457378864288
1684200571903275000,5.62327490234375,-0.27544936537742615,2.027531147003174,0.13856162130832672
1684200571913301000,5.633301025390625,-0.17891429364681244,1.2244523763656616,0.31747570633888245
1684200571923327000,5.643326904296875,-0.10188143700361252,0.19506534934043884,0.5001545548439026
1684200571933353000,5.65335302734375,-0.026838621124625206,-0.4711180031299591,0.5212249755859375
1684200571943379000,5.66337890625,0.05267243832349777,-0.749968945980072,0.4005795419216156
1684200571953404000,5.67340380859375,0.10371245443820953,-0.7739326357841492,0.22925494611263275
1684200571963430000,5.683429931640625,0.1305374950170517,-0.7474668025970459,0.0817263200879097
1684200571973456100,5.6934560546875,0.10187789052724838,-0.7161810398101807,-0.015502233058214188
1684200571983482000,5.703482177734375,0.04503727704286575,-0.6461635828018188,-0.022359289228916168
1684200571993508000,5.713508056640625,-0.019202429801225662,-0.5011584758758545,0.05289604887366295
1684200572003534000,5.7235341796875,-0.09397777915000916,-0.2945707142353058,0.17033091187477112
1684200572013559000,5.73355908203125,-0.15496550500392914,-0.06745821982622147,0.29327571392059326
1684200572023585000,5.7435849609375,-0.17960259318351746,0.07723371684551239,0.38790252804756165
1684200572033611000,5.753611083984375,-0.18699100613594055,0.0988125130534172,0.44382041692733765
1684200572043637000,5.763636962890625,-0.17963576316833496,0.08661443740129471,0.4875558316707611
1684200572053663000,5.7736630859375,-0.18035988509655,0.045793768018484116,0.5164623260498047
1684200572063689000,5.78368896484375,-0.15595275163650513,0.00647839717566967,0.5011522769927979
1684200572073715000,5.79371484375,-0.12875467538833618,0.0058245910331606865,0.4160864055156708
1684200572083740000,5.803739990234375,-0.11213528364896774,0.02524375170469284,0.2830759286880493
1684200572093766000,5.813765869140625,-0.09754462540149689,0.002706219209358096,0.1253422349691391
1684200572103791900,5.8237919921875,-0.09713427722454071,-0.022489339113235474,-0.004364894237369299
1684200572113817900,5.83381787109375,-0.08790642023086548,-0.044628728181123734,-0.09673237055540085
1684200572123844000,5.843843994140625,-0.07957597076892853,-0.055148862302303314,-0.1538451462984085
1684200572133870000,5.8538701171875,-0.0704522430896759,-0.0405142605304718,-0.16221173107624054
1684200572143896000,5.86389599609375,-0.0689680427312851,-0.062267374247312546,-0.11917941272258759
1684200572153921000,5.873921142578125,-0.0655706450343132,-0.149957537651062,-0.043425265699625015
1684200572163947000,5.883947021484375,-0.07640184462070465,-0.28788313269615173,0.03437376767396927
1684200572173973000,5.893972900390625,-0.10059666633605957,-0.4194483458995819,0.10407455265522003
1684200572183999000,5.9039990234375,-0.1403668224811554,-0.5344802141189575,0.16783829033374786
1684200572194025000,5.91402490234375,-0.16389478743076324,-0.5873426198959351,0.22163841128349304
1684200572204051000,5.924051025390625,-0.18376970291137695,-0.5851128697395325,0.2542790174484253
1684200572214076200,5.934076171875,-0.20231249928474426,-0.5720425844192505,0.2580050528049469
1684200572224102100,5.94410205078125,-0.22898487746715546,-0.5729231238365173,0.2236347198486328
1684200572234128000,5.9541279296875,-0.2592011094093323,-0.568610668182373,0.16031193733215332
1684200572244153900,5.96415380859375,-0.28149381279945374,-0.5136329531669617,0.07714525610208511
1684200572254179800,5.974179931640625,-0.299256294965744,-0.3869221806526184,-0.005349358543753624
1684200572264205800,5.984205810546875,-0.3134864270687103,-0.20639316737651825,-0.06905052065849304
1684200572274231000,5.99423095703125,-0.3219155967235565,-0.038482725620269775,-0.09986729174852371
1684200572284257000,6.004257080078125,-0.3137373626232147,0.08907744288444519,-0.10173230618238449
1684200572294283000,6.014282958984375,-0.29420706629753113,0.13878187537193298,-0.0633271187543869
1684200572304309200,6.024309326171875,-0.27344757318496704,0.09886623173952103,-0.005948942620307207
1684200572314335200,6.034335205078125,-0.25183361768722534,-0.014486691914498806,0.04879206791520119
1684200572324361000,6.04436083984375,-0.2266402244567871,-0.12096831947565079,0.10451407730579376
1684200572334387000,6.054386962890625,-0.21224209666252136,-0.16403721272945404,0.13736949861049652
1684200572344413000,6.064412841796875,-0.22526194155216217,-0.13116882741451263,0.1494414359331131
1684200572354439000,6.07443896484375,-0.22790992259979248,-0.1465989202260971,0.11552635580301285
1684200572364465000,6.08446484375,-0.2261728197336197,-0.23951421678066254,0.04551701992750168
1684200572374491000,6.094490966796875,-0.22895875573158264,-0.3590906858444214,-0.02386072650551796
1684200572384516900,6.104516845703125,-0.23384426534175873,-0.4447501003742218,-0.06989404559135437
1684200572394542800,6.11454296875,-0.2327185422182083,-0.4913879334926605,-0.09326967597007751
1684200572404568000,6.124568115234375,-0.2243959754705429,-0.489452600479126,-0.09395134449005127
1684200572414594000,6.134593994140625,-0.22086168825626373,-0.44813233613967896,-0.08399724960327148
1684200572424620000,6.1446201171875,-0.21280251443386078,-0.37990692257881165,-0.0542573556303978
1684200572434646000,6.15464599609375,-0.2020462602376938,-0.2899070084095001,-0.024396127089858055
1684200572444671700,6.164671630859375,-0.17182418704032898,-0.18004602193832397,-0.004396054893732071
1684200572454697700,6.17469775390625,-0.11838386207818985,-0.050131164491176605,-0.013250533491373062
1684200572464723000,6.184722900390625,-0.05116071552038193,0.13694730401039124,-0.04193437471985817
1684200572474749000,6.1947490234375,0.012133302167057991,0.36389681696891785,-0.08870294690132141
1684200572484775200,6.204775146484375,0.07456253468990326,0.5787413120269775,-0.13410638272762299
1684200572494801200,6.21480126953125,0.13134831190109253,0.7144522666931152,-0.17558537423610687
1684200572504827100,6.2248271484375,0.18780216574668884,0.7259515523910522,-0.19921742379665375
1684200572514853000,6.23485302734375,0.21758829057216644,0.5750064849853516,-0.20409660041332245
1684200572524879000,6.244879150390625,0.22130519151687622,0.184231236577034,-0.18276089429855347
1684200572534904000,6.254904052734375,0.2404535859823227,-0.574923038482666,-0.13631244003772736
1684200572544930000,6.264929931640625,0.3027935326099396,-1.374846339225769,-0.1928497552871704
1684200572554956000,6.2749560546875,0.3694940209388733,-1.7723966836929321,-0.4199260175228119
1684200572564982000,6.28498193359375,0.4597344398498535,-1.7603909969329834,-0.7826592922210693
1684200572575008000,6.295008056640625,0.588584303855896,-1.448840618133545,-1.2030481100082397
1684200572585034000,6.305033935546875,0.7406259775161743,-1.0249967575073242,-1.6265848875045776
1684200572595059000,6.315058837890625,0.9143796563148499,-0.62422776222229,-2.0127148628234863
1684200572605085000,6.3250849609375,1.0903031826019287,-0.28898686170578003,-2.3001904487609863
1684200572615111000,6.33511083984375,1.2236777544021606,0.0018678947817534208,-2.4294533729553223
1684200572625137000,6.345136962890625,1.3008275032043457,0.2596186101436615,-2.393671751022339
1684200572635163000,6.355162841796875,1.3153371810913086,0.5343058705329895,-2.203385591506958
1684200572645189000,6.365189208984375,1.2894446849822998,0.8129439353942871,-1.9007197618484497
1684200572655213800,6.3752138671875,1.2061223983764648,1.1479061841964722,-1.5122895240783691
1684200572665240000,6.385239990234375,1.0253422260284424,1.4076316356658936,-1.1103490591049194
1684200572675266000,6.39526611328125,0.7965237498283386,1.3369907140731812,-0.8444057703018188
1684200572685292000,6.4052919921875,0.632476270198822,1.0996447801589966,-0.6746625304222107
1684200572695318000,6.415318115234375,0.5605202913284302,1.0144827365875244,-0.4267267882823944
1684200572705344000,6.425343994140625,0.6103610992431641,1.0528630018234253,-0.08654088526964188
1684200572715370000,6.435369873046875,0.8201937079429626,0.9677039384841919,0.2732495069503784
1684200572725395000,6.44539501953125,1.1357356309890747,0.6117880344390869,0.510540783405304
1684200572735421000,6.4554208984375,1.4510784149169922,0.3206869661808014,0.5924833416938782
1684200572745447000,6.465447021484375,1.6799980401992798,0.30627769231796265,0.5706535577774048
1684200572755473000,6.475472900390625,1.7151546478271484,0.5100089311599731,0.54410320520401
1684200572765499000,6.485498779296875,1.5718317031860352,1.0267469882965088,0.6269532442092896
1684200572775524900,6.49552490234375,1.308993935585022,1.6010336875915527,0.8279494643211365
1684200572785549800,6.5055498046875,1.0212653875350952,2.0166990756988525,1.0811511278152466
1684200572795575800,6.515575927734375,0.8293023705482483,2.320256471633911,1.3071829080581665
1684200572805601800,6.525601806640625,0.7405746579170227,2.492222547531128,1.4125651121139526
1684200572815628000,6.5356279296875,0.7022685408592224,2.5130457878112793,1.4144554138183594
1684200572825654000,6.545654052734375,0.6568548083305359,2.438750982284546,1.366688847541809
1684200572835680000,6.555679931640625,0.6007223129272461,2.296865463256836,1.3047503232955933
1684200572845706000,6.5657060546875,0.5341551303863525,2.157505512237549,1.2720963954925537
1684200572855731000,6.57573095703125,0.4532563388347626,2.031508684158325,1.3054084777832031
1684200572865757000,6.5857568359375,0.3728593587875366,1.883522391319275,1.4234544038772583
1684200572875783000,6.595782958984375,0.269538015127182,1.8154025077819824,1.5636656284332275
1684200572885809000,6.605808837890625,0.14396820962429047,1.7514687776565552,1.6080503463745117
1684200572895835000,6.6158349609375,0.08583459258079529,1.781672477722168,1.564820408821106
1684200572905860900,6.62586083984375,0.07312430441379547,1.8675233125686646,1.4744517803192139
1684200572915885800,6.6358857421875,0.06503042578697205,1.911183476448059,1.4238232374191284
1684200572925911800,6.645911865234375,0.05306202545762062,1.8581756353378296,1.4364593029022217
1684200572935937800,6.655937744140625,0.026194192469120026,1.7849663496017456,1.464379072189331
1684200572945963800,6.6659638671875,-0.025263462215662003,1.7315967082977295,1.4579744338989258
1684200572955989800,6.67598974609375,-0.0874091237783432,1.7445863485336304,1.38657808303833
1684200572966016000,6.68601611328125,-0.16517145931720734,1.8532328605651855,1.2808194160461426
1684200572976042000,6.6960419921875,-0.2580028772354126,2.009957790374756,1.1612651348114014
1684200572986067000,6.70606689453125,-0.35524675250053406,2.1550216674804688,1.0650266408920288
1684200572996093000,6.716093017578125,-0.42100125551223755,2.2766146659851074,0.9936125874519348
1684200573006119000,6.726118896484375,-0.4549497067928314,2.3638062477111816,0.9349505305290222
1684200573016145000,6.736144775390625,-0.47191351652145386,2.418989896774292,0.8733862638473511
1684200573026171000,6.7461708984375,-0.4804878830909729,2.484180212020874,0.8068826794624329
1684200573036196900,6.75619677734375,-0.4717971980571747,2.584404468536377,0.7428607940673828
1684200573046222000,6.76622216796875,-0.4612131118774414,2.693737745285034,0.6897037625312805
1684200573056248000,6.776248046875,-0.4410620331764221,2.7586820125579834,0.6565417647361755
1684200573066274000,6.786274169921875,-0.4080238342285156,2.702880382537842,0.654882550239563
1684200573076300000,6.796300048828125,-0.3650987446308136,2.545048713684082,0.6792776584625244
1684200573086325800,6.80632568359375,-0.3178306818008423,2.345339775085449,0.7173423171043396
1684200573096351700,6.816351806640625,-0.28089049458503723,2.16904878616333,0.7832260131835938
1684200573106377000,6.826376953125,-0.26168859004974365,2.056030035018921,0.8742712736129761
1684200573116403000,6.83640283203125,-0.2417399287223816,2.0132079124450684,0.986720860004425
1684200573126429000,6.846428955078125,-0.199152410030365,2.040163040161133,1.120294451713562
1684200573136455200,6.856455078125,-0.13608689606189728,2.081611394882202,1.2407249212265015
1684200573146481200,6.866481201171875,-0.05918627604842186,2.1028826236724854,1.3366367816925049
1684200573156507100,6.876507080078125,0.00709234643727541,2.117626190185547,1.413556694984436
1684200573166533000,6.886533203125,0.05343657359480858,2.1117072105407715,1.4703998565673828
1684200573176558000,6.89655810546875,0.08418543636798859,2.0890979766845703,1.526255488395691
1684200573186584000,6.906583984375,0.09073185920715332,2.0176889896392822,1.5916701555252075
1684200573196610000,6.916610107421875,0.05324680358171463,1.8792610168457031,1.6410377025604248
1684200573206636000,6.926635986328125,-0.035976115614175797,1.6748433113098145,1.6568864583969116
1684200573216662000,6.936662109375,-0.20145082473754883,1.4736042022705078,1.6381287574768066
1684200573226688000,6.94668798828125,-0.4411616325378418,1.4004364013671875,1.5718519687652588
1684200573236713000,6.956712890625,-0.740750253200531,1.7139534950256348,1.381828784942627
1684200573246739000,6.966739013671875,-1.0224958658218384,2.1620566844940186,1.159878134727478
1684200573256765000,6.976764892578125,-1.1923463344573975,2.2811267375946045,1.0642962455749512
1684200573266791000,6.986791015625,-1.2452532052993774,1.833184838294983,1.0134443044662476
1684200573276817000,6.99681689453125,-1.0822982788085938,0.910948634147644,0.9241376519203186
1684200573286843100,7.006843017578125,-0.6559825539588928,0.03907252103090286,0.8178494572639465
1684200573296867800,7.016867919921875,-0.19013763964176178,-0.2970801889896393,0.6208868622779846
1684200573306894000,7.02689404296875,0.09878407418727875,-0.13953141868114471,0.38125768303871155
1684200573316920000,7.036920166015625,0.14065562188625336,0.09237797558307648,0.14227306842803955
1684200573326946000,7.046946044921875,0.02090167999267578,0.16445055603981018,-0.07423734664916992
1684200573336971800,7.0569716796875,-0.09616634994745255,0.06477590650320053,-0.175510972738266
1684200573346997800,7.066997802734375,-0.1503865122795105,0.07076474279165268,-0.08762180805206299
1684200573357023700,7.077023681640625,-0.17394989728927612,0.4455559551715851,0.150108203291893
1684200573367048700,7.087048583984375,-0.18855060636997223,1.1133016347885132,0.45826226472854614
1684200573377074700,7.09707470703125,-0.19087208807468414,1.7905189990997314,0.7605618834495544
1684200573387100700,7.1071005859375,-0.2007061094045639,2.3844316005706787,1.0270729064941406
1684200573397126700,7.117126708984375,-0.22415736317634583,2.841799259185791,1.2409467697143555
1684200573407153000,7.12715283203125,-0.23992623388767242,3.0579214096069336,1.4131720066070557
1684200573417179000,7.137178955078125,-0.2153625786304474,2.7742598056793213,1.5296541452407837
1684200573427203800,7.147203857421875,-0.17327257990837097,2.056068181991577,1.6085600852966309
1684200573437229800,7.157229736328125,-0.096590057015419,1.6629562377929688,1.6324175596237183
1684200573447255800,7.167255859375,-0.0004527776036411524,1.9375030994415283,1.6219840049743652
1684200573457281800,7.17728173828125,0.07445688545703888,2.6121084690093994,1.6062060594558716
1684200573467307800,7.187307861328125,-0.00193813256919384,3.217280626296997,1.5722287893295288
1684200573477333800,7.197333740234375,-0.15400809049606323,3.48549485206604,1.5137430429458618
1684200573487358700,7.207358642578125,-0.15191484987735748,3.485891342163086,1.428001046180725
1684200573497384700,7.217384765625,-0.09071581065654755,3.2829742431640625,1.2315914630889893
1684200573507410700,7.22741064453125,-0.005698414985090494,3.011523723602295,0.9076347947120667
1684200573517436700,7.237436767578125,0.04032367095351219,2.9103574752807617,0.6130449771881104
1684200573527462700,7.247462646484375,0.06392739713191986,2.87751841545105,0.4020170271396637
1684200573537488600,7.257488525390625,0.05160868167877197,3.022494316101074,0.3288402855396271
1684200573547514600,7.2675146484375,0.0073184603825211525,3.2200846672058105,0.3818826675415039
1684200573557539600,7.27753955078125,-0.03617335855960846,3.3037569522857666,0.5090273022651672
1684200573567565600,7.287565673828125,-0.07213634997606277,3.3170251846313477,0.6642522215843201
1684200573577591800,7.297591796875,-0.11969881504774094,3.3037703037261963,0.8042277097702026
1684200573587617800,7.30761767578125,-0.178201362490654,3.3274877071380615,0.8881835341453552
1684200573597643800,7.317643798828125,-0.23722445964813232,3.317704916000366,0.9116257429122925
1684200573607669800,7.327669677734375,-0.28582924604415894,3.24812650680542,0.9216645359992981
1684200573617695000,7.337695068359375,-0.3142656683921814,3.161031484603882,0.9606244564056396
1684200573627721000,7.347720947265625,-0.3180099129676819,3.1082801818847656,1.0295944213867188
1684200573637746700,7.35774658203125,-0.32056760787963867,3.0872702598571777,1.0959564447402954
1684200573647772700,7.367772705078125,-0.32083094120025635,3.048413038253784,1.1505753993988037
1684200573657798700,7.377798583984375,-0.3098642826080322,2.949829339981079,1.2021000385284424
1684200573667824600,7.38782470703125,-0.30427172780036926,2.842751979827881,1.239890694618225
1684200573677849900,7.397849853515625,-0.30765312910079956,2.783876657485962,1.2520402669906616
1684200573687875800,7.407875732421875,-0.31697651743888855,2.7647550106048584,1.242415428161621
1684200573697901800,7.41790185546875,-0.3338007628917694,2.8019299507141113,1.2272987365722656
1684200573707927800,7.427927734375,-0.3577445447444916,2.914490222930908,1.2069828510284424
1684200573717953800,7.437953857421875,-0.3727375864982605,3.0574681758880615,1.1853160858154297
1684200573727979800,7.447979736328125,-0.37037578225135803,3.1095757484436035,1.1623047590255737
1684200573738005800,7.458005859375,-0.3563387989997864,3.0717246532440186,1.1358238458633423
1684200573748031000,7.468031005859375,-0.33243265748023987,2.972449779510498,1.0906777381896973
1684200573758057000,7.478056884765625,-0.316205769777298,2.846680164337158,1.038271427154541
1684200573768083000,7.4880830078125,-0.3066941201686859,2.677417039871216,0.9858368039131165
1684200573778109000,7.49810888671875,-0.30020081996917725,2.531264305114746,0.9275506138801575
1684200573788135000,7.508135009765625,-0.30173027515411377,2.4397122859954834,0.8770791292190552
1684200573798161000,7.518160888671875,-0.3169768750667572,2.418621301651001,0.8237506747245789
1684200573808185900,7.528185791015625,-0.326956182718277,2.4795336723327637,0.7588439583778381
1684200573818211800,7.5382119140625,-0.3156856596469879,2.5701630115509033,0.6777733564376831
1684200573828237800,7.54823779296875,-0.28341925144195557,2.6208391189575195,0.5844525694847107
1684200573838263800,7.558263916015625,-0.2459419220685959,2.592064380645752,0.5168588757514954
1684200573848289800,7.568289794921875,-0.2158091515302658,2.4431514739990234,0.48842424154281616
1684200573858315800,7.578315673828125,-0.1865367591381073,2.140697479248047,0.45789510011672974
1684200573868340700,7.5883408203125,-0.153976708650589,1.7784802913665771,0.37327924370765686
1684200573878366700,7.59836669921875,-0.11930821090936661,1.47281813621521,0.20915260910987854
1684200573888392700,7.608392822265625,-0.07504630833864212,1.2290819883346558,-0.017757559195160866
1684200573898418700,7.618418701171875,-0.022464323788881302,1.0771504640579224,-0.3003825843334198
1684200573908445000,7.62844482421875,0.06189890205860138,1.057503342628479,-0.6056466102600098
1684200573918471000,7.638470947265625,0.18821369111537933,1.0839844942092896,-0.871410071849823
1684200573928497000,7.648496826171875,0.3446245789527893,1.0606011152267456,-1.0528831481933594
1684200573938521900,7.65852197265625,0.5060489177703857,1.021899700164795,-1.1321145296096802
1684200573948547800,7.6685478515625,0.6492880582809448,1.050294041633606,-1.1387038230895996
1684200573958573800,7.67857373046875,0.7100614309310913,1.1596165895462036,-1.098473310470581
1684200573968599800,7.688599853515625,0.7013113498687744,1.289771556854248,-0.9897996187210083
1684200573978625800,7.698625732421875,0.6664108633995056,1.2984760999679565,-0.8204609155654907
1684200573988651800,7.70865185546875,0.6469053030014038,1.1159534454345703,-0.6363270878791809
1684200573998676700,7.7186767578125,0.6326544284820557,0.8159065842628479,-0.4630511403083801
1684200574008702700,7.72870263671875,0.6514131426811218,0.4926232397556305,-0.32622024416923523
1684200574018728700,7.738728759765625,0.7044406533241272,0.2373581826686859,-0.2657198905944824
1684200574028754700,7.748754638671875,0.7472366690635681,0.10894043743610382,-0.23436300456523895
1684200574038780700,7.75878076171875,0.7837353348731995,0.06806916743516922,-0.18254134058952332
1684200574048806700,7.768806640625,0.8336527943611145,0.07442595064640045,-0.07087069004774094
1684200574058831600,7.77883154296875,0.9116000533103943,0.16600486636161804,0.14722490310668945
1684200574068857600,7.788857666015625,1.0258082151412964,0.27894386649131775,0.41711223125457764
1684200574078883800,7.7988837890625,1.1947396993637085,0.41565802693367004,0.6872497797012329
1684200574088909800,7.808909912109375,1.43793785572052,0.5995294451713562,0.8779357075691223
1684200574098935800,7.818935791015625,1.636790156364441,0.6368747353553772,0.8767750859260559
1684200574108961800,7.8289619140625,1.7513304948806763,0.9051784873008728,0.736685574054718
1684200574118987800,7.83898779296875,1.7645163536071777,1.4006744623184204,0.5021539926528931
1684200574129012700,7.8490126953125,1.6011192798614502,1.935857892036438,0.3275075852870941
1684200574139038700,7.859038818359375,1.3564625978469849,2.3223414421081543,0.2577631175518036
1684200574149064700,7.869064697265625,1.1930590867996216,2.5403571128845215,0.24635984003543854
1684200574159090700,7.879090576171875,1.1289472579956055,2.5248305797576904,0.2593451738357544
1684200574169116700,7.88911669921875,1.1118179559707642,2.3276870250701904,0.27424734830856323
1684200574179142700,7.899142578125,1.102112889289856,1.9762423038482666,0.26581230759620667
1684200574189167600,7.909167724609375,1.082033395767212,1.569305181503296,0.25950589776039124
1684200574199193600,7.919193603515625,1.0627446174621582,1.2266801595687866,0.25805607438087463
1684200574209219600,7.929219482421875,1.0591801404953003,1.0054869651794434,0.2401106208562851
1684200574219245600,7.93924560546875,1.0531682968139648,0.8573806285858154,0.22011853754520416
1684200574229271800,7.949271728515625,1.031579613685608,0.7211584448814392,0.22350992262363434
1684200574239297800,7.9592978515625,1.0085331201553345,0.6033351421356201,0.243447944521904
1684200574249323000,7.969322998046875,1.000954508781433,0.5455769300460815,0.25147923827171326
1684200574259349000,7.979348876953125,0.973598301410675,0.5562673807144165,0.2411469668149948
1684200574269374700,7.989374755859375,0.9315515160560608,0.6315949559211731,0.22250953316688538
1684200574279400700,7.999400634765625,0.8774845600128174,0.7922123670578003,0.21702449023723602
1684200574289426700,8.0094267578125,0.8218181729316711,1.0087069272994995,0.23108220100402832
1684200574299452700,8.01945263671875,0.7555254101753235,1.2135037183761597,0.2519363462924957
1684200574309478700,8.029478759765626,0.682988166809082,1.3829641342163086,0.28837040066719055
1684200574319504000,8.03950390625,0.6111243963241577,1.4729294776916504,0.3109329640865326
1684200574329529900,8.04952978515625,0.5485737919807434,1.4661085605621338,0.3170696794986725
1684200574339555600,8.0595556640625,0.5076002478599548,1.315284252166748,0.31628698110580444
1684200574349581600,8.06958154296875,0.4974757730960846,1.012657642364502,0.31784090399742126
1684200574359607600,8.079607666015624,0.5026159286499023,0.6453568339347839,0.33621084690093994
1684200574369633500,8.089633544921876,0.4998016655445099,0.3327648937702179,0.3619177043437958
1684200574379658500,8.099658447265625,0.4714169204235077,0.109257772564888,0.4029753804206848
1684200574389684500,8.1096845703125,0.43341389298439026,-0.05221417546272278,0.4473554790019989
1684200574399710500,8.11971044921875,0.390883207321167,-0.15448223054409027,0.4782241880893707
1684200574409736400,8.129736328125,0.3441844582557678,-0.19151031970977783,0.4933241009712219
1684200574419762400,8.139762451171874,0.2741544842720032,-0.15843304991722107,0.5185889601707458
1684200574429788400,8.149788330078126,0.20893292129039764,-0.06239095330238342,0.5660833120346069
1684200574439813400,8.1598134765625,0.14242421090602875,0.024563921615481377,0.6335907578468323
1684200574449839400,8.16983935546875,0.0552518293261528,0.07340683043003082,0.6759486794471741
1684200574459865300,8.179865234375,-0.04242972284555435,0.12225213646888733,0.6167383790016174
1684200574469891300,8.189891357421875,-0.12510259449481964,0.18077562749385834,0.5057834386825562
1684200574479917300,8.199917236328124,-0.18876546621322632,0.17050674557685852,0.46126362681388855
1684200574489943600,8.209943603515624,-0.24554850161075592,0.03542022407054901,0.5246416330337524
1684200574499968300,8.21996826171875,-0.29764553904533386,-0.16983678936958313,0.6564843654632568
1684200574509994500,8.229994384765625,-0.35767582058906555,-0.37818455696105957,0.809523344039917
1684200574520020500,8.2400205078125,-0.42393234372138977,-0.5249996185302734,0.933402955532074
1684200574530046500,8.25004638671875,-0.4824956953525543,-0.579988956451416,1.0038188695907593
1684200574540072400,8.260072509765624,-0.540765106678009,-0.552568256855011,1.0261139869689941
1684200574550098400,8.270098388671874,-0.5908017754554749,-0.46758437156677246,0.9918811917304993
1684200574560124400,8.28012451171875,-0.6292186379432678,-0.35199493169784546,0.9315701723098755
1684200574570149400,8.2901494140625,-0.6750198006629944,-0.24563434720039368,0.8795961141586304
1684200574580175400,8.30017529296875,-0.7224000692367554,-0.1802944839000702,0.8238335251808167
1684200574590201300,8.310201416015625,-0.7496445178985596,-0.1847028136253357,0.7490137219429016
1684200574600227300,8.320227294921875,-0.7451128959655762,-0.2386283576488495,0.664709210395813
1684200574610253300,8.33025341796875,-0.7045367360115051,-0.3145653009414673,0.5678832530975342
1684200574620279300,8.340279296875,-0.6525288820266724,-0.38270893692970276,0.4631454348564148
1684200574630304300,8.35030419921875,-0.621417224407196,-0.4303208291530609,0.3728603422641754
1684200574640330200,8.360330322265625,-0.6395198106765747,-0.4441487789154053,0.3318953514099121
1684200574650356200,8.370356201171875,-0.6776227951049805,-0.3984889090061188,0.3270101249217987
1684200574660382500,8.380382568359375,-0.721366286277771,-0.2895813584327698,0.3188549876213074
1684200574670408400,8.390408447265624,-0.7414833307266235,-0.16209402680397034,0.31827840209007263
1684200574680434400,8.400434326171874,-0.7405880093574524,-0.07349572330713272,0.31153687834739685
1684200574690460400,8.41046044921875,-0.7207964658737183,-0.057089582085609436,0.2983102798461914
1684200574700485400,8.4204853515625,-0.6814461350440979,-0.1023513451218605,0.26778700947761536
1684200574710511400,8.430511474609375,-0.6263968348503113,-0.1664227694272995,0.21504735946655273
1684200574720537300,8.440537353515625,-0.5621635317802429,-0.19103462994098663,0.15659070014953613
1684200574730563300,8.450563232421874,-0.5080306529998779,-0.1787099391222,0.1071302592754364
1684200574740589300,8.46058935546875,-0.4765017330646515,-0.1355116069316864,0.06713730841875076
1684200574750615300,8.470615234375,-0.4622706174850464,-0.041617948561906815,0.031378984451293945
1684200574760640300,8.48064013671875,-0.4600958824157715,0.11270210891962051,0.013308107852935791
1684200574770666200,8.490666259765625,-0.48488524556159973,0.27571237087249756,0.0015431134961545467
1684200574780692200,8.500692138671875,-0.5311557650566101,0.43644240498542786,-0.017725123092532158
1684200574790718200,8.51071826171875,-0.6015081405639648,0.5813654065132141,-0.048609960824251175
1684200574800744200,8.520744140625,-0.6740635633468628,0.6746298670768738,-0.09041226655244827
1684200574810770400,8.5307705078125,-0.7083306312561035,0.6170525550842285,-0.130367249250412
1684200574820795400,8.54079541015625,-0.6807496547698975,0.43153998255729675,-0.13376037776470184
1684200574830821600,8.550821533203125,-0.6147289872169495,0.15998482704162598,-0.08948623389005661
1684200574840847600,8.56084765625,-0.5283679962158203,-0.08415061235427856,-0.021982291713356972
1684200574850873300,8.570873291015625,-0.44296807050704956,-0.25878992676734924,-0.009456753730773926
1684200574860899300,8.5808994140625,-0.4178062677383423,-0.36721813678741455,-0.05317840352654457
1684200574870925300,8.59092529296875,-0.4692140817642212,-0.5107830762863159,-0.14348763227462769
1684200574880950500,8.600950439453126,-0.5352094173431396,-0.7230982780456543,-0.24534767866134644
1684200574890976500,8.6109765625,-0.5840969085693359,-0.9718138575553894,-0.3210798501968384
1684200574901002500,8.62100244140625,-0.6048610210418701,-1.1932685375213623,-0.34940895438194275
1684200574911028500,8.631028564453125,-0.601865291595459,-1.2967265844345093,-0.33688950538635254
1684200574921054500,8.641054443359375,-0.5977557897567749,-1.2479093074798584,-0.30979716777801514
1684200574931080400,8.65108056640625,-0.6180803179740906,-1.102282166481018,-0.2951928377151489
1684200574941106400,8.6611064453125,-0.6434440016746521,-0.9492529034614563,-0.281965434551239
1684200574951131400,8.67113134765625,-0.6506526470184326,-0.8114612102508545,-0.26379039883613586
1684200574961157400,8.681157470703125,-0.645102322101593,-0.6786672472953796,-0.23606368899345398
1684200574971183400,8.691183349609375,-0.6337953805923462,-0.5666496157646179,-0.17313863337039948
1684200574981209600,8.701209716796875,-0.607879638671875,-0.5004711151123047,-0.08784103393554688
1684200574991235600,8.711235595703124,-0.556287407875061,-0.49372491240501404,0.02180843986570835
1684200575001261600,8.721261474609374,-0.4896620213985443,-0.5270934700965881,0.1340034157037735
1684200575011286500,8.73128662109375,-0.4145582318305969,-0.5490468144416809,0.2186913639307022
1684200575021312500,8.7413125,-0.30933672189712524,-0.4948629140853882,0.25210338830947876
1684200575031338500,8.75133837890625,-0.1903342604637146,-0.3684598207473755,0.22356702387332916
1684200575041364500,8.761364501953125,-0.08972030133008957,-0.23058770596981049,0.16962815821170807
1684200575051390500,8.771390380859375,-0.005779643543064594,-0.11839376389980316,0.140435591340065
1684200575061416400,8.78141650390625,0.015510997734963894,-0.10074260085821152,0.16851621866226196
1684200575071441400,8.79144140625,-0.005673438776284456,-0.07783983647823334,0.1848784238100052
1684200575081467400,8.80146728515625,-0.0322406031191349,0.13593769073486328,0.10655245929956436
1684200575091493400,8.811493408203125,0.022511882707476616,0.426565945148468,-0.00758082140237093
1684200575101519400,8.821519287109375,0.1046387106180191,0.650494396686554,-0.08347851037979126
1684200575111545300,8.83154541015625,0.18138809502124786,0.7963477373123169,-0.12156704068183899
1684200575121571300,8.8415712890625,0.2502843141555786,0.8855734467506409,-0.11375252902507782
1684200575131597600,8.85159765625,0.3054318428039551,0.8744567036628723,-0.037258025258779526
1684200575141622300,8.861622314453125,0.3040158450603485,0.7843793034553528,0.08123746514320374
1684200575151648500,8.8716484375,0.26424410939216614,0.6975488066673279,0.2041991800069809
1684200575161674500,8.881674560546875,0.22669033706188202,0.6395565867424011,0.3182370662689209
1684200575171700500,8.891700439453125,0.20993316173553467,0.5064293742179871,0.430227667093277
1684200575181726500,8.9017265625,0.19034267961978912,0.32572486996650696,0.5131646394729614
1684200575191752400,8.91175244140625,0.14150293171405792,0.08873956650495529,0.5551296472549438
1684200575201777400,8.92177734375,0.09688592702150345,-0.17760397493839264,0.5665205121040344
1684200575211803400,8.931803466796875,0.07751114666461945,-0.4290911853313446,0.5457612872123718
1684200575221829400,8.941829345703125,0.09379637241363525,-0.6188688278198242,0.49496176838874817
1684200575231855400,8.95185546875,0.12805300951004028,-0.7064477205276489,0.4348270297050476
1684200575241881300,8.96188134765625,0.16064584255218506,-0.6351133584976196,0.3637531101703644
1684200575251907300,8.9719072265625,0.14883117377758026,-0.407285213470459,0.29098179936408997
1684200575261932300,8.981932373046876,0.099701426923275,-0.03100772574543953,0.21539728343486786
1684200575271958300,8.991958251953125,0.025563566014170647,0.43686142563819885,0.14645791053771973
1684200575281984300,9.001984375,-0.05191924050450325,0.8808391690254211,0.1179698035120964
1684200575292010200,9.01201025390625,-0.10793033242225647,1.1594051122665405,0.14624549448490143
1684200575302036500,9.022036376953125,-0.14130187034606934,1.1937702894210815,0.22918644547462463
1684200575312062500,9.0320625,-0.1653461903333664,1.0451185703277588,0.3409130871295929
1684200575322087200,9.042087158203126,-0.16953428089618683,0.7984113097190857,0.4365490674972534
1684200575332113400,9.052113525390626,-0.14038990437984467,0.48653465509414673,0.4755490720272064
1684200575342139100,9.06213916015625,-0.09459658712148666,0.13273824751377106,0.44918617606163025
1684200575352165000,9.0721650390625,-0.04737095162272453,-0.2036234438419342,0.36068210005760193
1684200575362191000,9.082191162109375,-0.019411753863096237,-0.4816116690635681,0.2631790041923523
1684200575372217000,9.092217041015624,-0.00815584883093834,-0.6248229742050171,0.17951416969299316
1684200575382243000,9.1022431640625,0.007008190732449293,-0.6579391360282898,0.11621057242155075
1684200575392268300,9.112268310546876,0.030606405809521675,-0.5883641839027405,0.059424255043268204
1684200575402294300,9.122294189453125,0.03991175442934036,-0.4533408582210541,0.011058587580919266
1684200575412320300,9.1323203125,0.031155593693256378,-0.3108460605144501,-0.018010560423135757
1684200575422346200,9.14234619140625,-0.0078104473650455475,-0.23181197047233582,-0.029864823445677757
1684200575432372000,9.1523720703125,-0.051502835005521774,-0.1990268975496292,-0.03489590808749199
1684200575442398000,9.16239794921875,-0.08464027941226959,-0.1991795003414154,-0.05500250682234764
1684200575452423200,9.172423095703126,-0.10108735412359238,-0.23059147596359253,-0.09207595139741898
1684200575462449200,9.18244921875,-0.12071458250284195,-0.27973824739456177,-0.13001319766044617
1684200575472475100,9.19247509765625,-0.15183578431606293,-0.337426096200943,-0.15596343576908112
1684200575482501400,9.20250146484375,-0.18791842460632324,-0.40763476490974426,-0.14425590634346008
1684200575492527400,9.21252734375,-0.21128177642822266,-0.4541350305080414,-0.10754033178091049
1684200575502553300,9.22255322265625,-0.22500504553318024,-0.4628233313560486,-0.04166971147060394
1684200575512578300,9.232578369140626,-0.22841620445251465,-0.4219265580177307,0.03424247354269028
1684200575522604300,9.242604248046876,-0.2294449806213379,-0.3342491686344147,0.10334351658821106
1684200575532630300,9.25263037109375,-0.2383473962545395,-0.23626752197742462,0.1681424230337143
1684200575542656300,9.26265625,-0.24938379228115082,-0.1532096564769745,0.21904660761356354
1684200575552682200,9.27268212890625,-0.2408909946680069,-0.10081842541694641,0.24623392522335052
1684200575562708200,9.282708251953125,-0.2401738166809082,-0.07716076076030731,0.2498672753572464
1684200575572734200,9.292734130859374,-0.25713881850242615,-0.09127798676490784,0.23512764275074005
1684200575582759200,9.30275927734375,-0.2791096270084381,-0.13701991736888885,0.20790986716747284
1684200575592785200,9.31278515625,-0.2906681001186371,-0.18039976060390472,0.18215277791023254
1684200575602811100,9.32281103515625,-0.30550670623779297,-0.23271729052066803,0.17158642411231995
1684200575612837000,9.332837158203125,-0.306554913520813,-0.2739722728729248,0.18554842472076416
1684200575622863000,9.342863037109375,-0.30366936326026917,-0.3073970675468445,0.2030951976776123
1684200575632889300,9.352889404296874,-0.2896841764450073,-0.30933883786201477,0.2280530035495758
1684200575642914000,9.3629140625,-0.248230442404747,-0.24992504715919495,0.24666158854961395
1684200575652940300,9.372940185546875,-0.20018070936203003,-0.15159101784229279,0.23379860818386078
1684200575662966300,9.38296630859375,-0.1734257936477661,-0.03530595079064369,0.1723800003528595
1684200575672992300,9.3929921875,-0.13478772342205048,0.12358998507261276,0.05222328007221222
1684200575683018200,9.403018310546875,-0.05511951819062233,0.3486739695072174,-0.08444135636091232
1684200575693044200,9.413044189453124,0.04868968203663826,0.5897323489189148,-0.17900338768959045
1684200575703069200,9.423069091796876,0.15861698985099792,0.753057599067688,-0.20947234332561493
1684200575713095200,9.43309521484375,0.24457812309265137,0.7707563042640686,-0.16651321947574615
1684200575723121200,9.44312109375,0.30776506662368774,0.611945629119873,-0.06745773553848267
1684200575733147100,9.453147216796875,0.3406899869441986,0.2949701249599457,0.04835887253284454
1684200575743173000,9.463173095703125,0.33472132682800293,-0.12720191478729248,0.1381678581237793
1684200575753199000,9.47319921875,0.2813301682472229,-0.5980517864227295,0.17860209941864014
1684200575763224000,9.48322412109375,0.22953063249588013,-1.118187427520752,0.17654667794704437
1684200575773250000,9.49325,0.21092857420444489,-1.6427284479141235,0.09402697533369064
1684200575783276000,9.503276123046875,0.24022068083286285,-1.9182074069976807,-0.21207809448242188
1684200575793302000,9.513302001953125,0.3172926604747772,-1.7900431156158447,-0.756918728351593
1684200575803328300,9.523328369140625,0.4352818727493286,-1.394744873046875,-1.3931671380996704
1684200575813354200,9.533354248046875,0.5727672576904297,-0.9555984139442444,-1.9316474199295044
1684200575823380200,9.543380126953124,0.715370237827301,-0.5965020656585693,-2.270907402038574
1684200575833405200,9.5534052734375,0.8467430472373962,-0.4350447356700897,-2.421064853668213
1684200575843431200,9.56343115234375,1.0045069456100464,-0.5397181510925293,-2.4327962398529053
1684200575853457200,9.57345703125,1.209075689315796,-0.7951861619949341,-2.3823342323303223
1684200575863483100,9.583483154296875,1.4258842468261719,-0.9762081503868103,-2.3217360973358154
1684200575873509000,9.593509033203125,1.6215782165527344,-0.8392516374588013,-2.275559186935425
1684200575883535000,9.60353515625,1.7529863119125366,-0.4094962775707245,-2.209604024887085
1684200575893560000,9.61356005859375,1.7726540565490723,0.2217923402786255,-2.056532621383667
1684200575903586000,9.6235859375,1.692149043083191,0.6200422644615173,-1.8685656785964966
1684200575913612000,9.633612060546875,1.5966747999191284,0.7358899116516113,-1.6752928495407104
1684200575923638000,9.643637939453125,1.4804027080535889,0.8797783851623535,-1.4012359380722046
1684200575933664000,9.6536640625,1.4080108404159546,0.8331621289253235,-1.032987117767334
1684200575943690000,9.66368994140625,1.4357972145080566,0.5395390391349792,-0.634655237197876
1684200575953715200,9.673715087890624,1.5939477682113647,-0.0728055089712143,-0.48042309284210205
1684200575963741200,9.6837412109375,1.837335467338562,-0.37161698937416077,-0.6140463948249817
1684200575973767200,9.69376708984375,1.98184335231781,0.10628268122673035,-0.8386938571929932
1684200575983793200,9.703793212890625,2.005272150039673,0.797339141368866,-0.9482046365737915
1684200575993819100,9.713819091796875,1.9080044031143188,1.2490270137786865,-0.8448079824447632
1684200576003845000,9.72384521484375,1.7692723274230957,1.8406848907470703,-0.577483594417572
1684200576013870300,9.733870361328124,1.6574198007583618,2.1130716800689697,-0.42451468110084534
1684200576023896300,9.743896240234376,1.6021296977996826,2.131840229034424,-0.3678990602493286
1684200576033922300,9.75392236328125,1.489607810974121,2.028217315673828,-0.3586098849773407
1684200576043948300,9.7639482421875,1.3567171096801758,1.9329091310501099,-0.3339570164680481
1684200576053974300,9.773974365234375,1.2625868320465088,1.8394420146942139,-0.2735716998577118
1684200576064000300,9.784000244140625,1.2220379114151,1.6356570720672607,-0.2038438618183136
1684200576074026000,9.79402587890625,1.185961365699768,1.3709198236465454,-0.1431209146976471
1684200576084051200,9.80405126953125,1.1158674955368042,1.116672158241272,-0.12210670858621597
1684200576094077200,9.8140771484375,1.0160465240478516,0.9946211576461792,-0.14002808928489685
1684200576104103200,9.824103271484375,0.9016147255897522,0.9409999847412109,-0.1504322588443756
1684200576114129200,9.834129150390625,0.7949445843696594,0.8440869450569153,-0.12013325840234756
1684200576124155100,9.844155029296875,0.707257866859436,0.709231972694397,-0.03646578639745712
1684200576134181400,9.854181396484375,0.6132845878601074,0.5833996534347534,0.06914804130792618
1684200576144206000,9.8642060546875,0.524016261100769,0.4572749733924866,0.18585814535617828
1684200576154232300,9.874232421875,0.44076231122016907,0.3192012310028076,0.2944396436214447
1684200576164258300,9.88425830078125,0.3515533208847046,0.1608307659626007,0.3807356655597687
1684200576174284300,9.8942841796875,0.2530640959739685,0.006033380050212145,0.4354862570762634
1684200576184310300,9.904310302734375,0.16573451459407806,-0.07464415580034256,0.4691808521747589
1684200576194336300,9.914336181640625,0.08632447570562363,-0.09661724418401718,0.4937392473220825
1684200576204361200,9.924361328125,-0.0008682196494191885,-0.08984562754631042,0.5389645099639893
1684200576214387200,9.93438720703125,-0.1006600484251976,-0.07671152800321579,0.6143409609794617
1684200576224413200,9.9444130859375,-0.20056506991386414,-0.07740262150764465,0.6850998401641846
1684200576234439200,9.954439208984375,-0.30062881112098694,-0.05666777864098549,0.7371299862861633
1684200576244465200,9.964465087890625,-0.39211851358413696,-0.031119007617235184,0.773320734500885
1684200576254491100,9.9744912109375,-0.4846912920475006,-0.034605998545885086,0.7903590798377991
1684200576264516000,9.98451611328125,-0.5631142258644104,-0.11673122644424438,0.8013275861740112
1684200576274542000,9.9945419921875,-0.6235044002532959,-0.2983852028846741,0.7918376326560974
1684200576284568000,10.004568115234376,-0.6566498875617981,-0.5464812517166138,0.7629053592681885
1684200576294594000,10.014593994140625,-0.6661896109580994,-0.8255965709686279,0.7242695689201355
1684200576304620300,10.024620361328125,-0.6780316233634949,-1.0583575963974,0.6874721050262451
1684200576314646300,10.034646240234375,-0.6966149806976318,-1.2013113498687744,0.6679127812385559
1684200576324672300,10.04467236328125,-0.7289884090423584,-1.2520626783370972,0.6730359196662903
1684200576334697200,10.054697265625,-0.7783260345458984,-1.2107348442077637,0.6890794634819031
1684200576344723200,10.06472314453125,-0.8195765614509583,-1.1207482814788818,0.7388041615486145
1684200576354749200,10.074749267578126,-0.8650709986686707,-1.0282548666000366,0.8220958113670349
1684200576364775200,10.084775146484375,-0.9165751934051514,-0.9090722799301147,0.9153304100036621
1684200576374801200,10.09480126953125,-0.9666748642921448,-0.761462926864624,0.9968291521072388
1684200576384827100,10.1048271484375,-1.0113884210586548,-0.6172159910202026,1.0590331554412842
1684200576394852000,10.11485205078125,-1.0626574754714966,-0.4654690623283386,1.1252937316894531
1684200576404878000,10.124878173828124,-1.107011318206787,-0.3597463369369507,1.1825525760650635
1684200576414904000,10.134904052734376,-1.1423935890197754,-0.3580244779586792,1.2222559452056885
1684200576424930000,10.144929931640625,-1.173854112625122,-0.41375085711479187,1.2364658117294312
1684200576434956000,10.1549560546875,-1.210193395614624,-0.4718208312988281,1.215874195098877
1684200576444982000,10.16498193359375,-1.2385704517364502,-0.5291208624839783,1.1502107381820679
1684200576455007000,10.175007080078124,-1.2647337913513184,-0.5697058439254761,1.0226366519927979
1684200576465033000,10.185032958984374,-1.2960360050201416,-0.5746220350265503,0.8644860982894897
1684200576475059200,10.19505908203125,-1.328408122062683,-0.5200057625770569,0.7081418633460999
1684200576485085200,10.205085205078126,-1.3383879661560059,-0.4585660994052887,0.5895699262619019
1684200576495111200,10.215111083984375,-1.313169002532959,-0.43138405680656433,0.4946884512901306
1684200576505137200,10.22513720703125,-1.267240285873413,-0.38130810856819153,0.4173033833503723
1684200576515162000,10.235162109375,-1.2174938917160034,-0.2968732416629791,0.3437744677066803
1684200576525188000,10.24518798828125,-1.1663545370101929,-0.1839914619922638,0.2480924278497696
1684200576535214000,10.255214111328126,-1.0746725797653198,-0.06591115146875381,0.15286339819431305
1684200576545240000,10.265239990234376,-0.881798267364502,0.05055393651127815,0.06617563217878342
1684200576555266000,10.27526611328125,-0.5693433284759521,0.08967570215463638,-0.034544263035058975
1684200576565292000,10.2852919921875,-0.2977113425731659,0.015390285290777683,-0.13262049853801727
1684200576575318000,10.295318115234375,-0.10029897838830948,-0.04341178014874458,-0.21381425857543945
1684200576585343200,10.30534326171875,0.03972656652331352,0.04527920484542847,-0.28314831852912903
1684200576595369200,10.315369140625,0.0912916362285614,0.3130529522895813,-0.34760046005249023
1684200576605395200,10.325395263671876,0.06913945823907852,0.6519300937652588,-0.385054349899292
1684200576615421200,10.335421142578125,-0.0009633819572627544,0.9127339720726013,-0.36595720052719116
1684200576625447200,10.345447265625,-0.10174191743135452,1.0106784105300903,-0.2917226254940033
1684200576635473200,10.35547314453125,-0.2429947555065155,0.9773759841918945,-0.18134692311286926
1684200576645498400,10.365498291015625,-0.39456164836883545,0.8121076822280884,-0.06572631001472473
1684200576655524400,10.3755244140625,-0.5341452360153198,0.5365853309631348,0.02118467167019844
1684200576665550300,10.38555029296875,-0.6449316740036011,0.21332626044750214,0.08802176266908646
1684200576675576300,10.395576416015626,-0.704082727432251,-0.07564303278923035,0.14209698140621185
1684200576685602300,10.405602294921875,-0.7061919569969177,-0.31478768587112427,0.18658454716205597
1684200576695628300,10.415628173828125,-0.6600703597068787,-0.5101354718208313,0.21470871567726135
1684200576705653200,10.4256533203125,-0.5855929255485535,-0.6566543579101562,0.2243751883506775
1684200576715679200,10.43567919921875,-0.49071693420410156,-0.754121720790863,0.22690019011497498
1684200576725705200,10.445705322265624,-0.41110891103744507,-0.8317054510116577,0.22512198984622955
1684200576735731200,10.455731201171876,-0.34716561436653137,-0.9406107664108276,0.2237638235092163
1684200576745757200,10.465757080078125,-0.29186296463012695,-1.152529239654541,0.23690305650234222
1684200576755783200,10.475783203125,-0.21565064787864685,-1.440722942352295,0.27703535556793213
1684200576765809200,10.48580908203125,-0.17134204506874084,-1.5142035484313965,0.24457009136676788
1684200576775834000,10.495834228515625,-0.17542999982833862,-1.1647350788116455,0.07815314829349518
1684200576785860000,10.505860107421874,-0.20317719876766205,-0.46145394444465637,-0.17368973791599274
1684200576795886000,10.515885986328126,-0.2238549292087555,0.42213788628578186,-0.4108184576034546
1684200576805912300,10.525912353515626,-0.24337856471538544,1.2618423700332642,-0.5321030616760254
1684200576815938300,10.535938232421875,-0.28345170617103577,1.901192545890808,-0.5014858245849609
1684200576825964300,10.54596435546875,-0.3212025463581085,2.2685139179229736,-0.28997117280960083
1684200576835989200,10.5559892578125,-0.3419901430606842,2.284615993499756,0.061905521899461746
1684200576846015200,10.56601513671875,-0.29957905411720276,2.0933637619018555,0.47034361958503723
1684200576856041200,10.576041259765624,-0.24388387799263,1.978510856628418,0.7513599395751953
1684200576866067200,10.586067138671876,-0.2027422934770584,1.8622468709945679,0.8396288156509399
1684200576876093200,10.59609326171875,-0.1712609827518463,1.6064989566802979,0.8076539635658264
1684200576886119200,10.606119140625,-0.10045178979635239,1.1843804121017456,0.7092427015304565
1684200576896144100,10.61614404296875,-0.0004739824216812849,0.6837972402572632,0.5672524571418762
1684200576906170000,10.626170166015624,0.08133513480424881,0.20771408081054688,0.43380460143089294
1684200576916196000,10.636196044921874,0.1387334167957306,-0.17460519075393677,0.35825297236442566
1684200576926222000,10.64622216796875,0.2005043774843216,-0.4887703061103821,0.35319989919662476
1684200576936248000,10.656248046875,0.26934704184532166,-0.6942410469055176,0.37862324714660645
1684200576946274000,10.666274169921875,0.3090028464794159,-0.8320905566215515,0.3783087134361267
1684200576956299000,10.676299072265625,0.30259209871292114,-0.8776348829269409,0.35256314277648926
1684200576966325000,10.686324951171875,0.2552216351032257,-0.7960281372070312,0.30391836166381836
1684200576976351200,10.696351318359374,0.18406756222248077,-0.5587684512138367,0.2569921314716339
1684200576986377200,10.706377197265626,0.13127624988555908,-0.28003188967704773,0.221080482006073
1684200576996403200,10.7164033203125,0.10038845986127853,-0.057594675570726395,0.21278078854084015
1684200577006429200,10.72642919921875,0.05931825190782547,0.07656072825193405,0.21532277762889862
1684200577016454100,10.7364541015625,-0.007982765324413776,0.13685853779315948,0.2364121973514557
1684200577026480000,10.746480224609375,-0.05936233326792717,0.1802435666322708,0.2700638771057129
1684200577036506000,10.756506103515624,-0.06606831401586533,0.17671458423137665,0.2777143120765686
1684200577046532000,10.766531982421874,-0.06460091471672058,0.12181723862886429,0.25839442014694214
1684200577056558000,10.77655810546875,-0.06319376826286316,0.03185638040304184,0.23374317586421967
1684200577066584000,10.786583984375,-0.07069216668605804,-0.059211477637290955,0.2076692283153534
1684200577076610000,10.796610107421875,-0.08987635374069214,-0.15133345127105713,0.1893266886472702
1684200577086635000,10.806635009765625,-0.11117072403430939,-0.21591217815876007,0.16999773681163788
1684200577096661000,10.816660888671874,-0.13798527419567108,-0.2610819339752197,0.1491117924451828
1684200577106687000,10.82668701171875,-0.1678883135318756,-0.26730895042419434,0.13249899446964264
1684200577116713000,10.836712890625,-0.18895836174488068,-0.23776009678840637,0.12845541536808014
1684200577126739200,10.8467392578125,-0.19384101033210754,-0.19253003597259521,0.13864386081695557
1684200577136765200,10.85676513671875,-0.2050560712814331,-0.16831311583518982,0.15769031643867493
1684200577146790100,10.8667900390625,-0.22526946663856506,-0.14530660212039948,0.17519128322601318
1684200577156816100,10.876816162109375,-0.23803162574768066,-0.11963220685720444,0.1737229824066162
1684200577166842000,10.886842041015624,-0.24252811074256897,-0.14788967370986938,0.15992487967014313
1684200577176868000,10.8968681640625,-0.24242709577083588,-0.20060262084007263,0.1329382061958313
1684200577186894000,10.90689404296875,-0.23843422532081604,-0.24712032079696655,0.10831782221794128
1684200577196920000,10.916920166015625,-0.23147161304950714,-0.27071255445480347,0.0792350322008133
1684200577206945300,10.9269453125,-0.23433956503868103,-0.27312591671943665,0.052279580384492874
1684200577216971300,10.93697119140625,-0.2509837746620178,-0.25972509384155273,0.021006667986512184
1684200577226997200,10.946997314453125,-0.25760066509246826,-0.21563512086868286,-0.006655585952103138
1684200577237023200,10.957023193359374,-0.2603115439414978,-0.1667119860649109,-0.020570548251271248
1684200577247049200,10.96704931640625,-0.26932233572006226,-0.12629185616970062,-0.006175631191581488
1684200577257075000,10.977074951171875,-0.2765856981277466,-0.12244454026222229,0.02938593178987503
1684200577267100200,10.98710009765625,-0.27766934037208557,-0.18307247757911682,0.08849053084850311
1684200577277126100,10.997126220703125,-0.26134800910949707,-0.2959606647491455,0.1574065387248993
1684200577287152000,11.007152099609375,-0.24633097648620605,-0.42580467462539673,0.22497040033340454
1684200577297178400,11.017178466796874,-0.24240075051784515,-0.5443005561828613,0.26843875646591187
1684200577307204400,11.027204345703124,-0.24691933393478394,-0.6268423199653625,0.27107343077659607
1684200577317230300,11.037230224609376,-0.24889598786830902,-0.6292872428894043,0.21719582378864288
1684200577327256300,11.04725634765625,-0.2516326606273651,-0.5856090188026428,0.12603288888931274
1684200577337281800,11.05728173828125,-0.2369993031024933,-0.548693835735321,0.03754740208387375
1684200577347307800,11.067307861328125,-0.22824762761592865,-0.5790134072303772,-0.029028166085481644
1684200577357333800,11.077333740234375,-0.22639673948287964,-0.6478756070137024,-0.07849781960248947
1684200577367359700,11.08735986328125,-0.21753241121768951,-0.6896963119506836,-0.1323716938495636
1684200577377385700,11.0973857421875,-0.18070904910564423,-0.6751741170883179,-0.18367595970630646
1684200577387411700,11.10741162109375,-0.15754461288452148,-0.633622407913208,-0.20126134157180786
1684200577397436700,11.117436767578125,-0.14216436445713043,-0.5590879917144775,-0.18964575231075287
1684200577407462700,11.127462646484375,-0.11764143407344818,-0.4065258502960205,-0.1576414853334427
1684200577417488600,11.137488525390625,-0.06060396507382393,-0.15321755409240723,-0.12980888783931732
1684200577427514600,11.1475146484375,0.03393798694014549,0.17545060813426971,-0.10474161803722382
1684200577437540900,11.157540771484374,0.1606045514345169,0.4992578625679016,-0.07486990094184875
1684200577447566800,11.16756689453125,0.29810383915901184,0.7492982745170593,-0.044063784182071686
1684200577457591800,11.177591796875,0.43305960297584534,0.9261121153831482,-0.02740054577589035
1684200577467617800,11.18761767578125,0.5502831935882568,1.0103203058242798,-0.032127391546964645
1684200577477643800,11.197643798828125,0.6270973682403564,0.8831232190132141,-0.00823404174298048
1684200577487669800,11.207669677734375,0.6781155467033386,0.42265784740448,0.06552246958017349
1684200577497695700,11.21769580078125,0.7473077774047852,-0.22123420238494873,0.10360870510339737
1684200577507721700,11.2277216796875,0.7719238996505737,-0.9472728967666626,-0.026445163413882256
1684200577517747700,11.237747802734376,0.7604140639305115,-1.7427122592926025,-0.34020036458969116
1684200577527772700,11.247772705078125,0.7713862657546997,-2.4617326259613037,-0.8655786514282227
1684200577537798700,11.257798583984375,0.8542677760124207,-2.9321322441101074,-1.5489108562469482
1684200577547824600,11.26782470703125,1.0164670944213867,-2.965059518814087,-2.2746119499206543
1684200577557850600,11.2778505859375,1.239644169807434,-2.4794845581054688,-2.8468523025512695
1684200577567876600,11.287876708984374,1.4371635913848877,-1.6934690475463867,-3.095276355743408
1684200577577902600,11.297902587890626,1.5314576625823975,-1.0170555114746094,-3.0351603031158447
1684200577587927600,11.307927490234375,1.512890338897705,-0.453032910823822,-2.7609472274780273
1684200577597953500,11.31795361328125,1.5200536251068115,0.06051020324230194,-2.370530843734741
1684200577607979800,11.327979736328125,1.4764370918273926,0.6117296814918518,-1.8483479022979736
1684200577618005800,11.338005859375,1.3786168098449707,0.9406630396842957,-1.3652302026748657
1684200577628031700,11.34803173828125,1.2694679498672485,0.9288894534111023,-1.0671249628067017
1684200577638057700,11.3580576171875,1.1557928323745728,0.9502235651016235,-0.8797081112861633
1684200577648082700,11.368082763671875,1.071561336517334,0.9385030269622803,-0.7337138652801514
1684200577658108700,11.378108642578125,1.1344369649887085,0.8154268860816956,-0.6539672017097473
1684200577668134700,11.388134765625,1.3815507888793945,0.4301953613758087,-0.8993586301803589
1684200577678160600,11.39816064453125,1.7062770128250122,0.17058493196964264,-1.2313218116760254
1684200577688186600,11.4081865234375,1.92229163646698,0.4804154932498932,-1.3437777757644653
1684200577698212600,11.418212646484376,2.00708270072937,1.0237956047058105,-1.2449289560317993
1684200577708237600,11.428237548828125,1.9748629331588745,1.48810875415802,-1.0430113077163696
1684200577718263600,11.438263671875,1.861055850982666,1.82645583152771,-0.8181377649307251
1684200577728289500,11.44828955078125,1.720739483833313,1.9804507493972778,-0.6424088478088379
1684200577738315500,11.4583154296875,1.6081432104110718,2.057494878768921,-0.6006860136985779
1684200577748341500,11.468341552734374,1.524594783782959,2.193173408508301,-0.6634402275085449
1684200577758367500,11.478367431640624,1.4323536157608032,2.347034215927124,-0.7162602543830872
1684200577768392400,11.488392333984375,1.3349740505218506,2.2550740242004395,-0.742803156375885
1684200577778418400,11.49841845703125,1.2292450666427612,1.9815151691436768,-0.7123642563819885
1684200577788444700,11.508444580078125,1.0876152515411377,1.7184031009674072,-0.5897246599197388
1684200577798470700,11.518470703125,0.9416964650154114,1.5042904615402222,-0.4810364842414856
1684200577808496600,11.52849658203125,0.8262721300125122,1.320801854133606,-0.39826545119285583
1684200577818522600,11.538522705078124,0.7432813048362732,1.194848895072937,-0.3394591510295868
1684200577828548600,11.548548583984376,0.6562782526016235,1.0459022521972656,-0.2657332718372345
1684200577838573600,11.558573486328125,0.5737107396125793,0.847428560256958,-0.1635955572128296
1684200577848599600,11.568599609375,0.5002589225769043,0.6698561310768127,-0.044019363820552826
1684200577858625500,11.57862548828125,0.44488462805747986,0.49488121271133423,0.0614033043384552
1684200577868651500,11.588651611328125,0.4054541289806366,0.3078039884567261,0.15285199880599976
1684200577878677500,11.598677490234374,0.3597314953804016,0.12667879462242126,0.24063755571842194
1684200577888703500,11.608703369140626,0.2945708930492401,-0.10672755539417267,0.30614787340164185
1684200577898728700,11.618728759765625,0.22759310901165009,-0.28974589705467224,0.3694469928741455
1684200577908754700,11.628754638671875,0.15479452908039093,-0.3630683124065399,0.4421992301940918
1684200577918780700,11.63878076171875,0.06300418078899384,-0.34719446301460266,0.5484017133712769
1684200577928806700,11.648806640625,-0.03149862214922905,-0.27783510088920593,0.6658329963684082
1684200577938832600,11.65883251953125,-0.1204395741224289,-0.14828714728355408,0.7875455617904663
1684200577948858600,11.668858642578124,-0.20078130066394806,0.003988150507211685,0.9044809937477112
1684200577958883800,11.6788837890625,-0.28937196731567383,0.12925240397453308,0.987838089466095
1684200577968909800,11.688909912109375,-0.39470747113227844,0.14842663705348969,1.0577678680419922
1684200577978935800,11.698935791015625,-0.4881956875324249,-0.024165987968444824,1.1195164918899536
1684200577988961800,11.7089619140625,-0.5530679225921631,-0.2648734152317047,1.1576462984085083
1684200577998987800,11.71898779296875,-0.5713784694671631,-0.47795239090919495,1.1678388118743896
1684200578009013800,11.729013671875,-0.5494766235351562,-0.6487585306167603,1.162086844444275
1684200578019038700,11.739038818359376,-0.5326471328735352,-0.7947422862052917,1.129992961883545
1684200578029064700,11.749064697265625,-0.5103410482406616,-0.8401691317558289,1.098401427268982
1684200578039090700,11.759090576171875,-0.5114046931266785,-0.8445320725440979,1.0886576175689697
1684200578049116700,11.76911669921875,-0.5369631052017212,-0.8236960768699646,1.1001390218734741
1684200578059142700,11.779142578125,-0.5607520341873169,-0.854027271270752,1.1357824802398682
1684200578069168600,11.789168701171874,-0.6848177909851074,-0.8395375609397888,1.1275527477264404
1684200578079194600,11.799194580078124,-0.8079680800437927,-0.7932223677635193,1.1268020868301392
1684200578089219600,11.809219482421875,-0.9176085591316223,-0.8048643469810486,1.1219508647918701
1684200578099245600,11.81924560546875,-1.0326769351959229,-0.8724489212036133,1.104801058769226
1684200578109271800,11.829271728515625,-1.1562329530715942,-0.9659213423728943,1.0781632661819458
1684200578119297800,11.8392978515625,-1.2754037380218506,-1.0419327020645142,1.0379267930984497
1684200578129323800,11.84932373046875,-1.368260383605957,-1.1033329963684082,0.9859288334846497
1684200578139349800,11.859349853515624,-1.4166665077209473,-1.1305782794952393,0.9296903610229492
1684200578149374700,11.869374755859376,-1.4359009265899658,-1.1320468187332153,0.881973147392273
1684200578159400700,11.879400634765625,-1.4481245279312134,-1.1015725135803223,0.8482018709182739
1684200578169426700,11.8894267578125,-1.4659669399261475,-1.0375120639801025,0.8448638319969177
1684200578179452700,11.89945263671875,-1.4995555877685547,-0.9408669471740723,0.8992169499397278
1684200578189478700,11.909478759765625,-1.5467153787612915,-0.8231038451194763,1.0012937784194946
1684200578199504600,11.919504638671874,-1.6144781112670898,-0.6742634177207947,1.1123661994934082
1684200578209529600,11.929529541015626,-1.6884135007858276,-0.4861814081668854,1.1415117979049683
1684200578219555600,11.9395556640625,-1.7587096691131592,-0.23211100697517395,1.0355695486068726
1684200578229581600,11.94958154296875,-1.8217802047729492,-0.007853139191865921,0.6817227005958557
1684200578239607600,11.959607666015625,-1.800784707069397,-0.09177455306053162,-0.05300503224134445
1684200578249633500,11.969633544921875,-1.2132549285888672,-0.3838402330875397,-0.7730199098587036
1684200578259659800,11.97965966796875,-0.4988451898097992,-0.9828187823295593,-1.1482588052749634
1684200578269684500,11.9896845703125,0.05224994942545891,-1.3525149822235107,-1.0791678428649902
1684200578279710700,11.999710693359376,0.42016786336898804,-1.2401684522628784,-0.747765839099884
1684200578289736700,12.00973681640625,0.5475271940231323,-0.5899410843849182,-0.41446271538734436
1684200578299762700,12.0197626953125,0.4336335361003876,0.40699639916419983,-0.09737494587898254
1684200578309788700,12.02978857421875,0.19509367644786835,1.2561428546905518,0.17538627982139587
1684200578319814700,12.039814697265625,-0.12872494757175446,1.712554693222046,0.3379635810852051
1684200578329839600,12.049839599609374,-0.45302528142929077,1.7770012617111206,0.4066033661365509
1684200578339865900,12.059865966796876,-0.7322959303855896,1.6556057929992676,0.44068101048469543
1684200578349891800,12.069891845703125,-0.9073979258537292,1.4428985118865967,0.44500917196273804
1684200578359917800,12.079917724609375,-1.0755195617675781,1.0829027891159058,0.37204962968826294
1684200578369943800,12.08994384765625,-1.2866991758346558,0.5149548053741455,0.23979920148849487
1684200578379969800,12.0999697265625,-1.4017361402511597,-0.03198084607720375,0.08516371250152588
1684200578389995800,12.109995849609374,-1.3330150842666626,-0.29506680369377136,-0.0311498511582613
1684200578400020700,12.120020751953126,-1.1079641580581665,-0.38292011618614197,-0.07492593675851822
1684200578410046700,12.130046630859376,-0.8040386438369751,-0.4540800452232361,0.04218391329050064
1684200578420072700,12.14007275390625,-0.509670615196228,-0.38457751274108887,0.256029337644577
1684200578430099000,12.150098876953125,-0.3432413935661316,-0.07282787561416626,0.41973891854286194
1684200578440125000,12.160125,-0.35421377420425415,0.4160255491733551,0.45556601881980896
1684200578450151000,12.17015087890625,-0.4422709345817566,0.9552828669548035,0.36630457639694214
1684200578460176000,12.18017578125,-0.508074164390564,1.4928250312805176,0.23151442408561707
1684200578470201900,12.190201904296876,-0.5081791281700134,1.9942723512649536,0.185251846909523
1684200578480227800,12.200227783203125,-0.43020352721214294,2.349001884460449,0.17514541745185852
1684200578490253800,12.21025390625,-0.2989046275615692,2.3959693908691406,0.23655791580677032
1684200578500279800,12.22027978515625,-0.32286331057548523,2.3674798011779785,0.3946227729320526
1684200578510305800,12.230305908203125,-0.726091742515564,2.576083183288574,0.6366931796073914
1684200578520331000,12.2403310546875,-1.2594599723815918,2.735663652420044,0.6556652784347534
1684200578530357000,12.25035693359375,-1.8807295560836792,2.837805986404419,0.5293091535568237
1684200578540383000,12.260383056640626,-2.1917684078216553,3.0247738361358643,0.3189277946949005
1684200578550409000,12.270408935546875,-2.294482707977295,3.2103092670440674,0.04015767201781273
1684200578560435000,12.28043505859375,-2.4974751472473145,3.5104806423187256,-0.14019925892353058
1684200578570460700,12.290460693359375,-2.7568929195404053,3.5815465450286865,-0.30362066626548767
1684200578580486000,12.30048583984375,-2.7904529571533203,3.11221981048584,-0.5111828446388245
1684200578590511900,12.310511962890626,-2.49937105178833,2.212618350982666,-0.6867061853408813
1684200578600538000,12.3205380859375,-1.8377184867858887,1.4367305040359497,-0.7177850008010864
1684200578610564000,12.330564208984375,-0.9870370030403137,0.9976794123649597,-0.6278455257415771
1684200578620590000,12.340590087890625,-0.20447105169296265,0.7237216234207153,-0.5354165434837341
1684200578630616000,12.350615966796875,0.3409598469734192,0.3941073417663574,-0.5087657570838928
1684200578640641000,12.36064111328125,0.6759982109069824,0.11150136590003967,-0.517349123954773
1684200578650667000,12.3706669921875,0.8689687252044678,-0.07078269124031067,-0.5472644567489624
1684200578660693000,12.38069287109375,0.9250368475914001,-0.16708391904830933,-0.5122770667076111
1684200578670719000,12.390718994140625,0.8382118940353394,-0.33243799209594727,-0.43555378913879395
1684200578680745000,12.400744873046875,0.669095516204834,-0.5616892576217651,-0.33349764347076416
1684200578690771000,12.41077099609375,0.4708032011985779,-0.7207982540130615,-0.1688530147075653
1684200578700796000,12.4207958984375,0.2303989827632904,-0.6537545323371887,0.009618137963116169
1684200578710822000,12.43082177734375,0.010114280506968498,-0.40026795864105225,0.12861749529838562
1684200578720848000,12.440847900390626,-0.16741085052490234,0.04009285196661949,0.184186652302742
1684200578730873900,12.450873779296876,-0.27947986125946045,0.6375756859779358,0.1896815448999405
1684200578740899800,12.46089990234375,-0.2519749104976654,1.204716444015503,0.1938113123178482
1684200578750926000,12.470926025390625,-0.059964705258607864,1.5881346464157104,0.22283923625946045
1684200578760952000,12.4809521484375,0.2091744840145111,1.974589228630066,0.2616463601589203
1684200578770977000,12.49097705078125,0.49599215388298035,2.271496057510376,0.31858423352241516
1684200578781003000,12.5010029296875,0.7068626284599304,2.3798089027404785,0.39653530716896057
