time,seconds_elapsed,z,y,x
1684200649292942800,0.03394287109375,2.911027193069458,-2.4842031002044678,2.383772850036621
1684200649302968800,0.04396875,3.319049119949341,-2.1975932121276855,3.1306490898132324
1684200649312995000,0.0539951171875,3.3831117153167725,-1.2407748699188232,3.786036491394043
1684200649323021000,0.06402099609375,2.4092628955841064,2.8318827152252197,3.041302442550659
1684200649333047000,0.074047119140625,1.884642481803894,5.2708539962768555,2.3865973949432373
1684200649343072800,0.08407275390625,2.0100884437561035,6.030428886413574,2.322026014328003
1684200649353098000,0.094097900390625,2.214531421661377,6.890395641326904,2.2993924617767334
1684200649363124000,0.1041240234375,2.4371254444122314,7.222870349884033,2.180433750152588
1684200649373150000,0.11414990234375,2.691751718521118,4.928004264831543,1.837300181388855
1684200649383176000,0.124176025390625,2.8612327575683594,2.4397506713867188,1.1679149866104126
1684200649393202000,0.134201904296875,2.5306622982025146,0.6210669279098511,0.4458041489124298
1684200649403228000,0.144227783203125,1.824438214302063,-0.22984281182289124,-0.2381424456834793
1684200649413253600,0.154253662109375,1.1986802816390991,-1.0945429801940918,-0.6144761443138123
1684200649423279600,0.164279541015625,0.8486220836639404,-1.7447463274002075,-0.8213030099868774
1684200649433305600,0.1743056640625,0.6677010655403137,-1.6145316362380981,-0.9880392551422119
1684200649443331600,0.18433154296875,0.17738671600818634,0.03121359460055828,-0.9277193546295166
1684200649453356500,0.1943564453125,-0.47551146149635315,1.4544484615325928,-0.6925643682479858
1684200649463382500,0.204382568359375,-1.161094307899475,2.425452947616577,-0.36304065585136414
1684200649473408500,0.214408447265625,-1.7298914194107056,3.0987203121185303,-0.004857736174017191
1684200649483434800,0.224434814453125,-2.108879566192627,3.2653095722198486,0.37870094180107117
1684200649493460700,0.234460693359375,-2.348182201385498,2.885430335998535,0.7565622329711914
1684200649503486700,0.24448681640625,-2.426515579223633,2.6242644786834717,1.0953565835952759
1684200649513512700,0.2545126953125,-2.332932472229004,2.62115216255188,1.3391860723495483
1684200649523538700,0.26453857421875,-1.9518423080444336,2.281998872756958,1.2769981622695923
1684200649533563600,0.274563720703125,-1.5654107332229614,2.2620463371276855,0.9673784971237183
1684200649543589600,0.284589599609375,-1.4718482494354248,2.5177879333496094,0.3755648136138916
1684200649553615600,0.29461572265625,-1.817970871925354,3.237057685852051,-0.30695995688438416
1684200649563641600,0.3046416015625,-2.5519025325775146,4.291605472564697,-0.9220801591873169
1684200649573667600,0.31466748046875,-3.649639368057251,5.594057083129883,-1.233256220817566
1684200649583693600,0.324693603515625,-4.77114725112915,6.442279815673828,-0.9837163090705872
1684200649593719600,0.334719482421875,-5.43120813369751,7.002580165863037,-0.1822127103805542
1684200649603745500,0.34474560546875,-5.543097496032715,7.8504133224487305,1.1305416822433472
1684200649613771800,0.354771728515625,-5.184981822967529,8.451404571533203,2.703810214996338
1684200649623796500,0.36479638671875,-4.805436611175537,8.49781322479248,4.046098232269287
1684200649633822700,0.37482275390625,-4.78273868560791,8.59005069732666,4.8209452629089355
1684200649643848700,0.3848486328125,-5.038568496704102,8.435595512390137,5.008267402648926
1684200649653874700,0.394874755859375,-5.510834217071533,7.9694061279296875,4.810944557189941
1684200649663900700,0.404900634765625,-6.069568157196045,7.310314655303955,4.421651840209961
1684200649673926700,0.4149267578125,-6.628470420837402,6.518048286437988,3.9444074630737305
1684200649683952600,0.42495263671875,-7.188161373138428,5.515298366546631,3.4055144786834717
1684200649693978600,0.434978515625,-7.5858612060546875,4.613689422607422,2.8942646980285645
1684200649704004600,0.445004638671875,-7.850344657897949,3.7449092864990234,2.4025423526763916
1684200649714029600,0.455029541015625,-8.224647521972656,2.826063871383667,1.8469367027282715
1684200649724055600,0.4650556640625,-8.312982559204102,2.0093159675598145,1.384091854095459
1684200649734081500,0.47508154296875,-7.76710319519043,1.3127708435058594,1.0366755723953247
1684200649744107500,0.485107421875,-6.91602087020874,0.7968443036079407,0.9334897398948669
1684200649754133500,0.495133544921875,-6.285871982574463,0.29645657539367676,1.0800001621246338
1684200649764159700,0.50515966796875,-5.953348636627197,-0.04950195178389549,1.2988961935043335
1684200649774185700,0.515185791015625,-5.7516374588012695,-0.2540929317474365,1.461380958557129
1684200649784211700,0.525211669921875,-5.513561248779297,-0.30691125988960266,1.6069763898849487
1684200649794237700,0.53523779296875,-5.185990333557129,-0.25502702593803406,1.7386577129364014
1684200649804262700,0.5452626953125,-4.863408088684082,-0.17384850978851318,1.836042046546936
1684200649814288600,0.55528857421875,-4.585968971252441,-0.4354705512523651,1.7815414667129517
1684200649824314600,0.565314697265625,-4.189310550689697,-0.8659483790397644,1.6164239645004272
1684200649834340600,0.575340576171875,-3.5947344303131104,-1.324879765510559,1.3742179870605469
1684200649844366600,0.58536669921875,-2.9413416385650635,-1.9743114709854126,1.0004198551177979
1684200649854392600,0.595392578125,-2.46636962890625,-2.9468905925750732,0.5390498042106628
1684200649864418600,0.60541845703125,-1.9527331590652466,-3.46152663230896,0.10548043251037598
1684200649874444500,0.615444580078125,-1.3192678689956665,-3.781984329223633,-0.14904318749904633
1684200649884469500,0.625469482421875,-0.8790943622589111,-4.269193649291992,-0.059491898864507675
1684200649894495500,0.63549560546875,-0.6001967191696167,-4.297508716583252,0.32479315996170044
1684200649904521500,0.645521484375,-0.24279353022575378,-3.8737547397613525,1.0440843105316162
1684200649914547700,0.655547607421875,-0.0012839636765420437,-3.307771682739258,1.8828951120376587
1684200649924573700,0.66557373046875,0.10105642676353455,-2.397792339324951,2.3724396228790283
1684200649934599700,0.675599609375,0.27747780084609985,-2.386117935180664,2.1811294555664062
1684200649944625700,0.685625732421875,0.5553097724914551,-2.0288596153259277,1.6655670404434204
1684200649954651600,0.695651611328125,1.0427707433700562,-1.7296864986419678,1.2521778345108032
1684200649964677600,0.705677734375,1.480387568473816,-1.565680742263794,1.0197604894638062
1684200649974702600,0.71570263671875,1.7534281015396118,-1.4823848009109497,0.9213767051696777
1684200649984728600,0.725728515625,1.9658395051956177,-1.5090333223342896,0.8882301449775696
1684200649994754600,0.735754638671875,2.0910420417785645,-1.4223028421401978,0.9310253262519836
1684200650004780500,0.745780517578125,2.191697597503662,-1.401053547859192,0.8925009965896606
1684200650014806500,0.755806640625,2.0423243045806885,-1.378624439239502,0.38479575514793396
1684200650024832500,0.76583251953125,1.5157989263534546,-1.2106863260269165,-0.8474441170692444
1684200650034858500,0.7758583984375,1.4513260126113892,-0.4925268888473511,-1.7683169841766357
1684200650044884700,0.785884765625,2.2479238510131836,0.5781161189079285,-1.2569372653961182
1684200650054910700,0.79591064453125,2.4347164630889893,1.2225600481033325,-0.5858321189880371
1684200650064935700,0.805935791015625,2.271003484725952,1.7002524137496948,-0.879920244216919
1684200650074961700,0.815961669921875,2.3155033588409424,1.7884284257888794,-1.052445888519287
1684200650084987600,0.825987548828125,2.543574094772339,1.733196496963501,-0.6710131764411926
1684200650095013600,0.836013671875,2.5714547634124756,1.6958472728729248,-0.6416653990745544
1684200650105039600,0.84603955078125,2.8665130138397217,1.6950126886367798,-0.5709777474403381
1684200650115065600,0.856065673828125,3.58426570892334,1.4102510213851929,-0.35691314935684204
1684200650125091600,0.866091552734375,4.331089496612549,0.7723981142044067,-0.2101176232099533
1684200650135117600,0.87611767578125,4.7839789390563965,0.9620955586433411,-0.5162543654441833
1684200650145143600,0.8861435546875,4.508910179138184,1.471697449684143,-0.9840531945228577
1684200650155168500,0.89616845703125,2.7776753902435303,1.3760979175567627,-1.5776400566101074
1684200650165194500,0.906194580078125,1.1994452476501465,1.6080095767974854,-1.7413318157196045
1684200650175220500,0.916220458984375,-0.2310359925031662,2.4217324256896973,-1.775956630706787
1684200650185246500,0.92624658203125,-1.4252078533172607,2.6386539936065674,-1.4524095058441162
1684200650195272700,0.936272705078125,-2.2015810012817383,2.627984046936035,-0.8429417014122009
1684200650205298700,0.946298583984375,-2.704777956008911,2.2804207801818848,-0.34743741154670715
1684200650215324700,0.95632470703125,-2.9649817943573,1.6934603452682495,-0.23729677498340607
1684200650225350700,0.9663505859375,-3.203077793121338,1.2304718494415283,-0.38081592321395874
1684200650235376600,0.976376708984375,-3.2363743782043457,0.49276208877563477,-0.7670973539352417
1684200650245401600,0.986401611328125,-2.9546053409576416,0.6396000385284424,-1.1120655536651611
1684200650255427600,0.996427490234375,-2.3848602771759033,1.338098168373108,-0.9547477960586548
1684200650265453600,1.00645361328125,-1.8790322542190552,1.5366480350494385,-0.5280446410179138
1684200650275479600,1.0164794921875,-1.6313798427581787,1.586317539215088,-0.0606151707470417
1684200650285505500,1.026505615234375,-1.5966439247131348,1.5782805681228638,0.25081968307495117
1684200650295531500,1.036531494140625,-1.7432799339294434,1.6405940055847168,0.3822895586490631
1684200650305557500,1.0465576171875,-1.9897866249084473,1.8059443235397339,0.37845271825790405
1684200650315583500,1.05658349609375,-2.426514148712158,2.143404483795166,0.29716241359710693
1684200650325608400,1.0666083984375,-3.201655626296997,1.8950214385986328,0.24759817123413086
1684200650335634400,1.076634521484375,-4.418303489685059,1.2880955934524536,0.3244713842868805
1684200650345660700,1.08666064453125,-5.968642234802246,0.8268173933029175,0.5525792837142944
1684200650355686700,1.096686767578125,-7.512566566467285,0.37019795179367065,0.905066728591919
1684200650365712600,1.106712646484375,-8.684956550598145,-0.10325580090284348,1.4177258014678955
1684200650375738600,1.116738525390625,-8.915613174438477,-0.6296207904815674,2.0247769355773926
1684200650385764600,1.1267646484375,-8.099316596984863,-1.2298001050949097,2.673246383666992
1684200650395790600,1.13679052734375,-5.39835786819458,-0.8761794567108154,2.6875829696655273
1684200650405816600,1.146816650390625,-2.016007423400879,0.6789916157722473,2.2770979404449463
1684200650415841500,1.156841552734375,0.2898983359336853,2.185194253921509,1.6009832620620728
1684200650425867800,1.16686767578125,2.1929714679718018,2.3422272205352783,0.915160059928894
1684200650435893800,1.176893798828125,3.177110195159912,1.9552351236343384,0.5615388751029968
1684200650445919700,1.186919677734375,3.2120893001556396,1.5637580156326294,0.5515366196632385
1684200650455945700,1.19694580078125,2.655205249786377,1.2359780073165894,0.8523827195167542
1684200650465971700,1.2069716796875,1.8898268938064575,1.0217996835708618,1.2750991582870483
1684200650475997700,1.216997802734375,1.2709932327270508,0.7969064116477966,1.5356122255325317
1684200650486023700,1.227023681640625,0.8308809995651245,0.5935061573982239,1.7426471710205078
1684200650496049700,1.237049560546875,0.37945452332496643,0.04218071326613426,1.643759846687317
1684200650506074600,1.24707470703125,-0.005943037569522858,-0.22524699568748474,1.192880630493164
1684200650516100600,1.2571005859375,-0.17572779953479767,0.18387633562088013,0.5600200891494751
1684200650526126600,1.267126708984375,-0.2012522667646408,0.7576420307159424,-0.20994767546653748
1684200650536152600,1.277152587890625,-0.15467651188373566,1.2743031978607178,-0.8682869672775269
1684200650546178600,1.287178466796875,-0.15668411552906036,1.5405672788619995,-1.2481719255447388
1684200650556204800,1.297204833984375,-0.37111225724220276,1.5542654991149902,-1.3741817474365234
1684200650566230800,1.307230712890625,-0.856985330581665,1.727445363998413,-1.2394163608551025
1684200650576256800,1.3172568359375,-1.298332691192627,1.6546566486358643,-1.1465530395507812
1684200650586282800,1.32728271484375,-1.6720165014266968,1.758776068687439,-0.9418599009513855
1684200650596307700,1.3373076171875,-1.825984001159668,2.0794708728790283,-0.5189331769943237
1684200650606333700,1.347333740234375,-1.795882225036621,2.402104139328003,-0.0025278960820287466
1684200650616359700,1.357359619140625,-1.5616981983184814,2.557882308959961,0.47630393505096436
1684200650626385700,1.3673857421875,-1.2745921611785889,2.665194511413574,0.8644868731498718
1684200650636411600,1.37741162109375,-1.0378506183624268,2.8078744411468506,1.1546504497528076
1684200650646437600,1.387437744140625,-0.8517497777938843,2.9259297847747803,1.35731840133667
1684200650656463600,1.397463623046875,-0.795811116695404,3.1324925422668457,1.3844362497329712
1684200650666489600,1.407489501953125,-0.9023610353469849,3.135392427444458,1.3375334739685059
1684200650676514600,1.4175146484375,-1.1737208366394043,2.595412254333496,1.170224666595459
1684200650686540500,1.42754052734375,-1.5680136680603027,2.18113374710083,0.9598321914672852
1684200650696566500,1.43756640625,-1.8021966218948364,2.251282215118408,1.07010018825531
1684200650706592800,1.4475927734375,-2.002471685409546,2.4711711406707764,1.4113898277282715
1684200650716618800,1.45761865234375,-2.1150341033935547,2.5258214473724365,1.8006973266601562
1684200650726644700,1.467644775390625,-2.166252613067627,2.4596009254455566,2.21187162399292
1684200650736670700,1.477670654296875,-2.2577569484710693,2.353503704071045,2.6317033767700195
1684200650746696700,1.48769677734375,-2.243971109390259,2.1109633445739746,3.0609257221221924
1684200650756722700,1.49772265625,-1.9999282360076904,1.867154836654663,3.4378347396850586
1684200650766748700,1.507748779296875,-1.407047986984253,1.5223664045333862,3.534681797027588
1684200650776773600,1.517773681640625,-0.54914790391922,0.5775406360626221,3.2077484130859375
1684200650786799600,1.527799560546875,0.3275015950202942,-1.0768831968307495,2.3941404819488525
1684200650796825600,1.53782568359375,1.1355639696121216,-2.3181631565093994,1.6243133544921875
1684200650806851600,1.5478515625,1.690467119216919,-2.8360307216644287,0.9652134776115417
1684200650816877600,1.557877685546875,2.0697591304779053,-2.6996102333068848,0.4053376615047455
1684200650826903600,1.567903564453125,2.374107599258423,-1.967178225517273,-0.2058277130126953
1684200650836929800,1.5779296875,2.459596872329712,-1.2708648443222046,-0.706093966960907
1684200650846955800,1.587955810546875,2.0527420043945312,-1.3472843170166016,-1.169217586517334
1684200650856980700,1.597980712890625,1.3415236473083496,-2.0380163192749023,-1.4493381977081299
1684200650867006700,1.6080068359375,0.10527165234088898,-3.472968816757202,-1.9132070541381836
1684200650877032700,1.61803271484375,-0.7530422806739807,-4.667309284210205,-1.904198408126831
1684200650887058700,1.62805859375,-1.1248672008514404,-5.709420680999756,-0.9668998122215271
1684200650897084700,1.638084716796875,-1.0818496942520142,-6.0959086418151855,0.42976459860801697
1684200650907110700,1.648110595703125,-0.7092639803886414,-5.571756839752197,1.6712920665740967
1684200650917136600,1.65813671875,-0.20158882439136505,-4.236273288726807,2.2776236534118652
1684200650927162600,1.66816259765625,0.25602656602859497,-2.645336151123047,2.2758395671844482
1684200650937188600,1.678188720703125,0.5167604684829712,-1.065213918685913,1.66448974609375
1684200650947213600,1.688213623046875,0.5007349252700806,-0.20168767869472504,1.0875996351242065
1684200650957239600,1.698239501953125,0.2813125550746918,0.02900678664445877,0.7882763147354126
1684200650967265500,1.708265625,0.0386725552380085,-0.01904199831187725,0.6285229921340942
1684200650977291500,1.71829150390625,-0.11110415309667587,-0.04808003827929497,0.5439175963401794
1684200650987317800,1.72831787109375,-0.038007915019989014,0.5373691916465759,0.039312172681093216
1684200650997343700,1.73834375,0.17672036588191986,1.6576826572418213,-0.9765085577964783
1684200651007369700,1.74836962890625,0.34598255157470703,2.071653127670288,-1.1141140460968018
1684200651017395700,1.758395751953125,0.4089042544364929,2.1138155460357666,-0.8187490105628967
1684200651027421700,1.768421630859375,0.3739033043384552,1.9855059385299683,-0.5178136825561523
1684200651037446700,1.77844677734375,0.33573806285858154,1.7272515296936035,-0.22720126807689667
1684200651047472600,1.78847265625,0.26087725162506104,1.3828998804092407,0.05389207974076271
1684200651057498600,1.79849853515625,0.12710615992546082,0.9381605982780457,0.2586851716041565
1684200651067524600,1.808524658203125,0.06190648302435875,0.45906490087509155,0.4081612825393677
1684200651077550600,1.818550537109375,0.05051907151937485,0.008999482728540897,0.48245519399642944
1684200651087576600,1.82857666015625,0.14892235398292542,-0.3411826491355896,0.5017486214637756
1684200651097602600,1.8386025390625,0.3587704002857208,-0.48186546564102173,0.47984758019447327
1684200651107628500,1.848628662109375,0.43554332852363586,-0.5346180200576782,0.39600899815559387
1684200651117654800,1.85865478515625,0.2826118469238281,-0.609113335609436,0.13506127893924713
1684200651127679500,1.868679443359375,0.06250284612178802,-0.6958474516868591,-0.1621903032064438
1684200651137705700,1.878705810546875,-0.06664794683456421,-0.7750272154808044,-0.32300397753715515
1684200651147731700,1.888731689453125,-0.08959733694791794,-0.8250325322151184,-0.3361337184906006
1684200651157757700,1.8987578125,-0.04557901248335838,-0.8229269981384277,-0.26702097058296204
1684200651167783700,1.90878369140625,-0.009139755740761757,-0.778488278388977,-0.18173253536224365
1684200651177809700,1.9188095703125,-0.012218370102345943,-0.7081379890441895,-0.11728084832429886
1684200651187835600,1.928835693359375,-0.05673196166753769,-0.6259323358535767,-0.08901655673980713
1684200651197861600,1.938861572265625,-0.10713308304548264,-0.5305807590484619,-0.0820222944021225
1684200651207887600,1.9488876953125,-0.13893601298332214,-0.4412938356399536,-0.07385816425085068
1684200651217912600,1.95891259765625,-0.1417568325996399,-0.3967868387699127,-0.05225886031985283
1684200651227938600,1.9689384765625,-0.13480226695537567,-0.3952937722206116,-0.015191600657999516
1684200651237964500,1.978964599609375,-0.133226215839386,-0.40007227659225464,0.005173591896891594
1684200651247990500,1.988990478515625,-0.13729697465896606,-0.3816596567630768,0.007167341653257608
1684200651258016500,1.9990166015625,-0.14461374282836914,-0.3257945477962494,-0.003513266332447529
1684200651268042800,2.009042724609375,-0.13675500452518463,-0.24611444771289825,-0.003229479305446148
1684200651278068700,2.01906884765625,-0.11954911798238754,-0.15824824571609497,0.025929737836122513
1684200651288094700,2.0290947265625,-0.08966320008039474,-0.07441483438014984,0.05867666006088257
1684200651298119700,2.03911962890625,-0.050200216472148895,-0.009597756899893284,0.09336379915475845
1684200651308145700,2.049145751953125,-0.005863002501428127,0.018241338431835175,0.119227834045887
1684200651318171600,2.059171630859375,0.048879869282245636,-0.0023741924669593573,0.12881015241146088
1684200651328197600,2.06919775390625,0.13064216077327728,-0.08478948473930359,0.11111509799957275
1684200651338223600,2.0792236328125,0.25076350569725037,-0.19729764759540558,0.06460752338171005
1684200651348249600,2.08924951171875,0.38576939702033997,-0.3132111430168152,-0.01314501278102398
1684200651358275600,2.099275634765625,0.5047162771224976,-0.4163132905960083,-0.12645666301250458
1684200651368301600,2.109301513671875,0.596099853515625,-0.4999542534351349,-0.24300840497016907
1684200651378327600,2.11932763671875,0.6711402535438538,-0.5570881366729736,-0.3369751274585724
1684200651388352500,2.1293525390625,0.7141956090927124,-0.5714772939682007,-0.41148680448532104
1684200651398378500,2.13937841796875,0.7222489714622498,-0.5691730976104736,-0.47314003109931946
1684200651408404500,2.149404541015625,0.7064101696014404,-0.5560202598571777,-0.5285369157791138
1684200651418431200,2.15943115234375,0.6879280805587769,-0.552112877368927,-0.6057898998260498
1684200651428457200,2.169457275390625,0.6487388610839844,-0.5856963992118835,-0.8402962684631348
1684200651438483200,2.179483154296875,0.6478986740112305,-0.733390748500824,-2.033705472946167
1684200651448509200,2.18950927734375,0.7273014783859253,-0.8982678651809692,-3.0527377128601074
1684200651458535200,2.19953515625,0.8367299437522888,-0.9215641617774963,-3.4797234535217285
1684200651468561200,2.20956103515625,0.9440358877182007,-0.7737880945205688,-3.4808857440948486
1684200651478586000,2.219586181640625,1.020665168762207,-0.6476972699165344,-3.3440303802490234
1684200651488612000,2.229612060546875,1.1015974283218384,-0.47394728660583496,-3.130478858947754
1684200651498638000,2.23963818359375,1.176676630973816,-0.1615627408027649,-2.8607404232025146
1684200651508664000,2.2496640625,1.1701587438583374,0.1810099333524704,-2.63034725189209
1684200651518690000,2.25968994140625,1.1021578311920166,0.4515160024166107,-2.460054874420166
1684200651528716000,2.269716064453125,0.9266650676727295,0.6407361030578613,-2.3280210494995117
1684200651538742300,2.2797421875,0.6901851296424866,0.980274498462677,-2.1942427158355713
1684200651548768300,2.289768310546875,0.5102142095565796,1.6074305772781372,-1.8601988554000854
1684200651558794200,2.299794189453125,0.4195045828819275,2.1611602306365967,-1.513770580291748
1684200651568819200,2.309819091796875,0.41121551394462585,2.287358045578003,-1.288378119468689
1684200651578845200,2.31984521484375,0.5100967884063721,1.959478497505188,-1.1935698986053467
1684200651588871200,2.32987109375,0.7559539675712585,1.468701720237732,-1.1542696952819824
1684200651598897200,2.339897216796875,0.9786142110824585,1.2691798210144043,-1.1871408224105835
1684200651608923100,2.349923095703125,1.1688026189804077,1.4808025360107422,-1.2718673944473267
1684200651618949000,2.35994921875,1.3359708786010742,1.8985438346862793,-1.4017422199249268
1684200651628975000,2.36997509765625,1.427255392074585,2.2286059856414795,-1.6415395736694336
1684200651639001000,2.3800009765625,1.3945866823196411,2.4065635204315186,-1.8092150688171387
1684200651649027000,2.390027099609375,1.3180123567581177,2.532595157623291,-1.7374906539916992
1684200651659052000,2.400052001953125,1.268235206604004,2.557933807373047,-1.4838647842407227
1684200651669078000,2.410078125,1.2499552965164185,2.366607666015625,-1.1820855140686035
1684200651679104000,2.42010400390625,1.2296998500823975,2.013363838195801,-1.0239262580871582
1684200651689130200,2.430130126953125,1.1302331686019897,1.7462238073349,-1.0356581211090088
1684200651699156200,2.44015625,1.034150242805481,1.5992518663406372,-1.087954044342041
1684200651709182200,2.45018212890625,0.97100430727005,1.6432082653045654,-1.112480640411377
1684200651719208200,2.460208251953125,0.8959447145462036,1.6440924406051636,-1.1047228574752808
1684200651729234200,2.470234130859375,0.8854545950889587,1.6446797847747803,-1.0033767223358154
1684200651739260200,2.48026025390625,0.9019666910171509,1.5585830211639404,-0.8403356075286865
1684200651749285000,2.49028515625,0.9294362664222717,1.4872742891311646,-0.6676592826843262
1684200651759311000,2.50031103515625,0.9310379028320312,1.4014374017715454,-0.5403005480766296
1684200651769337000,2.510337158203125,0.9038190245628357,1.2688466310501099,-0.45390599966049194
1684200651779363000,2.520363037109375,0.86552894115448,1.069810152053833,-0.37493395805358887
1684200651789389000,2.53038916015625,0.8083587288856506,0.8709309697151184,-0.2564958333969116
1684200651799415000,2.5404150390625,0.7281280755996704,0.6725971102714539,-0.10940784215927124
1684200651809441000,2.55044091796875,0.6355072259902954,0.5013763904571533,0.02515598200261593
1684200651819467300,2.56046728515625,0.5438521504402161,0.400452196598053,0.1292581409215927
1684200651829493200,2.5704931640625,0.4864457845687866,0.3702864944934845,0.2173803448677063
1684200651839518200,2.580518310546875,0.4568159878253937,0.3785340487957001,0.31397533416748047
1684200651849544200,2.590544189453125,0.4285275936126709,0.422056645154953,0.4563877284526825
1684200651859570200,2.600570068359375,0.33531057834625244,0.42115435004234314,0.6225327253341675
1684200651869596200,2.61059619140625,0.21464458107948303,0.3984033763408661,0.78729248046875
1684200651879622100,2.6206220703125,0.08387989550828934,0.34677132964134216,0.9168651103973389
1684200651889648000,2.630648193359375,-0.03989075869321823,0.24833665788173676,0.997294008731842
1684200651899674000,2.640674072265625,-0.14194682240486145,0.12340272217988968,1.0464321374893188
1684200651909700000,2.6507001953125,-0.19518958032131195,-0.025809893384575844,1.0841014385223389
1684200651919726000,2.66072607421875,-0.20314471423625946,-0.2020357847213745,1.1140532493591309
1684200651929751000,2.6707509765625,-0.1676747351884842,-0.38333451747894287,1.1272633075714111
1684200651939777000,2.680777099609375,-0.10259081423282623,-0.5768222212791443,1.125785231590271
1684200651949803000,2.690802978515625,-0.023848244920372963,-0.7432959079742432,1.1195061206817627
1684200651959829000,2.7008291015625,0.03938984498381615,-0.8975038528442383,1.1149412393569946
1684200651969855200,2.710855224609375,0.07269924134016037,-1.01650869846344,1.1494534015655518
1684200651979881200,2.720881103515625,0.09210489690303802,-1.0914934873580933,1.2338685989379883
1684200651989907200,2.7309072265625,0.11352468281984329,-1.1696767807006836,1.3519302606582642
1684200651999933200,2.74093310546875,0.1499958634376526,-1.2021361589431763,1.4361729621887207
1684200652009959200,2.750959228515625,0.1401321142911911,-1.160943627357483,1.4450181722640991
1684200652019984100,2.760984130859375,0.04450678452849388,-1.0246137380599976,1.3669955730438232
1684200652030010000,2.771010009765625,-0.09270402044057846,-0.8043104410171509,1.2398631572723389
1684200652040036000,2.7810361328125,-0.2560727000236511,-0.5512877702713013,1.1494011878967285
1684200652050062000,2.79106201171875,-0.4513402283191681,-0.35027575492858887,1.1185598373413086
1684200652060088000,2.801088134765625,-0.6356706023216248,-0.24873794615268707,1.1383609771728516
1684200652070114000,2.811114013671875,-0.7408544421195984,-0.24079325795173645,1.1903177499771118
1684200652080140000,2.82114013671875,-0.7501025199890137,-0.2985849380493164,1.2482953071594238
1684200652090166000,2.831166015625,-0.71226966381073,-0.3721327781677246,1.2686684131622314
1684200652100192300,2.841192138671875,-0.6499484777450562,-0.42563995718955994,1.2015042304992676
1684200652110217200,2.85121728515625,-0.56298828125,-0.44777029752731323,1.0418072938919067
1684200652120243200,2.8612431640625,-0.486129492521286,-0.3941113352775574,0.8351547718048096
1684200652130269200,2.871269287109375,-0.4446331560611725,-0.3415186107158661,0.6393377780914307
1684200652140295200,2.881295166015625,-0.44707340002059937,-0.3147410452365875,0.5177332758903503
1684200652150321200,2.891321044921875,-0.47213950753211975,-0.3047484755516052,0.45148056745529175
1684200652160347100,2.90134716796875,-0.49746111035346985,-0.29280421137809753,0.4255232810974121
1684200652170373000,2.911373046875,-0.5002445578575134,-0.29402685165405273,0.4379782974720001
1684200652180399000,2.921399169921875,-0.47343209385871887,-0.2645789682865143,0.49466633796691895
1684200652190425000,2.931425048828125,-0.4122180938720703,-0.16310255229473114,0.5647990107536316
1684200652200450300,2.9414501953125,-0.29335907101631165,0.024191442877054214,0.5454080104827881
1684200652210476300,2.951476318359375,-0.14104034006595612,0.23732034862041473,0.3664581775665283
1684200652220502000,2.961501953125,0.0320664681494236,0.3536142110824585,0.11009270697832108
1684200652230528000,2.971528076171875,0.20900802314281464,0.2444162517786026,-0.09505932033061981
1684200652240554000,2.981553955078125,0.242620050907135,0.06580629199743271,-0.12432639300823212
1684200652250580200,2.991580322265625,0.1247599869966507,0.06131317466497421,0.03989625722169876
1684200652260606200,3.001606201171875,0.018668705597519875,0.10776722431182861,0.23375441133975983
1684200652270632200,3.011632080078125,-0.031005967408418655,0.18663935363292694,0.3338821828365326
1684200652280658200,3.021658203125,-0.10033710300922394,0.27443310618400574,0.3904905915260315
1684200652290683400,3.031683349609375,-0.22271089255809784,0.2044927030801773,0.4281630218029022
1684200652300709000,3.041709228515625,-0.3301244378089905,-0.03721100091934204,0.44907549023628235
1684200652310735000,3.051735107421875,-0.3654535412788391,-0.36785876750946045,0.43268686532974243
1684200652320761000,3.061760986328125,-0.3666631579399109,-0.6756946444511414,0.36509424448013306
1684200652330787000,3.071787109375,-0.37128913402557373,-0.8303474187850952,0.33103591203689575
1684200652340813000,3.08181298828125,-0.38339877128601074,-0.8604856133460999,0.36466097831726074
1684200652350839000,3.091839111328125,-0.39745280146598816,-0.8079090714454651,0.408083975315094
1684200652360865000,3.101864990234375,-0.43264007568359375,-0.7600589990615845,0.40083566308021545
1684200652370891000,3.11189111328125,-0.48286789655685425,-0.8214423656463623,0.30523908138275146
1684200652380916200,3.121916259765625,-0.5110774636268616,-0.9847002625465393,0.1644635945558548
1684200652390942200,3.131942138671875,-0.558313250541687,-1.240373134613037,0.14826874434947968
1684200652400968200,3.14196826171875,-0.6159824132919312,-1.5283372402191162,0.3235545754432678
1684200652410994200,3.151994140625,-0.4744980037212372,-1.6311801671981812,0.46659889817237854
1684200652421019400,3.162019287109375,-0.16039122641086578,-1.2079567909240723,0.3207972049713135
1684200652431045400,3.17204541015625,-0.09128832817077637,-0.3849565386772156,0.062205396592617035
1684200652441071400,3.1820712890625,-0.24835890531539917,0.2697160840034485,-0.025104472413659096
1684200652451097300,3.192097412109375,-0.48098477721214294,0.4292500913143158,0.04054894670844078
1684200652461123300,3.202123291015625,-0.6910013556480408,0.2412775307893753,0.165818989276886
1684200652471148300,3.212148193359375,-0.8492062091827393,-0.028984196484088898,0.2840046286582947
1684200652481174300,3.22217431640625,-0.9364233613014221,-0.27316009998321533,0.3420296013355255
1684200652491200300,3.2322001953125,-0.9656636118888855,-0.4982011616230011,0.36707252264022827
1684200652501226500,3.2422265625,-0.9380890130996704,-0.6987842917442322,0.3808293342590332
1684200652511252500,3.25225244140625,-0.8666073679924011,-0.8164811730384827,0.3717149794101715
1684200652521278500,3.262278564453125,-0.7712134718894958,-0.8268291354179382,0.3339995741844177
1684200652531304400,3.272304443359375,-0.6921939849853516,-0.7871671915054321,0.279831200838089
1684200652541330400,3.282330322265625,-0.6546481847763062,-0.7686989903450012,0.21107636392116547
1684200652551356400,3.2923564453125,-0.655055820941925,-0.7794981002807617,0.15521560609340668
1684200652561381400,3.30238134765625,-0.6585916876792908,-0.7251320481300354,0.06371711194515228
1684200652571407400,3.312407470703125,-0.6472966074943542,-0.5153521299362183,-0.07031168788671494
1684200652581433300,3.322433349609375,-0.6291761994361877,0.066196009516716,-0.27771255373954773
1684200652591459300,3.332459228515625,-0.5773663520812988,0.9068686366081238,-0.4946650564670563
1684200652601485300,3.3424853515625,-0.4660787284374237,1.4992483854293823,-0.5276459455490112
1684200652611511300,3.35251123046875,-0.31727665662765503,1.5992605686187744,-0.3295644521713257
1684200652621537300,3.362537353515625,-0.1687021255493164,1.4268885850906372,-0.0437028706073761
1684200652631563500,3.3725634765625,-0.05774592235684395,1.2727546691894531,0.1459958553314209
1684200652641589500,3.382589599609375,0.010172144509851933,1.1492334604263306,0.20812766253948212
1684200652651614500,3.392614501953125,0.05987872555851936,0.9928525686264038,0.19391140341758728
1684200652661640400,3.402640380859375,0.09059269726276398,0.7750752568244934,0.17093710601329803
1684200652671666400,3.41266650390625,0.0974658876657486,0.5338784456253052,0.14000026881694794
1684200652681692400,3.4226923828125,0.09354038536548615,0.35191768407821655,0.1299729347229004
1684200652691718400,3.432718505859375,0.10654985904693604,0.2508985698223114,0.15748371183872223
1684200652701744400,3.442744384765625,0.1289086937904358,0.20513269305229187,0.2257586419582367
1684200652711770400,3.452770263671875,0.15547820925712585,0.1668674796819687,0.32752206921577454
1684200652721796400,3.46279638671875,0.18646354973316193,0.13001278042793274,0.42035189270973206
1684200652731822300,3.472822265625,0.1862703263759613,0.1129397302865982,0.4689536690711975
1684200652741847300,3.482847412109375,0.2140718549489975,0.07150626927614212,0.5017307996749878
1684200652751873300,3.492873291015625,0.21799199283123016,0.0025972803123295307,0.5352615118026733
1684200652761899300,3.502899169921875,0.18727082014083862,-0.11690408736467361,0.5662671327590942
1684200652771925200,3.51292529296875,0.14149917662143707,-0.26362550258636475,0.5906928777694702
1684200652781951500,3.522951416015625,0.11247579008340836,-0.3790263831615448,0.6092463135719299
1684200652791977500,3.5329775390625,0.09093544632196426,-0.45894891023635864,0.625831663608551
1684200652802003500,3.54300341796875,0.05421125143766403,-0.4875350296497345,0.6189923882484436
1684200652812029400,3.553029541015625,0.011768395081162453,-0.44441717863082886,0.5757747292518616
1684200652822055400,3.563055419921875,-0.014489572495222092,-0.3308408260345459,0.4829731285572052
1684200652832080400,3.573080322265625,-0.025274112820625305,-0.16385960578918457,0.37878528237342834
1684200652842106400,3.5831064453125,-0.02795911207795143,-0.011372334323823452,0.29148632287979126
1684200652852132400,3.59313232421875,-0.03408005088567734,0.08835769444704056,0.22012808918952942
1684200652862158300,3.603158447265625,-0.025172309949994087,0.08848845213651657,0.17562159895896912
1684200652872184300,3.613184326171875,-0.00028134090825915337,0.024869263172149658,0.16160911321640015
1684200652882210300,3.623210205078125,0.03028615564107895,-0.05239836499094963,0.1647263467311859
1684200652892236300,3.633236328125,0.04684148728847504,-0.1177053153514862,0.17942140996456146
1684200652902262300,3.64326220703125,0.060117077082395554,-0.1855834275484085,0.20077623426914215
1684200652912288500,3.65328857421875,0.07252847403287888,-0.2639109790325165,0.2128768265247345
1684200652922313200,3.663313232421875,0.09146647900342941,-0.3217566907405853,0.2182239294052124
1684200652932339500,3.67333935546875,0.11124756932258606,-0.34105873107910156,0.21679343283176422
1684200652942365400,3.683365478515625,0.12503422796726227,-0.3172388970851898,0.2145819514989853
1684200652952391400,3.693391357421875,0.11282164603471756,-0.28003188967704773,0.2168797254562378
1684200652962417400,3.70341748046875,0.06778519600629807,-0.24352450668811798,0.22912414371967316
1684200652972443400,3.713443359375,0.012217520736157894,-0.21672788262367249,0.25436219573020935
1684200652982469400,3.723469482421875,-0.03049052506685257,-0.18321599066257477,0.2890016734600067
1684200652992495400,3.733495361328125,-0.04230297729372978,-0.1591934710741043,0.32903963327407837
1684200653002521300,3.743521240234375,-0.06113472580909729,-0.12879055738449097,0.36172008514404297
1684200653012546300,3.75354638671875,-0.08879006654024124,-0.11193002015352249,0.3830675184726715
1684200653022572300,3.763572265625,-0.12733586132526398,-0.12441971153020859,0.387328565120697
1684200653032598300,3.773598388671875,-0.14395980536937714,-0.14416496455669403,0.3743624985218048
1684200653042624300,3.783624267578125,-0.1364094763994217,-0.165483295917511,0.3356899321079254
1684200653052650200,3.793650146484375,-0.11855296790599823,-0.2001504749059677,0.28438547253608704
1684200653062676500,3.803676513671875,-0.11621592193841934,-0.23531685769557953,0.24711890518665314
1684200653072702500,3.813702392578125,-0.12960492074489594,-0.2635926306247711,0.22762338817119598
1684200653082728400,3.823728515625,-0.12850050628185272,-0.3307540714740753,0.1998804360628128
1684200653092754400,3.83375439453125,-0.10041183233261108,-0.38748037815093994,0.1919979602098465
1684200653102779400,3.843779296875,-0.06948214769363403,-0.42371615767478943,0.1995871663093567
1684200653112805400,3.853805419921875,-0.08313914388418198,-0.4338800311088562,0.19730058312416077
1684200653122831400,3.863831298828125,-0.1037333682179451,-0.4241914451122284,0.18637630343437195
1684200653132857300,3.873857421875,-0.12160900980234146,-0.40791234374046326,0.1603439450263977
1684200653142883300,3.88388330078125,-0.13245287537574768,-0.3933003544807434,0.1072719469666481
1684200653152909300,3.893909423828125,-0.13204705715179443,-0.3876134157180786,0.04441436752676964
1684200653162935300,3.903935302734375,-0.12784963846206665,-0.4010045826435089,-0.009119166061282158
1684200653172961300,3.913961181640625,-0.12139517068862915,-0.42186564207077026,-0.038992270827293396
1684200653182987300,3.9239873046875,-0.1199735775589943,-0.45007622241973877,-0.04349088296294212
1684200653193012200,3.93401220703125,-0.11399545520544052,-0.471631795167923,-0.03667185828089714
1684200653203038200,3.9440380859375,-0.09798373281955719,-0.45678573846817017,-0.03806335851550102
1684200653213064400,3.954064453125,-0.07039389759302139,-0.42457282543182373,-0.03884829953312874
1684200653223090400,3.96409033203125,-0.03443802893161774,-0.3906436264514923,-0.040694404393434525
1684200653233116400,3.974116455078125,-0.007292068563401699,-0.3529277741909027,-0.03674429655075073
1684200653243142400,3.984142333984375,0.014944260939955711,-0.32438719272613525,-0.022791730239987373
1684200653253168400,3.99416845703125,0.015314036048948765,-0.3079364597797394,-0.009942935779690742
1684200653263194400,4.0041943359375,0.005468063056468964,-0.2619878947734833,-0.010785027407109737
1684200653273220400,4.014220458984375,0.007836979813873768,-0.17228379845619202,-0.04377376288175583
1684200653283245300,4.024245361328125,0.04050038382411003,-0.04499188810586929,-0.08830688148736954
1684200653293271300,4.034271240234375,0.09292390942573547,0.09252416342496872,-0.14154985547065735
1684200653303297300,4.04429736328125,0.1377774029970169,0.199006125330925,-0.17526255548000336
1684200653313323300,4.0543232421875,0.1616559475660324,0.2492780089378357,-0.19770243763923645
1684200653323349200,4.064349365234375,0.17159220576286316,0.2479427009820938,-0.20812205970287323
1684200653333375200,4.074375244140625,0.17979583144187927,0.1923498660326004,-0.21602191030979156
1684200653343401500,4.0844013671875,0.20502956211566925,0.029220864176750183,-0.2414708137512207
1684200653353427500,4.094427490234375,0.2624152898788452,-0.48549216985702515,-0.30066967010498047
1684200653363453400,4.104453369140625,0.3578941524028778,-1.7461012601852417,-0.4977726340293884
1684200653373478400,4.114478515625,0.5116006731987,-2.97751522064209,-1.3116991519927979
1684200653383504400,4.12450439453125,0.758155882358551,-2.982283353805542,-2.831416368484497
1684200653393530400,4.1345302734375,0.9896705150604248,-2.3165371417999268,-3.905898332595825
1684200653403556400,4.144556396484375,1.0490220785140991,-1.7257589101791382,-4.080265045166016
1684200653413582300,4.154582275390625,0.9157453179359436,-1.2097927331924438,-3.6307010650634766
1684200653423608600,4.164608642578125,0.81834477186203,-0.7424488663673401,-3.1591501235961914
1684200653433634600,4.174634521484375,0.7940320372581482,-0.004693206399679184,-2.9356632232666016
1684200653443660500,4.18466064453125,0.7636517286300659,0.7673529386520386,-2.8201708793640137
1684200653453686500,4.1946865234375,0.7473611831665039,1.548924207687378,-2.621350049972534
1684200653463711500,4.20471142578125,0.6508668661117554,2.1448965072631836,-2.3354332447052
1684200653473737500,4.214737548828125,0.43115025758743286,2.439661979675293,-2.0518300533294678
1684200653483763500,4.224763427734375,0.23192264139652252,2.501751184463501,-1.837204933166504
1684200653493789700,4.234789794921875,0.18204429745674133,2.3364245891571045,-1.7123732566833496
1684200653503815700,4.244815673828125,0.42159348726272583,1.7806133031845093,-1.7426888942718506
1684200653513841700,4.254841552734375,0.8179418444633484,1.090293526649475,-1.8973287343978882
1684200653523867600,4.26486767578125,1.1359176635742188,0.6344078183174133,-1.9572539329528809
1684200653533893600,4.2748935546875,1.3557426929473877,0.6511440277099609,-1.7489839792251587
1684200653543919600,4.284919677734375,1.4975330829620361,0.8614983558654785,-1.465262770652771
1684200653553944600,4.294944580078125,1.5901412963867188,1.0944609642028809,-1.2141269445419312
1684200653563970600,4.304970458984375,1.6448453664779663,1.2663687467575073,-0.9479381442070007
1684200653573996500,4.31499658203125,1.658374309539795,1.3650450706481934,-0.7163305878639221
1684200653584022500,4.3250224609375,1.5493839979171753,1.486789345741272,-0.6042213439941406
1684200653594048500,4.335048583984375,1.3606621026992798,1.6665722131729126,-0.6012018918991089
1684200653604074500,4.345074462890625,1.1621266603469849,1.868648886680603,-0.6425605416297913
1684200653614100500,4.3551005859375,1.0081571340560913,2.0197649002075195,-0.7038684487342834
1684200653624126700,4.365126708984375,0.9062835574150085,2.016852378845215,-0.7492596507072449
1684200653634152700,4.375152587890625,0.8435207009315491,1.8183543682098389,-0.7399194240570068
1684200653644177700,4.385177734375,0.8041014075279236,1.5738974809646606,-0.7270858883857727
1684200653654203600,4.39520361328125,0.7802659869194031,1.38002610206604,-0.7107530832290649
1684200653664229600,4.405229736328125,0.7865207195281982,1.3029773235321045,-0.6718970537185669
1684200653674255600,4.415255615234375,0.7862564921379089,1.3028979301452637,-0.6282339096069336
1684200653684281600,4.425281494140625,0.8027912378311157,1.2348037958145142,-0.5545114874839783
1684200653694307600,4.4353076171875,0.860608696937561,1.1838937997817993,-0.44281628727912903
1684200653704333600,4.44533349609375,0.9105914235115051,1.087093472480774,-0.30393722653388977
1684200653714359600,4.455359619140625,0.9108363389968872,0.9847996830940247,-0.1718992292881012
1684200653724385500,4.465385498046875,0.8446661233901978,0.8827852010726929,-0.0702863335609436
1684200653734411500,4.47541162109375,0.7408523559570312,0.7743939757347107,-0.013080459088087082
1684200653744436500,4.4854365234375,0.6266900897026062,0.693972110748291,0.022871149703860283
1684200653754462500,4.49546240234375,0.5673937201499939,0.6201682686805725,0.062482524663209915
1684200653764488400,4.505488525390625,0.48313555121421814,0.5311158895492554,0.10751818120479584
1684200653774514700,4.5155146484375,0.4300673305988312,0.47273746132850647,0.17888136208057404
1684200653784540700,4.525540771484375,0.4124928414821625,0.43898138403892517,0.25641930103302
1684200653794566700,4.535566650390625,0.3737853765487671,0.41624441742897034,0.3620236814022064
1684200653804592600,4.545592529296875,0.322831392288208,0.389038622379303,0.4733946919441223
1684200653814618600,4.55561865234375,0.25406795740127563,0.3466688096523285,0.5736573338508606
1684200653824644600,4.56564453125,0.18659625947475433,0.30554667115211487,0.6643163561820984
1684200653834669600,4.575669677734375,0.12485096603631973,0.2487293928861618,0.7447580695152283
1684200653844695600,4.585695556640625,0.08226808160543442,0.14804460108280182,0.8246768712997437
1684200653854721500,4.595721435546875,0.04703709855675697,0.00036687985993921757,0.9025587439537048
1684200653864747500,4.60574755859375,0.007865197025239468,-0.17214177548885345,0.9864387512207031
1684200653874773500,4.6157734375,-0.029971685260534286,-0.3407799005508423,1.0497381687164307
1684200653884799500,4.625799560546875,-0.06795022636651993,-0.4945867657661438,1.0917454957962036
1684200653894825500,4.635825439453125,-0.10420342534780502,-0.6535063982009888,1.1187853813171387
1684200653904851700,4.645851806640625,-0.13079535961151123,-0.81038898229599,1.1327733993530273
1684200653914877700,4.655877685546875,-0.14553020894527435,-0.9189649820327759,1.1438425779342651
1684200653924902700,4.665902587890625,-0.13689517974853516,-0.9497420787811279,1.140061378479004
1684200653934928600,4.6759287109375,-0.11839476972818375,-0.9055385589599609,1.1322916746139526
1684200653944954600,4.68595458984375,-0.1185164749622345,-0.823569118976593,1.1337401866912842
1684200653954980600,4.695980712890625,-0.12381041795015335,-0.7562103867530823,1.130409836769104
1684200653965006600,4.706006591796875,-0.1555909961462021,-0.7271494269371033,1.1337158679962158
1684200653975032600,4.716032470703125,-0.21262159943580627,-0.7648901343345642,1.1485527753829956
1684200653985058600,4.72605859375,-0.2794744074344635,-0.8725817203521729,1.1599515676498413
1684200653995084500,4.73608447265625,-0.34054630994796753,-1.0101966857910156,1.1861218214035034
1684200654005110500,4.746110595703125,-0.38352304697036743,-1.150120496749878,1.2116572856903076
1684200654015135500,4.756135498046875,-0.40975359082221985,-1.2370173931121826,1.2333275079727173
1684200654025161500,4.766161376953125,-0.42531445622444153,-1.2580406665802002,1.2457042932510376
1684200654035187500,4.7761875,-0.4619430601596832,-1.2022701501846313,1.2413502931594849
1684200654045213400,4.78621337890625,-0.5147075057029724,-1.08186674118042,1.2327706813812256
1684200654055239700,4.79623974609375,-0.5856732726097107,-0.9299933314323425,1.227337121963501
1684200654065265700,4.806265625,-0.6872417330741882,-0.803616464138031,1.2170392274856567
1684200654075291600,4.816291748046875,-0.7782773971557617,-0.7571691870689392,1.2212603092193604
1684200654085317600,4.826317626953125,-0.8668131232261658,-0.7702733278274536,1.2430713176727295
1684200654095343600,4.836343505859375,-0.9408460855484009,-0.8428449630737305,1.2665996551513672
1684200654105369600,4.84636962890625,-0.9910820722579956,-0.9580647349357605,1.2824229001998901
1684200654115394600,4.85639453125,-1.0199427604675293,-1.1277230978012085,1.293870210647583
1684200654125420500,4.866420654296875,-1.0153696537017822,-1.2683666944503784,1.279220700263977
1684200654135446500,4.876446533203125,-1.0061709880828857,-1.3729461431503296,1.2681447267532349
1684200654145472500,4.886472412109375,-0.9317028522491455,-1.3365223407745361,1.2013683319091797
1684200654155498500,4.89649853515625,-0.822208046913147,-1.1226093769073486,1.0631531476974487
1684200654165524500,4.9065244140625,-0.7563981413841248,-0.8636555671691895,0.8683756589889526
1684200654175550500,4.916550537109375,-0.702250599861145,-0.6970977187156677,0.598041296005249
1684200654185576700,4.92657666015625,-0.5968911647796631,-0.6808295249938965,0.3047047555446625
1684200654195602700,4.936602783203125,-0.43437349796295166,-0.7614673972129822,0.09695986658334732
1684200654205627600,4.946627685546875,-0.30053606629371643,-0.8738642334938049,-0.011908295564353466
1684200654215653600,4.956653564453125,-0.2212812751531601,-0.8907775282859802,-0.09033700078725815
1684200654225679600,4.9666796875,-0.19851498305797577,-0.7594959139823914,-0.1741112619638443
1684200654235705600,4.97670556640625,-0.21358272433280945,-0.45148202776908875,-0.22965532541275024
1684200654245731600,4.986731689453125,-0.26962417364120483,-0.029817616567015648,-0.22462648153305054
1684200654255757600,4.996757568359375,-0.36105266213417053,0.3965035080909729,-0.16016541421413422
1684200654265783600,5.006783447265625,-0.4675964117050171,0.7218549847602844,-0.054651230573654175
1684200654275809500,5.0168095703125,-0.5499351024627686,0.8506557941436768,0.07890725880861282
1684200654285835500,5.02683544921875,-0.6057720184326172,0.7439093589782715,0.20995235443115234
1684200654295860500,5.036860595703125,-0.6202394962310791,0.44988834857940674,0.3396252393722534
1684200654305886500,5.046886474609375,-0.5890514254570007,0.07527905702590942,0.4650481343269348
1684200654315912400,5.056912353515625,-0.5064554810523987,-0.31563565135002136,0.5575848817825317
1684200654325938400,5.0669384765625,-0.4037157893180847,-0.6401847004890442,0.609579861164093
1684200654335964700,5.076964599609375,-0.29227524995803833,-0.8360767960548401,0.6338273882865906
1684200654345990700,5.08699072265625,-0.212328240275383,-1.0008553266525269,0.6403260231018066
1684200654356016600,5.0970166015625,-0.185625821352005,-1.2286341190338135,0.6285617351531982
1684200654366042600,5.107042724609375,-0.17312094569206238,-1.5409939289093018,0.5846600532531738
1684200654376068600,5.117068603515625,-0.14115701615810394,-1.7580615282058716,0.47762995958328247
1684200654386094600,5.127094482421875,-0.1048530712723732,-1.6542104482650757,0.28229910135269165
1684200654396119600,5.13711962890625,-0.09714668244123459,-1.1915584802627563,0.03070707619190216
1684200654406145500,5.1471455078125,-0.15402114391326904,-0.48501166701316833,-0.23020094633102417
1684200654416171500,5.157171630859375,-0.26301926374435425,0.38191676139831543,-0.43759456276893616
1684200654426197500,5.167197509765625,-0.3764725923538208,1.3574302196502686,-0.5614991784095764
1684200654436223500,5.177223388671875,-0.46532273292541504,2.4062905311584473,-0.6075347661972046
1684200654446249500,5.18724951171875,-0.5230565667152405,3.3066468238830566,-0.5592811703681946
1684200654456275500,5.197275390625,-0.4739365875720978,3.698866844177246,-0.3579511344432831
1684200654466301700,5.2073017578125,-0.30323702096939087,3.480654239654541,-0.03672144562005997
1684200654476327700,5.21732763671875,-0.04138793796300888,2.8242900371551514,0.29201969504356384
1684200654486352600,5.2273525390625,0.19673700630664825,2.0631327629089355,0.45744433999061584
1684200654496378600,5.237378662109375,0.3797028660774231,1.3391305208206177,0.403072327375412
1684200654506404600,5.247404541015625,0.4919942319393158,0.6268693804740906,0.23689241707324982
1684200654516430600,5.2574306640625,0.582554280757904,-0.12251204997301102,0.0913364365696907
1684200654526456600,5.26745654296875,0.6499743461608887,-0.8349156379699707,0.0430474691092968
1684200654536482600,5.277482666015625,0.6764068603515625,-1.4686847925186157,0.0984465479850769
1684200654546508500,5.287508544921875,0.6782526969909668,-1.9463675022125244,0.2287566214799881
1684200654556534500,5.297534423828125,0.6509575843811035,-2.2355830669403076,0.3624538481235504
1684200654566560500,5.307560546875,0.6031980514526367,-2.317178249359131,0.4686279594898224
1684200654576586500,5.31758642578125,0.5502454042434692,-2.2479288578033447,0.5211262106895447
1684200654586611500,5.327611572265625,0.46447426080703735,-2.1141116619110107,0.5273127555847168
1684200654596637400,5.337637451171875,0.34562280774116516,-1.9286519289016724,0.5173295140266418
1684200654606663400,5.347663330078125,0.2161811739206314,-1.6594736576080322,0.496577650308609
1684200654616689700,5.357689697265625,0.11673840880393982,-1.307492733001709,0.44682997465133667
1684200654626715600,5.367715576171875,0.05091065540909767,-0.9258587956428528,0.36143144965171814
1684200654636741600,5.37774169921875,0.011345000937581062,-0.5468035936355591,0.2233652025461197
1684200654646767600,5.387767578125,-0.007928029634058475,-0.2191767394542694,0.03665497899055481
1684200654656793600,5.397793701171875,0.004561534617096186,-0.004347105044871569,-0.148664653301239
1684200654666819600,5.407819580078125,0.025226864963769913,0.09729669243097305,-0.2742595970630646
1684200654676844500,5.417844482421875,0.033562351018190384,0.1386629343032837,-0.3310967683792114
1684200654686870500,5.42787060546875,0.02673427201807499,0.1813211739063263,-0.3289254903793335
1684200654696896500,5.437896484375,0.010367990471422672,0.24428291618824005,-0.2865600287914276
1684200654706922500,5.447922607421875,-0.014136021956801414,0.31169283390045166,-0.2199021875858307
1684200654716948500,5.457948486328125,-0.05257515236735344,0.32146626710891724,-0.15349237620830536
1684200654726974500,5.467974365234375,-0.07914923876523972,0.2317584753036499,-0.07970604300498962
1684200654737000400,5.47800048828125,-0.07707208395004272,0.04411424696445465,-0.007203076034784317
1684200654747026700,5.488026611328125,-0.052350495010614395,-0.19237738847732544,0.06769300252199173
1684200654757052700,5.498052734375,-0.02016189880669117,-0.4008987545967102,0.14818193018436432
1684200654767077600,5.50807763671875,0.008225533179938793,-0.5569759607315063,0.2273436039686203
1684200654777103600,5.518103515625,0.026372430846095085,-0.6482458710670471,0.29985299706459045
1684200654787129600,5.528129638671875,0.03470279648900032,-0.6813684105873108,0.37103235721588135
1684200654797155600,5.538155517578125,0.023320620879530907,-0.6492148041725159,0.4197461009025574
1684200654807181600,5.548181640625,0.020828701555728912,-0.6002142429351807,0.45474350452423096
1684200654817207600,5.55820751953125,0.02787880413234234,-0.5697598457336426,0.47972896695137024
1684200654827233500,5.568233642578125,-0.010899216867983341,-0.5324971675872803,0.47290730476379395
1684200654837259500,5.578259521484375,-0.06828884035348892,-0.5308776497840881,0.44705823063850403
1684200654847285500,5.588285400390625,-0.10777419805526733,-0.5665243268013,0.4095925986766815
1684200654857310500,5.598310546875,-0.11469490081071854,-0.6495459675788879,0.35361891984939575
1684200654867336400,5.60833642578125,-0.12456829845905304,-0.7389373779296875,0.25019559264183044
1684200654877362400,5.618362548828125,-0.15242739021778107,-0.7590144276618958,0.0828871950507164
1684200654887388400,5.628388427734375,-0.17667095363140106,-0.6705508828163147,-0.11351028084754944
1684200654897414700,5.63841455078125,-0.20255303382873535,-0.5319690704345703,-0.25127729773521423
1684200654907440600,5.648440673828125,-0.22993963956832886,-0.4269050359725952,-0.3020608425140381
1684200654917466600,5.658466552734375,-0.2533578872680664,-0.3729364573955536,-0.2703009843826294
1684200654927492600,5.66849267578125,-0.26493680477142334,-0.3380008339881897,-0.19505761563777924
1684200654937518600,5.6785185546875,-0.2735641598701477,-0.2984122335910797,-0.11185188591480255
1684200654947544600,5.688544677734375,-0.2872394919395447,-0.25884032249450684,-0.04016944020986557
1684200654957569500,5.698569580078125,-0.3038729727268219,-0.23792840540409088,0.025324027985334396
1684200654967595500,5.708595458984375,-0.3260118365287781,-0.25417181849479675,0.08691389113664627
1684200654977621500,5.71862158203125,-0.3515327274799347,-0.3025878667831421,0.14850880205631256
1684200654987647500,5.7286474609375,-0.35693174600601196,-0.3788493573665619,0.19824440777301788
1684200654997673500,5.738673583984375,-0.329778790473938,-0.4546815752983093,0.23068974912166595
1684200655007699500,5.748699462890625,-0.2974432110786438,-0.4884137213230133,0.23885074257850647
1684200655017725400,5.758725341796875,-0.26590627431869507,-0.4939541518688202,0.22963738441467285
1684200655027751700,5.768751708984375,-0.23716703057289124,-0.4529303014278412,0.2083858847618103
1684200655037777700,5.778777587890625,-0.20354688167572021,-0.38292986154556274,0.17387589812278748
1684200655047803600,5.7888037109375,-0.17587795853614807,-0.2885279953479767,0.1292320042848587
1684200655057828600,5.79882861328125,-0.1395058035850525,-0.16611753404140472,0.07028979808092117
1684200655067854600,5.8088544921875,-0.06908490508794785,-0.026736734434962273,0.0023704003542661667
1684200655077880600,5.818880615234375,0.03767046332359314,0.12446535378694534,-0.07687477767467499
1684200655087906600,5.828906494140625,0.16323956847190857,0.26282215118408203,-0.1592322438955307
1684200655097932500,5.8389326171875,0.2604243755340576,0.3688223958015442,-0.24233600497245789
1684200655107958500,5.84895849609375,0.3003137409687042,0.4118116796016693,-0.31828802824020386
1684200655117984500,5.858984619140625,0.26296594738960266,0.3819602131843567,-0.39342817664146423
1684200655128010500,5.869010498046875,0.17589016258716583,0.260852187871933,-0.47565406560897827
1684200655138036500,5.879036376953125,0.13639122247695923,0.0072838314808905125,-0.5492100715637207
1684200655148061400,5.8890615234375,0.1613040268421173,-0.29034334421157837,-0.6290180683135986
1684200655158087400,5.89908740234375,0.19587385654449463,-0.5737506747245789,-0.7325621843338013
1684200655168113400,5.909113525390625,0.20951031148433685,-0.7803221940994263,-0.8992283940315247
1684200655178139600,5.9191396484375,0.20071819424629211,-0.8639090061187744,-1.136238694190979
1684200655188165600,5.92916552734375,0.17663335800170898,-0.7597242593765259,-1.5177987813949585
1684200655198191600,5.939191650390625,0.14589451253414154,-0.3772090971469879,-2.060544013977051
1684200655208217600,5.949217529296875,0.11282044649124146,0.06817476451396942,-2.4985954761505127
1684200655218243600,5.95924365234375,0.11405594646930695,0.22903276979923248,-2.613311767578125
1684200655228269600,5.96926953125,0.12302946299314499,0.4622061252593994,-2.5113115310668945
1684200655238294500,5.97929443359375,0.16351647675037384,0.6782755255699158,-2.339221477508545
1684200655248320500,5.989320556640625,0.25953033566474915,0.9357153177261353,-2.1694388389587402
1684200655258346500,5.999346435546875,0.35967570543289185,1.206379771232605,-1.978918194770813
1684200655268372500,6.00937255859375,0.40242478251457214,1.4158562421798706,-1.7005406618118286
1684200655278398500,6.0193984375,0.43310287594795227,1.4503467082977295,-1.3506808280944824
1684200655288424400,6.029424560546875,0.48759379982948303,1.2292548418045044,-1.0952595472335815
1684200655298450400,6.039450439453125,0.6273737549781799,1.1986995935440063,-0.9680717587471008
1684200655308476700,6.0494765625,0.7925240993499756,1.243391990661621,-0.8938803672790527
1684200655318502700,6.059502685546875,1.0678290128707886,1.3182647228240967,-0.7419189214706421
1684200655328527400,6.06952734375,1.4371320009231567,1.5703115463256836,-0.6402884125709534
1684200655338553600,6.0795537109375,1.7491276264190674,1.9251383543014526,-0.591124951839447
1684200655348579600,6.08957958984375,1.8485578298568726,2.272678852081299,-0.5024443864822388
1684200655358605600,6.09960546875,1.759050965309143,2.5189478397369385,-0.3617010712623596
1684200655368631600,6.109631591796875,1.5779839754104614,2.6143829822540283,-0.1767629235982895
1684200655378657500,6.119657470703125,1.3702702522277832,2.7060935497283936,-0.02029235288500786
1684200655388683500,6.12968359375,1.2247873544692993,2.757627010345459,0.09011431038379669
1684200655398709500,6.13970947265625,1.1150567531585693,2.8572945594787598,0.17353516817092896
1684200655408735500,6.149735595703125,1.06832754611969,3.0207722187042236,0.23698417842388153
1684200655418761500,6.159761474609375,1.0849902629852295,3.157979726791382,0.29460182785987854
1684200655428786400,6.169786376953125,1.1564362049102783,3.156170606613159,0.37451210618019104
1684200655438812400,6.1798125,1.2284541130065918,3.075035810470581,0.44828104972839355
1684200655448838400,6.18983837890625,1.2536295652389526,3.00141978263855,0.49195554852485657
1684200655458864400,6.199864501953125,1.2346150875091553,2.9305591583251953,0.5303444266319275
1684200655468890600,6.209890625,1.1991753578186035,2.898778200149536,0.5818371772766113
1684200655478916600,6.21991650390625,1.1547297239303589,2.9150028228759766,0.6481037139892578
1684200655488942600,6.229942626953125,1.1010587215423584,2.963627338409424,0.7227734327316284
1684200655498968600,6.239968505859375,1.0438039302825928,2.9830286502838135,0.8130741119384766
1684200655508994600,6.24999462890625,0.9769427180290222,2.952766180038452,0.885382890701294
1684200655519020500,6.2600205078125,0.9130427837371826,2.8652403354644775,0.9356687664985657
1684200655529045500,6.27004541015625,0.8552665710449219,2.745911121368408,0.9851135611534119
1684200655539071500,6.280071533203125,0.8140250444412231,2.6143040657043457,1.0393084287643433
1684200655549097500,6.290097412109375,0.7831869721412659,2.453519821166992,1.0965226888656616
1684200655559123500,6.30012353515625,0.7386144995689392,2.3167724609375,1.1298373937606812
1684200655569149400,6.3101494140625,0.6774936318397522,2.2114338874816895,1.156248688697815
1684200655579175400,6.320175537109375,0.6154174208641052,2.1846864223480225,1.171687364578247
1684200655589201400,6.330201416015625,0.5724171996116638,2.2375950813293457,1.1755411624908447
1684200655599227600,6.3402275390625,0.5515888333320618,2.301149845123291,1.1658886671066284
1684200655609253600,6.350253662109375,0.5337115526199341,2.332939863204956,1.1306084394454956
1684200655619278600,6.360278564453125,0.5044002532958984,2.3242413997650146,1.0787814855575562
1684200655629304600,6.3703046875,0.4667900502681732,2.305185317993164,1.0392881631851196
1684200655639330600,6.38033056640625,0.4424835741519928,2.3111069202423096,1.019485354423523
1684200655649356500,6.3903564453125,0.41367536783218384,2.315340757369995,0.9960458278656006
1684200655659382500,6.400382568359375,0.3951798379421234,2.3155100345611572,0.9742728471755981
1684200655669408500,6.410408447265625,0.3819604516029358,2.3023645877838135,0.9533113241195679
1684200655679434500,6.4204345703125,0.37423914670944214,2.2966527938842773,0.9286274313926697
1684200655689460500,6.43046044921875,0.36815381050109863,2.3003268241882324,0.9019106030464172
1684200655699486500,6.440486572265625,0.36572909355163574,2.275743246078491,0.8935258984565735
1684200655709512400,6.450512451171875,0.35514089465141296,2.231583833694458,0.8899934887886047
1684200655719537400,6.460537353515625,0.3121974766254425,2.2053298950195312,0.8910807371139526
1684200655729563400,6.4705634765625,0.2366907298564911,2.2308425903320312,0.9185733795166016
1684200655739589400,6.48058935546875,0.1433822065591812,2.2721731662750244,0.9832801222801208
1684200655749615600,6.49061572265625,0.04367319121956825,2.3387339115142822,1.0811201333999634
1684200655759641600,6.5006416015625,-0.04250656068325043,2.403609037399292,1.1843464374542236
1684200655769667600,6.51066748046875,-0.1116906926035881,2.459254264831543,1.2831950187683105
1684200655779693600,6.520693603515625,-0.19093723595142365,2.4720213413238525,1.3736306428909302
1684200655789719600,6.530719482421875,-0.27202412486076355,2.427703380584717,1.4500380754470825
1684200655799745500,6.54074560546875,-0.3516218066215515,2.3775994777679443,1.5333313941955566
1684200655809770500,6.5507705078125,-0.4356730282306671,2.2351229190826416,1.5878247022628784
1684200655819796500,6.56079638671875,-0.49951258301734924,2.038478136062622,1.6311969757080078
1684200655829822500,6.570822509765625,-0.5360849499702454,1.8190643787384033,1.666833519935608
1684200655839848400,6.580848388671875,-0.5542202591896057,1.5853205919265747,1.6942802667617798
1684200655849874400,6.59087451171875,-0.5509240627288818,1.4005988836288452,1.6929845809936523
1684200655859900400,6.600900390625,-0.5224348306655884,1.2702386379241943,1.6445132493972778
1684200655869926400,6.610926513671875,-0.4782836139202118,1.2252240180969238,1.531014084815979
1684200655879952600,6.62095263671875,-0.42845991253852844,1.3318812847137451,1.3478362560272217
1684200655889978600,6.630978515625,-0.39265716075897217,1.5347228050231934,1.1835941076278687
1684200655900004600,6.641004638671875,-0.32803672552108765,1.7683645486831665,1.0649425983428955
1684200655910029600,6.651029541015625,-0.2282102406024933,1.9828441143035889,0.9739517569541931
1684200655920055600,6.6610556640625,-0.13518238067626953,2.159566640853882,0.8916078209877014
1684200655930081500,6.67108154296875,-0.08060993254184723,2.2577500343322754,0.830437421798706
1684200655940107500,6.681107421875,-0.06258416920900345,2.3405094146728516,0.7461668252944946
1684200655950133500,6.691133544921875,-0.09862659126520157,2.377760887145996,0.6575261950492859
1684200655960159500,6.701159423828125,-0.25126034021377563,2.2970380783081055,0.6367101073265076
1684200655970185500,6.711185546875,-0.4321209192276001,2.1595230102539062,0.7009506225585938
1684200655980211500,6.72121142578125,-0.32204070687294006,1.655738353729248,0.5105814337730408
1684200655990237400,6.731237548828125,-0.19046057760715485,1.3429700136184692,-0.06871283054351807
1684200656000263400,6.741263427734375,-0.20688077807426453,1.9493802785873413,-0.2788998782634735
1684200656010288400,6.751288330078125,-0.23649540543556213,2.88852596282959,-0.46307823061943054
1684200656020314400,6.761314453125,-0.21734386682510376,3.4327430725097656,-0.5448009371757507
1684200656030340600,6.771340576171875,-0.1478247195482254,3.5809803009033203,-0.3703724443912506
1684200656040366600,6.78136669921875,-0.07842910289764404,3.520986557006836,-0.0006816866807639599
1684200656050392600,6.791392578125,-0.0168597511947155,3.3792450428009033,0.4226037859916687
1684200656060418600,6.80141845703125,0.05344442278146744,3.237323522567749,0.8095117807388306
1684200656070444500,6.811444580078125,0.15364453196525574,3.094217300415039,1.12282133102417
1684200656080470500,6.821470458984375,0.2357403188943863,2.829246759414673,1.3442292213439941
1684200656090496500,6.83149658203125,0.21251942217350006,2.195852756500244,1.5152422189712524
1684200656100521500,6.841521484375,0.10522771626710892,1.164444088935852,1.6600098609924316
1684200656110547500,6.85154736328125,0.03110741451382637,0.44417673349380493,1.6754658222198486
1684200656120573400,6.861573486328125,0.008670572191476822,0.5899814963340759,1.4582183361053467
1684200656130599400,6.871599365234375,-0.027340693399310112,1.4416762590408325,1.0495541095733643
1684200656140625400,6.88162548828125,-0.08669819682836533,2.5108675956726074,0.6585186123847961
1684200656150651400,6.8916513671875,-0.14838606119155884,3.3659255504608154,0.45812371373176575
1684200656160677600,6.901677734375,-0.20068319141864777,3.859768867492676,0.43240949511528015
1684200656170703600,6.91170361328125,-0.24340428411960602,4.073737144470215,0.4732975363731384
1684200656180729600,6.9217294921875,-0.2790107727050781,4.05892276763916,0.5439638495445251
1684200656190755600,6.931755615234375,-0.2857288718223572,3.885791778564453,0.5833653211593628
1684200656200780500,6.941780517578125,-0.2632254660129547,3.6863739490509033,0.5962978601455688
1684200656210806500,6.951806640625,-0.22535239160060883,3.521817207336426,0.6062042713165283
1684200656220832500,6.96183251953125,-0.19797374308109283,3.3811609745025635,0.6208205223083496
1684200656230858500,6.9718583984375,-0.17354722321033478,3.2476096153259277,0.6275615096092224
1684200656240884500,6.981884521484375,-0.1617559790611267,3.0941970348358154,0.6419086456298828
1684200656250910500,6.991910400390625,-0.15486690402030945,2.9120261669158936,0.6564226150512695
1684200656260936400,7.0019365234375,-0.16219595074653625,2.7561140060424805,0.6511584520339966
1684200656270962400,7.01196240234375,-0.17062325775623322,2.671330451965332,0.6219677925109863
1684200656280988400,7.021988525390625,-0.18380168080329895,2.6331493854522705,0.5906779766082764
1684200656291014700,7.0320146484375,-0.1945808231830597,2.649038076400757,0.5581152439117432
1684200656301039400,7.042039306640625,-0.21106687188148499,2.687466859817505,0.5411024689674377
1684200656311065600,7.052065673828125,-0.23357191681861877,2.7183167934417725,0.5479947328567505
1684200656321091600,7.062091552734375,-0.2540815770626068,2.712308645248413,0.5809314846992493
1684200656331117600,7.07211767578125,-0.2569601833820343,2.68414568901062,0.6245231628417969
1684200656341143600,7.0821435546875,-0.26709985733032227,2.638047695159912,0.6337621808052063
1684200656351169500,7.09216943359375,-0.27309250831604004,2.6466407775878906,0.5798134803771973
1684200656361195500,7.102195556640625,-0.283723920583725,2.668637752532959,0.4857920706272125
1684200656371221500,7.112221435546875,-0.28747498989105225,2.609220266342163,0.404087096452713
1684200656381247500,7.12224755859375,-0.30070361495018005,2.468679666519165,0.3555731475353241
1684200656391272400,7.1322724609375,-0.3007001578807831,2.330152988433838,0.3248456120491028
1684200656401298400,7.14229833984375,-0.29118168354034424,2.193359851837158,0.29419639706611633
1684200656411324400,7.152324462890625,-0.28388115763664246,2.0213005542755127,0.26542067527770996
1684200656421351000,7.162350830078125,-0.2819672226905823,1.8219325542449951,0.2538468837738037
1684200656431377200,7.172377197265625,-0.2781330943107605,1.6292697191238403,0.25856679677963257
1684200656441403100,7.182403076171875,-0.28644615411758423,1.485907793045044,0.2805827558040619
1684200656451429000,7.19242919921875,-0.3031633496284485,1.4131654500961304,0.3031351864337921
1684200656461455000,7.202455078125,-0.3277510106563568,1.4140067100524902,0.31533756852149963
1684200656471481000,7.212481201171875,-0.35508278012275696,1.4441925287246704,0.31008875370025635
1684200656481507000,7.222507080078125,-0.3851347863674164,1.4313685894012451,0.29699432849884033
1684200656491532000,7.232531982421875,-0.41428786516189575,1.3788728713989258,0.26609286665916443
1684200656501558000,7.24255810546875,-0.437274307012558,1.3085867166519165,0.19638189673423767
1684200656511584000,7.252583984375,-0.4416927397251129,1.2415666580200195,0.09616395086050034
1684200656521610000,7.26260986328125,-0.43487316370010376,1.174545407295227,-0.0032288930378854275
1684200656531636000,7.272635986328125,-0.428761750459671,1.1190483570098877,-0.0900985449552536
1684200656541662000,7.282661865234375,-0.4253001809120178,1.0733948945999146,-0.16030246019363403
1684200656551688000,7.29268798828125,-0.39897724986076355,1.0388041734695435,-0.23579294979572296
1684200656561714200,7.302714111328125,-0.3343033492565155,1.0643296241760254,-0.2964654266834259
1684200656571740200,7.312740234375,-0.24400594830513,1.2895653247833252,-0.34483322501182556
1684200656581766100,7.32276611328125,-0.10959653556346893,1.689510464668274,-0.40402302145957947
1684200656591791000,7.332791015625,0.08893439918756485,1.8531345129013062,-0.4447118639945984
1684200656601817000,7.342817138671875,0.29007822275161743,1.4822914600372314,-0.4369763135910034
1684200656611843000,7.352843017578125,0.3726561963558197,0.7678596377372742,-0.43389052152633667
1684200656621869000,7.362869140625,0.35630714893341064,0.005425437819212675,-0.5547094345092773
1684200656631895000,7.37289501953125,0.3409540057182312,-0.4428740441799164,-1.0179111957550049
1684200656641921000,7.382921142578125,0.4218282699584961,-0.3819079101085663,-1.5643153190612793
1684200656651947000,7.392947021484375,0.5511736869812012,-0.2230950891971588,-1.8398100137710571
1684200656661973000,7.402972900390625,0.6252995133399963,-0.20894350111484528,-1.8868681192398071
1684200656671999000,7.4129990234375,0.6350935697555542,-0.24530816078186035,-1.7838935852050781
1684200656682024000,7.42302392578125,0.615390956401825,-0.2486860752105713,-1.5826265811920166
1684200656692050000,7.4330498046875,0.6375508904457092,-0.2476237416267395,-1.3311309814453125
1684200656702076000,7.443075927734375,0.7500990033149719,-0.31032615900039673,-1.0388035774230957
1684200656712102100,7.45310205078125,0.8908537030220032,-0.4040297269821167,-0.7528375387191772
1684200656722128100,7.463128173828125,1.0287505388259888,-0.5265008211135864,-0.5418928861618042
1684200656732154000,7.473154052734375,1.1584869623184204,-0.6371878981590271,-0.3756261467933655
1684200656742180000,7.48318017578125,1.3027962446212769,-0.5267446637153625,-0.20063309371471405
1684200656752206000,7.4932060546875,1.4701104164123535,-0.2085166573524475,-0.07261122018098831
1684200656762232000,7.503232177734375,1.6943632364273071,0.3877131938934326,-0.17866218090057373
1684200656772258000,7.513258056640625,1.7732188701629639,1.1006733179092407,-0.4876745939254761
1684200656782283000,7.523282958984375,1.6336063146591187,1.8482816219329834,-0.7883574366569519
1684200656792309000,7.53330908203125,1.3597345352172852,2.4036147594451904,-0.9749440550804138
1684200656802335000,7.5433349609375,1.0775375366210938,2.566697120666504,-1.0086971521377563
1684200656812361000,7.55336083984375,0.9080545902252197,2.3464488983154297,-0.8926453590393066
1684200656822387000,7.563386962890625,0.8692778944969177,1.731685757637024,-0.7367239594459534
1684200656832413000,7.573412841796875,0.913652777671814,0.971307635307312,-0.6466438174247742
1684200656842439200,7.583439208984375,0.9853958487510681,0.9705939292907715,-0.5846131443977356
1684200656852465200,7.593465087890625,0.9982703924179077,1.1150001287460327,-0.5591623783111572
1684200656862491100,7.6034912109375,0.9811594486236572,1.1336188316345215,-0.5514166355133057
1684200656872517000,7.61351708984375,0.9539419412612915,1.0301904678344727,-0.5576124787330627
1684200656882542000,7.6235419921875,0.9358654022216797,0.8892701864242554,-0.5460399985313416
1684200656892568000,7.633568115234375,0.929796040058136,0.87137371301651,-0.5093744397163391
1684200656902594000,7.643593994140625,0.9224902987480164,0.9318369030952454,-0.48969459533691406
1684200656912620000,7.6536201171875,0.9186862111091614,0.9845166802406311,-0.46156442165374756
1684200656922646000,7.66364599609375,0.908926248550415,1.0175859928131104,-0.4164937436580658
1684200656932672000,7.673672119140625,0.8782559037208557,1.0113790035247803,-0.3687848150730133
1684200656942698000,7.683697998046875,0.8181721568107605,0.9586142301559448,-0.3248206079006195
1684200656952724000,7.693723876953125,0.7548560500144958,0.8798011541366577,-0.25634223222732544
1684200656962750000,7.70375,0.7058684825897217,0.8139933943748474,-0.17499308288097382
1684200656972776200,7.713776123046875,0.6688212752342224,0.7914108633995056,-0.09207024425268173
1684200656982801000,7.72380078125,0.6449510455131531,0.7606684565544128,0.01906389370560646
1684200656992827100,7.7338271484375,0.6296644806861877,0.6442313194274902,0.1789395809173584
1684200657002853000,7.74385302734375,0.6035531163215637,0.4828013479709625,0.3346725106239319
1684200657012879000,7.753879150390625,0.5707024931907654,0.40694066882133484,0.4421318769454956
1684200657022905000,7.763905029296875,0.5499643683433533,0.4318615794181824,0.49610695242881775
1684200657032931000,7.77393115234375,0.544233500957489,0.4670557975769043,0.5259793996810913
1684200657042957000,7.78395703125,0.5224548578262329,0.4673495590686798,0.5525301098823547
1684200657052983000,7.793983154296875,0.5005332827568054,0.41490232944488525,0.593309760093689
1684200657063009000,7.804009033203125,0.4815155267715454,0.35397985577583313,0.6632689237594604
1684200657073035000,7.814034912109375,0.4508146047592163,0.3780345916748047,0.761773407459259
1684200657083060000,7.82406005859375,0.3910328447818756,0.4589713215827942,0.8586843013763428
1684200657093086000,7.8340859375,0.2999234199523926,0.5324146151542664,0.9174925088882446
1684200657103112000,7.84411181640625,0.20376849174499512,0.5550565719604492,0.9431339502334595
1684200657113138000,7.854137939453125,0.1403873860836029,0.49059155583381653,0.9479196071624756
1684200657123164200,7.8641640625,0.10383664071559906,0.43789780139923096,0.9181435704231262
1684200657133190100,7.874190185546875,0.060851357877254486,0.4760797917842865,0.8410059213638306
1684200657143216000,7.884216064453125,-0.004595988430082798,0.6033205986022949,0.7649845480918884
1684200657153242000,7.8942421875,-0.0878693088889122,0.7682070136070251,0.750740647315979
1684200657163268000,7.90426806640625,-0.1473899632692337,0.862819254398346,0.8153579235076904
1684200657173293000,7.91429296875,-0.16524699330329895,0.8090788125991821,0.9263312816619873
1684200657183319000,7.924319091796875,-0.14521224796772003,0.6565014123916626,1.0071132183074951
1684200657193345000,7.934344970703125,-0.10992669314146042,0.45412909984588623,1.0180553197860718
1684200657203371000,7.94437109375,-0.10217947512865067,0.24619457125663757,0.9706965088844299
1684200657213397000,7.95439697265625,-0.12959831953048706,0.05051933601498604,0.9070671796798706
1684200657223423000,7.964423095703125,-0.1858915537595749,-0.13161304593086243,0.8571133613586426
1684200657233449000,7.974448974609375,-0.2442169040441513,-0.2851748764514923,0.8344245553016663
1684200657243475000,7.984474853515625,-0.2843514084815979,-0.3878612220287323,0.8017141222953796
1684200657253501200,7.994501220703125,-0.3191264271736145,-0.4307444989681244,0.7707953453063965
1684200657263527200,8.004527099609374,-0.3329487144947052,-0.4397960901260376,0.7268801331520081
1684200657273553200,8.01455322265625,-0.3488978445529938,-0.45111000537872314,0.6929173469543457
1684200657283578000,8.024578125,-0.37529227137565613,-0.47981104254722595,0.690887987613678
1684200657293604000,8.03460400390625,-0.33714327216148376,-0.5070911049842834,0.658001184463501
1684200657303630000,8.044630126953125,-0.3105282485485077,-0.5256365537643433,0.6295326352119446
1684200657313656000,8.054656005859375,-0.31627267599105835,-0.5254514813423157,0.6372172236442566
1684200657323682000,8.06468212890625,-0.37259358167648315,-0.562468945980072,0.6730542778968811
1684200657333708000,8.0747080078125,-0.49312078952789307,-0.6486043930053711,0.7130346894264221
1684200657343734000,8.084734130859376,-0.6459948420524597,-0.778336763381958,0.7340301275253296
1684200657353760000,8.094760009765626,-0.750960648059845,-0.8626455068588257,0.7406566143035889
1684200657363786000,8.104785888671875,-0.779478132724762,-0.8514354825019836,0.7415496706962585
1684200657373812000,8.11481201171875,-0.7511383891105652,-0.8031721115112305,0.7353407740592957
1684200657383837000,8.1248369140625,-0.6273295283317566,-0.7297638058662415,0.651329755783081
1684200657393863000,8.13486279296875,-0.47744739055633545,-0.6410419344902039,0.43812426924705505
1684200657403889200,8.14488916015625,-0.3949257731437683,-0.6048053503036499,0.25629109144210815
1684200657413915100,8.1549150390625,-0.34600216150283813,-0.7404622435569763,0.15744681656360626
1684200657423940400,8.1649404296875,-0.31373268365859985,-0.9077610373497009,0.08867818117141724
1684200657433966300,8.17496630859375,-0.3269057273864746,-0.8971696496009827,0.022518601268529892
1684200657443992300,8.184992431640625,-0.3810904324054718,-0.6287539601325989,-0.024815145879983902
1684200657454018600,8.1950185546875,-0.4180351495742798,-0.19848965108394623,-0.029245315119624138
1684200657464044500,8.20504443359375,-0.4191131591796875,0.11498190462589264,-0.00802849605679512
1684200657474069500,8.215069580078126,-0.4086666405200958,0.0914376974105835,0.008447416126728058
1684200657484095500,8.225095458984375,-0.40668198466300964,-0.1472085863351822,0.04872991144657135
1684200657494121500,8.23512158203125,-0.4151209890842438,-0.42789751291275024,0.13712716102600098
1684200657504147500,8.2451474609375,-0.4595235288143158,-0.7286399602890015,0.24318327009677887
1684200657514173400,8.25517333984375,-0.5038169026374817,-0.9731285572052002,0.33193498849868774
1684200657524199400,8.265199462890624,-0.5412960052490234,-1.0744107961654663,0.38370901346206665
1684200657534225400,8.275225341796874,-0.5850712060928345,-1.0398379564285278,0.38758978247642517
1684200657544251400,8.28525146484375,-0.6170802712440491,-0.9549726843833923,0.33876892924308777
1684200657554277400,8.29527734375,-0.6251283288002014,-0.8626552820205688,0.2813572883605957
1684200657564303400,8.305303466796875,-0.6180724501609802,-0.780893087387085,0.24298055469989777
1684200657574329300,8.315329345703125,-0.60359787940979,-0.6987974047660828,0.20841458439826965
1684200657584354300,8.325354248046875,-0.5834958553314209,-0.5973387360572815,0.1637592911720276
1684200657594380300,8.33538037109375,-0.5575369596481323,-0.5082647800445557,0.11849993467330933
1684200657604406500,8.345406494140626,-0.530297040939331,-0.4244701862335205,0.08547082543373108
1684200657614432500,8.3554326171875,-0.509087324142456,-0.3771122694015503,0.08313682675361633
1684200657624458500,8.36545849609375,-0.5090243220329285,-0.3261490762233734,0.08262305706739426
1684200657634484500,8.375484375,-0.5094469785690308,-0.2714650630950928,0.06675301492214203
1684200657644510500,8.385510498046875,-0.5098781585693359,-0.23514194786548615,0.02403857186436653
1684200657654536400,8.395536376953125,-0.4877028167247772,-0.20278720557689667,-0.0469043105840683
1684200657664562400,8.4055625,-0.4382227957248688,-0.1986667513847351,-0.11464692652225494
1684200657674588400,8.41558837890625,-0.3678695261478424,-0.26840588450431824,-0.13796395063400269
1684200657684613400,8.42561328125,-0.29829856753349304,-0.3502832353115082,-0.14779241383075714
1684200657694639400,8.435639404296875,-0.23924565315246582,-0.3363895118236542,-0.16602282226085663
1684200657704665300,8.445665283203125,-0.17342300713062286,-0.43034684658050537,-0.14787082374095917
1684200657714691300,8.45569140625,-0.10523437708616257,-0.5688371062278748,-0.10177522897720337
1684200657724717300,8.46571728515625,-0.03638796880841255,-0.6426805853843689,-0.037040386348962784
1684200657734743600,8.47574365234375,0.019620168954133987,-0.6595876812934875,0.03332751989364624
1684200657744769500,8.48576953125,0.045621491968631744,-0.6026914715766907,0.08226097375154495
1684200657754795500,8.49579541015625,0.058735430240631104,-0.4587380588054657,0.1223631203174591
1684200657764821500,8.505821533203125,0.06946767866611481,-0.25561657547950745,0.17097726464271545
1684200657774846500,8.515846435546875,0.07744012027978897,-0.03458486869931221,0.2560966908931732
1684200657784872400,8.52587255859375,0.07129086554050446,0.1619327813386917,0.35894322395324707
1684200657794898400,8.5358984375,0.06300950050354004,0.43371397256851196,0.46737170219421387
1684200657804924400,8.54592431640625,0.055051952600479126,0.7548898458480835,0.588638961315155
1684200657814950400,8.555950439453126,0.06927110254764557,1.062975525856018,0.6970959305763245
1684200657824976400,8.565976318359375,0.06573548913002014,1.297114610671997,0.7716917991638184
1684200657835002400,8.57600244140625,0.023221585899591446,1.4212696552276611,0.7881194949150085
1684200657845028400,8.5860283203125,-0.024851076304912567,1.4219499826431274,0.7409013509750366
1684200657855054300,8.596054443359375,-0.010553897358477116,1.2533907890319824,0.6586445569992065
1684200657865080600,8.60608056640625,0.05459589138627052,0.8737531304359436,0.588487982749939
1684200657875105300,8.616105224609376,0.16975869238376617,0.35218000411987305,0.5619314908981323
1684200657885131500,8.626131591796875,0.273975133895874,-0.1503937989473343,0.579165518283844
1684200657895157500,8.636157470703125,0.3530086874961853,-0.5080155730247498,0.5998526811599731
1684200657905183500,8.64618359375,0.40644600987434387,-0.7073256373405457,0.5962501764297485
1684200657915209500,8.65620947265625,0.4186115860939026,-0.7966882586479187,0.5399991273880005
1684200657925235500,8.6662353515625,0.4148504137992859,-0.7808335423469543,0.4769080877304077
1684200657935261400,8.676261474609374,0.4212838113307953,-0.6946238279342651,0.44873717427253723
1684200657945287400,8.686287353515626,0.4013565182685852,-0.6316794157028198,0.44996389746665955
1684200657955313400,8.6963134765625,0.33455297350883484,-0.6380022764205933,0.46605151891708374
1684200657965339400,8.70633935546875,0.22321508824825287,-0.6993929743766785,0.4865981638431549
1684200657975365400,8.716365478515625,0.12196729332208633,-0.7482954859733582,0.4708346426486969
1684200657985390300,8.726390380859375,0.060476429760456085,-0.7698172926902771,0.4106191396713257
1684200657995416300,8.736416259765624,0.031945183873176575,-0.7111973762512207,0.306881844997406
1684200658005442300,8.7464423828125,0.012308900244534016,-0.5766693949699402,0.1676056981086731
1684200658015468500,8.756468505859376,-0.01634538173675537,-0.4037282466888428,0.030296307057142258
1684200658025494500,8.76649462890625,-0.032745636999607086,-0.19894073903560638,-0.06605680286884308
1684200658035520500,8.7765205078125,-0.027848081663250923,0.013641026802361012,-0.11644753813743591
1684200658045546500,8.78654638671875,-0.014972218312323093,0.18139293789863586,-0.1150670051574707
1684200658055572500,8.796572509765625,0.002545521594583988,0.28970953822135925,-0.07227426767349243
1684200658065598500,8.806598388671874,0.010526933707296848,0.33305126428604126,-0.0009495480917394161
1684200658075623400,8.81662353515625,-0.012538970448076725,0.3246692419052124,0.09037477523088455
1684200658085649400,8.8266494140625,-0.06397827714681625,0.24672091007232666,0.17674864828586578
1684200658095675400,8.83667529296875,-0.12108203768730164,0.09461846947669983,0.2458379715681076
1684200658105701400,8.846701416015625,-0.1551354080438614,-0.1163865178823471,0.30170688033103943
1684200658115727400,8.856727294921875,-0.15944653749465942,-0.3555769920349121,0.3444615304470062
1684200658125753300,8.86675341796875,-0.14474281668663025,-0.5795650482177734,0.37123891711235046
1684200658135779300,8.876779296875,-0.12215574830770493,-0.7498504519462585,0.37801799178123474
1684200658145805600,8.8868056640625,-0.11330349743366241,-0.8347054123878479,0.38237136602401733
1684200658155831600,8.89683154296875,-0.11811316013336182,-0.8513197898864746,0.36222827434539795
1684200658165857500,8.906857421875,-0.13538901507854462,-0.8189462423324585,0.3345492482185364
1684200658175883500,8.916883544921875,-0.15426869690418243,-0.7785849571228027,0.29078471660614014
1684200658185908500,8.926908447265625,-0.15350118279457092,-0.7685930132865906,0.24343985319137573
1684200658195934500,8.9369345703125,-0.14811936020851135,-0.7953745126724243,0.17208103835582733
1684200658205960400,8.94696044921875,-0.15447933971881866,-0.7765651941299438,0.05646149069070816
1684200658215986400,8.956986328125,-0.14572207629680634,-0.6694595217704773,-0.09801249951124191
1684200658226012400,8.967012451171875,-0.13105253875255585,-0.5339447855949402,-0.2154950350522995
1684200658236038400,8.977038330078125,-0.117061085999012,-0.4617677628993988,-0.2596856355667114
1684200658246064400,8.987064453125,-0.10144001990556717,-0.4723327159881592,-0.22165769338607788
1684200658256090400,8.99709033203125,-0.08535852283239365,-0.5368679761886597,-0.14704151451587677
1684200658266116400,9.007116455078124,-0.08042780309915543,-0.6193223595619202,-0.07183485478162766
1684200658276142600,9.017142578125,-0.07698407024145126,-0.6965305805206299,-0.020199622958898544
1684200658286167300,9.027167236328125,-0.06312849372625351,-0.727377712726593,0.0018821912817656994
1684200658296193500,9.037193603515625,-0.04249325767159462,-0.7118077874183655,0.005278254859149456
1684200658306219500,9.047219482421875,-0.023796292021870613,-0.6616514921188354,0.0006551137194037437
1684200658316245500,9.05724560546875,-0.0045727952383458614,-0.5859516859054565,-0.01980382204055786
1684200658326271500,9.067271484375,0.02231418900191784,-0.4886729419231415,-0.058254435658454895
1684200658336297500,9.07729736328125,0.05885382369160652,-0.36955106258392334,-0.10885902494192123
1684200658346323500,9.087323486328126,0.10295802354812622,-0.21955594420433044,-0.16766855120658875
1684200658356349400,9.097349365234376,0.1580074280500412,-0.027814466506242752,-0.22412464022636414
1684200658366375400,9.10737548828125,0.21313932538032532,0.16427066922187805,-0.2746381461620331
1684200658376400400,9.117400390625,0.24460138380527496,0.3446801006793976,-0.32021069526672363
1684200658386426400,9.12742626953125,0.24964474141597748,0.4754893183708191,-0.35966774821281433
1684200658396452400,9.137452392578124,0.22364109754562378,0.5211822390556335,-0.3874210715293884
1684200658406478300,9.147478271484376,0.18628720939159393,0.3634902834892273,-0.3871753513813019
1684200658416504300,9.15750439453125,0.18449649214744568,-0.3554271161556244,-0.35346105694770813
1684200658426531000,9.167531005859376,0.25500744581222534,-1.879281997680664,-0.3641279637813568
1684200658436557000,9.17755712890625,0.3826122581958771,-3.2021164894104004,-0.6036220192909241
1684200658446583000,9.1875830078125,0.5197389721870422,-3.6679527759552,-1.1768089532852173
1684200658456609000,9.197609130859375,0.6799547672271729,-3.2476255893707275,-2.25700044631958
1684200658466635000,9.207635009765625,0.8328247666358948,-2.258997917175293,-3.320199728012085
1684200658476661000,9.217660888671874,0.8419708609580994,-1.3629869222640991,-3.6276090145111084
1684200658486686000,9.22768603515625,0.7230730652809143,-1.4048428535461426,-3.479053020477295
1684200658496712000,9.2377119140625,0.6820508241653442,-1.8939297199249268,-3.160170316696167
1684200658506738200,9.24773828125,0.8080463409423828,-2.410386085510254,-2.8863658905029297
1684200658516764200,9.25776416015625,0.9708760380744934,-2.175851821899414,-2.7334954738616943
1684200658526790100,9.2677900390625,1.0623931884765625,-1.2450776100158691,-2.5462851524353027
1684200658536816000,9.277816162109374,1.0784393548965454,-0.06583386659622192,-2.2166638374328613
1684200658546842000,9.287842041015624,1.0098398923873901,1.2009849548339844,-1.712928056716919
1684200658556868000,9.2978681640625,0.8960475325584412,2.3499770164489746,-1.2116026878356934
1684200658566894000,9.30789404296875,0.7548840045928955,3.482900619506836,-0.7056125998497009
1684200658576920000,9.317920166015625,0.6918469667434692,4.280893325805664,-0.3199858069419861
1684200658586945000,9.327945068359375,0.786893367767334,4.235905647277832,-0.349020779132843
1684200658596971000,9.337970947265624,0.9411830902099609,3.3361215591430664,-0.6288390755653381
1684200658606997000,9.3479970703125,1.0975761413574219,2.2261977195739746,-0.885513186454773
1684200658617023000,9.35802294921875,1.2485328912734985,1.4536192417144775,-0.8901526927947998
1684200658627049000,9.368049072265626,1.3452835083007812,1.10690438747406,-0.8096268177032471
1684200658637075200,9.3780751953125,1.3914440870285034,1.1354858875274658,-0.7410693168640137
1684200658647101200,9.38810107421875,1.3231041431427002,1.4543834924697876,-0.7104380130767822
1684200658657127200,9.398127197265625,1.160599946975708,1.890771746635437,-0.7043862342834473
1684200658667153200,9.408153076171875,0.9592885375022888,2.236142635345459,-0.7186351418495178
1684200658677179100,9.41817919921875,0.7729058861732483,2.290252208709717,-0.7180018424987793
1684200658687204000,9.4282041015625,0.6896851062774658,2.0900444984436035,-0.6728983521461487
1684200658697230000,9.43822998046875,0.7303268313407898,1.747747778892517,-0.5982483625411987
1684200658707256000,9.448256103515625,0.8373936414718628,1.4435412883758545,-0.5459601879119873
1684200658717282000,9.458281982421875,0.919636607170105,1.2426859140396118,-0.5164587497711182
1684200658727308000,9.46830810546875,0.9209432005882263,1.1611671447753906,-0.5100399255752563
1684200658737334000,9.478333984375,0.8489142656326294,1.1827267408370972,-0.48350101709365845
1684200658747360000,9.488360107421874,0.7680556178092957,1.2038204669952393,-0.4495629072189331
1684200658757386000,9.498385986328126,0.7131481170654297,1.1887192726135254,-0.3955819606781006
1684200658767412200,9.508412109375,0.6878258585929871,1.1226671934127808,-0.3206861615180969
1684200658777438200,9.518438232421875,0.6862378120422363,1.0448880195617676,-0.24274343252182007
1684200658787463000,9.528462890625,0.6881455779075623,1.0297412872314453,-0.18568098545074463
1684200658797489200,9.5384892578125,0.666719913482666,0.9970678091049194,-0.15606024861335754
1684200658807515100,9.54851513671875,0.6744040250778198,0.9645721316337585,-0.10156814008951187
1684200658817541000,9.558541015625,0.6822094321250916,0.8572001457214355,-0.028889143839478493
1684200658827567000,9.568567138671876,0.6516743302345276,0.7011628746986389,0.04455077275633812
1684200658837593000,9.578593017578125,0.5923433899879456,0.6227322816848755,0.10966132581233978
1684200658847619000,9.588619140625,0.528419017791748,0.5789963603019714,0.14851711690425873
1684200658857645000,9.59864501953125,0.4664137363433838,0.5555906295776367,0.19499433040618896
1684200658867671000,9.608671142578125,0.39019280672073364,0.5233961939811707,0.23969458043575287
1684200658877697000,9.618697021484374,0.30240464210510254,0.49255016446113586,0.2763577997684479
1684200658887722000,9.628721923828126,0.21002165973186493,0.47102057933807373,0.3173850178718567
1684200658897748000,9.638748046875,0.12783172726631165,0.45814552903175354,0.3579265773296356
1684200658907774000,9.64877392578125,0.07575932890176773,0.43470117449760437,0.4251042306423187
1684200658917800000,9.658800048828125,0.048287488520145416,0.40136903524398804,0.5280418395996094
1684200658927826200,9.668826171875,0.026954492554068565,0.31137120723724365,0.6265667080879211
1684200658937852200,9.67885205078125,0.006030302494764328,0.1818840503692627,0.7208282351493835
1684200658947878100,9.688878173828124,-0.01814146339893341,0.05592406541109085,0.8074596524238586
1684200658957904100,9.698904052734376,-0.06098400056362152,-0.06746285408735275,0.868919849395752
1684200658967930000,9.70893017578125,-0.1010918915271759,-0.14854834973812103,0.9042823314666748
1684200658977956000,9.7189560546875,-0.1450178027153015,-0.21001490950584412,0.9205247163772583
1684200658987982000,9.728982177734375,-0.18182474374771118,-0.2779068648815155,0.9268250465393066
1684200658998007000,9.739007080078125,-0.20048338174819946,-0.3553033769130707,0.9366294741630554
1684200659008033000,9.749032958984374,-0.208118736743927,-0.4455782473087311,0.9844956398010254
1684200659018059000,9.75905908203125,-0.2190249115228653,-0.5537947416305542,1.0317422151565552
1684200659028085000,9.7690849609375,-0.23072673380374908,-0.6847985982894897,1.0661942958831787
1684200659038111000,9.779111083984375,-0.23369084298610687,-0.8106470704078674,1.0807087421417236
1684200659048137000,9.789136962890625,-0.2448795735836029,-0.9203300476074219,1.1010385751724243
1684200659058163200,9.7991630859375,-0.26910609006881714,-1.0042099952697754,1.1343618631362915
1684200659068189200,9.809189208984375,-0.30234086513519287,-1.0434924364089966,1.1578176021575928
1684200659078215200,9.819215087890624,-0.33553022146224976,-1.0390965938568115,1.1584908962249756
1684200659088241200,9.8292412109375,-0.3599017560482025,-0.996147632598877,1.146600365638733
1684200659098266000,9.83926611328125,-0.39493513107299805,-0.9403107166290283,1.1430420875549316
1684200659108292000,9.8492919921875,-0.45242398977279663,-0.9259735345840454,1.162259578704834
1684200659118318000,9.859318115234375,-0.5307571291923523,-0.9887503981590271,1.223914623260498
1684200659128344000,9.869343994140625,-0.6292623281478882,-1.1446728706359863,1.29653000831604
1684200659138370000,9.8793701171875,-0.7669597268104553,-1.3386476039886475,1.3645884990692139
1684200659148396000,9.88939599609375,-0.8754324913024902,-1.477903962135315,1.3754732608795166
1684200659158422000,9.899422119140626,-0.9723595976829529,-1.5451024770736694,1.324182391166687
1684200659168448000,9.909447998046875,-1.09811532497406,-1.5781675577163696,1.2102118730545044
1684200659178474000,9.919473876953125,-1.200453519821167,-1.4831446409225464,1.0200411081314087
1684200659188500200,9.929500244140625,-0.90691077709198,-0.8744238018989563,0.36890947818756104
1684200659198525000,9.93952490234375,-0.09606610983610153,0.2168954312801361,-0.32965365052223206
1684200659208551200,9.94955126953125,0.44082218408584595,0.595706582069397,-0.30278700590133667
1684200659218577200,9.9595771484375,0.4452129602432251,0.22752192616462708,-0.054293569177389145
1684200659228603100,9.96960302734375,0.14991064369678497,-0.24019086360931396,0.06774620711803436
1684200659238629000,9.979629150390625,-0.2076014131307602,-0.38265055418014526,0.11132937669754028
1684200659248655000,9.989655029296875,-0.42420047521591187,-0.32314062118530273,0.19884127378463745
1684200659258681000,9.99968115234375,-0.5669406056404114,-0.3717193305492401,0.30277830362319946
1684200659268707000,10.00970703125,-0.7121272087097168,-0.5331908464431763,0.40000900626182556
1684200659278733000,10.019733154296874,-0.8651207089424133,-0.6538698673248291,0.5003326535224915
1684200659288759000,10.029759033203124,-0.970116913318634,-0.6583650708198547,0.5874491333961487
1684200659298785000,10.039784912109376,-1.0134217739105225,-0.6267685294151306,0.624785840511322
1684200659308810000,10.04981005859375,-1.0055232048034668,-0.6120606064796448,0.5586258769035339
1684200659318836000,10.0598359375,-0.9520195126533508,-0.6178300380706787,0.46433743834495544
1684200659328862000,10.069862060546875,-0.8724892735481262,-0.6823769211769104,0.3924400210380554
1684200659338888200,10.07988818359375,-0.7884857058525085,-0.8017352819442749,0.38178151845932007
1684200659348914200,10.0899140625,-0.6948935389518738,-0.9767576456069946,0.4174206554889679
1684200659358940200,10.099940185546876,-0.5958966612815857,-1.2025609016418457,0.47583281993865967
1684200659368966100,10.109966064453126,-0.5022475719451904,-1.4171850681304932,0.5142725706100464
1684200659378992000,10.1199921875,-0.41051286458969116,-1.4452390670776367,0.49407830834388733
1684200659389018000,10.13001806640625,-0.3209061324596405,-1.2130651473999023,0.37364712357521057
1684200659399044000,10.140044189453125,-0.22943241894245148,-0.7042625546455383,0.14735352993011475
1684200659409069000,10.150069091796874,-0.16952356696128845,-0.03671129047870636,-0.10192308574914932
1684200659419095000,10.160094970703126,-0.1502545326948166,0.5678640604019165,-0.2658124268054962
1684200659429120500,10.17012060546875,-0.15850909054279327,1.0466145277023315,-0.3465214967727661
1684200659439146500,10.180146484375,-0.15211883187294006,1.3963096141815186,-0.36047619581222534
1684200659449172500,10.19017236328125,-0.144293874502182,1.5242375135421753,-0.28517988324165344
1684200659459198700,10.20019873046875,-0.14279425144195557,1.6415215730667114,-0.21485644578933716
1684200659469224700,10.210224609375,-0.1412583291530609,1.71800696849823,-0.1468239277601242
1684200659479250700,10.220250732421874,-0.12100259959697723,1.6872146129608154,-0.07545600831508636
1684200659489276700,10.230276611328126,-0.0607808493077755,1.5157707929611206,0.0017357687465846539
1684200659499302700,10.240302734375,0.011137282475829124,1.2550140619277954,0.09975314885377884
1684200659509327600,10.25032763671875,0.06380762904882431,0.9246252775192261,0.22057346999645233
1684200659519353600,10.260353515625,0.12226428091526031,0.5715748071670532,0.3288852870464325
1684200659529379600,10.270379638671875,0.16766566038131714,0.30097389221191406,0.4176214635372162
1684200659539405600,10.280405517578124,0.21893469989299774,0.07003071904182434,0.4899260103702545
1684200659549431600,10.290431640625,0.26136234402656555,-0.08584675937891006,0.5387004613876343
1684200659559457500,10.30045751953125,0.2738341987133026,-0.20926696062088013,0.5703552961349487
1684200659569483500,10.3104833984375,0.25279706716537476,-0.3135052025318146,0.575910747051239
1684200659579509500,10.320509521484375,0.2111329883337021,-0.3681260943412781,0.564624011516571
1684200659589535700,10.33053564453125,0.14639711380004883,-0.3652336895465851,0.5383973121643066
1684200659599561700,10.340561767578125,0.0945269763469696,-0.36530640721321106,0.5152952671051025
1684200659609587700,10.350587646484374,0.07571392506361008,-0.33627888560295105,0.5068476796150208
1684200659619612700,10.36061279296875,0.0648205354809761,-0.32378891110420227,0.5069501996040344
1684200659629638700,10.370638671875,0.06105255335569382,-0.324133038520813,0.5129252076148987
1684200659639664600,10.38066455078125,0.055079083889722824,-0.3171062767505646,0.5259693264961243
1684200659649690600,10.390690673828125,0.053933367133140564,-0.2756713330745697,0.5366274118423462
1684200659659716600,10.400716552734375,0.026482300832867622,-0.20917993783950806,0.5380361676216125
1684200659669742600,10.41074267578125,0.007787096314132214,-0.10100099444389343,0.5553447604179382
1684200659679768600,10.4207685546875,-0.003496983554214239,-0.0017218076391145587,0.588158130645752
1684200659689794600,10.430794677734376,-0.01254773698747158,0.030545052140951157,0.6074492335319519
1684200659699820500,10.440820556640626,-0.02542571723461151,0.008881301619112492,0.5676085948944092
1684200659709846500,10.450846435546875,-0.03724692016839981,-0.007859394885599613,0.4340553283691406
1684200659719871500,10.46087158203125,-0.035283371806144714,0.013110601343214512,0.244262233376503
1684200659729897500,10.4708974609375,-0.01935589872300625,0.061158470809459686,0.06429033726453781
1684200659739923700,10.480923828125,-0.0003885994665324688,0.11184907704591751,-0.042860087007284164
1684200659749949700,10.49094970703125,0.028914427384734154,0.14456655085086823,-0.0703955739736557
1684200659759975700,10.5009755859375,0.05713248252868652,0.1404879093170166,-0.034971803426742554
1684200659770001700,10.511001708984375,0.08368213474750519,0.08504097163677216,0.030401557683944702
1684200659780027600,10.521027587890625,0.10329338908195496,0.00386675912886858,0.1006150022149086
1684200659790053600,10.5310537109375,0.11747276037931442,-0.07612192630767822,0.16431322693824768
1684200659800079600,10.54107958984375,0.12532562017440796,-0.12946318089962006,0.20985755324363708
1684200659810105600,10.551105712890624,0.12422926723957062,-0.1619182527065277,0.245071142911911
1684200659820130600,10.561130615234376,0.10097774118185043,-0.1623062789440155,0.27516379952430725
1684200659830156500,10.571156494140626,0.05971331521868706,-0.148102805018425,0.3099304735660553
1684200659840182500,10.5811826171875,0.005340890027582645,-0.11376427859067917,0.3509655296802521
1684200659850208500,10.59120849609375,-0.035121094435453415,-0.1297699362039566,0.3845169246196747
1684200659860234500,10.601234375,-0.062263768166303635,-0.22087854146957397,0.4039763808250427
1684200659870260700,10.6112607421875,-0.05679958686232567,-0.3641692101955414,0.39262357354164124
1684200659880286700,10.62128662109375,-0.036017876118421555,-0.5014540553092957,0.3437705636024475
1684200659890312700,10.631312744140626,-0.02494332753121853,-0.5683565735816956,0.24912554025650024
1684200659900338700,10.641338623046876,-0.016810299828648567,-0.572583019733429,0.15328529477119446
1684200659910364700,10.65136474609375,-0.03365831449627876,-0.5378749370574951,0.08551689982414246
1684200659920390700,10.661390625,-0.0628122016787529,-0.5156324505805969,0.07433268427848816
1684200659930415600,10.67141552734375,-0.1156911849975586,-0.4801414906978607,0.10271426290273666
1684200659940441600,10.681441650390624,-0.17035816609859467,-0.42370113730430603,0.1289176344871521
1684200659950467600,10.691467529296874,-0.2003021389245987,-0.3498031198978424,0.14200302958488464
1684200659960493600,10.70149365234375,-0.2131899744272232,-0.27497708797454834,0.12726536393165588
1684200659970519600,10.71151953125,-0.21652039885520935,-0.2364707589149475,0.10650543123483658
1684200659980545500,10.721545654296875,-0.20416173338890076,-0.26625633239746094,0.08310316503047943
1684200659990571500,10.731571533203125,-0.15950539708137512,-0.39120927453041077,0.07776220142841339
1684200660000597800,10.74159765625,-0.0843411386013031,-0.5844133496284485,0.08658259361982346
1684200660010623700,10.751623779296875,-0.0341363400220871,-0.7824674844741821,0.10613370686769485
1684200660020649700,10.761649658203124,-0.023165712133049965,-0.9093670845031738,0.11856108158826828
1684200660030674700,10.7716748046875,-0.010343854315578938,-0.9560078978538513,0.11485087871551514
1684200660040700700,10.78170068359375,0.010442650876939297,-0.9327848553657532,0.11110540479421616
1684200660050726700,10.7917265625,0.019352002069354057,-0.8637435436248779,0.11550728976726532
1684200660060752600,10.801752685546875,0.006782147102057934,-0.7816188335418701,0.11829216033220291
1684200660070778600,10.811778564453125,-0.024941125884652138,-0.7064458727836609,0.11948253214359283
1684200660080804600,10.8218046875,-0.06274975836277008,-0.6344994902610779,0.11786945164203644
1684200660090830600,10.83183056640625,-0.10385068506002426,-0.5709503293037415,0.10423503816127777
1684200660100856600,10.841856689453126,-0.12796534597873688,-0.5051129460334778,0.07572483271360397
1684200660110882600,10.851882568359375,-0.1274339258670807,-0.4154309928417206,0.031852442771196365
1684200660120908500,10.861908447265625,-0.09872903674840927,-0.31601065397262573,-0.019769471138715744
1684200660130934800,10.871934814453125,-0.05104777216911316,-0.2281639575958252,-0.07544977962970734
1684200660140959500,10.88195947265625,0.015118465758860111,-0.1358979493379593,-0.12642693519592285
1684200660150985700,10.89198583984375,0.08839299529790878,-0.031136952340602875,-0.1712034046649933
1684200660161011700,10.90201171875,0.16035692393779755,0.09525453299283981,-0.21814055740833282
1684200660171037700,10.91203759765625,0.2122896909713745,0.2135787457227707,-0.2606253921985626
1684200660181063700,10.922063720703125,0.24155783653259277,0.27827972173690796,-0.27501311898231506
1684200660191089700,10.932089599609375,0.25912925601005554,0.23833191394805908,-0.24298518896102905
1684200660201115600,10.94211572265625,0.2808806300163269,0.02110878936946392,-0.17082230746746063
1684200660211141600,10.9521416015625,0.2951778173446655,-0.3488213121891022,-0.09896745532751083
1684200660221167600,10.962167724609374,0.3034522533416748,-0.715430736541748,-0.08069045096635818
1684200660231193600,10.972193603515626,0.31538262963294983,-1.0777807235717773,-0.13316792249679565
1684200660241218600,10.982218505859375,0.33800700306892395,-1.6517564058303833,-0.2396528273820877
1684200660251244500,10.99224462890625,0.3807491362094879,-2.4386980533599854,-0.4545659124851227
1684200660261270500,11.0022705078125,0.42949721217155457,-2.8524575233459473,-0.8781232833862305
1684200660271296500,11.012296630859375,0.4891069531440735,-2.595003128051758,-1.470933198928833
1684200660281322800,11.02232275390625,0.5552465915679932,-1.8270713090896606,-2.198664426803589
1684200660291348700,11.0323486328125,0.5650954842567444,-0.9388924837112427,-2.7972590923309326
1684200660301374700,11.042374755859376,0.4868182837963104,-0.23758363723754883,-2.9902825355529785
1684200660311400700,11.052400634765625,0.41307443380355835,0.2891104221343994,-2.8348190784454346
1684200660321426700,11.0624267578125,0.42238643765449524,0.6547661423683167,-2.545398712158203
1684200660331452700,11.07245263671875,0.46386486291885376,0.9132492542266846,-2.3024306297302246
1684200660341478700,11.082478759765625,0.4037589132785797,0.9908410310745239,-2.1691222190856934
1684200660351503600,11.092503662109374,0.3999389708042145,1.0096454620361328,-2.117990255355835
1684200660361529600,11.102529541015626,0.43661069869995117,0.869161069393158,-2.0251877307891846
1684200660371555600,11.1125556640625,0.5029410123825073,0.5322352051734924,-1.7746469974517822
1684200660381581600,11.12258154296875,0.5862289667129517,0.14901937544345856,-1.4221856594085693
1684200660391607600,11.132607666015625,0.6926416158676147,-0.28991779685020447,-1.2235829830169678
1684200660401633500,11.142633544921875,0.9939082860946655,-0.5344955921173096,-1.1760780811309814
1684200660411659800,11.15265966796875,1.4187437295913696,-0.45270928740501404,-1.3108325004577637
1684200660421685800,11.162685791015624,1.801639199256897,0.08183372765779495,-1.4313162565231323
1684200660431711700,11.172711669921876,1.9358651638031006,0.7731505036354065,-1.5253467559814453
1684200660441737700,11.18273779296875,1.8145861625671387,1.4763197898864746,-1.5960140228271484
1684200660451762700,11.1927626953125,1.6491143703460693,2.0624377727508545,-1.6016899347305298
1684200660461788700,11.20278857421875,1.5444329977035522,2.4532430171966553,-1.5371099710464478
1684200660471814700,11.212814697265625,1.5268187522888184,2.6163363456726074,-1.4174498319625854
1684200660481840600,11.222840576171874,1.5593852996826172,2.4763729572296143,-1.2429131269454956
1684200660491866600,11.23286669921875,1.60457444190979,2.320497751235962,-1.0950779914855957
1684200660501892900,11.242892822265626,1.637310266494751,2.215205669403076,-1.0196399688720703
1684200660511918800,11.2529189453125,1.628443717956543,2.3449575901031494,-1.0311880111694336
1684200660521944800,11.26294482421875,1.5739357471466064,2.4838106632232666,-1.1443246603012085
1684200660531970800,11.272970703125,1.446885347366333,2.521334409713745,-1.2380677461624146
1684200660541996800,11.282996826171875,1.2908345460891724,2.403615951538086,-1.1754592657089233
1684200660552022800,11.293022705078124,1.0992387533187866,2.060863494873047,-1.038006067276001
1684200660562047700,11.3030478515625,0.9584581255912781,1.8213465213775635,-0.873679518699646
1684200660572073700,11.31307373046875,0.8562109470367432,1.5700522661209106,-0.7075090408325195
1684200660582099700,11.323099609375,0.7811535000801086,1.2037323713302612,-0.5690827369689941
1684200660592125700,11.333125732421875,0.7230232954025269,0.8579573035240173,-0.44835591316223145
1684200660602151700,11.343151611328125,0.6904075741767883,0.5867106318473816,-0.32081472873687744
1684200660612177700,11.353177734375,0.6935521364212036,0.36411252617836,-0.18525201082229614
1684200660622203600,11.36320361328125,0.7288315296173096,0.20743608474731445,-0.009328652173280716
1684200660632230000,11.37322998046875,0.7859383225440979,0.1196938306093216,0.2055370956659317
1684200660642256000,11.383255859375,0.7502884268760681,0.17470034956932068,0.39679279923439026
1684200660652281900,11.39328173828125,0.5771429538726807,0.37166228890419006,0.519830048084259
1684200660662306800,11.403306884765625,0.36023038625717163,0.5825015306472778,0.5814990401268005
1684200660672332800,11.413332763671875,0.20106971263885498,0.7396280765533447,0.6011523008346558
1684200660682358800,11.42335888671875,0.09404393285512924,0.784439206123352,0.6120235919952393
1684200660692384800,11.433384765625,0.015206269919872284,0.6977812647819519,0.6214059591293335
1684200660702410800,11.44341064453125,-0.037201277911663055,0.47703665494918823,0.6515523791313171
1684200660712436700,11.453436767578125,-0.07488942891359329,0.16267767548561096,0.7256923913955688
1684200660722462700,11.463462646484375,-0.105469711124897,-0.15825533866882324,0.8312118649482727
1684200660732488700,11.47348876953125,-0.14128287136554718,-0.45188823342323303,0.9407779574394226
1684200660742514700,11.4835146484375,-0.17169830203056335,-0.6862435340881348,1.0372449159622192
1684200660752540700,11.493540771484374,-0.18833613395690918,-0.8710018992424011,1.10294771194458
1684200660762567000,11.50356689453125,-0.18736658990383148,-1.0147558450698853,1.1459718942642212
1684200660772591600,11.513591552734376,-0.16712111234664917,-1.1227221488952637,1.1831433773040771
1684200660782617900,11.523617919921875,-0.12770500779151917,-1.1584889888763428,1.2001535892486572
1684200660792643800,11.533643798828125,-0.08970789611339569,-1.104002594947815,1.2140302658081055
1684200660802669800,11.543669921875,-0.0757521316409111,-1.031083345413208,1.21688973903656
1684200660812695800,11.55369580078125,-0.06000709533691406,-0.988201379776001,1.2029385566711426
1684200660822721800,11.5637216796875,-0.08447755128145218,-0.9634366035461426,1.1668781042099
1684200660832747800,11.573747802734376,-0.19139131903648376,-0.895656406879425,1.0954562425613403
1684200660842773800,11.583773681640626,-0.31355318427085876,-0.8133305907249451,1.0561696290969849
1684200660852799700,11.5937998046875,-0.37710705399513245,-0.7369259595870972,1.074212670326233
1684200660862825700,11.60382568359375,-0.404153048992157,-0.6383548974990845,1.1522516012191772
1684200660872850700,11.6138505859375,-0.4569728374481201,-0.5706861019134521,1.2827156782150269
1684200660882876700,11.623876708984374,-0.5423774719238281,-0.5610081553459167,1.438019037246704
1684200660892902700,11.633902587890624,-0.6442584991455078,-0.6296976804733276,1.572782278060913
1684200660902928600,11.6439287109375,-0.7176360487937927,-0.7430481910705566,1.5991060733795166
1684200660912955000,11.653954833984375,-0.7430126667022705,-0.7948459982872009,1.4647561311721802
1684200660922980900,11.66398095703125,-0.7174942493438721,-0.7481150031089783,1.1667982339859009
1684200660933006800,11.6740068359375,-0.6743388772010803,-0.6896046996116638,0.8508556485176086
1684200660943032800,11.68403271484375,-0.682868480682373,-0.5700556635856628,0.6785538792610168
1684200660953058800,11.694058837890625,-0.8248059749603271,-0.48239871859550476,0.70502108335495
1684200660963084800,11.704084716796874,-1.0275465250015259,-0.4782055616378784,0.8077842593193054
1684200660973110800,11.71411083984375,-1.2167788743972778,-0.5410661101341248,0.8682860136032104
1684200660983135700,11.7241357421875,-1.362436294555664,-0.6285021901130676,0.8693256974220276
1684200660993161700,11.73416162109375,-1.4681216478347778,-0.7349266409873962,0.8327242732048035
1684200661003187700,11.744187744140625,-1.5470598936080933,-0.8208857774734497,0.7974249124526978
1684200661013213700,11.754213623046875,-1.4948296546936035,-0.7476219534873962,0.7176555395126343
1684200661023239700,11.76423974609375,-1.0926904678344727,-0.5037482976913452,0.5302307605743408
1684200661033265700,11.774265625,-0.4434170424938202,-0.10985691845417023,0.30366775393486023
1684200661043292000,11.7842919921875,0.08058546483516693,0.24648922681808472,0.19810272753238678
1684200661053318000,11.79431787109375,0.2519225776195526,0.41931411623954773,0.0781407430768013
1684200661063343900,11.80434375,0.021759936586022377,0.48425769805908203,-0.05429026484489441
1684200661073369900,11.814369873046875,-0.3465639352798462,0.3768289089202881,-0.10267500579357147
1684200661083395800,11.824395751953125,-0.5709571242332458,0.16293607652187347,0.001654063817113638
1684200661093420800,11.8344208984375,-0.6093558669090271,0.0510433204472065,0.18793994188308716
1684200661103446800,11.84444677734375,-0.5483777523040771,0.10319547355175018,0.3587742745876312
1684200661113472800,11.85447265625,-0.46297767758369446,0.1982591301202774,0.4584057927131653
1684200661123498800,11.864498779296875,-0.42242759466171265,0.13174694776535034,0.48730480670928955
1684200661133524700,11.874524658203125,-0.40336447954177856,-0.1813405305147171,0.4757317900657654
1684200661143550700,11.88455078125,-0.3694522976875305,-0.6362355947494507,0.42403796315193176
1684200661153576700,11.89457666015625,-0.34275591373443604,-1.0520741939544678,0.34110844135284424
1684200661163602700,11.904602783203124,-0.3448784649372101,-1.266466736793518,0.226675882935524
1684200661173629000,11.91462890625,-0.36944833397865295,-1.2575410604476929,0.11096436530351639
1684200661183655000,11.924655029296876,-0.4078258275985718,-1.0650887489318848,0.023684052750468254
1684200661193680000,11.934679931640625,-0.46866634488105774,-0.7828346490859985,-0.027602996677160263
1684200661203705900,11.944705810546875,-0.5370834469795227,-0.49111148715019226,-0.026847459375858307
1684200661213731800,11.95473193359375,-0.5797479748725891,-0.1964675486087799,-0.02174910344183445
1684200661223757800,11.9647578125,-0.5847656726837158,0.06954815238714218,-0.01602570340037346
1684200661233783800,11.97478369140625,-0.5718439221382141,0.2509377598762512,-0.0028326173778623343
1684200661243809800,11.984809814453126,-0.5451502799987793,0.33995258808135986,0.01791633665561676
1684200661253835800,11.994835693359375,-0.5172677636146545,0.38662421703338623,0.025891494005918503
1684200661263861800,12.00486181640625,-0.5038520693778992,0.40923550724983215,0.04170507565140724
1684200661273887700,12.0148876953125,-0.5116370916366577,0.46149298548698425,0.05137096717953682
1684200661283913700,12.024913818359375,-0.5354937314987183,0.6411940455436707,0.03037567064166069
1684200661293939700,12.034939697265624,-0.5770370364189148,0.9560529589653015,-0.02955418825149536
1684200661303964700,12.044964599609376,-0.6139609217643738,1.3717548847198486,-0.06951119750738144
1684200661313990700,12.05499072265625,-0.5816102027893066,1.6192280054092407,-0.00826322752982378
1684200661324017000,12.065016845703125,-0.4537885785102844,1.4295456409454346,0.19535860419273376
1684200661334043000,12.07504296875,-0.3141864836215973,0.9936378598213196,0.42573225498199463
1684200661344068900,12.08506884765625,-0.21423059701919556,0.5062429308891296,0.47381776571273804
1684200661354094800,12.0950947265625,-0.10894674807786942,0.049163006246089935,0.359458327293396
1684200661364120800,12.105120849609374,-0.014851139858365059,-0.3744044899940491,0.22474925220012665
1684200661374146800,12.115146728515626,0.04470561817288399,-0.689625084400177,0.12733225524425507
1684200661384172800,12.1251728515625,0.0674319714307785,-0.9910221695899963,0.049290187656879425
1684200661394198800,12.13519873046875,0.08585754781961441,-1.2053757905960083,0.009553320705890656
1684200661404223700,12.1452236328125,0.12432344257831573,-1.2073678970336914,0.0467853769659996
1684200661414249700,12.155249755859375,0.1204189881682396,-1.0732618570327759,0.12981005012989044
1684200661424275700,12.165275634765624,0.09204939752817154,-0.8069692254066467,0.24265937507152557
1684200661434302000,12.175302001953124,0.06260425597429276,-0.42086440324783325,0.38708680868148804
1684200661444328000,12.185327880859376,0.05218783766031265,-0.005500756204128265,0.5243703722953796
1684200661454354000,12.19535400390625,0.03449920564889908,0.1989074945449829,0.5446403622627258
1684200661464380000,12.2053798828125,-0.008932691998779774,0.11223519593477249,0.44519129395484924
1684200661474406000,12.215406005859375,-0.05585175380110741,-0.0006347455782815814,0.3656483590602875
1684200661484431600,12.225431640625,-0.07717329263687134,-0.23191669583320618,0.3488669693470001
1684200661494457600,12.23545751953125,-0.11839421093463898,-0.5710098743438721,0.3326783776283264
1684200661504483600,12.245483642578124,-0.14280955493450165,-0.5850785970687866,0.2865199148654938
1684200661514508800,12.2555087890625,-0.08280942589044571,-0.17692527174949646,0.21385154128074646
1684200661524534800,12.26553466796875,-0.04257359355688095,0.053139884024858475,-0.040292851626873016
1684200661534560800,12.275560791015625,-0.04108021780848503,0.022863350808620453,-0.36308538913726807
1684200661544586800,12.285586669921875,-0.09147149324417114,0.2839761972427368,-0.4090113341808319
1684200661554612700,12.29561279296875,-0.10733916610479355,0.6558940410614014,-0.22661447525024414
1684200661564639000,12.305638916015624,-0.08225218951702118,1.0499393939971924,0.02131064236164093
1684200661574664700,12.315664794921876,-0.06536543369293213,1.3285776376724243,0.2124687284231186
1684200661584690700,12.325690673828126,-0.07764260470867157,1.3383288383483887,0.2934594452381134
1684200661594716700,12.335716552734375,-0.08107059448957443,1.2243719100952148,0.3105756938457489
1684200661604742700,12.34574267578125,-0.09226066619157791,0.898518979549408,0.3140825629234314
1684200661614768600,12.3557685546875,-0.12753510475158691,0.3316183090209961,0.34490424394607544
1684200661624793900,12.3657939453125,-0.10890521854162216,-0.3180888593196869,0.36845219135284424
1684200661634819800,12.37581982421875,-0.038929786533117294,-0.684348464012146,0.3575383424758911
1684200661644845800,12.385845703125,-0.010815060697495937,-0.6430356502532959,0.32147783041000366
1684200661654871800,12.395871826171875,0.028309322893619537,-0.36728572845458984,0.24922795593738556
1684200661664897800,12.405897705078125,-0.006739474833011627,-0.06421216577291489,0.17797055840492249
1684200661674923800,12.415923828125,-0.07409791648387909,0.16095684468746185,0.1414165496826172
1684200661684949800,12.42594970703125,-0.13691923022270203,0.27295687794685364,0.126692995429039
1684200661694975700,12.435975830078124,-0.18398448824882507,0.40585410594940186,0.14308618009090424
1684200661705001700,12.446001708984374,-0.19983190298080444,0.6698556542396545,0.24442505836486816
1684200661715027700,12.45602783203125,-0.16750957071781158,1.037550687789917,0.4016478955745697
1684200661725053000,12.466052978515625,-0.14761708676815033,1.4475198984146118,0.5668267607688904
1684200661735079000,12.476078857421875,-0.17681719362735748,1.8411425352096558,0.7054651975631714
1684200661745105000,12.48610498046875,-0.2658708989620209,2.2707433700561523,0.73866868019104
1684200661755131000,12.496130859375,-0.4791352152824402,2.715139627456665,0.6590587496757507
1684200661765156900,12.506156982421874,-0.8163116574287415,3.0879058837890625,0.553246796131134
1684200661775182800,12.516182861328126,-1.1074531078338623,3.332179546356201,0.4495493471622467
