time,seconds_elapsed,z,y,x
1684200607860992800,0.02499267578125,0.33677712082862854,2.6674411296844482,-0.3572215735912323
1684200607871018800,0.035018798828125,0.2927931547164917,3.2164196968078613,0.07846862822771072
1684200607881044700,0.045044677734375,0.2115827053785324,3.6103646755218506,0.42690134048461914
1684200607891070700,0.05507080078125,0.034181028604507446,3.670698642730713,0.6680777072906494
1684200607901096700,0.0650966796875,-0.19021442532539368,3.529595375061035,0.8183491826057434
1684200607911122700,0.075122802734375,-0.457299143075943,3.2177867889404297,0.8267202973365784
1684200607921147600,0.085147705078125,-0.7789620161056519,2.925919532775879,0.6721606254577637
1684200607931173600,0.095173583984375,-1.4271777868270874,1.8797550201416016,0.16537173092365265
1684200607941199600,0.10519970703125,-2.1170971393585205,1.8894952535629272,-0.38744285702705383
1684200607951225600,0.1152255859375,-2.6498494148254395,2.323077917098999,-0.8021796345710754
1684200607961251600,0.12525146484375,-3.094412088394165,3.159630298614502,-0.9319599866867065
1684200607971277600,0.135277587890625,-3.511601448059082,4.398489952087402,-0.7823944687843323
1684200607981303600,0.145303466796875,-3.9615323543548584,5.724479675292969,-0.42998626828193665
1684200607991329800,0.155329833984375,-4.383878707885742,6.767127990722656,0.02321474999189377
1684200608001354500,0.1653544921875,-4.803065776824951,7.490895748138428,0.5281326770782471
1684200608011380500,0.17538037109375,-5.1697916984558105,7.927432537078857,1.079166054725647
1684200608021406700,0.18540673828125,-5.65922212600708,7.932096481323242,1.428671956062317
1684200608031432700,0.1954326171875,-6.203429698944092,7.577980995178223,1.4752681255340576
1684200608041458700,0.205458740234375,-6.726996421813965,7.157383441925049,1.3703826665878296
1684200608051484700,0.215484619140625,-7.191135883331299,6.647475242614746,1.1530163288116455
1684200608061510700,0.2255107421875,-7.579286575317383,6.104643821716309,0.8983749747276306
1684200608071535600,0.23553564453125,-7.790128707885742,5.549525737762451,0.6689649820327759
1684200608081561600,0.2455615234375,-7.788425922393799,4.915738105773926,0.47938793897628784
1684200608091587600,0.255587646484375,-7.694953918457031,4.218466281890869,0.44048207998275757
1684200608101613600,0.265613525390625,-7.683278560638428,3.08070707321167,0.446344792842865
1684200608111639600,0.2756396484375,-7.794775485992432,1.6915730237960815,0.25787848234176636
1684200608121665500,0.28566552734375,-7.914969444274902,0.5561619997024536,-0.11252204328775406
1684200608131691500,0.29569140625,-7.772967338562012,-0.23799313604831696,-0.6049420833587646
1684200608141716500,0.305716552734375,-7.327220916748047,-0.4414829909801483,-0.9287915825843811
1684200608151742500,0.315742431640625,-6.805942058563232,-0.30350568890571594,-0.874477207660675
1684200608161768400,0.3257685546875,-6.373492240905762,-0.012330750934779644,-0.3985747694969177
1684200608171794700,0.335794677734375,-5.908047199249268,0.30251747369766235,0.41368934512138367
1684200608181820700,0.345820556640625,-5.301342487335205,0.15446588397026062,1.3320958614349365
1684200608191846700,0.3558466796875,-4.573485851287842,-0.10583575069904327,2.0346217155456543
1684200608201872600,0.36587255859375,-3.8183248043060303,-0.7266694903373718,2.179291009902954
1684200608211898600,0.375898681640625,-3.1354219913482666,-1.5449151992797852,1.7527202367782593
1684200608221923600,0.385923583984375,-2.4000155925750732,-2.3655002117156982,1.1009865999221802
1684200608231949600,0.395949462890625,-1.5399224758148193,-2.88461971282959,0.3267260491847992
1684200608241975600,0.4059755859375,-0.7659958600997925,-3.3973639011383057,0.07958801090717316
1684200608252001500,0.41600146484375,-0.1731559932231903,-4.011903762817383,0.09206651896238327
1684200608262027500,0.426027587890625,0.23449747264385223,-4.3594160079956055,-0.008574817329645157
1684200608272053500,0.436053466796875,0.4631902873516083,-4.190558910369873,-0.10161421447992325
1684200608282079500,0.44607958984375,0.5509026646614075,-3.5244970321655273,0.25006547570228577
1684200608292104400,0.4561044921875,0.5717810392379761,-2.6628124713897705,1.1123343706130981
1684200608302130400,0.46613037109375,0.5344527959823608,-2.2219178676605225,1.5873908996582031
1684200608312156400,0.476156494140625,0.4991334080696106,-1.6925296783447266,1.7109456062316895
1684200608322182700,0.4861826171875,0.22925643622875214,-1.0596587657928467,1.6519371271133423
1684200608332208600,0.496208740234375,0.03586326912045479,-1.0448012351989746,1.5617235898971558
1684200608342234600,0.506234619140625,-0.017367085441946983,-1.0233579874038696,1.3230634927749634
1684200608352260600,0.516260498046875,0.2100500911474228,-0.6005635261535645,1.464918613433838
1684200608362285600,0.52628564453125,0.590200662612915,-0.2766001522541046,1.8156198263168335
1684200608372311000,0.53631103515625,0.8988423943519592,0.1895608901977539,1.7556978464126587
1684200608382337000,0.5463369140625,1.0919189453125,0.5642738342285156,1.2789448499679565
1684200608392363000,0.556363037109375,1.1523942947387695,0.6966217160224915,0.6924925446510315
1684200608402389200,0.56638916015625,1.1438401937484741,0.9983158111572266,0.2557538151741028
1684200608412415200,0.576415283203125,1.0917026996612549,1.3699787855148315,0.07043296843767166
1684200608422441200,0.586441162109375,1.0209482908248901,1.7385449409484863,-0.07926209270954132
1684200608432467200,0.59646728515625,1.1274014711380005,2.082643747329712,-0.0662674605846405
1684200608442492200,0.6064921875,1.4603835344314575,2.3021926879882812,0.09044508635997772
1684200608452518100,0.61651806640625,1.8628101348876953,2.6434693336486816,0.1957201063632965
1684200608462544100,0.626544189453125,1.8900521993637085,2.948613405227661,0.2776607871055603
1684200608472570000,0.636570068359375,1.6235809326171875,2.83929181098938,-0.493694543838501
1684200608482596000,0.64659619140625,1.6764575242996216,2.4976963996887207,-0.9966437816619873
1684200608492622000,0.6566220703125,1.7481775283813477,2.176569938659668,-1.0688042640686035
1684200608502648000,0.66664794921875,1.6361924409866333,1.8169647455215454,-0.9989528656005859
1684200608512673000,0.676673095703125,1.3444337844848633,2.1458418369293213,-0.5629950165748596
1684200608522699000,0.686698974609375,1.1136863231658936,2.6648995876312256,-0.06598798930644989
1684200608532725000,0.69672509765625,1.4774149656295776,2.7919883728027344,0.13663730025291443
1684200608542751000,0.7067509765625,1.7609138488769531,2.4439876079559326,0.08388730883598328
1684200608552777200,0.716777099609375,1.9745752811431885,2.103543996810913,-0.13471613824367523
1684200608562803200,0.72680322265625,2.3170535564422607,1.5901225805282593,-0.4014914333820343
1684200608572829200,0.7368291015625,2.5620250701904297,1.1698142290115356,-0.7529112696647644
1684200608582855200,0.746855224609375,1.8725625276565552,1.274143934249878,-1.1129353046417236
1684200608592880000,0.756880126953125,0.21138916909694672,2.163285493850708,-1.08830988407135
1684200608602906000,0.766906005859375,-0.9655479192733765,2.025758981704712,-0.9014117121696472
1684200608612932000,0.77693212890625,-1.8182563781738281,2.0136208534240723,-0.8694825172424316
1684200608622958000,0.7869580078125,-2.2807326316833496,1.915372371673584,-0.7151529788970947
1684200608632984000,0.796984130859375,-2.5572261810302734,2.0614073276519775,-0.41195234656333923
1684200608643010000,0.807010009765625,-2.7038300037384033,1.5904299020767212,-0.21582195162773132
1684200608653036000,0.8170361328125,-3.19120717048645,-0.09978260844945908,-0.22078634798526764
1684200608663061200,0.827061279296875,-3.464449644088745,-1.3472479581832886,-0.1962640881538391
1684200608673087200,0.837087158203125,-3.205841302871704,-1.7206729650497437,-0.3236798048019409
1684200608683113200,0.84711328125,-3.0016415119171143,-0.32118040323257446,-0.8674573302268982
1684200608693139200,0.85713916015625,-2.7479586601257324,0.8904335498809814,-1.5651159286499023
1684200608703165200,0.867165283203125,-2.6753129959106445,1.948169469833374,-2.4522197246551514
1684200608713191200,0.877191162109375,-2.930938720703125,2.742032051086426,-3.3848257064819336
1684200608723217200,0.887217041015625,-3.570303201675415,2.669045925140381,-4.129388332366943
1684200608733242400,0.897242431640625,-4.428017616271973,1.4093610048294067,-4.186694145202637
1684200608743268400,0.907268310546875,-4.574256420135498,-0.15709295868873596,-2.930232524871826
1684200608753294300,0.91729443359375,-3.1261274814605713,-1.2789703607559204,-0.5979916453361511
1684200608763320300,0.9273203125,-1.304266333580017,-1.281019926071167,0.9328591227531433
1684200608773346300,0.93734619140625,-0.4185231626033783,-0.47967714071273804,1.2325643301010132
1684200608783372300,0.947372314453125,-0.24631671607494354,0.34324389696121216,0.8280870318412781
1684200608793398000,0.95739794921875,-0.306183785200119,1.3673614263534546,0.34245699644088745
1684200608803424000,0.967424072265625,-0.3043662905693054,2.3486528396606445,0.2024170458316803
1684200608813449200,0.97744921875,-0.358527272939682,2.906743288040161,0.3860287070274353
1684200608823475200,0.98747509765625,-0.38064342737197876,3.308870315551758,0.5648165345191956
1684200608833501200,0.997501220703125,-0.3152114152908325,3.2829558849334717,0.7187661528587341
1684200608843527200,1.007527099609375,-0.16586056351661682,3.098236083984375,0.746402382850647
1684200608853553400,1.017553466796875,0.12825602293014526,2.9097824096679688,0.7178642153739929
1684200608863579400,1.027579345703125,0.47492334246635437,2.5696194171905518,0.8143977522850037
1684200608873605400,1.03760546875,0.5647720098495483,2.072289228439331,1.1618403196334839
1684200608883630300,1.04763037109375,0.3955664336681366,1.6319853067398071,1.6559640169143677
1684200608893656300,1.05765625,0.231527179479599,1.3456827402114868,2.066138505935669
1684200608903682300,1.067682373046875,0.12646602094173431,1.420213222503662,2.28568696975708
1684200608913708300,1.077708251953125,-0.06616681069135666,1.5484756231307983,2.3171637058258057
1684200608923734300,1.087734375,-0.3335151970386505,1.357471227645874,2.116746664047241
1684200608933760300,1.09776025390625,-0.7326282262802124,0.6426919102668762,1.5762964487075806
1684200608943786200,1.1077861328125,-1.2633624076843262,0.25074800848960876,0.9237344264984131
1684200608953811200,1.117811279296875,-1.8472630977630615,0.7351330518722534,0.37365373969078064
1684200608963837200,1.127837158203125,-2.3124771118164062,1.3905646800994873,-0.1102122813463211
1684200608973863200,1.13786328125,-2.4291603565216064,1.7812498807907104,-0.3920591473579407
1684200608983889200,1.14788916015625,-2.0557940006256104,1.5543771982192993,-0.36205288767814636
1684200608993915100,1.1579150390625,-1.0223559141159058,0.3453955054283142,-0.10538221895694733
1684200609003941000,1.167941162109375,0.10478904098272324,-0.9223949313163757,0.1009800136089325
1684200609013967400,1.17796728515625,0.5200136303901672,-1.5892571210861206,-0.05087236315011978
1684200609023993300,1.187993408203125,0.20507732033729553,-1.799656867980957,-0.45896807312965393
1684200609034018300,1.198018310546875,-0.31006938219070435,-1.3981810808181763,-0.7789705991744995
1684200609044044300,1.208044189453125,-0.6922246217727661,-0.7198855876922607,-0.955854594707489
1684200609054070300,1.2180703125,-0.8307138085365295,-0.17705883085727692,-1.0677741765975952
1684200609064096300,1.22809619140625,-0.4374927282333374,-0.30282968282699585,-0.9341135025024414
1684200609074122200,1.238122314453125,0.02322559803724289,-1.100853443145752,-0.6630766987800598
1684200609084148200,1.248148193359375,0.19424740970134735,-2.102872610092163,-0.579453706741333
1684200609094174200,1.25817431640625,0.2923170030117035,-2.136014699935913,-0.5564676523208618
1684200609104199200,1.26819921875,0.48079749941825867,-0.8756310343742371,-0.32318252325057983
1684200609114225200,1.27822509765625,0.4592839777469635,0.5825907588005066,0.13569293916225433
1684200609124251100,1.288251220703125,0.2420228123664856,1.5777177810668945,0.6426687836647034
1684200609134277000,1.298277099609375,-0.04018145054578781,1.854857325553894,0.948880672454834
1684200609144303000,1.30830322265625,-0.5149258375167847,1.1439721584320068,0.8949659466743469
1684200609154329000,1.3183291015625,-1.1937323808670044,0.5142990946769714,0.7796923518180847
1684200609164355300,1.328355224609375,-1.6628234386444092,0.48725083470344543,0.7841060161590576
1684200609174381300,1.33838134765625,-1.6370658874511719,0.45413362979888916,0.7331956624984741
1684200609184406300,1.34840625,-1.113081693649292,0.4285318851470947,0.6006181836128235
1684200609194432300,1.358432373046875,-0.49672162532806396,-0.10945037752389908,0.2499227672815323
1684200609204458200,1.368458251953125,-0.4162660241127014,0.7520236372947693,-0.8810684084892273
1684200609214484200,1.378484130859375,-0.3358473479747772,0.38278061151504517,-0.6996946334838867
1684200609224510200,1.38851025390625,0.2697829604148865,-0.9064475297927856,-0.06409613788127899
1684200609234536200,1.3985361328125,0.6102564334869385,-1.6263152360916138,0.22920072078704834
1684200609244562200,1.408562255859375,0.801974892616272,-1.6657861471176147,0.48356643319129944
1684200609254587100,1.418587158203125,0.6627213954925537,-0.983652651309967,0.6021004915237427
1684200609264613000,1.428613037109375,0.18812192976474762,-0.0900145098567009,0.7040655016899109
1684200609274639000,1.43863916015625,-0.3971724510192871,0.6040500402450562,0.678493857383728
1684200609284665000,1.4486650390625,-0.9314223527908325,1.2662410736083984,0.5719409584999084
1684200609294691000,1.458691162109375,-1.3245426416397095,1.8128548860549927,0.5667434930801392
1684200609304717000,1.468717041015625,-1.3799304962158203,2.093282461166382,0.819559633731842
1684200609314743300,1.478743408203125,-1.191149115562439,2.2244226932525635,1.2835116386413574
1684200609324768000,1.48876806640625,-1.2463639974594116,1.228980541229248,1.504880666732788
1684200609334794200,1.498794189453125,-1.7663682699203491,-0.05118079110980034,1.3040591478347778
1684200609344820200,1.5088203125,-1.9083553552627563,0.7648042440414429,1.5390249490737915
1684200609354846200,1.51884619140625,-1.8376671075820923,1.270500898361206,1.7086278200149536
1684200609364872200,1.5288720703125,-1.6021512746810913,1.6787302494049072,1.9436992406845093
1684200609374898000,1.53889794921875,-1.3632044792175293,1.856081247329712,2.1825110912323
1684200609384924000,1.548923828125,-1.143288254737854,1.8703047037124634,2.314835548400879
1684200609394950000,1.558949951171875,-0.8447421789169312,1.7924216985702515,2.286571741104126
1684200609404974800,1.568974853515625,-0.5356449484825134,1.1369456052780151,1.8006575107574463
1684200609415000800,1.579000732421875,-0.21035099029541016,0.4177640378475189,1.1912304162979126
1684200609425026800,1.58902685546875,0.14884139597415924,0.07204286754131317,0.8655234575271606
1684200609435052800,1.599052734375,0.5664114356040955,0.10476726293563843,0.7187651991844177
1684200609445078800,1.609078857421875,0.8737112879753113,-0.034751445055007935,0.442286878824234
1684200609455104800,1.619104736328125,0.9452717900276184,-0.3237299919128418,0.02035456709563732
1684200609465131000,1.629131103515625,0.8925954699516296,-0.7425938844680786,-0.5338011980056763
1684200609475155700,1.63915576171875,0.7722240686416626,-1.1778651475906372,-1.1733763217926025
1684200609485181700,1.649181640625,0.7765646576881409,-1.081717848777771,-1.4736921787261963
1684200609495208000,1.6592080078125,0.8539827466011047,-0.9154530167579651,-1.4493495225906372
1684200609505234000,1.66923388671875,0.8482351303100586,-1.6743663549423218,-1.1608023643493652
1684200609515260000,1.679260009765625,0.7575398683547974,-2.7427914142608643,-0.6466192007064819
1684200609525286000,1.689285888671875,0.5733358263969421,-3.158564805984497,-0.24582640826702118
1684200609535312000,1.699311767578125,0.7300697565078735,-3.190499782562256,0.07049800455570221
1684200609545337900,1.709337890625,1.091552734375,-2.5990121364593506,0.4904656410217285
1684200609555362800,1.71936279296875,1.3903714418411255,-2.044508695602417,0.7345411777496338
1684200609565388800,1.729388916015625,1.640381932258606,-1.6095397472381592,0.8611403703689575
1684200609575414800,1.739414794921875,1.8520755767822266,-1.268540382385254,0.9034212827682495
1684200609585440800,1.749440673828125,1.9981013536453247,-1.04789137840271,0.8891834020614624
1684200609595466800,1.759466796875,1.8131331205368042,-1.0051308870315552,0.8029888868331909
1684200609605492700,1.76949267578125,1.0516070127487183,-1.2837376594543457,0.5627644062042236
1684200609615518700,1.779518798828125,-0.04352425038814545,-1.909861445426941,0.30034393072128296
1684200609625544000,1.7895439453125,-1.121156930923462,-2.396426200866699,-0.03166559338569641
1684200609635570000,1.79956982421875,-1.7664270401000977,-2.393366813659668,-0.2684789299964905
1684200609645596000,1.809595947265625,-1.897729516029358,-1.8814992904663086,-0.34942924976348877
1684200609655622000,1.819621826171875,-1.6862298250198364,-1.1750394105911255,-0.3001328110694885
1684200609665647900,1.82964794921875,-1.3721017837524414,-0.6602541208267212,-0.09469015151262283
1684200609675673900,1.839673828125,-1.0500515699386597,-0.5784479379653931,0.3314496874809265
1684200609685699800,1.849699951171875,-0.7297790050506592,-0.7703145146369934,0.8017669916152954
1684200609695725000,1.85972509765625,-0.4533684551715851,-0.6017013192176819,0.916785717010498
1684200609705751000,1.8697509765625,-0.27082425355911255,-0.13646605610847473,0.7537369728088379
1684200609715777000,1.879777099609375,-0.17102468013763428,0.3560653328895569,0.537636399269104
1684200609725803000,1.889802978515625,-0.13220125436782837,0.7187403440475464,0.3807086646556854
1684200609735829000,1.8998291015625,-0.13939417898654938,0.9399662017822266,0.26950863003730774
1684200609745855000,1.90985498046875,-0.16826589405536652,1.0476391315460205,0.20695529878139496
1684200609755881000,1.919880859375,-0.22094188630580902,1.058456540107727,0.16889366507530212
1684200609765906700,1.92990673828125,-0.30089277029037476,0.9928800463676453,0.15705622732639313
1684200609775932000,1.939931884765625,-0.3449832797050476,0.8697032928466797,0.1655397266149521
1684200609785958000,1.9499580078125,-0.3605077862739563,0.7117682695388794,0.17313505709171295
1684200609795984100,1.959984130859375,-0.34737467765808105,0.5381399989128113,0.19008208811283112
1684200609806010000,1.970010009765625,-0.32024070620536804,0.36587730050086975,0.20663979649543762
1684200609816036000,1.9800361328125,-0.28178760409355164,0.21171171963214874,0.21986772119998932
1684200609826062000,1.99006201171875,-0.2429254949092865,0.08541753888130188,0.23027238249778748
1684200609836088000,2.000088134765625,-0.20828282833099365,-0.038532111793756485,0.23731297254562378
1684200609846113000,2.010113037109375,-0.1908125877380371,-0.14221420884132385,0.23592962324619293
1684200609856139000,2.020138916015625,-0.18792065978050232,-0.2509913146495819,0.22126813232898712
1684200609866165000,2.0301650390625,-0.2068074345588684,-0.36664846539497375,0.20222529768943787
1684200609876191000,2.04019091796875,-0.24935542047023773,-0.4887208342552185,0.17686721682548523
1684200609886217000,2.050217041015625,-0.308747798204422,-0.5902056694030762,0.14030595123767853
1684200609896243000,2.060242919921875,-0.37707066535949707,-0.6247780323028564,0.10491067171096802
1684200609906269000,2.07026904296875,-0.438718318939209,-0.5786029696464539,0.05784767121076584
1684200609916295000,2.080294921875,-0.482425332069397,-0.47570720314979553,0.013522017747163773
1684200609926319900,2.09031982421875,-0.5165623426437378,-0.36661651730537415,-0.00555292796343565
1684200609936345900,2.100345947265625,-0.5390040278434753,-0.2786339223384857,-0.0098014697432518
1684200609946372000,2.1103720703125,-0.5415714979171753,-0.21372203528881073,-0.002462170086801052
1684200609956398000,2.120398193359375,-0.5312291383743286,-0.1637616604566574,0.01610831916332245
1684200609966424000,2.130424072265625,-0.49953997135162354,-0.12792746722698212,0.040085770189762115
1684200609976450000,2.140449951171875,-0.46115073561668396,-0.1045459732413292,0.05755983293056488
1684200609986476000,2.15047607421875,-0.4180508852005005,-0.09072687476873398,0.06631343066692352
1684200609996501000,2.1605009765625,-0.3849153220653534,-0.08803761005401611,0.06964290887117386
1684200610006527000,2.17052685546875,-0.3582841157913208,-0.08862624317407608,0.06804357469081879
1684200610016553000,2.180552978515625,-0.33176034688949585,-0.09102921187877655,0.0580655112862587
1684200610026579000,2.190578857421875,-0.2968178391456604,-0.1042991429567337,0.05304092913866043
1684200610036605000,2.20060498046875,-0.24682393670082092,-0.14273415505886078,0.05154556408524513
1684200610046631000,2.210630859375,-0.17902201414108276,-0.19873905181884766,0.05039028450846672
1684200610056657000,2.220656982421875,-0.09278751909732819,-0.2637856900691986,0.03465952351689339
1684200610066683000,2.230682861328125,0.0018479169812053442,-0.30254343152046204,0.000381499994546175
1684200610076707800,2.240707763671875,0.09680958092212677,-0.3084673583507538,-0.053250301629304886
1684200610086733800,2.25073388671875,0.18700674176216125,-0.2869378924369812,-0.11688680201768875
1684200610096760000,2.260760009765625,0.24919500946998596,-0.2552627921104431,-0.18439872562885284
1684200610106786000,2.2707861328125,0.29202786087989807,-0.21341219544410706,-0.2612496614456177
1684200610116812000,2.28081201171875,0.3189958333969116,-0.16683964431285858,-0.31254854798316956
1684200610126838000,2.290838134765625,0.3330783247947693,-0.15258848667144775,-0.33555564284324646
1684200610136864000,2.300864013671875,0.3368368446826935,-0.2451152205467224,-0.33659908175468445
1684200610146889000,2.310888916015625,0.3414648473262787,-0.47149085998535156,-0.3371318280696869
1684200610156915000,2.3209150390625,0.3486066460609436,-0.8087059259414673,-0.39784735441207886
1684200610166941000,2.33094091796875,0.3472013473510742,-1.1790854930877686,-0.546784520149231
1684200610176967000,2.340966796875,0.35628804564476013,-1.5391230583190918,-0.7922039031982422
1684200610186993000,2.350992919921875,0.4061342179775238,-1.8923131227493286,-1.1022759675979614
1684200610197019000,2.361018798828125,0.497905433177948,-2.2491352558135986,-1.4410641193389893
1684200610207044900,2.371044921875,0.5930384993553162,-2.497011423110962,-1.7594407796859741
1684200610217069800,2.38106982421875,0.6653486490249634,-2.5014758110046387,-1.9884793758392334
1684200610227095800,2.391095703125,0.6939756274223328,-2.2248241901397705,-2.0886120796203613
1684200610237121800,2.401121826171875,0.7186631560325623,-1.626696228981018,-2.0682260990142822
1684200610247148000,2.41114794921875,0.7935882806777954,-0.5117753148078918,-1.848987102508545
1684200610257174000,2.421174072265625,0.8762498497962952,0.6805370450019836,-1.5374587774276733
1684200610267200000,2.431199951171875,0.9268713593482971,1.5549052953720093,-1.2959036827087402
1684200610277226000,2.44122607421875,0.9158674478530884,1.9919052124023438,-1.1242327690124512
1684200610287252000,2.451251953125,0.8375251889228821,2.1652584075927734,-0.9874186515808105
1684200610297277000,2.46127685546875,0.6682559847831726,2.23413348197937,-0.8591312766075134
1684200610307303000,2.471302978515625,0.5351175665855408,1.966626524925232,-0.7970682978630066
1684200610317329000,2.481328857421875,0.574331521987915,1.3173813819885254,-0.8446276187896729
1684200610327355000,2.49135498046875,0.8008754253387451,0.3715793192386627,-1.0023151636123657
1684200610337380900,2.501380859375,1.093405842781067,-0.21683572232723236,-1.065177321434021
1684200610347406800,2.51140673828125,1.3579949140548706,-0.286734014749527,-1.0126593112945557
1684200610357432800,2.521432861328125,1.4807324409484863,0.0413472019135952,-0.9711736440658569
1684200610367457800,2.531457763671875,1.4622752666473389,0.6274091005325317,-0.9659340381622314
1684200610377483800,2.54148388671875,1.4313559532165527,1.2337729930877686,-0.9540004134178162
1684200610387509800,2.551509765625,1.4005495309829712,1.6813361644744873,-0.9199336171150208
1684200610397536000,2.561535888671875,1.3300458192825317,1.916724443435669,-0.8242611289024353
1684200610407562000,2.57156201171875,1.2236409187316895,1.8988556861877441,-0.7052369713783264
1684200610417588000,2.581587890625,1.1229188442230225,1.7843056917190552,-0.5989634990692139
1684200610427614000,2.591614013671875,1.0358846187591553,1.6555620431900024,-0.5465956330299377
1684200610437640000,2.601639892578125,0.970310389995575,1.5392165184020996,-0.5316070914268494
1684200610447665000,2.611664794921875,0.9117761254310608,1.407029390335083,-0.5319717526435852
1684200610457691000,2.62169091796875,0.8872451782226562,1.2227765321731567,-0.5315813422203064
1684200610467716900,2.631716796875,0.8954380750656128,1.0559706687927246,-0.5040742754936218
1684200610477742800,2.641742919921875,0.9044941067695618,0.987278401851654,-0.45405927300453186
1684200610487768800,2.651768798828125,0.8696053624153137,1.0180318355560303,-0.38009315729141235
1684200610497794800,2.661794921875,0.781557559967041,1.0008128881454468,-0.28122594952583313
1684200610507820800,2.67182080078125,0.6834778785705566,0.917777955532074,-0.1687353551387787
1684200610517845800,2.681845703125,0.5981653332710266,0.7706883549690247,-0.059695418924093246
1684200610527871700,2.691871826171875,0.5247082710266113,0.5951451063156128,0.03966951370239258
1684200610537897700,2.701897705078125,0.46309393644332886,0.45310860872268677,0.1385185867547989
1684200610547924000,2.711924072265625,0.40101462602615356,0.35010790824890137,0.2229432612657547
1684200610557950000,2.721949951171875,0.3396031856536865,0.2790318727493286,0.27867814898490906
1684200610567976000,2.731975830078125,0.2767846882343292,0.2530120015144348,0.32473012804985046
1684200610578002000,2.742001953125,0.2122533768415451,0.23460184037685394,0.3776721656322479
1684200610588028000,2.75202783203125,0.12715549767017365,0.23654906451702118,0.43645814061164856
1684200610598052900,2.762052978515625,0.028057416900992393,0.2709565758705139,0.4771307408809662
1684200610608078800,2.772078857421875,-0.07056516408920288,0.33095982670783997,0.4973146915435791
1684200610618104800,2.782104736328125,-0.15191036462783813,0.40975451469421387,0.5339280962944031
1684200610628130800,2.792130859375,-0.2286117523908615,0.41873928904533386,0.5679466128349304
1684200610638156800,2.80215673828125,-0.2887360751628876,0.33551281690597534,0.6246897578239441
1684200610648182800,2.812182861328125,-0.33556708693504333,0.1464729756116867,0.6964248418807983
1684200610658208800,2.822208740234375,-0.367534875869751,-0.08740023523569107,0.7836683988571167
1684200610668234000,2.83223388671875,-0.4120996594429016,-0.34737852215766907,0.8699436783790588
1684200610678260000,2.842260009765625,-0.47364532947540283,-0.634408175945282,0.9505621194839478
1684200610688286000,2.852285888671875,-0.5192080736160278,-0.8670580983161926,1.0398035049438477
1684200610698312000,2.86231201171875,-0.5468825697898865,-1.0143346786499023,1.1106468439102173
1684200610708338000,2.872337890625,-0.5439372062683105,-1.089055061340332,1.1452337503433228
1684200610718364000,2.882364013671875,-0.5093957781791687,-1.1050957441329956,1.137952446937561
1684200610728390000,2.892389892578125,-0.4658704698085785,-1.0521012544631958,1.100590705871582
1684200610738415000,2.9024150390625,-0.44612792134284973,-0.9335286021232605,1.0697675943374634
1684200610748441000,2.912441162109375,-0.4733239412307739,-0.8063468933105469,1.0617071390151978
1684200610758467000,2.922467041015625,-0.5298804640769958,-0.6820047497749329,1.0753717422485352
1684200610768493000,2.9324931640625,-0.6039011478424072,-0.5667983293533325,1.1017595529556274
1684200610778519000,2.94251904296875,-0.670947253704071,-0.4872225224971771,1.116732120513916
1684200610788544800,2.952544677734375,-0.7281106114387512,-0.4619607627391815,1.1060384511947632
1684200610798570800,2.96257080078125,-0.7676753401756287,-0.45108333230018616,1.0358012914657593
1684200610808596700,2.9725966796875,-0.7896244525909424,-0.453198105096817,0.9230136871337891
1684200610818622000,2.9826220703125,-0.816179096698761,-0.4661919176578522,0.8247318863868713
1684200610828648000,2.99264794921875,-0.8145861625671387,-0.4907800257205963,0.736945629119873
1684200610838674000,3.002673828125,-0.8090329170227051,-0.5246835947036743,0.6749243140220642
1684200610848700000,3.012699951171875,-0.8118675351142883,-0.5429242849349976,0.6275458335876465
1684200610858726100,3.02272607421875,-0.8255511522293091,-0.5359793305397034,0.6003520488739014
1684200610868752100,3.032752197265625,-0.8429158329963684,-0.5076993703842163,0.5849900245666504
1684200610878777900,3.04277783203125,-0.8675990700721741,-0.44962066411972046,0.5742391347885132
1684200610888803000,3.052802978515625,-0.8861724138259888,-0.373424232006073,0.5690887570381165
1684200610898829000,3.0628291015625,-0.8983614444732666,-0.31012409925460815,0.5502652525901794
1684200610908855000,3.07285498046875,-0.9047713875770569,-0.24060608446598053,0.5154494643211365
1684200610918881000,3.082881103515625,-0.8972516655921936,-0.1771986037492752,0.45095598697662354
1684200610928907000,3.092906982421875,-0.858500063419342,-0.11094703525304794,0.36453521251678467
1684200610938933000,3.10293310546875,-0.7765684127807617,-0.03236141428351402,0.25181373953819275
1684200610948959000,3.112958984375,-0.6461573839187622,0.06253577023744583,0.13116417825222015
1684200610958985000,3.12298486328125,-0.48626792430877686,0.132918581366539,0.02569553814828396
1684200610969010000,3.133010009765625,-0.34694260358810425,0.14032509922981262,-0.05628156661987305
1684200610979036000,3.143035888671875,-0.24299384653568268,0.10434739291667938,-0.10852400213479996
1684200610989062000,3.153061767578125,-0.17129066586494446,0.11136361211538315,-0.11751243472099304
1684200610999087900,3.163087890625,-0.10331162810325623,0.20643950998783112,-0.09620288014411926
1684200611009114000,3.173114013671875,-0.03870024532079697,0.37763139605522156,-0.05200058966875076
1684200611019140000,3.18314013671875,0.002104175044223666,0.5639753937721252,-0.0035734008997678757
1684200611029166000,3.193166015625,0.017324084416031837,0.7099032402038574,0.0434015654027462
1684200611039191000,3.20319091796875,0.0021235595922917128,0.7685071229934692,0.08125440776348114
1684200611049217000,3.213217041015625,-0.03271409496665001,0.7367370128631592,0.11190706491470337
1684200611059243000,3.223242919921875,-0.06979408115148544,0.6252219080924988,0.15290270745754242
1684200611069269000,3.23326904296875,-0.11409886926412582,0.41061413288116455,0.19259344041347504
1684200611079295000,3.243294921875,-0.15943677723407745,0.0861942246556282,0.2349318414926529
1684200611089321000,3.253321044921875,-0.192186638712883,-0.28890132904052734,0.24793367087841034
1684200611099347000,3.263346923828125,-0.20775121450424194,-0.6355066299438477,0.21201400458812714
1684200611109373000,3.273373046875,-0.19831280410289764,-0.8526145219802856,0.14583365619182587
1684200611119398000,3.28339794921875,-0.18056710064411163,-0.8390577435493469,0.08424007147550583
1684200611129424000,3.293423828125,-0.1803445667028427,-0.6152505278587341,0.04624049365520477
1684200611139449900,3.303449951171875,-0.20763450860977173,-0.2564697265625,0.022554872557520866
1684200611149475800,3.313475830078125,-0.25553709268569946,0.12037178874015808,0.014081120491027832
1684200611159502000,3.323502197265625,-0.31122642755508423,0.3976936638355255,0.03288676589727402
1684200611169528000,3.333528076171875,-0.37029460072517395,0.5748979449272156,0.07720820605754852
1684200611179554000,3.343553955078125,-0.4329233765602112,0.6746588945388794,0.12120149284601212
1684200611189579000,3.3535791015625,-0.48943182826042175,0.7196615934371948,0.15262466669082642
1684200611199605000,3.36360498046875,-0.5505708456039429,0.7075644731521606,0.1634131371974945
1684200611209631000,3.373630859375,-0.6241804957389832,0.6521481871604919,0.160343736410141
1684200611219657000,3.383656982421875,-0.7037477493286133,0.5727369785308838,0.13306604325771332
1684200611229683000,3.393682861328125,-0.7791479229927063,0.4655640423297882,0.11097986251115799
1684200611239709000,3.403708984375,-0.8379219770431519,0.3465023636817932,0.10156319290399551
1684200611249735000,3.41373486328125,-0.8851853609085083,0.20824220776557922,0.09736978262662888
1684200611259761000,3.423760986328125,-0.9075037240982056,0.07647513598203659,0.09011213481426239
1684200611269785900,3.433785888671875,-0.9009577631950378,-0.02347969450056553,0.06809642165899277
1684200611279811800,3.443811767578125,-0.8719679117202759,-0.08829997479915619,0.033530451357364655
1684200611289837800,3.453837890625,-0.8497019410133362,-0.1406395584344864,-0.011474466882646084
1684200611299863800,3.46386376953125,-0.8246650695800781,-0.17971159517765045,-0.06940567493438721
1684200611309890000,3.47389013671875,-0.7791929841041565,-0.1802155077457428,-0.16221299767494202
1684200611319916000,3.483916015625,-0.6959614753723145,-0.09681836515665054,-0.29308873414993286
1684200611329942000,3.49394189453125,-0.5720415115356445,0.19464856386184692,-0.4950142204761505
1684200611339967000,3.503967041015625,-0.41627833247184753,0.6206678152084351,-0.6903014779090881
1684200611349993000,3.513992919921875,-0.2830863893032074,1.0147539377212524,-0.7532628774642944
1684200611360019000,3.52401904296875,-0.19213303923606873,1.2923070192337036,-0.5898129940032959
1684200611370045000,3.534044921875,-0.149725079536438,1.4880789518356323,-0.28591570258140564
1684200611380071000,3.54407080078125,-0.14917246997356415,1.5857511758804321,-0.0017910539172589779
1684200611390097000,3.554096923828125,-0.1632096767425537,1.5769736766815186,0.19892431795597076
1684200611400123000,3.564122802734375,-0.17996655404567719,1.4252022504806519,0.34486502408981323
1684200611410148900,3.57414892578125,-0.2071467489004135,1.11832594871521,0.45162856578826904
1684200611420173800,3.584173828125,-0.2526841163635254,0.6429011821746826,0.518575131893158
1684200611430199800,3.59419970703125,-0.30014485120773315,0.1008991003036499,0.5511301159858704
1684200611440225800,3.604225830078125,-0.33907681703567505,-0.42373326420783997,0.5444197058677673
1684200611450251800,3.614251708984375,-0.3432634472846985,-0.8680969476699829,0.512197732925415
1684200611460277800,3.62427783203125,-0.323169082403183,-1.1730741262435913,0.4622560441493988
1684200611470303700,3.6343037109375,-0.25698980689048767,-1.3247778415679932,0.43589964509010315
1684200611480330000,3.644330078125,-0.1734914630651474,-1.2566834688186646,0.4318961203098297
1684200611490354700,3.654354736328125,-0.10707128047943115,-0.9015862941741943,0.43045589327812195
1684200611500381000,3.664380859375,-0.09283322095870972,-0.3559943437576294,0.42764467000961304
1684200611510407000,3.674406982421875,-0.12207027524709702,0.13685853779315948,0.4135753810405731
1684200611520433000,3.684432861328125,-0.1498134881258011,0.44387438893318176,0.4236817955970764
1684200611530459000,3.694458984375,-0.1616688221693039,0.544944703578949,0.4413088858127594
1684200611540484900,3.70448486328125,-0.16396260261535645,0.497123122215271,0.45342785120010376
1684200611550510800,3.7145107421875,-0.14713908731937408,0.34362003207206726,0.451915442943573
1684200611560536800,3.724536865234375,-0.11497288942337036,0.16220761835575104,0.42390966415405273
1684200611570561800,3.734561767578125,-0.09650467336177826,-0.028224382549524307,0.37752804160118103
1684200611580587800,3.744587890625,-0.09040576219558716,-0.1818525642156601,0.3071417510509491
1684200611590613800,3.75461376953125,-0.09862702339887619,-0.2674344480037689,0.22245638072490692
1684200611600639700,3.7646396484375,-0.10056420415639877,-0.2899687886238098,0.14191973209381104
1684200611610665700,3.774665771484375,-0.13250814378261566,-0.25882741808891296,0.08523353934288025
1684200611620691700,3.784691650390625,-0.1682879775762558,-0.20892751216888428,0.06495916098356247
1684200611630718000,3.794718017578125,-0.21368597447872162,-0.15167909860610962,0.07839561253786087
1684200611640742700,3.80474267578125,-0.2597629129886627,-0.09012998640537262,0.11779095232486725
1684200611650769000,3.814768798828125,-0.3078778088092804,-0.015547014772891998,0.16445128619670868
1684200611660795000,3.824794921875,-0.3568567931652069,0.07080624997615814,0.18807990849018097
1684200611670820900,3.83482080078125,-0.3932898938655853,0.1645040214061737,0.2052992284297943
1684200611680846800,3.844846923828125,-0.4122478663921356,0.2681582272052765,0.21938548982143402
1684200611690872800,3.854872802734375,-0.4201636016368866,0.3576165437698364,0.24712572991847992
1684200611700898800,3.86489892578125,-0.41070300340652466,0.42053931951522827,0.29483410716056824
1684200611710924000,3.874924072265625,-0.38018226623535156,0.4477933645248413,0.3449670374393463
1684200611720950000,3.884949951171875,-0.3329852223396301,0.4372296631336212,0.36805346608161926
1684200611730975700,3.894975830078125,-0.27483516931533813,0.3963594138622284,0.34700968861579895
1684200611741001700,3.905001708984375,-0.2198781818151474,0.3294501304626465,0.2821979224681854
1684200611751027700,3.91502783203125,-0.1777205616235733,0.23492537438869476,0.19658531248569489
1684200611761053700,3.9250537109375,-0.16680027544498444,0.11018583923578262,0.11236576735973358
1684200611771079700,3.93507958984375,-0.1652040183544159,-0.0463416762650013,0.0474221408367157
1684200611781106000,3.94510595703125,-0.18416252732276917,-0.22613754868507385,0.0016975277103483677
1684200611791131000,3.955130859375,-0.2027343362569809,-0.3991461396217346,-0.022577237337827682
1684200611801157000,3.9651572265625,-0.23873575031757355,-0.5239810347557068,-0.03331803157925606
1684200611811182800,3.975182861328125,-0.27809739112854004,-0.5747298002243042,-0.04064028710126877
1684200611821208800,3.985208740234375,-0.31636595726013184,-0.5458068251609802,-0.05285567790269852
1684200611831234800,3.99523486328125,-0.3426741659641266,-0.46931809186935425,-0.0601968914270401
1684200611841260800,4.0052607421875,-0.35607200860977173,-0.3686586022377014,-0.04923771694302559
1684200611851286800,4.015286865234375,-0.3753826320171356,-0.25947463512420654,-0.020851830020546913
1684200611861312000,4.02531201171875,-0.4048191010951996,-0.14547191560268402,0.020849011838436127
1684200611871338000,4.035337890625,-0.44347259402275085,-0.021300047636032104,0.07453898340463638
1684200611881364000,4.045364013671875,-0.49740028381347656,0.09553655982017517,0.14008602499961853
1684200611891390000,4.055389892578125,-0.5574878454208374,0.2004224956035614,0.20770102739334106
1684200611901416000,4.065416015625,-0.6309096217155457,0.28488463163375854,0.2785205841064453
1684200611911442000,4.07544189453125,-0.7037039399147034,0.34413468837738037,0.33840641379356384
1684200611921468000,4.085468017578125,-0.7599418759346008,0.3941691219806671,0.37542834877967834
1684200611931494000,4.095493896484375,-0.7577270865440369,0.4376579225063324,0.39383524656295776
1684200611941518800,4.105518798828125,-0.709234893321991,0.47485989332199097,0.39529067277908325
1684200611951545000,4.115545166015625,-0.6290598511695862,0.5003105401992798,0.39104506373405457
1684200611961571000,4.125571044921875,-0.5329980254173279,0.5116004943847656,0.3754274845123291
1684200611971597000,4.13559716796875,-0.4320857524871826,0.5085623264312744,0.3405454456806183
1684200611981623000,4.145623046875,-0.33593976497650146,0.5213809609413147,0.29363226890563965
1684200611991649000,4.15564892578125,-0.25154340267181396,0.528688371181488,0.22832146286964417
1684200612001675000,4.165675048828125,-0.16766873002052307,0.5194071531295776,0.14932166039943695
1684200612011700000,4.175699951171875,-0.07793319970369339,0.5178416967391968,0.06872007995843887
1684200612021726000,4.185725830078125,0.010725830681622028,0.497448593378067,0.023638352751731873
1684200612031752000,4.195751953125,0.0653916746377945,0.4294111132621765,0.014860361814498901
1684200612041778000,4.20577783203125,0.08892522752285004,0.3210289776325226,0.038475941866636276
1684200612051804000,4.215803955078125,0.11233093589544296,0.17087897658348083,0.07676586508750916
1684200612061830000,4.225829833984375,0.15081468224525452,-0.04124739393591881,0.11591646075248718
1684200612071855900,4.23585595703125,0.21189674735069275,-0.3180675804615021,0.11261877417564392
1684200612081882000,4.245882080078125,0.2748059332370758,-0.591654360294342,0.01837056688964367
1684200612091906800,4.25590673828125,0.32139086723327637,-0.8017741441726685,-0.17178355157375336
1684200612101933000,4.26593310546875,0.35490700602531433,-0.9232260584831238,-0.4249841272830963
1684200612111959000,4.275958984375,0.36365991830825806,-0.9655613899230957,-0.6743282675743103
1684200612121985000,4.285985107421875,0.35078486800193787,-0.9608004689216614,-0.8852700591087341
1684200612132011000,4.296010986328125,0.32973381876945496,-0.9412491917610168,-1.0412375926971436
1684200612142037000,4.306037109375,0.32004842162132263,-0.8857452273368835,-1.1682075262069702
1684200612152063000,4.31606298828125,0.30732858180999756,-0.7723533511161804,-1.270273208618164
1684200612162088000,4.326087890625,0.29674410820007324,-0.553317666053772,-1.3711603879928589
1684200612172114000,4.336114013671875,0.2662470042705536,-0.21690185368061066,-1.5367637872695923
1684200612182140000,4.346139892578125,0.20257322490215302,0.06912537664175034,-1.9155523777008057
1684200612192166000,4.356165771484375,0.1901831477880478,0.13535964488983154,-2.5275917053222656
1684200612202192000,4.36619189453125,0.18645979464054108,0.0610707588493824,-3.1091954708099365
1684200612212217900,4.3762177734375,0.17565186321735382,0.134126216173172,-3.353257179260254
1684200612222243800,4.386243896484375,0.08165186643600464,0.17388321459293365,-3.2331347465515137
1684200612232270000,4.39627001953125,0.00751830218359828,0.15994754433631897,-2.9516608715057373
1684200612242294800,4.406294677734375,-0.02683328092098236,0.03580322489142418,-2.647812843322754
1684200612252320800,4.41632080078125,-0.030861904844641685,-0.2679865062236786,-2.436048746109009
1684200612262347000,4.426346923828125,0.1106017455458641,-0.2244371920824051,-2.1670081615448
1684200612272373000,4.436373046875,0.3838541805744171,0.04637224227190018,-1.7951405048370361
1684200612282399000,4.44639892578125,0.8539085388183594,0.19246606528759003,-1.4327199459075928
1684200612292425000,4.456425048828125,1.3853334188461304,-0.0635119155049324,-1.2476223707199097
1684200612302451000,4.466450927734375,1.764998197555542,-0.2674378752708435,-1.176123857498169
1684200612312476000,4.476475830078125,1.8198758363723755,-0.32725581526756287,-1.1679198741912842
1684200612322502000,4.486501953125,1.7063695192337036,-0.07066398113965988,-1.2431163787841797
1684200612332527900,4.49652783203125,1.5914356708526611,0.36532601714134216,-1.312717080116272
1684200612342553900,4.506553955078125,1.5128448009490967,0.7808042168617249,-1.305845856666565
1684200612352579800,4.516579833984375,1.365193247795105,1.0865870714187622,-1.2774603366851807
1684200612362605800,4.526605712890625,1.131462574005127,1.4359490871429443,-1.286332607269287
1684200612372632000,4.536632080078125,0.8752381205558777,1.6212483644485474,-1.2750205993652344
1684200612382658300,4.546658203125,0.6925495266914368,1.6222760677337646,-1.2395230531692505
1684200612392683000,4.55668310546875,0.6517859697341919,1.4481732845306396,-1.1284527778625488
1684200612402709200,4.566709228515625,0.699073851108551,1.3266862630844116,-0.9882133603096008
1684200612412735200,4.5767353515625,0.7479609251022339,1.2583798170089722,-0.8526157736778259
1684200612422761200,4.58676123046875,0.7953808903694153,1.1502113342285156,-0.728939950466156
1684200612432787200,4.596787109375,0.8363156318664551,1.1350125074386597,-0.6931215524673462
1684200612442813200,4.606813232421875,0.8491997718811035,1.2236132621765137,-0.712476909160614
1684200612452839200,4.616839111328125,0.8167415261268616,1.2470273971557617,-0.673531711101532
1684200612462865200,4.626865234375,0.8235093951225281,1.2026056051254272,-0.5688430666923523
1684200612472890000,4.63689013671875,0.8092228770256042,1.0573567152023315,-0.3919549584388733
1684200612482916000,4.646916015625,0.7596166729927063,0.8424122333526611,-0.20357279479503632
1684200612492942000,4.656942138671875,0.6866589188575745,0.6614574790000916,-0.044020745903253555
1684200612502968000,4.666968017578125,0.6104635000228882,0.5040888786315918,0.071500264108181
1684200612512994000,4.676994140625,0.5425214767456055,0.34062278270721436,0.17417028546333313
1684200612523020000,4.68702001953125,0.5050798058509827,0.19819453358650208,0.2927081286907196
1684200612533046300,4.69704638671875,0.4819968044757843,0.12261983752250671,0.43446069955825806
1684200612543071000,4.707071044921875,0.4526737928390503,0.16272811591625214,0.5486664175987244
1684200612553097200,4.71709716796875,0.3891860544681549,0.28167328238487244,0.6160837411880493
1684200612563123200,4.727123291015625,0.2783183753490448,0.390911340713501,0.64031982421875
1684200612573149200,4.737149169921875,0.13068535923957825,0.45787885785102844,0.6420131921768188
1684200612583175200,4.747175048828125,-0.006776101421564817,0.45607563853263855,0.6350058913230896
1684200612593201200,4.757201171875,-0.1022745743393898,0.36900433897972107,0.630403459072113
1684200612603227100,4.76722705078125,-0.161015123128891,0.22758540511131287,0.6358402967453003
1684200612613253000,4.777253173828125,-0.17972728610038757,0.05457447096705437,0.6784471273422241
1684200612623278000,4.787278076171875,-0.1779714673757553,-0.09770268201828003,0.7609513401985168
1684200612633304000,4.797303955078125,-0.16454942524433136,-0.2551458775997162,0.8780174255371094
1684200612643330000,4.807330078125,-0.1591128557920456,-0.4014594256877899,1.0046337842941284
1684200612653356000,4.81735595703125,-0.17067557573318481,-0.5016007423400879,1.1265928745269775
1684200612663382000,4.827382080078125,-0.1924826055765152,-0.5960694551467896,1.2283896207809448
1684200612673408000,4.837407958984375,-0.21491894125938416,-0.7001895904541016,1.2960087060928345
1684200612683434200,4.847434326171875,-0.24650323390960693,-0.8219972252845764,1.3339747190475464
1684200612693459000,4.857458984375,-0.2784266471862793,-0.9459916949272156,1.3561010360717773
1684200612703485200,4.867485107421875,-0.3085115849971771,-1.047878623008728,1.3629189729690552
1684200612713511200,4.87751123046875,-0.3290901780128479,-1.0711287260055542,1.3488034009933472
1684200612723537200,4.887537109375,-0.33476483821868896,-1.0062919855117798,1.3227169513702393
1684200612733563100,4.897563232421875,-0.3491040766239166,-0.874363362789154,1.3116310834884644
1684200612743589000,4.907589111328125,-0.35799744725227356,-0.725368320941925,1.3277240991592407
1684200612753615000,4.917614990234375,-0.3831495940685272,-0.6058489680290222,1.3653228282928467
1684200612763641000,4.92764111328125,-0.41759198904037476,-0.5040938854217529,1.3977910280227661
1684200612773666000,4.937666015625,-0.48116612434387207,-0.4610539972782135,1.4158021211624146
1684200612783692000,4.947692138671875,-0.5526336431503296,-0.46153655648231506,1.4117999076843262
1684200612793718000,4.957718017578125,-0.6460505723953247,-0.5057964324951172,1.3953524827957153
1684200612803744000,4.967743896484375,-0.752277135848999,-0.5636448264122009,1.3718727827072144
1684200612813770000,4.97777001953125,-0.823343813419342,-0.6169393658638,1.3476964235305786
1684200612823796000,4.9877958984375,-0.875213086605072,-0.662605881690979,1.3224520683288574
1684200612833822200,4.997822265625,-0.9052068591117859,-0.7334548234939575,1.306215524673462
1684200612843847000,5.007846923828125,-0.9099127054214478,-0.7333733439445496,1.270574927330017
1684200612853873200,5.017873046875,-0.907291829586029,-0.6704146265983582,1.208547830581665
1684200612863899100,5.027899169921875,-0.9016395211219788,-0.5653268694877625,1.0745357275009155
1684200612873925000,5.037925048828125,-0.9155957102775574,-0.48702290654182434,0.9051300287246704
1684200612883951000,5.047951171875,-0.9135687351226807,-0.40471792221069336,0.69857257604599
1684200612893977000,5.05797705078125,-0.8262726068496704,-0.23966731131076813,0.4608512222766876
1684200612904003000,5.068003173828125,-0.6353066563606262,0.044900503009557724,0.2329418659210205
1684200612914029000,5.078029052734375,-0.42973458766937256,0.2838994860649109,0.0861739069223404
1684200612924054300,5.08805419921875,-0.26317358016967773,0.2847737967967987,-0.005631651729345322
1684200612934080000,5.098080078125,-0.14341221749782562,0.11098761111497879,-0.046723268926143646
1684200612944106000,5.10810595703125,-0.06323988735675812,-0.01965455897152424,-0.04252586141228676
1684200612954132000,5.118132080078125,-0.018958233296871185,0.05631568655371666,-0.02796209789812565
1684200612964158000,5.128157958984375,-0.021012594923377037,0.2941964268684387,-0.054297298192977905
1684200612974184000,5.138183837890625,-0.06327956914901733,0.5519341230392456,-0.132966548204422
1684200612984210200,5.148210205078125,-0.14112669229507446,0.7618803977966309,-0.18073460459709167
1684200612994235100,5.158235107421875,-0.23661856353282928,0.8707121014595032,-0.15648667514324188
1684200613004261000,5.16826123046875,-0.33284711837768555,0.843372106552124,-0.06637675315141678
1684200613014287400,5.178287353515625,-0.39334696531295776,0.6688899993896484,0.070488840341568
1684200613024313000,5.18831298828125,-0.41544109582901,0.3709925711154938,0.24499273300170898
1684200613034339000,5.198339111328125,-0.3742842972278595,-0.043783750385046005,0.4254699945449829
1684200613044365000,5.208364990234375,-0.26871180534362793,-0.5411938428878784,0.5817767977714539
1684200613054391000,5.21839111328125,-0.16473974287509918,-0.9379220008850098,0.6705588102340698
1684200613064417000,5.2284169921875,-0.10318262875080109,-1.0475618839263916,0.659201979637146
1684200613074442200,5.238442138671875,-0.085657499730587,-0.8431785106658936,0.5426909327507019
1684200613084468200,5.24846826171875,-0.0755918100476265,-0.43570849299430847,0.35810667276382446
1684200613094494200,5.258494140625,-0.08331440389156342,-0.029721880331635475,0.1810576468706131
1684200613104520200,5.268520263671875,-0.1409502625465393,0.24460208415985107,0.044675301760435104
1684200613114546200,5.278546142578125,-0.2173156887292862,0.3543512225151062,-0.06045740097761154
1684200613124572200,5.288572265625,-0.29374679923057556,0.35427534580230713,-0.147494837641716
1684200613134598100,5.29859814453125,-0.3758763074874878,0.3009374141693115,-0.21075193583965302
1684200613144624000,5.3086240234375,-0.43785765767097473,0.22537821531295776,-0.25699397921562195
1684200613154649000,5.318649169921875,-0.4729357957839966,0.14780785143375397,-0.2922111749649048
1684200613164675300,5.32867529296875,-0.4846870005130768,0.07154557853937149,-0.31722837686538696
1684200613174701300,5.338701416015625,-0.47440415620803833,0.009242605417966843,-0.33898526430130005
1684200613184727300,5.348727294921875,-0.44648197293281555,-0.004750441759824753,-0.3510754704475403
1684200613194753300,5.358753173828125,-0.41056400537490845,0.013686390593647957,-0.33980831503868103
1684200613204779300,5.368779296875,-0.3904206454753876,0.08163508027791977,-0.31337615847587585
1684200613214805200,5.37880517578125,-0.36959201097488403,0.2227887064218521,-0.27084940671920776
1684200613224830200,5.388830322265625,-0.35261011123657227,0.4375326931476593,-0.21579335629940033
1684200613234856200,5.398856201171875,-0.37310469150543213,0.8550851941108704,-0.19684165716171265
1684200613244882200,5.408882080078125,-0.39952218532562256,1.3524165153503418,-0.1454024314880371
1684200613254908200,5.418908203125,-0.3407047390937805,1.6763352155685425,0.05018384009599686
1684200613264934100,5.42893408203125,-0.3076959252357483,1.9253472089767456,0.3189796209335327
1684200613274960100,5.438960205078125,-0.2813339829444885,2.0324866771698,0.5392652750015259
1684200613284986000,5.448986083984375,-0.21339145302772522,1.8965858221054077,0.6180838942527771
1684200613295012400,5.459012451171875,-0.11145860701799393,1.4669841527938843,0.6075757145881653
1684200613305037000,5.469037109375,0.00398223614320159,0.7827886939048767,0.5113266706466675
1684200613315063300,5.479063232421875,0.09636341780424118,0.021233104169368744,0.3609244227409363
1684200613325089300,5.48908935546875,0.1525995135307312,-0.5581106543540955,0.20540271699428558
1684200613335115300,5.499115234375,0.1842917799949646,-0.7941266894340515,0.11410178244113922
1684200613345141200,5.509141357421875,0.21020247042179108,-0.8179484009742737,0.13804545998573303
1684200613355167200,5.519167236328125,0.23509013652801514,-0.7264366745948792,0.23448620736598969
1684200613365193200,5.529193115234375,0.23431143164634705,-0.5673090815544128,0.35367491841316223
1684200613375218200,5.53921826171875,0.2199755162000656,-0.4330252408981323,0.47813838720321655
1684200613385244200,5.549244140625,0.21136924624443054,-0.3262990415096283,0.5743296146392822
1684200613395270100,5.559270263671875,0.19979853928089142,-0.24423059821128845,0.6473578810691833
1684200613405296000,5.569296142578125,0.18908065557479858,-0.1835712492465973,0.689378023147583
1684200613415322000,5.579322021484375,0.17220856249332428,-0.15093359351158142,0.7006897926330566
1684200613425348000,5.58934814453125,0.1603841334581375,-0.13801993429660797,0.6883348822593689
1684200613435374000,5.5993740234375,0.15089751780033112,-0.17789757251739502,0.6598783731460571
1684200613445400000,5.609400146484375,0.13897055387496948,-0.2258072942495346,0.6110954284667969
1684200613455425000,5.619425048828125,0.11922401189804077,-0.25178420543670654,0.5388860702514648
1684200613465451000,5.629450927734375,0.10004498809576035,-0.2448357492685318,0.4479968845844269
1684200613475477000,5.63947705078125,0.06424673646688461,-0.2621627748012543,0.3846609890460968
1684200613485503000,5.6495029296875,0.045238420367240906,-0.29287195205688477,0.3287854790687561
1684200613495529000,5.659529052734375,0.05400865152478218,-0.28825581073760986,0.27576637268066406
1684200613505555200,5.66955517578125,0.04275013878941536,-0.21602822840213776,0.2313445657491684
1684200613515581200,5.679581298828125,0.01917669177055359,-0.09442520141601562,0.18845994770526886
1684200613525606100,5.689606201171875,0.0023774721194058657,0.039046306163072586,0.15739178657531738
1684200613535632100,5.699632080078125,-0.02326403744518757,0.14378918707370758,0.15911336243152618
1684200613545658000,5.709658203125,-0.04306783527135849,0.16798534989356995,0.16535314917564392
1684200613555684000,5.71968408203125,-0.060889702290296555,0.11555317789316177,0.16051779687404633
1684200613565710000,5.7297099609375,-0.06757450848817825,0.028865687549114227,0.1526806503534317
1684200613575736000,5.739736083984375,-0.06871616840362549,-0.06357419490814209,0.13251422345638275
1684200613585762000,5.749761962890625,-0.07641936093568802,-0.12535341084003448,0.11886873096227646
1684200613595788000,5.7597880859375,-0.08381658047437668,-0.1452270895242691,0.10492958873510361
1684200613605813000,5.76981298828125,-0.09613662958145142,-0.13272222876548767,0.10465368628501892
1684200613615839000,5.7798388671875,-0.09324060380458832,-0.10445664823055267,0.11654608696699142
1684200613625865000,5.789864990234375,-0.09222806990146637,-0.08345922082662582,0.14997008442878723
1684200613635891000,5.799890869140625,-0.07953234016895294,-0.09789853543043137,0.17889803647994995
1684200613645917000,5.8099169921875,-0.061852145940065384,-0.1405424028635025,0.19857239723205566
1684200613655943200,5.819943115234375,-0.05154087767004967,-0.21941913664340973,0.19545283913612366
1684200613665969200,5.82996923828125,-0.06166807934641838,-0.30487653613090515,0.16836822032928467
1684200613675994000,5.839994140625,-0.08708798140287399,-0.3619624972343445,0.12026182562112808
1684200613686020000,5.85002001953125,-0.11799024045467377,-0.39361095428466797,0.06444943696260452
1684200613696046000,5.860046142578125,-0.14476722478866577,-0.40589237213134766,0.0265415720641613
1684200613706072000,5.870072021484375,-0.15814748406410217,-0.3982996940612793,0.008268824778497219
1684200613716098000,5.88009814453125,-0.15542061626911163,-0.3660696744918823,0.012769035063683987
1684200613726124000,5.8901240234375,-0.14442628622055054,-0.3154461681842804,0.028478752821683884
1684200613736150000,5.90014990234375,-0.12922415137290955,-0.24897509813308716,0.058456044644117355
1684200613746176000,5.910176025390625,-0.11534801125526428,-0.20028212666511536,0.09025018662214279
1684200613756201000,5.920200927734375,-0.09658803045749664,-0.16482004523277283,0.1311907023191452
1684200613766227000,5.93022705078125,-0.0879703015089035,-0.16097363829612732,0.18484248220920563
1684200613776253000,5.9402529296875,-0.0900043472647667,-0.18814454972743988,0.2411637008190155
1684200613786279000,5.95027880859375,-0.09518180042505264,-0.23516052961349487,0.28306132555007935
1684200613796305000,5.960304931640625,-0.0956769809126854,-0.2919985055923462,0.30927354097366333
1684200613806331100,5.9703310546875,-0.09099647402763367,-0.37268614768981934,0.3112142086029053
1684200613816357000,5.980357177734375,-0.08398064970970154,-0.4902879297733307,0.29955536127090454
1684200613826382000,5.990382080078125,-0.08079151809215546,-0.6495060324668884,0.26929226517677307
1684200613836408000,6.000407958984375,-0.08032017201185226,-0.8021116852760315,0.19888935983181
1684200613846434000,6.01043408203125,-0.07299994677305222,-0.897724986076355,0.09359411150217056
1684200613856460000,6.0204599609375,-0.04810408875346184,-0.9350343346595764,-0.03294162079691887
1684200613866486000,6.030486083984375,-0.014134138822555542,-0.9072464108467102,-0.1668592095375061
1684200613876512000,6.040511962890625,0.01466586347669363,-0.8068585991859436,-0.30010804533958435
1684200613886538000,6.0505380859375,0.03960130736231804,-0.5901446342468262,-0.4286031424999237
1684200613896564000,6.06056396484375,0.07559513300657272,-0.2614215910434723,-0.5240891575813293
1684200613906589000,6.0705888671875,0.11753460019826889,0.13020266592502594,-0.5619166493415833
1684200613916615000,6.080614990234375,0.14780238270759583,0.5073962211608887,-0.5206741690635681
1684200613926641000,6.090640869140625,0.13252514600753784,0.7452051043510437,-0.3947569727897644
1684200613936667000,6.1006669921875,0.11169557273387909,0.6572760939598083,-0.19956862926483154
1684200613946692900,6.11069287109375,0.17770521342754364,-0.018985191360116005,-0.019488345831632614
1684200613956719000,6.120718994140625,0.35345762968063354,-1.100419282913208,-0.10079033672809601
1684200613966745000,6.1307451171875,0.5655624270439148,-2.0916669368743896,-0.5046704411506653
1684200613976770000,6.14077001953125,0.7256648540496826,-2.8165881633758545,-1.0882527828216553
1684200613986796000,6.150796142578125,0.7346463799476624,-3.2832279205322266,-1.6791871786117554
1684200613996822000,6.160822021484375,0.6359261274337769,-3.3614718914031982,-2.1585805416107178
1684200614006848000,6.170847900390625,0.5170783400535583,-2.9832637310028076,-2.4724009037017822
1684200614016874000,6.1808740234375,0.47414782643318176,-2.231989622116089,-2.668250560760498
1684200614026900000,6.19089990234375,0.46769899129867554,-1.33051335811615,-2.8052425384521484
1684200614036926000,6.200926025390625,0.42671871185302734,-0.48460653424263,-2.8677821159362793
1684200614046952000,6.210951904296875,0.355987548828125,0.19486919045448303,-2.754378318786621
1684200614056977200,6.22097705078125,0.2068304419517517,0.6885915398597717,-2.474579334259033
1684200614067003100,6.231003173828125,0.036989476531744,1.036624550819397,-2.1045758724212646
1684200614077028900,6.24102880859375,-0.0840575098991394,1.3415063619613647,-1.660252332687378
1684200614087054800,6.251054931640625,-0.06145419180393219,1.707965612411499,-1.017011046409607
1684200614097080800,6.261080810546875,0.10411055386066437,1.644075632095337,-0.3962932527065277
1684200614107107000,6.271107177734375,0.37713623046875,0.772799015045166,-0.21673814952373505
1684200614117133000,6.281133056640625,0.7046748995780945,-0.4112564027309418,-0.4190225303173065
1684200614127159000,6.291158935546875,0.9361438155174255,-1.1548855304718018,-0.6676653623580933
1684200614137184300,6.301184326171875,1.0104495286941528,-1.2274399995803833,-0.7679387927055359
1684200614147210200,6.311210205078125,0.996703565120697,-0.8434801697731018,-0.7015951871871948
1684200614157236200,6.321236328125,0.9526309967041016,-0.19339478015899658,-0.5032562017440796
1684200614167262000,6.331261962890625,0.8872032165527344,0.546328067779541,-0.2905423045158386
1684200614177288000,6.341287841796875,0.7800992727279663,1.0477157831192017,-0.18735627830028534
1684200614187314000,6.35131396484375,0.6457582712173462,1.2635211944580078,-0.20561517775058746
1684200614197340000,6.36133984375,0.5307869911193848,1.2190903425216675,-0.2272665649652481
1684200614207365000,6.371365234375,0.4546104669570923,1.0487180948257446,-0.2259882539510727
1684200614217391000,6.38139111328125,0.42526480555534363,0.886125922203064,-0.17803628742694855
1684200614227417000,6.3914169921875,0.4108951985836029,0.7790240049362183,-0.08472044765949249
1684200614237443000,6.401443115234375,0.4131918251514435,0.7273473143577576,0.030293753370642662
1684200614247469000,6.411468994140625,0.4165434241294861,0.767583966255188,0.12081140279769897
1684200614257495000,6.4214951171875,0.4084177017211914,0.8668033480644226,0.1787397414445877
1684200614267521000,6.43152099609375,0.3733063340187073,0.953973114490509,0.2382989376783371
1684200614277547000,6.441547119140625,0.3305552005767822,1.0369173288345337,0.34492620825767517
1684200614287572200,6.451572265625,0.2975618243217468,1.0424727201461792,0.4997765123844147
1684200614297598200,6.46159814453125,0.29548704624176025,1.0089025497436523,0.6683107018470764
1684200614307624200,6.471624267578125,0.32945671677589417,0.8453863263130188,0.8305922746658325
1684200614317650200,6.481650146484375,0.37872493267059326,0.6050013303756714,0.9431009292602539
1684200614327676200,6.49167626953125,0.43463748693466187,0.37795621156692505,0.979263424873352
1684200614337702100,6.5017021484375,0.47762373089790344,0.24660733342170715,0.9481935501098633
1684200614347728100,6.51172802734375,0.4948517382144928,0.2680990397930145,0.8690057992935181
1684200614357754000,6.521754150390625,0.48697224259376526,0.4618799686431885,0.7537844181060791
1684200614367779000,6.531779052734375,0.44998279213905334,0.783737063407898,0.6030406951904297
1684200614377805600,6.5418056640625,0.3570105731487274,1.1287742853164673,0.43627098202705383
1684200614387831600,6.55183154296875,0.24748539924621582,1.4236267805099487,0.2241949439048767
1684200614397857500,6.561857421875,0.1695910543203354,1.643526315689087,0.008716342970728874
1684200614407883500,6.571883544921875,0.11571905016899109,1.6090781688690186,-0.15093323588371277
1684200614417909500,6.581909423828125,0.10972731560468674,1.3764281272888184,-0.2072775661945343
1684200614427935500,6.591935546875,0.1605449616909027,1.137284755706787,-0.1729888617992401
1684200614437960700,6.601960693359375,0.21953576803207397,0.9959883093833923,-0.06590111553668976
1684200614447986700,6.611986572265625,0.25339892506599426,1.0464342832565308,0.06375781446695328
1684200614458012700,6.6220126953125,0.24440492689609528,1.3073636293411255,0.13623084127902985
1684200614468038700,6.63203857421875,0.19266396760940552,1.603963017463684,0.11911337077617645
1684200614478064600,6.642064697265625,0.1303475946187973,1.7974281311035156,0.04266786575317383
1684200614488090600,6.652090576171875,0.07560445368289948,1.8875806331634521,-0.04054686427116394
1684200614498116600,6.66211669921875,0.03475603461265564,1.931015133857727,-0.10366351902484894
1684200614508142600,6.672142578125,0.022909758612513542,1.916888952255249,-0.12730492651462555
1684200614518167600,6.68216748046875,0.025259073823690414,1.8740986585617065,-0.10114171355962753
1684200614528193500,6.692193603515625,0.04119010269641876,1.8304132223129272,-0.06752090156078339
1684200614538219500,6.702219482421875,0.05868062004446983,1.805533528327942,-0.030740413814783096
1684200614548245500,6.71224560546875,0.07601752877235413,1.7867438793182373,-0.006385272368788719
1684200614558271500,6.722271484375,0.08373164385557175,1.7865122556686401,0.00507031474262476
1684200614568297700,6.732297607421875,0.07814636081457138,1.8187379837036133,0.01152256689965725
1684200614578323700,6.74232373046875,0.07199931889772415,1.8993330001831055,0.010722394101321697
1684200614588348700,6.7523486328125,0.05932241305708885,1.9901081323623657,-0.007340761832892895
1684200614598374700,6.762374755859375,0.0341341495513916,2.081015110015869,-0.041310764849185944
1684200614608400600,6.772400634765625,-0.00754671823233366,2.1567938327789307,-0.09549278020858765
1684200614618426600,6.782426513671875,-0.06730000674724579,2.2124228477478027,-0.18781135976314545
1684200614628452600,6.79245263671875,-0.14123761653900146,2.2576076984405518,-0.3035121262073517
1684200614638478600,6.802478515625,-0.22272443771362305,2.3040010929107666,-0.4147608280181885
1684200614648504600,6.812504638671875,-0.3007281422615051,2.35653018951416,-0.5076151490211487
1684200614658530600,6.822530517578125,-0.3572715222835541,2.4213218688964844,-0.5614328980445862
1684200614668555500,6.832555419921875,-0.39457789063453674,2.46720814704895,-0.5674566626548767
1684200614678581500,6.84258154296875,-0.41418853402137756,2.4737651348114014,-0.501878023147583
1684200614688607500,6.852607421875,-0.4099903404712677,2.4462356567382812,-0.3713732361793518
1684200614698633500,6.862633544921875,-0.3827272057533264,2.427462339401245,-0.20731070637702942
1684200614708659500,6.872659423828125,-0.35677388310432434,2.4019646644592285,-0.03138947859406471
1684200614718685700,6.882685791015625,-0.3334963023662567,2.3515872955322266,0.12847203016281128
1684200614728711700,6.892711669921875,-0.3167383670806885,2.312037706375122,0.26479580998420715
1684200614738736400,6.902736328125,-0.30245253443717957,2.289806365966797,0.3541010022163391
1684200614748762600,6.9127626953125,-0.29259058833122253,2.279376268386841,0.41024601459503174
1684200614758788600,6.92278857421875,-0.3031068444252014,2.3194127082824707,0.41943925619125366
1684200614768814600,6.932814697265625,-0.3466401994228363,2.438340187072754,0.37597861886024475
1684200614778840600,6.942840576171875,-0.39090922474861145,2.5948753356933594,0.307013601064682
1684200614788866600,6.952866455078125,-0.43017834424972534,2.671746253967285,0.26475322246551514
1684200614798892500,6.962892578125,-0.46057966351509094,2.6240742206573486,0.2737792134284973
1684200614808918500,6.97291845703125,-0.46936753392219543,2.4430909156799316,0.29274383187294006
1684200614818943500,6.982943603515625,-0.49593958258628845,2.1305129528045654,0.313766211271286
1684200614828969500,6.992969482421875,-0.5788877010345459,1.7842745780944824,0.33010977506637573
1684200614838995500,7.002995361328125,-0.7029768824577332,1.6624218225479126,0.34818506240844727
1684200614849021400,7.013021484375,-0.7420042157173157,2.0858421325683594,0.303412526845932
1684200614859047400,7.02304736328125,-0.5541446208953857,2.647805690765381,0.15058793127536774
1684200614869073700,7.03307373046875,-0.4436924159526825,2.689380407333374,-0.050511881709098816
1684200614879099600,7.043099609375,-0.4909686744213104,2.336516857147217,-0.22687572240829468
1684200614889124400,7.053124267578125,-0.5637670159339905,2.005350112915039,-0.38717883825302124
1684200614899150600,7.063150634765625,-0.5828967690467834,1.81777024269104,-0.5148264765739441
1684200614909176600,7.073176513671875,-0.5624822974205017,1.8058501482009888,-0.5725334286689758
1684200614919202600,7.08320263671875,-0.5752156376838684,1.9471122026443481,-0.553460419178009
1684200614929228500,7.093228515625,-0.5953763127326965,2.1842501163482666,-0.42726731300354004
1684200614939254500,7.103254638671875,-0.5845493674278259,2.4773666858673096,-0.18039824068546295
1684200614949280500,7.113280517578125,-0.523727297782898,2.7608416080474854,0.14135316014289856
1684200614959306500,7.123306396484375,-0.397136390209198,3.0070505142211914,0.44536471366882324
1684200614969331500,7.13333154296875,-0.25662800669670105,3.0635979175567627,0.6442576050758362
1684200614979357400,7.143357421875,-0.1524447649717331,2.9727208614349365,0.6601213216781616
1684200614989383400,7.153383544921875,-0.11912621557712555,2.870267868041992,0.5359998941421509
1684200614999409400,7.163409423828125,-0.12957808375358582,2.8921444416046143,0.27555176615715027
1684200615009435400,7.173435302734375,-0.13039007782936096,3.064347505569458,-0.049418866634368896
1684200615019461400,7.18346142578125,-0.11445674300193787,3.3456151485443115,-0.35007140040397644
1684200615029487600,7.193487548828125,-0.12567956745624542,3.6491951942443848,-0.5736922025680542
1684200615039513600,7.203513671875,-0.16050434112548828,3.8818280696868896,-0.6948295831680298
1684200615049538600,7.21353857421875,-0.1733357161283493,3.9987361431121826,-0.732620894908905
1684200615059564500,7.223564453125,-0.13511569797992706,3.9422810077667236,-0.7623427510261536
1684200615069589500,7.233589599609375,-0.05941427871584892,3.6782915592193604,-0.8093347549438477
1684200615079615500,7.243615478515625,0.005152899771928787,3.294908046722412,-0.8902397751808167
1684200615089641500,7.253641357421875,0.0406658872961998,2.882565498352051,-0.962699830532074
1684200615099667500,7.26366748046875,0.07287701964378357,2.548304319381714,-0.99716717004776
1684200615109693400,7.273693359375,0.08793000131845474,2.358675956726074,-0.9697268009185791
1684200615119719400,7.283719482421875,0.07969190925359726,2.25081205368042,-0.9171178340911865
1684200615129745400,7.293745361328125,0.06076163053512573,2.2014358043670654,-0.8752478957176208
1684200615139771400,7.303771484375,0.040028199553489685,2.2060723304748535,-0.8532782196998596
1684200615149796600,7.313796630859375,-0.006808013655245304,2.2414681911468506,-0.846677303314209
1684200615159822300,7.323822265625,-0.07227881252765656,2.339202880859375,-0.8127237558364868
1684200615169848300,7.333848388671875,-0.14001604914665222,2.4737513065338135,-0.766984760761261
1684200615179874300,7.343874267578125,-0.21422122418880463,2.640199661254883,-0.7255711555480957
1684200615189900300,7.353900390625,-0.2714155316352844,2.8187246322631836,-0.6898632645606995
1684200615199926500,7.363926513671875,-0.31954720616340637,3.009152889251709,-0.6556034088134766
1684200615209952500,7.373952392578125,-0.34540435671806335,3.222219705581665,-0.6197412610054016
1684200615219977700,7.383977783203125,-0.35518866777420044,3.404409170150757,-0.585195004940033
1684200615230003700,7.394003662109375,-0.3467656075954437,3.504910945892334,-0.552768349647522
1684200615240029700,7.40402978515625,-0.3370402753353119,3.4954440593719482,-0.5319562554359436
1684200615250055400,7.414055419921875,-0.3179299831390381,3.3838465213775635,-0.5342505574226379
1684200615260081400,7.424081298828125,-0.2977442145347595,3.198702812194824,-0.5483631491661072
1684200615270107400,7.434107421875,-0.28289124369621277,3.0289976596832275,-0.5840165019035339
1684200615280133400,7.44413330078125,-0.28707730770111084,2.932861566543579,-0.6406108140945435
1684200615290159400,7.454159423828125,-0.31640297174453735,2.9280755519866943,-0.7261486053466797
1684200615300184600,7.4641845703125,-0.35658878087997437,3.0278584957122803,-0.8246132135391235
1684200615310210600,7.47421044921875,-0.39580008387565613,3.1899237632751465,-0.9346510171890259
1684200615320236500,7.484236572265625,-0.4291251301765442,3.3613500595092773,-1.0157506465911865
1684200615330262500,7.494262451171875,-0.4527766704559326,3.530461549758911,-1.064070463180542
1684200615340288500,7.50428857421875,-0.4700241684913635,3.710838794708252,-1.0669502019882202
1684200615350314500,7.514314453125,-0.4899672567844391,3.8898181915283203,-1.0576543807983398
1684200615360340500,7.524340576171875,-0.5061848163604736,4.007348537445068,-1.0557247400283813
1684200615370365700,7.53436572265625,-0.5084282755851746,3.9732749462127686,-1.0617682933807373
1684200615380390700,7.544390625,-0.4873678982257843,3.8074190616607666,-1.054526448249817
1684200615390417000,7.5544169921875,-0.46575579047203064,3.551905870437622,-1.0428853034973145
1684200615400443000,7.56444287109375,-0.43959665298461914,3.290757894515991,-1.0127381086349487
1684200615410468900,7.57446875,-0.416814386844635,3.0665948390960693,-0.9719340205192566
1684200615420494800,7.584494873046875,-0.37431520223617554,2.861424684524536,-0.9097077250480652
1684200615430520800,7.594520751953125,-0.3080400228500366,2.6664206981658936,-0.8420213460922241
1684200615440546800,7.604546875,-0.24549870193004608,2.532616138458252,-0.8077212572097778
1684200615450571800,7.61457177734375,-0.18438981473445892,2.510087490081787,-0.8628324270248413
1684200615460597800,7.62459765625,-0.13459448516368866,2.4523515701293945,-1.0454256534576416
1684200615470623700,7.634623779296875,-0.059917327016592026,2.0900115966796875,-1.2926054000854492
1684200615480649700,7.644649658203125,0.01022577378898859,1.5390923023223877,-1.5627245903015137
1684200615490675700,7.65467578125,0.0749933123588562,1.0368927717208862,-1.79253089427948
1684200615500701700,7.66470166015625,0.11753787845373154,0.6315432190895081,-1.9354562759399414
1684200615510727700,7.674727783203125,0.14974188804626465,0.37023308873176575,-1.9796301126480103
1684200615520754000,7.68475390625,0.19981731474399567,0.28273913264274597,-1.9221271276474
1684200615530780000,7.69477978515625,0.29678139090538025,0.3491237461566925,-1.7391456365585327
1684200615540804900,7.704804931640625,0.410420686006546,0.5589662194252014,-1.4602866172790527
1684200615550830800,7.714830810546875,0.4493694305419922,0.8553670048713684,-1.1461122035980225
1684200615560856800,7.72485693359375,0.4160279929637909,1.149366855621338,-0.8749773502349854
1684200615570882800,7.7348828125,0.39265793561935425,1.402069091796875,-0.7071194052696228
1684200615580908800,7.74490869140625,0.4430839419364929,1.5322239398956299,-0.6738249063491821
1684200615590934800,7.754934814453125,0.5521539449691772,1.431503176689148,-0.7007380127906799
1684200615600960800,7.764960693359375,0.6846370100975037,1.1483852863311768,-0.6971608400344849
1684200615610986800,7.77498681640625,0.8358736634254456,0.8117550611495972,-0.6436177492141724
1684200615621011700,7.78501171875,0.9685069918632507,0.5659633278846741,-0.5596387386322021
1684200615631037700,7.79503759765625,1.100011944770813,0.4591548442840576,-0.3901214003562927
1684200615641063700,7.805063720703125,1.216556429862976,0.4668653607368469,-0.12452751398086548
1684200615651089700,7.815089599609375,1.318252682685852,0.45119133591651917,0.15157437324523926
1684200615661115600,7.82511572265625,1.3924599885940552,0.2511342763900757,0.2831518352031708
1684200615671142000,7.835141845703125,1.427650809288025,-0.11576541513204575,0.1563853770494461
1684200615681168000,7.84516796875,1.3699872493743896,-0.4003560543060303,-0.2287539392709732
1684200615691192800,7.85519287109375,1.1777623891830444,-0.35900968313217163,-0.6501646041870117
1684200615701218800,7.86521875,0.9703776240348816,0.04227808490395546,-0.9963751435279846
1684200615711244800,7.875244873046875,0.7705323696136475,0.684299886226654,-1.2210721969604492
1684200615721270800,7.885270751953125,0.6549383401870728,1.3856452703475952,-1.3172547817230225
1684200615731296800,7.895296875,0.5913929343223572,1.9100902080535889,-1.2906087636947632
1684200615741322800,7.90532275390625,0.5867984294891357,2.2087087631225586,-1.2725396156311035
1684200615751348700,7.9153486328125,0.6005733609199524,2.2240841388702393,-1.2959694862365723
1684200615761374700,7.925374755859375,0.6000136733055115,1.8826137781143188,-1.3366596698760986
1684200615771399700,7.935399658203125,0.5934005379676819,1.4374501705169678,-1.3793925046920776
1684200615781425700,7.94542578125,0.5961272120475769,1.0569878816604614,-1.3552550077438354
1684200615791451600,7.95545166015625,0.6118691563606262,0.8675293326377869,-1.3132988214492798
1684200615801477600,7.9654775390625,0.5805310606956482,0.7979516983032227,-1.269532561302185
1684200615811503600,7.975503662109375,0.5328330397605896,0.8895900249481201,-1.1855226755142212
1684200615821529900,7.98552978515625,0.47687676548957825,1.0120798349380493,-1.0843614339828491
1684200615831555800,7.995555908203125,0.43365126848220825,1.0064189434051514,-1.0033822059631348
1684200615841581800,8.005581787109374,0.3944907486438751,0.8799591064453125,-0.9286925196647644
1684200615851606800,8.015606689453126,0.3712370693683624,0.7412416934967041,-0.8455083966255188
1684200615861632800,8.0256328125,0.36158743500709534,0.5785773396492004,-0.7377891540527344
1684200615871658800,8.03565869140625,0.3657981753349304,0.450475811958313,-0.6428496241569519
1684200615881684700,8.045684814453125,0.3881005048751831,0.3843185007572174,-0.5485733151435852
1684200615891710700,8.055710693359375,0.41904404759407043,0.37578946352005005,-0.4718274176120758
1684200615901736700,8.06573681640625,0.4470844864845276,0.4025639295578003,-0.42838260531425476
1684200615911762700,8.0757626953125,0.4837850034236908,0.44800466299057007,-0.41488274931907654
1684200615921787600,8.08578759765625,0.5102195143699646,0.5212014317512512,-0.4109606146812439
1684200615931813600,8.095813720703125,0.5170316100120544,0.6189373135566711,-0.4116019010543823
1684200615941839600,8.105839599609375,0.4849506914615631,0.6909287571907043,-0.4098004698753357
1684200615951865600,8.115865478515625,0.44860920310020447,0.7553146481513977,-0.40608856081962585
1684200615961891600,8.1258916015625,0.38385340571403503,0.7547820806503296,-0.3733275234699249
1684200615971917800,8.135917724609374,0.3033601641654968,0.6604095101356506,-0.2852482795715332
1684200615981943800,8.14594384765625,0.22333306074142456,0.522750973701477,-0.14774110913276672
1684200615991969800,8.1559697265625,0.16517068445682526,0.3866748809814453,0.004912602715194225
1684200616001994800,8.165994873046875,0.11700715124607086,0.2709205746650696,0.14984770119190216
1684200616012020700,8.176020751953125,0.08232933282852173,0.14375117421150208,0.28557196259498596
1684200616022046700,8.186046630859375,0.0592508502304554,-0.00875941477715969,0.41561785340309143
1684200616032072700,8.19607275390625,0.058340318500995636,-0.19091564416885376,0.549801766872406
1684200616042098700,8.2060986328125,0.06773612648248672,-0.3630591034889221,0.6795037388801575
1684200616052124700,8.216124755859376,0.07510935515165329,-0.49807098507881165,0.775397777557373
1684200616062150700,8.226150634765625,0.08162310719490051,-0.5435596108436584,0.8364921808242798
1684200616072175600,8.236175537109375,0.08350329846143723,-0.4552558362483978,0.8739665746688843
1684200616082201600,8.24620166015625,0.08023000508546829,-0.26821988821029663,0.9102151393890381
1684200616092227600,8.2562275390625,0.07585576176643372,-0.03922745957970619,0.9453821778297424
1684200616102253600,8.266253662109374,0.06592603027820587,0.15515464544296265,0.9809583425521851
1684200616112279600,8.276279541015626,0.03396223857998848,0.2884964644908905,1.00285005569458
1684200616122305800,8.286305908203126,-0.00702904537320137,0.3586168885231018,1.0079169273376465
1684200616132331800,8.296331787109375,-0.05672815814614296,0.37700334191322327,0.9964277148246765
1684200616142357800,8.306357666015625,-0.08460605889558792,0.33784884214401245,0.9731332659721375
1684200616152383000,8.316383056640625,-0.10447510331869125,0.2754350006580353,0.9127378463745117
1684200616162408700,8.32640869140625,-0.10759593546390533,0.232624351978302,0.8246979117393494
1684200616172434700,8.3364345703125,-0.09942056238651276,0.17183424532413483,0.7546203136444092
1684200616182460700,8.346460693359376,-0.0867295116186142,0.09827428311109543,0.7149094343185425
1684200616192486700,8.356486572265625,-0.09038150310516357,0.03652250021696091,0.7273961901664734
1684200616202512600,8.3665126953125,-0.11374061554670334,0.01691730134189129,0.7928433418273926
1684200616212538600,8.37653857421875,-0.1513739973306656,0.025780033320188522,0.8672712445259094
1684200616222564600,8.386564697265625,-0.19278351962566376,0.036762796342372894,0.9240451455116272
1684200616232589800,8.39658984375,-0.22915324568748474,-0.016850097104907036,0.9586124420166016
1684200616242615800,8.40661572265625,-0.2630053758621216,-0.08457177132368088,0.9770479798316956
1684200616252641800,8.416641845703126,-0.3094269335269928,-0.13279177248477936,0.988831639289856
1684200616262667800,8.426667724609375,-0.3490677773952484,-0.19242195785045624,0.9980635046958923
1684200616272693800,8.43669384765625,-0.3762088418006897,-0.2681904733181,1.034436583518982
1684200616282719700,8.4467197265625,-0.3862439692020416,-0.35571733117103577,1.0742790699005127
1684200616292745700,8.456745849609375,-0.39593973755836487,-0.4094703197479248,1.1094365119934082
1684200616302771700,8.466771728515624,-0.4206138551235199,-0.3863978385925293,1.1325016021728516
1684200616312797000,8.476796875,-0.47810617089271545,-0.32269904017448425,1.1536415815353394
1684200616322823000,8.486822998046875,-0.5670182108879089,-0.23907046020030975,1.1415824890136719
1684200616332849000,8.496848876953125,-0.60212242603302,-0.08429127186536789,1.057654619216919
1684200616342875000,8.506875,-0.5031453371047974,0.1173267662525177,0.8735169768333435
1684200616352900900,8.51690087890625,-0.21750585734844208,0.2725922465324402,0.43929174542427063
1684200616362926800,8.5269267578125,0.0750836506485939,0.31690606474876404,0.058227065950632095
1684200616372952600,8.53695263671875,0.15131129324436188,0.2725798785686493,0.03383330628275871
1684200616382978600,8.546978515625,0.11040709167718887,0.041795406490564346,0.1028418242931366
1684200616393004500,8.557004638671875,-0.007282521575689316,-0.2518782913684845,0.08706819266080856
1684200616403030500,8.567030517578125,-0.09757238626480103,-0.3676750361919403,-0.022130947560071945
1684200616413056500,8.577056396484375,-0.14266210794448853,-0.330818235874176,-0.10913268476724625
1684200616423082500,8.58708251953125,-0.23540018498897552,-0.19711869955062866,-0.10750017315149307
1684200616433108500,8.5971083984375,-0.37041500210762024,0.04038332402706146,-0.03887717053294182
1684200616443134500,8.607134521484374,-0.5024442672729492,0.2983956038951874,0.05201779678463936
1684200616453160400,8.617160400390626,-0.617972731590271,0.36980053782463074,0.1257452815771103
1684200616463185700,8.627185546875,-0.6999250054359436,0.19105687737464905,0.20026575028896332
1684200616473211600,8.637211669921875,-0.7510808110237122,-0.14909297227859497,0.29956117272377014
1684200616483237600,8.647237548828125,-0.7215309739112854,-0.5187333822250366,0.42895206809043884
1684200616493263600,8.657263671875,-0.6074177622795105,-0.8431356549263,0.5897145867347717
1684200616503289600,8.66728955078125,-0.4595208466053009,-1.092523455619812,0.7701283097267151
1684200616513315600,8.677315673828126,-0.32611003518104553,-1.2547270059585571,0.9131091833114624
1684200616523341600,8.687341552734376,-0.24603989720344543,-1.3068617582321167,0.9600966572761536
1684200616533367600,8.697367431640625,-0.19011430442333221,-1.2393876314163208,0.9033063650131226
1684200616543392800,8.707392822265625,-0.15887074172496796,-1.0627752542495728,0.7630230188369751
1684200616553418800,8.717418701171875,-0.16461677849292755,-0.7090404033660889,0.5345677733421326
1684200616563444700,8.72744482421875,-0.2476370930671692,-0.12295264005661011,0.20969274640083313
1684200616573470700,8.737470703125,-0.3448981046676636,0.452736496925354,-0.10039746761322021
1684200616583496400,8.747496337890626,-0.37268954515457153,0.8127790689468384,-0.290762335062027
1684200616593522400,8.7575224609375,-0.3747604191303253,0.9867498278617859,-0.36286798119544983
1684200616603548400,8.76754833984375,-0.3943553566932678,1.0631077289581299,-0.39370429515838623
1684200616613573600,8.77757373046875,-0.3845740854740143,1.1123583316802979,-0.3998090624809265
1684200616623599600,8.787599609375,-0.3041156232357025,1.0399671792984009,-0.3202533423900604
1684200616633625900,8.7976259765625,-0.18978743255138397,0.7807848453521729,-0.17165349423885345
1684200616643651800,8.80765185546875,-0.06245937943458557,0.3789377510547638,0.0006930357776582241
1684200616653677800,8.817677734375,0.03365569934248924,0.008333059027791023,0.13013891875743866
1684200616663703800,8.827703857421875,0.0769347995519638,-0.2413043975830078,0.19849367439746857
1684200616673729500,8.8377294921875,0.07357388734817505,-0.35675349831581116,0.21906819939613342
1684200616683755500,8.847755615234375,0.09354843944311142,-0.37622469663619995,0.21199169754981995
1684200616693780700,8.85778076171875,0.10531934350728989,-0.3910275995731354,0.24341246485710144
1684200616703806700,8.867806640625,0.08794254809617996,-0.390439510345459,0.3043071925640106
1684200616713832700,8.877832763671876,0.07844358682632446,-0.34210634231567383,0.3776458501815796
1684200616723858700,8.887858642578125,0.05442925542593002,-0.1794721484184265,0.41518479585647583
1684200616733884700,8.897884765625,0.06581480801105499,0.012882648967206478,0.434151828289032
1684200616743910700,8.90791064453125,0.08620456606149673,0.15910571813583374,0.4483962655067444
1684200616753936600,8.9179365234375,0.11726953834295273,0.2218489944934845,0.46245402097702026
1684200616763962600,8.927962646484374,0.13189421594142914,0.20691892504692078,0.4687119126319885
1684200616773987600,8.937987548828126,0.14543426036834717,0.1172335147857666,0.4579111933708191
1684200616784013800,8.948013916015626,0.15508659183979034,-0.051036182790994644,0.4407566487789154
1684200616794039800,8.958039794921875,0.16967140138149261,-0.254222571849823,0.41295433044433594
1684200616804065800,8.968065673828125,0.17155379056930542,-0.4233240485191345,0.38324764370918274
1684200616814091800,8.978091796875,0.17112955451011658,-0.5044955611228943,0.3475058972835541
1684200616824117800,8.98811767578125,0.17147085070610046,-0.5026320815086365,0.32576295733451843
1684200616834143700,8.998143798828124,0.1700599044561386,-0.4235111474990845,0.3359098732471466
1684200616844169700,9.008169677734376,0.16291522979736328,-0.28010594844818115,0.37388941645622253
1684200616854194700,9.018194580078125,0.15147508680820465,-0.10529576987028122,0.43791526556015015
1684200616864220700,9.028220703125,0.137599915266037,0.08401917666196823,0.5071510076522827
1684200616874246700,9.03824658203125,0.13555806875228882,0.2783351242542267,0.5616734027862549
1684200616884272600,9.048272705078125,0.13503654301166534,0.44844430685043335,0.588296115398407
1684200616894298600,9.058298583984374,0.13539287447929382,0.5633916258811951,0.5874449610710144
1684200616904324600,9.06832470703125,0.12925003468990326,0.6212809085845947,0.545914888381958
1684200616914350800,9.078350830078126,0.11554219573736191,0.6053770184516907,0.48862946033477783
1684200616924375600,9.08837548828125,0.09702765941619873,0.5178698897361755,0.4303516447544098
1684200616934401800,9.09840185546875,0.08894549310207367,0.4001685678958893,0.3713815212249756
1684200616944427800,9.108427734375,0.08241835236549377,0.25888317823410034,0.32960623502731323
1684200616954453800,9.118453857421875,0.09252478182315826,0.1274641752243042,0.305083304643631
1684200616964479700,9.128479736328124,0.11382032185792923,0.03757726028561592,0.2996169328689575
1684200616974505700,9.138505615234376,0.14361895620822906,-0.041412629187107086,0.311125248670578
1684200616984531700,9.14853173828125,0.16219684481620789,-0.1372915655374527,0.3325600326061249
1684200616994557700,9.1585576171875,0.1646386981010437,-0.2604457139968872,0.34473279118537903
1684200617004582700,9.168582763671875,0.1399594247341156,-0.37309813499450684,0.32291731238365173
1684200617014608600,9.178608642578125,0.10823559015989304,-0.46356359124183655,0.25611111521720886
1684200617024634600,9.188634521484374,0.06934451311826706,-0.512154221534729,0.16487957537174225
1684200617034660600,9.19866064453125,0.03216331824660301,-0.5179886817932129,0.07009554654359818
1684200617044686600,9.2086865234375,0.00009798840619623661,-0.47883614897727966,0.004339596722275019
1684200617054712600,9.218712646484375,-0.02308855764567852,-0.4176388382911682,-0.02724629081785679
1684200617064738800,9.22873876953125,-0.05170389637351036,-0.3766029477119446,-0.007078280672430992
1684200617074764800,9.238764892578125,-0.07048424333333969,-0.3439091742038727,0.03734644502401352
1684200617084789800,9.248789794921874,-0.08402198553085327,-0.3168952167034149,0.09177160263061523
1684200617094815700,9.258815673828124,-0.0898527055978775,-0.28117263317108154,0.14571073651313782
1684200617104841700,9.268841796875,-0.10798142105340958,-0.2529366910457611,0.193907231092453
1684200617114867700,9.27886767578125,-0.1300041675567627,-0.22767049074172974,0.2390049397945404
1684200617124893700,9.288893798828125,-0.15326029062271118,-0.2048947960138321,0.2707183361053467
1684200617134919700,9.298919677734375,-0.16660432517528534,-0.18199481070041656,0.2853880822658539
1684200617144945700,9.308945556640625,-0.18077050149440765,-0.18488246202468872,0.27855944633483887
1684200617154970600,9.318970703125,-0.1886281669139862,-0.2142305076122284,0.27573275566101074
1684200617164996600,9.32899658203125,-0.1946447342634201,-0.2649472653865814,0.27228134870529175
1684200617175022600,9.339022705078126,-0.18115155398845673,-0.3322908878326416,0.27206698060035706
1684200617185048600,9.349048583984375,-0.16042518615722656,-0.3887236416339874,0.29051655530929565
1684200617195074600,9.359074462890625,-0.12865100800991058,-0.428244411945343,0.3099890649318695
1684200617205100500,9.3691005859375,-0.0979415625333786,-0.43687546253204346,0.30929771065711975
1684200617215126800,9.379126708984375,-0.09978234022855759,-0.4146324694156647,0.282155305147171
1684200617225152800,9.38915283203125,-0.13896048069000244,-0.3551567494869232,0.2023344486951828
1684200617235177500,9.399177490234376,-0.14469532668590546,-0.2251787632703781,0.07663402706384659
1684200617245203700,9.40920361328125,-0.11648662388324738,-0.04759781435132027,-0.05078895390033722
1684200617255229700,9.419229736328125,-0.08323147892951965,0.15267908573150635,-0.14113377034664154
1684200617265255700,9.429255615234375,-0.047221727669239044,0.3329080045223236,-0.1929379403591156
1684200617275281700,9.43928173828125,-0.011913005262613297,0.48114991188049316,-0.21102933585643768
1684200617285307600,9.4493076171875,0.018591534346342087,0.5821281671524048,-0.1911003142595291
1684200617295333600,9.459333740234374,0.027915526181459427,0.5454921722412109,-0.13503092527389526
1684200617305359600,9.469359619140626,0.03469378873705864,0.34009671211242676,-0.06364569067955017
1684200617315384600,9.479384521484375,0.08059682697057724,-0.03175489604473114,-0.006426072679460049
1684200617325410600,9.48941064453125,0.1615123152732849,-0.5388349890708923,0.04134800285100937
1684200617335436500,9.4994365234375,0.26526081562042236,-1.2773569822311401,0.07424123585224152
1684200617345462500,9.509462646484375,0.40998154878616333,-2.2602107524871826,0.061372946947813034
1684200617355488500,9.519488525390624,0.5434011220932007,-3.028902769088745,-0.1296156495809555
1684200617365514500,9.529514404296876,0.5744202733039856,-3.3218657970428467,-0.5051177740097046
1684200617375540700,9.539540771484376,0.4816591739654541,-3.1961677074432373,-0.9755542278289795
1684200617385566700,9.549566650390625,0.3167559802532196,-2.7612359523773193,-1.456580400466919
1684200617395591700,9.559591796875,0.14759628474712372,-2.0727789402008057,-1.9168652296066284
1684200617405617700,9.56961767578125,0.03332557901740074,-1.156268835067749,-2.357090473175049
1684200617415643600,9.5796435546875,0.013310858979821205,-0.2334475815296173,-2.71032452583313
1684200617425669600,9.589669677734374,0.0191546231508255,0.3149423599243164,-2.8986589908599854
1684200617435695600,9.599695556640626,0.034462206065654755,0.48408371210098267,-2.884237766265869
1684200617445721900,9.609721923828126,0.10128677636384964,0.4460151791572571,-2.7403273582458496
1684200617455747800,9.619747802734375,0.1893966645002365,0.4926300644874573,-2.551212787628174
1684200617465772800,9.629772705078125,0.2888432741165161,0.6336953043937683,-2.3247718811035156
1684200617475798800,9.639798828125,0.34269851446151733,0.7495081424713135,-2.047067165374756
1684200617485824800,9.64982470703125,0.46918901801109314,0.8109320402145386,-1.6849864721298218
1684200617495850800,9.659850830078126,0.626811146736145,0.4886748790740967,-1.217084527015686
1684200617505876700,9.669876708984376,0.7938122749328613,-0.28164926171302795,-0.7792750000953674
1684200617515902700,9.67990283203125,0.9741530418395996,-1.2302017211914062,-0.5942681431770325
1684200617525928700,9.6899287109375,1.18594229221344,-2.0257766246795654,-0.596614420413971
1684200617535954700,9.69995458984375,1.4491795301437378,-2.3823485374450684,-0.5908255577087402
1684200617545979600,9.709979736328124,1.7639167308807373,-2.276306390762329,-0.46930399537086487
1684200617556005600,9.720005615234374,1.9734958410263062,-1.6546512842178345,-0.29823529720306396
1684200617566031600,9.730031494140626,1.9238396883010864,-0.7214633822441101,-0.27859485149383545
1684200617576057600,9.7400576171875,1.7134816646575928,0.0649944320321083,-0.5084205865859985
1684200617586083600,9.75008349609375,1.5438965559005737,0.7153365612030029,-0.8288726806640625
1684200617596109800,9.76010986328125,1.4307100772857666,1.5565630197525024,-1.1731326580047607
1684200617606135800,9.7701357421875,1.3572334051132202,2.086473226547241,-1.3961288928985596
1684200617616161800,9.780161865234374,1.310149073600769,2.0601601600646973,-1.5266791582107544
1684200617626186800,9.790186767578126,1.3046876192092896,1.8733166456222534,-1.614682674407959
1684200617636212700,9.800212646484376,1.2968180179595947,1.7066054344177246,-1.6528785228729248
1684200617646238700,9.81023876953125,1.264041781425476,1.523360252380371,-1.6418406963348389
1684200617656264700,9.8202646484375,1.2539594173431396,1.450225830078125,-1.6067205667495728
1684200617666290700,9.830290771484375,1.2731236219406128,1.5052801370620728,-1.5126826763153076
1684200617676316700,9.840316650390625,1.2638909816741943,1.5529587268829346,-1.3426926136016846
1684200617686342700,9.8503427734375,1.1967982053756714,1.4737657308578491,-1.14006769657135
1684200617696368600,9.86036865234375,1.103882908821106,1.4223823547363281,-0.9859667420387268
1684200617706393600,9.8703935546875,1.0062726736068726,1.4962326288223267,-0.9544245600700378
1684200617716419600,9.880419677734375,0.9213047623634338,1.5668617486953735,-0.9661328792572021
1684200617726445600,9.890445556640625,0.8632819652557373,1.5490117073059082,-0.9498165845870972
1684200617736471600,9.900471435546875,0.8168825507164001,1.4802638292312622,-0.8832713961601257
1684200617746497800,9.910497802734374,0.753626823425293,1.3800032138824463,-0.7518950700759888
1684200617756523800,9.920523681640624,0.6586241126060486,1.1829562187194824,-0.570317804813385
1684200617766549800,9.9305498046875,0.5264883637428284,1.0087724924087524,-0.3935317099094391
1684200617776575700,9.94057568359375,0.457613468170166,0.926537036895752,-0.23813173174858093
1684200617786600700,9.9506005859375,0.4149416387081146,0.8039228916168213,-0.10208234190940857
1684200617796626700,9.960626708984375,0.3822236657142639,0.6674638986587524,0.023758940398693085
1684200617806652700,9.970652587890624,0.3097931742668152,0.5607286095619202,0.15338650345802307
1684200617816678700,9.9806787109375,0.2004331350326538,0.45659124851226807,0.2739635109901428
1684200617826704600,9.99070458984375,0.07351605594158173,0.3779665529727936,0.36622264981269836
1684200617836730600,10.000730712890626,-0.050962481647729874,0.2871604859828949,0.4605180025100708
1684200617846756600,10.010756591796875,-0.15303735435009003,0.20305955410003662,0.5638638734817505
1684200617856782600,10.020782470703125,-0.22059082984924316,0.10418517142534256,0.6848901510238647
1684200617866807800,10.030807861328125,-0.2690286934375763,-0.04889386519789696,0.8284046649932861
1684200617876833800,10.040833740234374,-0.30801016092300415,-0.21004468202590942,0.9763922691345215
1684200617886859800,10.05085986328125,-0.3380042314529419,-0.34819620847702026,1.0975136756896973
1684200617896885800,10.0608857421875,-0.3612174093723297,-0.42877012491226196,1.174121618270874
1684200617906911700,10.070911865234375,-0.37098824977874756,-0.5012995004653931,1.21982741355896
1684200617916937700,10.080937744140625,-0.3666994869709015,-0.5774587392807007,1.2575310468673706
1684200617926963700,10.090963623046875,-0.35025233030319214,-0.6734813451766968,1.3038216829299927
1684200617936989000,10.100989013671875,-0.33223578333854675,-0.8058606386184692,1.3354675769805908
1684200617947015000,10.111014892578124,-0.30559206008911133,-0.9333023428916931,1.3360544443130493
1684200617957041000,10.121041015625,-0.2794525921344757,-1.0248706340789795,1.2935199737548828
1684200617967067000,10.13106689453125,-0.25584250688552856,-1.0099413394927979,1.2252479791641235
1684200617977092900,10.1410927734375,-0.2513066232204437,-0.9030117392539978,1.1663033962249756
1684200617987118800,10.151118896484375,-0.27510014176368713,-0.7492884397506714,1.1294820308685303
1684200617997144600,10.16114453125,-0.30821493268013,-0.5937086939811707,1.1077735424041748
1684200618007170600,10.171170654296875,-0.32025831937789917,-0.4808751940727234,1.0795822143554688
1684200618017195800,10.18119580078125,-0.31983861327171326,-0.3830096125602722,1.0542397499084473
1684200618027221800,10.1912216796875,-0.31720879673957825,-0.2925571799278259,1.0388230085372925
1684200618037247700,10.201247802734375,-0.30633723735809326,-0.22673369944095612,1.063376545906067
1684200618047274000,10.21127392578125,-0.3197576403617859,-0.20250511169433594,1.1276497840881348
1684200618057300000,10.221300048828125,-0.4026266932487488,-0.22340427339076996,1.2243462800979614
1684200618067326000,10.231325927734375,-0.5480431318283081,-0.3468557894229889,1.3387013673782349
1684200618077352000,10.24135205078125,-0.757097601890564,-0.5690630078315735,1.4207196235656738
1684200618087377700,10.251377685546874,-0.9482807517051697,-0.7479673624038696,1.4706910848617554
1684200618097403000,10.26140283203125,-1.0339723825454712,-0.6888055205345154,1.4703919887542725
1684200618107428900,10.271428955078125,-1.0146849155426025,-0.4869772493839264,1.455018162727356
1684200618117454800,10.281454833984375,-0.9541658759117126,-0.2515881657600403,1.4235635995864868
1684200618127480800,10.291480712890625,-0.9007039070129395,-0.03831939771771431,1.400985836982727
1684200618137506800,10.3015068359375,-0.859048068523407,0.17077842354774475,1.397456169128418
1684200618147532800,10.31153271484375,-0.8071078062057495,0.24984121322631836,1.3937009572982788
1684200618157558800,10.321558837890626,-0.6875803470611572,0.178513765335083,1.2770226001739502
1684200618167583700,10.331583740234375,-0.5351094603538513,-0.02490326762199402,1.0069994926452637
1684200618177609700,10.341609619140625,-0.4337170720100403,-0.21389582753181458,0.6684132218360901
1684200618187635700,10.3516357421875,-0.41745325922966003,-0.3046177327632904,0.35089367628097534
1684200618197662000,10.361661865234375,-0.40869811177253723,-0.27990439534187317,0.04124738648533821
1684200618207688000,10.37168798828125,-0.3906269669532776,-0.06683036684989929,-0.225266695022583
1684200618217714000,10.3817138671875,-0.4065191149711609,0.2648719549179077,-0.36527493596076965
1684200618227740000,10.391739990234376,-0.4586934745311737,0.4682019352912903,-0.3828056752681732
1684200618237766000,10.401765869140625,-0.5079978704452515,0.45210152864456177,-0.32647180557250977
1684200618247790800,10.411790771484375,-0.5332452058792114,0.33622315526008606,-0.2362646609544754
1684200618257816800,10.42181689453125,-0.557404100894928,0.1928204596042633,-0.09541005641222
1684200618267842800,10.4318427734375,-0.571611762046814,0.09641186147928238,0.0893099308013916
1684200618277868800,10.441868896484374,-0.5683437585830688,0.09046848863363266,0.311150461435318
1684200618287894800,10.451894775390626,-0.5477656722068787,0.09912702441215515,0.5370926260948181
1684200618297920800,10.461920654296875,-0.5171542167663574,0.05362212657928467,0.7396475672721863
1684200618307946800,10.47194677734375,-0.5169157385826111,-0.12108512222766876,0.8693385720252991
1684200618317972700,10.48197265625,-0.5298781394958496,-0.43954646587371826,0.9490946531295776
1684200618327997700,10.491997802734375,-0.5068100690841675,-0.8686532378196716,0.9889323115348816
1684200618338023700,10.502023681640624,-0.44220417737960815,-1.345690131187439,0.982991635799408
1684200618348050000,10.5120498046875,-0.3706398010253906,-1.773851990699768,0.9278225898742676
1684200618358076000,10.522075927734376,-0.32722705602645874,-2.0105631351470947,0.8125675916671753
1684200618368102000,10.532101806640625,-0.2857876420021057,-1.9247816801071167,0.6528705954551697
1684200618378128000,10.5421279296875,-0.23989924788475037,-1.5432111024856567,0.4529465436935425
1684200618388152800,10.55215283203125,-0.19939614832401276,-1.01442551612854,0.2655545771121979
1684200618398178800,10.5621787109375,-0.22315314412117004,-0.45783600211143494,0.06689528375864029
1684200618408203800,10.572203857421876,-0.3104396462440491,0.03946647420525551,-0.13232392072677612
1684200618418229800,10.582229736328125,-0.38176947832107544,0.41222405433654785,-0.30438756942749023
1684200618428255700,10.592255859375,-0.43923482298851013,0.6729176044464111,-0.4381687641143799
1684200618438281700,10.60228173828125,-0.48741328716278076,0.8770089149475098,-0.5240349173545837
1684200618448308000,10.612307861328125,-0.5247364640235901,1.0510751008987427,-0.546956479549408
1684200618458334000,10.622333984375,-0.5959424376487732,1.3762121200561523,-0.558386504650116
1684200618468360000,10.63235986328125,-0.6724675893783569,1.8884683847427368,-0.578626811504364
1684200618478386000,10.642385986328126,-0.6720628142356873,2.471257209777832,-0.5719196796417236
1684200618488411000,10.652410888671875,-0.663027286529541,2.9832026958465576,-0.536556601524353
1684200618498436900,10.662436767578125,-0.5914716124534607,3.244016170501709,-0.46669843792915344
1684200618508462800,10.672462890625,-0.3997187614440918,3.0145156383514404,-0.34209877252578735
1684200618518488800,10.68248876953125,-0.16510917246341705,2.2915291786193848,-0.2150723934173584
1684200618528514800,10.692514892578124,0.04301430657505989,1.3351820707321167,-0.11632322520017624
1684200618538540800,10.702540771484376,0.1779300570487976,0.3787357211112976,-0.05121452733874321
1684200618548566800,10.71256689453125,0.26355046033859253,-0.4249536991119385,0.01784113049507141
1684200618558592800,10.7225927734375,0.317356139421463,-1.0485706329345703,0.11206164211034775
1684200618568617700,10.73261767578125,0.3538719415664673,-1.4841797351837158,0.24296948313713074
1684200618578643700,10.742643798828125,0.3928414285182953,-1.7554008960723877,0.38703423738479614
1684200618588669700,10.752669677734374,0.42762210965156555,-1.8906205892562866,0.5333771109580994
1684200618598696000,10.762696044921874,0.4442812502384186,-1.8668780326843262,0.6541639566421509
1684200618608722000,10.772721923828126,0.44073882699012756,-1.6558140516281128,0.7152277231216431
1684200618618748000,10.782747802734375,0.4223329424858093,-1.2695063352584839,0.7339828014373779
1684200618628774000,10.79277392578125,0.39600226283073425,-0.7968273162841797,0.7303736805915833
1684200618638798800,10.802798828125,0.3373700976371765,-0.3180501163005829,0.7052164077758789
1684200618648824800,10.812824951171875,0.26721319556236267,0.08139262348413467,0.6786119341850281
1684200618658850800,10.822850830078124,0.2055027186870575,0.33307144045829773,0.656122624874115
1684200618668876800,10.832876708984376,0.1554190069437027,0.4921795725822449,0.617763340473175
1684200618678902800,10.84290283203125,0.12105678021907806,0.5986335873603821,0.5286494493484497
1684200618688928800,10.8529287109375,0.1001124382019043,0.6547321677207947,0.37306612730026245
1684200618698954800,10.862954833984375,0.05655670166015625,0.6378706693649292,0.16367775201797485
1684200618708980700,10.872980712890625,-0.0009662285447120667,0.5363291501998901,-0.025740807875990868
1684200618719005700,10.883005615234374,-0.05055828019976616,0.4356904923915863,-0.16031700372695923
1684200618729031700,10.89303173828125,-0.0783388763666153,0.36328384280204773,-0.20271344482898712
1684200618739057700,10.9030576171875,-0.07988457381725311,0.33279624581336975,-0.16621403396129608
1684200618749084000,10.913083984375,-0.04856928810477257,0.31945157051086426,-0.0746789500117302
1684200618759110000,10.92310986328125,-0.018035344779491425,0.3056574761867523,0.03317401558160782
1684200618769135900,10.933135986328125,0.0019470893312245607,0.2325432449579239,0.13602487742900848
1684200618779161900,10.943161865234375,0.01751912385225296,0.10456983745098114,0.22767063975334167
1684200618789187800,10.953187744140624,0.028931211680173874,-0.042570531368255615,0.2800120413303375
1684200618799213000,10.963213134765626,0.03024068847298622,-0.16853325068950653,0.29516035318374634
1684200618809238800,10.97323876953125,-0.0018046877812594175,-0.2465883046388626,0.2697411775588989
1684200618819264800,10.9832646484375,-0.05867942422628403,-0.2679747939109802,0.22618943452835083
1684200618829290800,10.993290771484375,-0.11351442337036133,-0.24635381996631622,0.16873642802238464
1684200618839316700,11.003316650390625,-0.14637915790081024,-0.191171795129776,0.11938352137804031
1684200618849342700,11.0133427734375,-0.1759749799966812,-0.13994696736335754,0.10241471230983734
1684200618859368700,11.02336865234375,-0.19876843690872192,-0.09100871533155441,0.11673665791749954
1684200618869394700,11.033394775390626,-0.21721023321151733,-0.06434883177280426,0.15118640661239624
1684200618879420000,11.043419921875,-0.22343537211418152,-0.08974313735961914,0.18790820240974426
1684200618889446000,11.05344580078125,-0.21842166781425476,-0.16808263957500458,0.18017874658107758
1684200618899472000,11.063471923828125,-0.21217842400074005,-0.29281285405158997,0.14432168006896973
1684200618909497900,11.073497802734375,-0.2156808227300644,-0.4365668296813965,0.12159623205661774
1684200618919523800,11.08352392578125,-0.22185935080051422,-0.5595992803573608,0.1299194097518921
1684200618929549800,11.0935498046875,-0.24353252351284027,-0.6516083478927612,0.17713139951229095
1684200618939575800,11.103575927734376,-0.27267390489578247,-0.697426974773407,0.23916548490524292
1684200618949601800,11.113601806640625,-0.3063201904296875,-0.6738088726997375,0.30619674921035767
1684200618959627000,11.123626953125,-0.32841697335243225,-0.5638850331306458,0.34379711747169495
1684200618969653000,11.133653076171875,-0.3375580906867981,-0.38671591877937317,0.3601630628108978
1684200618979679000,11.143678955078125,-0.3452264070510864,-0.15973177552223206,0.3450733423233032
1684200618989705000,11.153705078125,-0.3350377380847931,0.10329677164554596,0.30871185660362244
1684200618999731000,11.16373095703125,-0.3142794668674469,0.3053779602050781,0.26700782775878906
1684200619009757000,11.1737568359375,-0.29147812724113464,0.35380712151527405,0.2225770801305771
1684200619019782700,11.18378271484375,-0.2603529691696167,0.2107551246881485,0.17469637095928192
1684200619029807900,11.193807861328125,-0.20359981060028076,-0.0437055304646492,0.09746240079402924
1684200619039833900,11.203833740234375,-0.14055027067661285,-0.27597925066947937,-0.005614180583506823
1684200619049860000,11.213860107421874,-0.0967901274561882,-0.41466543078422546,-0.08648175746202469
1684200619059886000,11.223885986328124,-0.11163831502199173,-0.5032299160957336,-0.10312438756227493
1684200619069912000,11.233912109375,-0.1406383514404297,-0.5742689371109009,-0.07728815823793411
1684200619079938000,11.24393798828125,-0.13374529778957367,-0.6074956059455872,-0.03417530655860901
1684200619089964000,11.253964111328125,-0.10648354887962341,-0.5987904667854309,0.031238695606589317
1684200619099990000,11.263989990234375,-0.0940479189157486,-0.5429239869117737,0.11650938540697098
1684200619110015000,11.274014892578125,-0.08906491845846176,-0.42997774481773376,0.21839521825313568
1684200619120041000,11.284041015625,-0.11739003658294678,-0.26673609018325806,0.3346416652202606
1684200619130067000,11.29406689453125,-0.15381783246994019,-0.09105367958545685,0.43895527720451355
1684200619140093000,11.304093017578126,-0.17053556442260742,0.07015544921159744,0.5268452167510986
1684200619150119000,11.314118896484375,-0.17200523614883423,0.17117318511009216,0.5809465050697327
1684200619160145000,11.324144775390625,-0.1682531088590622,0.20484086871147156,0.5817071199417114
1684200619170171000,11.3341708984375,-0.14989884197711945,0.1760910004377365,0.5201221704483032
1684200619180197000,11.344197021484375,-0.1335265338420868,0.15635325014591217,0.4118598401546478
1684200619190221800,11.354221923828124,-0.10868348926305771,0.18095998466014862,0.26031818985939026
1684200619200248000,11.364248046875,-0.073740154504776,0.24533285200595856,0.1072772741317749
1684200619210274000,11.374274169921875,-0.023239394649863243,0.2815161943435669,-0.0137861967086792
1684200619220300000,11.384300048828125,0.06468407064676285,0.19163930416107178,-0.06971364468336105
1684200619230326000,11.394325927734375,0.15710456669330597,0.0026878765784204006,-0.08512653410434723
1684200619240352000,11.40435205078125,0.23017291724681854,-0.1547853648662567,-0.11478722095489502
1684200619250378000,11.4143779296875,0.28332415223121643,-0.24163635075092316,-0.17253680527210236
1684200619260404000,11.424404052734374,0.3263762891292572,-0.2580970823764801,-0.26244643330574036
1684200619270429000,11.434428955078126,0.3655451536178589,-0.25138622522354126,-0.3525552749633789
1684200619280455000,11.444454833984375,0.39676621556282043,-0.28508293628692627,-0.407988965511322
1684200619290481000,11.45448095703125,0.4152821898460388,-0.3871581256389618,-0.4115546941757202
1684200619300507000,11.4645068359375,0.4281407296657562,-0.5828796625137329,-0.3845968544483185
1684200619310532900,11.474532958984375,0.4273046553134918,-0.8642352819442749,-0.3432011902332306
1684200619320558800,11.484558837890624,0.4099368751049042,-1.1912511587142944,-0.31689074635505676
1684200619330585000,11.494585205078126,0.41605818271636963,-1.5043087005615234,-0.34253227710723877
1684200619340609800,11.50460986328125,0.4499804675579071,-1.7647639513015747,-0.4099983870983124
1684200619350635800,11.5146357421875,0.49407780170440674,-1.9422760009765625,-0.4951871335506439
1684200619360662000,11.524662109375,0.5136712193489075,-2.0338945388793945,-0.5975297689437866
1684200619370688000,11.53468798828125,0.5457351803779602,-1.960858702659607,-0.765043318271637
1684200619380714000,11.5447138671875,0.5648266077041626,-1.7199068069458008,-1.0297183990478516
1684200619390740500,11.554740478515624,0.5636738538742065,-1.3108241558074951,-1.3839952945709229
1684200619400766500,11.564766357421876,0.6080858111381531,-0.8956384658813477,-1.8578180074691772
1684200619410792400,11.57479248046875,0.5944199562072754,-0.6982585787773132,-2.462045431137085
1684200619420817400,11.5848173828125,0.4925149381160736,-0.8175567388534546,-3.0338072776794434
1684200619430843400,11.594843505859375,0.2755371332168579,-1.0475949048995972,-3.4181203842163086
1684200619440869400,11.604869384765625,0.15339522063732147,-0.8147514462471008,-3.703605890274048
1684200619450895400,11.614895263671874,0.14948643743991852,-0.11431381106376648,-3.7742981910705566
1684200619460921300,11.62492138671875,0.25183412432670593,0.4114660918712616,-3.396778106689453
1684200619470947600,11.634947509765626,0.44860801100730896,0.6405907273292542,-2.8665595054626465
1684200619480973600,11.6449736328125,0.6790606379508972,0.8648896217346191,-2.2897636890411377
1684200619490999600,11.65499951171875,1.057809591293335,0.8926475644111633,-1.6364856958389282
1684200619501024500,11.6650244140625,1.3712258338928223,0.48296207189559937,-1.2592350244522095
1684200619511050500,11.675050537109374,1.5475680828094482,-0.03319224342703819,-1.2623345851898193
1684200619521076500,11.685076416015624,1.6176340579986572,-0.2720452845096588,-1.501477837562561
1684200619531102500,11.6951025390625,1.5462816953659058,-0.31299763917922974,-1.8924933671951294
1684200619541128400,11.70512841796875,1.4536172151565552,-0.2731490433216095,-2.234372615814209
1684200619551154400,11.715154541015625,1.4356528520584106,0.1249687448143959,-2.416238784790039
1684200619561180400,11.725180419921875,1.4230867624282837,0.6800591349601746,-2.364240884780884
1684200619571206400,11.735206298828125,1.3293535709381104,1.3531402349472046,-2.1852688789367676
1684200619581231400,11.7452314453125,1.2091318368911743,1.6655926704406738,-1.9974989891052246
1684200619591257300,11.75525732421875,1.1307719945907593,1.5843952894210815,-1.8021970987319946
1684200619601283300,11.765283447265626,1.0979000329971313,1.4167828559875488,-1.6186827421188354
1684200619611309300,11.775309326171875,1.1299859285354614,1.3690294027328491,-1.514983892440796
1684200619621335300,11.785335205078125,1.1666392087936401,1.343363881111145,-1.4587773084640503
1684200619631361500,11.795361572265625,1.159590721130371,1.29880690574646,-1.3729475736618042
1684200619641387500,11.805387451171875,1.134803295135498,1.336974859237671,-1.2972218990325928
1684200619651413500,11.81541357421875,1.0785537958145142,1.3528504371643066,-1.2084953784942627
1684200619661438500,11.8254384765625,1.017324447631836,1.2786481380462646,-1.0795094966888428
1684200619671464400,11.83546435546875,0.9356770515441895,1.1745163202285767,-0.9314155578613281
1684200619681490400,11.845490478515625,0.8529909253120422,1.002698302268982,-0.7384468913078308
1684200619691516400,11.855516357421875,0.7790038585662842,0.7717301249504089,-0.5244458317756653
1684200619701542400,11.86554248046875,0.7117643356323242,0.5607576966285706,-0.3042846918106079
1684200619711568400,11.875568359375,0.6562458276748657,0.37898018956184387,-0.09803998470306396
1684200619721594400,11.885594482421874,0.5945926308631897,0.20720654726028442,0.0959547907114029
1684200619731620400,11.895620361328126,0.5407313704490662,0.07127560675144196,0.2574161887168884
1684200619741645300,11.905645263671875,0.4607848823070526,-0.028771627694368362,0.392910897731781
1684200619751671300,11.91567138671875,0.36367639899253845,-0.09591371566057205,0.5235453844070435
1684200619761697300,11.925697265625,0.28016579151153564,-0.12584632635116577,0.6516692638397217
1684200619771723300,11.93572314453125,0.20124131441116333,-0.10306742042303085,0.7717276811599731
1684200619781749500,11.94574951171875,0.12023086845874786,-0.012667755596339703,0.8552901744842529
1684200619791775500,11.955775390625,0.06760703027248383,0.06375861167907715,0.9580252766609192
1684200619801801500,11.965801513671876,0.02821381762623787,0.13516674935817719,1.0704783201217651
1684200619811826400,11.975826416015625,-0.005418585613369942,0.19267714023590088,1.14814031124115
1684200619821852400,11.985852294921875,-0.045819271355867386,0.19475413858890533,1.1850807666778564
1684200619831878400,11.99587841796875,-0.0840287059545517,0.13510678708553314,1.203622817993164
1684200619841904400,12.005904296875,-0.12477479875087738,0.011311876587569714,1.2278697490692139
1684200619851930400,12.015930419921874,-0.129936084151268,-0.16574545204639435,1.2884552478790283
1684200619861956400,12.025956298828126,-0.10782546550035477,-0.33886343240737915,1.3858669996261597
1684200619871982300,12.035982421875,-0.09439882636070251,-0.4463403820991516,1.4658745527267456
1684200619882008300,12.04600830078125,-0.10228072106838226,-0.5607854723930359,1.5223194360733032
1684200619892033300,12.056033203125,-0.10906916111707687,-0.7131068110466003,1.5538471937179565
1684200619902059300,12.066059326171874,-0.10803159326314926,-0.89529949426651,1.5719066858291626
1684200619912085200,12.076085205078124,-0.10511339455842972,-1.0470540523529053,1.5978130102157593
1684200619922111200,12.086111328125,-0.1070210188627243,-1.1293259859085083,1.5912288427352905
1684200619932137500,12.096137451171876,-0.10758242011070251,-1.1684597730636597,1.5347431898117065
1684200619942163500,12.10616357421875,-0.11166398227214813,-1.152152419090271,1.4561131000518799
1684200619952189400,12.116189453125,-0.1086881160736084,-1.0344599485397339,1.3686784505844116
1684200619962215400,12.12621533203125,-0.11453454941511154,-0.8300992846488953,1.3014780282974243
1684200619972240400,12.136240478515624,-0.13291527330875397,-0.5769560933113098,1.2728376388549805
1684200619982266400,12.146266357421876,-0.17763666808605194,-0.28373295068740845,1.2861305475234985
1684200619992292400,12.156292236328126,-0.24361276626586914,-0.03515217825770378,1.3092950582504272
1684200620002318300,12.166318359375,-0.31211698055267334,0.12095432728528976,1.3129339218139648
1684200620012344300,12.17634423828125,-0.3774828016757965,0.21447917819023132,1.296764850616455
1684200620022370300,12.186370361328125,-0.42363297939300537,0.20336607098579407,1.227691411972046
1684200620032396300,12.196396240234375,-0.4512611925601959,0.07933925092220306,1.143769383430481
1684200620042422300,12.20642236328125,-0.5274674892425537,-0.04478323459625244,1.0179957151412964
1684200620052447200,12.216447265625,-0.661973774433136,-0.13246633112430573,0.975782036781311
1684200620062473200,12.22647314453125,-0.8099126219749451,-0.22029446065425873,0.9950742125511169
1684200620072499200,12.236499267578125,-0.9466626048088074,-0.32743212580680847,1.0281349420547485
1684200620082525400,12.246525390625,-1.0020986795425415,-0.40047091245651245,1.0607432126998901
1684200620092551400,12.256551513671875,-0.892584502696991,-0.3795665502548218,1.0615583658218384
1684200620102577400,12.266577392578125,-0.6362057328224182,-0.3226816952228546,0.9700859785079956
1684200620112603400,12.276603271484374,-0.43693527579307556,-0.22891704738140106,0.8598116636276245
1684200620122629400,12.28662939453125,-0.3768666088581085,-0.06477630883455276,0.8088811039924622
1684200620132654300,12.296654296875,-0.3589118421077728,0.05593698099255562,0.7848634123802185
1684200620142680300,12.306680419921875,-0.357962965965271,0.015503805130720139,0.7086789011955261
1684200620152706300,12.316706298828125,-0.41538703441619873,-0.1359025239944458,0.6257015466690063
1684200620162732300,12.326732177734375,-0.4933300316333771,-0.19838693737983704,0.5827348828315735
1684200620172758300,12.33675830078125,-0.5292571783065796,-0.10022948682308197,0.5876274108886719
1684200620182784300,12.3467841796875,-0.5124049186706543,0.07704836130142212,0.6641187071800232
1684200620192810200,12.356810302734376,-0.47582271695137024,0.21068695187568665,0.7790231704711914
1684200620202836200,12.366836181640625,-0.4243296980857849,0.2569849491119385,0.8826068043708801
1684200620212861200,12.376861083984375,-0.37196093797683716,0.21366627514362335,0.9320515990257263
1684200620222887200,12.38688720703125,-0.3478659689426422,0.026528876274824142,0.8952445387840271
1684200620232913400,12.396913330078124,-0.33890828490257263,-0.3062565326690674,0.7566337585449219
1684200620242939400,12.406939453125,-0.3449539244174957,-0.6739591956138611,0.5230697393417358
1684200620252965400,12.41696533203125,-0.3393400013446808,-0.8939300179481506,0.26439806818962097
1684200620262991400,12.426991455078126,-0.24093779921531677,-0.7791507244110107,0.026281647384166718
1684200620273017300,12.437017333984375,-0.24107396602630615,-0.565071165561676,-0.07503554970026016
1684200620283042300,12.447042236328125,-0.2914383113384247,-0.4101713299751282,-0.06934623420238495
1684200620293068300,12.457068359375,-0.3209984004497528,-0.2603011727333069,-0.0025085085071623325
1684200620303094300,12.46709423828125,-0.341151624917984,-0.09836927056312561,0.10499851405620575
1684200620313120300,12.477120361328126,-0.38731521368026733,0.001866326667368412,0.2449730783700943
