time,seconds_elapsed,z,y,x
1684201098649988600,0.033988525390625,0.9809941649436951,0.22956232726573944,0.8094314932823181
1684201098660013600,0.044013671875,0.9674870371818542,0.7556319236755371,0.6988779306411743
1684201098670039600,0.05403955078125,1.0207380056381226,1.385287880897522,0.8351806402206421
1684201098680065500,0.0640654296875,1.0603183507919312,2.1121490001678467,1.200078010559082
1684201098690090800,0.0740908203125,1.066062569618225,2.7118141651153564,1.6413297653198242
1684201098700116700,0.08411669921875,0.9900686740875244,3.052302837371826,2.0425801277160645
1684201098710141700,0.0941416015625,0.8161066770553589,3.069225788116455,2.224198341369629
1684201098720167700,0.104167724609375,0.6217542290687561,2.9010910987854004,2.0825793743133545
1684201098730193700,0.114193603515625,0.45744967460632324,2.8444337844848633,1.608863353729248
1684201098740218600,0.124218505859375,0.470402330160141,2.8484585285186768,0.8334058523178101
1684201098750244600,0.13424462890625,0.4964243471622467,2.628938674926758,0.08752904832363129
1684201098760269600,0.14426953125,0.3782682418823242,1.997910976409912,-0.46459317207336426
1684201098770295600,0.154295654296875,0.08098013699054718,0.6689046621322632,-0.8132821917533875
1684201098780321500,0.164321533203125,-0.2770761549472809,0.167208731174469,-0.9838066101074219
1684201098790346500,0.174346435546875,-0.465393602848053,0.4206995964050293,-1.1186448335647583
1684201098800372500,0.18437255859375,-0.7577991485595703,1.334104299545288,-1.174451231956482
1684201098810397700,0.194397705078125,-1.367889404296875,2.6128265857696533,-1.0463392734527588
1684201098820423700,0.204423583984375,-1.5599843263626099,2.9091060161590576,-1.0133147239685059
1684201098830449700,0.21444970703125,-1.251624584197998,2.8489041328430176,-1.0752856731414795
1684201098840474600,0.224474609375,-1.0653295516967773,2.746790647506714,-1.2082058191299438
1684201098850500600,0.23450048828125,-1.0588657855987549,2.607534646987915,-1.3563543558120728
1684201098860526600,0.244526611328125,-1.0442980527877808,2.878957986831665,-1.4349443912506104
1684201098870551600,0.254551513671875,-1.472192645072937,3.7031571865081787,-1.3601032495498657
1684201098880577500,0.26457763671875,-2.1484169960021973,4.9379496574401855,-1.069745421409607
1684201098890602500,0.2746025390625,-2.637316942214966,6.345659255981445,-0.5476709008216858
1684201098900628500,0.28462841796875,-3.147932767868042,7.8662872314453125,0.3545352816581726
1684201098910654500,0.294654541015625,-3.7893855571746826,9.273356437683105,1.7526724338531494
1684201098920679700,0.3046796875,-4.558718681335449,10.65304946899414,3.413965940475464
1684201098930705700,0.31470556640625,-5.193474769592285,11.73410415649414,5.016077995300293
1684201098940730600,0.324730712890625,-5.699378967285156,12.431839942932129,6.283857345581055
1684201098950756600,0.334756591796875,-6.313304901123047,12.626919746398926,7.067314147949219
1684201098960782600,0.344782470703125,-7.198522567749023,11.440726280212402,5.79731559753418
1684201098970807600,0.3548076171875,-8.073284149169922,8.889678001403809,4.595981121063232
1684201098980833800,0.364833740234375,-8.521519660949707,6.689664840698242,3.7342522144317627
1684201098990858800,0.374858642578125,-8.449398040771484,5.196230888366699,2.621380090713501
1684201099000884700,0.384884765625,-8.257583618164062,4.378613471984863,2.034031867980957
1684201099010910700,0.39491064453125,-7.742690086364746,3.0315253734588623,1.9011681079864502
1684201099020935700,0.404935791015625,-7.211935997009277,1.544666051864624,1.907126545906067
1684201099030961700,0.414961669921875,-6.933736324310303,0.16097061336040497,1.965099811553955
1684201099040988000,0.42498779296875,-6.586732864379883,-0.8987535238265991,2.087027072906494
1684201099051012900,0.435012939453125,-5.821681499481201,-1.6825802326202393,2.4004123210906982
1684201099061038800,0.445038818359375,-4.779806613922119,-2.1314454078674316,2.812143325805664
1684201099071063800,0.455063720703125,-3.7549290657043457,-2.0123610496520996,3.0756478309631348
1684201099081090000,0.465090087890625,-3.0274689197540283,-1.6946210861206055,3.0707004070281982
1684201099091116000,0.475115966796875,-2.5012221336364746,-1.5667757987976074,2.9161884784698486
1684201099101140700,0.485140625,-2.108901262283325,-1.6410330533981323,2.6864256858825684
1684201099111167000,0.4951669921875,-1.775280475616455,-1.741913080215454,2.4651267528533936
1684201099121191700,0.505191650390625,-1.2846254110336304,-1.7114672660827637,2.299377918243408
1684201099131218000,0.515218017578125,-0.6610526442527771,-1.6690113544464111,2.2018814086914062
1684201099141244000,0.525243896484375,-0.03835286200046539,-1.7379499673843384,2.1104867458343506
1684201099151268900,0.535268798828125,0.5540686249732971,-1.9265401363372803,1.785519003868103
1684201099161294800,0.545294921875,1.0748594999313354,-2.034325361251831,1.1452300548553467
1684201099171320000,0.555320068359375,1.5095539093017578,-2.199981927871704,0.5365051627159119
1684201099181346000,0.565345947265625,1.9435975551605225,-2.3597609996795654,0.04368521273136139
1684201099191372000,0.5753720703125,2.181992530822754,-2.3980777263641357,-0.3380746841430664
1684201099201397000,0.58539697265625,2.4921815395355225,-2.14961576461792,-0.5560212135314941
1684201099211423000,0.595423095703125,2.755950927734375,-1.728723406791687,-0.5870989561080933
1684201099221449000,0.605448974609375,2.8816792964935303,-1.2436167001724243,-0.691318154335022
1684201099231474000,0.615473876953125,2.9860892295837402,-0.7588881254196167,-0.8806145787239075
1684201099241500000,0.6255,3.0217628479003906,-0.3419218361377716,-0.9635912775993347
1684201099251524900,0.63552490234375,2.8907835483551025,0.1402488350868225,-0.9396486878395081
1684201099261550800,0.64555078125,2.7019619941711426,0.7287527322769165,-0.7317914366722107
1684201099271576800,0.655576904296875,2.416975736618042,1.277696132659912,-0.3621335029602051
1684201099281601800,0.665601806640625,2.0559444427490234,1.6640506982803345,0.06466826051473618
1684201099291627800,0.675627685546875,1.7768908739089966,1.7735154628753662,0.44785159826278687
1684201099301653000,0.685653076171875,1.6991181373596191,1.7663085460662842,0.6884026527404785
1684201099311679000,0.695678955078125,1.7099971771240234,1.742887020111084,0.6804065108299255
1684201099321705000,0.705705078125,1.5786913633346558,1.6010500192642212,0.4275657832622528
1684201099331730000,0.71572998046875,1.1447721719741821,1.5803301334381104,-0.10606511682271957
1684201099341756000,0.725755859375,0.7493105530738831,1.7908064126968384,-0.8308951258659363
1684201099351780900,0.73578076171875,0.579194188117981,2.1693124771118164,-0.725272536277771
1684201099361806800,0.745806884765625,0.5463852882385254,2.707468032836914,-0.07791633903980255
1684201099371832800,0.755832763671875,0.48220792412757874,3.1026225090026855,0.4839920103549957
1684201099381857800,0.76585791015625,0.19274753332138062,3.01936411857605,0.6453672051429749
1684201099391883800,0.7758837890625,0.10571249574422836,2.4242990016937256,0.5567219853401184
1684201099401909800,0.78590966796875,-0.3656218945980072,1.6876007318496704,0.10716360807418823
1684201099411935000,0.79593505859375,-0.7252532839775085,1.0807563066482544,-0.1229228600859642
1684201099421960700,0.805960693359375,-0.6807324290275574,0.7863477468490601,-0.18321406841278076
1684201099431986000,0.81598583984375,-0.37659570574760437,0.5402919054031372,-0.19185735285282135
1684201099442012000,0.826011962890625,-0.4555877447128296,0.20751288533210754,-0.3019605576992035
1684201099452038000,0.836037841796875,-0.5864925384521484,-0.2455105185508728,-0.49459123611450195
1684201099462062800,0.846062744140625,-0.692192792892456,-0.17784534394741058,-0.6716654300689697
1684201099472088800,0.8560888671875,-0.8921514749526978,0.07061827182769775,-0.7108522653579712
1684201099482113800,0.86611376953125,-1.2452468872070312,-0.07089396566152573,-0.760351300239563
1684201099492139800,0.876139892578125,-1.6773396730422974,-0.3301449716091156,-1.1088848114013672
1684201099502165800,0.886165771484375,-2.0826144218444824,-0.5483695268630981,-1.6899491548538208
1684201099512190700,0.896190673828125,-2.4545085430145264,-0.7141883373260498,-2.4479172229766846
1684201099522216700,0.906216796875,-2.9904255867004395,-0.9031271934509277,-3.189970016479492
1684201099532242000,0.916241943359375,-3.7001304626464844,-0.7874003052711487,-3.726410388946533
1684201099542268000,0.926267822265625,-4.241360664367676,-0.44097140431404114,-3.8772380352020264
1684201099552294000,0.9362939453125,-4.618396759033203,0.006607707589864731,-3.5128161907196045
1684201099562318800,0.94631884765625,-4.616423606872559,0.009931959211826324,-2.8118269443511963
1684201099572344800,0.9563447265625,-4.237586975097656,-0.05112553387880325,-2.189180850982666
1684201099582370800,0.966370849609375,-3.577202796936035,0.16973380744457245,-1.6290229558944702
1684201099592395800,0.976395751953125,-2.9512827396392822,0.5166699290275574,-0.8686162233352661
1684201099602421800,0.986421875,-2.2117819786071777,0.5237195491790771,-0.048756737262010574
1684201099612446700,0.99644677734375,-1.6464098691940308,0.3621698021888733,0.4243919253349304
1684201099622472700,1.00647265625,-1.2873034477233887,0.35310041904449463,0.43612900376319885
1684201099632498700,1.016498779296875,-1.0914957523345947,0.5098101496696472,0.06185872480273247
1684201099642523600,1.026523681640625,-1.2856138944625854,1.1936309337615967,-0.6221603155136108
1684201099652549600,1.036549560546875,-1.9107304811477661,2.7018113136291504,-1.465675950050354
1684201099662574800,1.046574951171875,-2.417937994003296,4.141575336456299,-2.0207290649414062
1684201099672600800,1.056600830078125,-1.8326336145401,3.0534722805023193,-1.3240751028060913
1684201099682627000,1.066626953125,-0.5960361957550049,0.7671600580215454,0.1281266212463379
1684201099692651800,1.07665185546875,-0.05107861012220383,0.25061172246932983,1.0114473104476929
1684201099702678000,1.086677978515625,-0.1433779001235962,0.8732408881187439,1.2927818298339844
1684201099712704000,1.0967041015625,-0.37573233246803284,1.71599280834198,1.2453207969665527
1684201099722729000,1.10672900390625,-0.4902712404727936,2.4624457359313965,1.1644142866134644
1684201099732755000,1.1167548828125,-0.537259042263031,2.5201668739318848,1.2749035358428955
1684201099742780000,1.12677978515625,-0.5229209661483765,2.0471701622009277,1.6722323894500732
1684201099752806000,1.136805908203125,-0.4565666913986206,1.3895936012268066,2.1937575340270996
1684201099762832000,1.146831787109375,-0.3614027798175812,0.8066715002059937,2.6548800468444824
1684201099772856800,1.15685693359375,-0.23640677332878113,0.49441060423851013,3.0209450721740723
1684201099782882800,1.1668828125,-0.20380418002605438,0.5666837096214294,3.2647528648376465
1684201099792908000,1.176907958984375,-0.33136293292045593,0.9039954543113708,3.384915828704834
1684201099802934000,1.18693408203125,-0.5528037548065186,1.1856974363327026,3.401360273361206
1684201099812960000,1.1969599609375,-0.8745346665382385,1.1671717166900635,3.285336971282959
1684201099822985000,1.20698486328125,-1.270976185798645,0.6573185920715332,2.953324556350708
1684201099833011000,1.217010986328125,-1.7394542694091797,0.0034971097484230995,2.4684126377105713
1684201099843036000,1.227035888671875,-2.2955267429351807,-0.6060541868209839,1.8809118270874023
1684201099853062000,1.237061767578125,-2.896745443344116,-0.8514155149459839,1.296259880065918
1684201099863087900,1.247087890625,-3.434887170791626,-0.688637912273407,0.7870211005210876
1684201099873112800,1.25711279296875,-3.682075023651123,-0.2975761890411377,0.4059392809867859
1684201099883138800,1.267138916015625,-3.3322789669036865,0.1721143275499344,0.09204266965389252
1684201099893164800,1.277164794921875,-2.439756155014038,0.5481550693511963,-0.2065567970275879
1684201099903190000,1.28718994140625,-1.374764084815979,0.8692392110824585,-0.5561923384666443
1684201099913216000,1.297216064453125,-0.5586149096488953,1.2710505723953247,-0.9259448051452637
1684201099923241000,1.307240966796875,-0.5378797650337219,2.0672245025634766,-1.1527557373046875
1684201099933267000,1.317266845703125,-0.8901991844177246,2.6914756298065186,-1.2625244855880737
1684201099943293000,1.32729296875,-0.8092402219772339,1.9650310277938843,-1.2624430656433105
1684201099953318000,1.33731787109375,-0.12742330133914948,0.3366338014602661,-0.7447287440299988
1684201099963344000,1.34734375,0.5489229559898376,-0.9870112538337708,-0.17444920539855957
1684201099973368800,1.357368896484375,0.7104300856590271,-1.5041937828063965,0.15778253972530365
1684201099983394600,1.36739453125,0.40664052963256836,-1.402553677558899,0.27382826805114746
1684201099993420800,1.3774208984375,0.16346411406993866,-1.214044451713562,0.25836676359176636
1684201100003445500,1.387445556640625,0.05703377351164818,-1.1367148160934448,0.17532886564731598
1684201100013471700,1.3974716796875,0.0012344237184152007,-1.1773653030395508,0.04460280016064644
1684201100023496700,1.40749658203125,-0.07327892631292343,-1.2110880613327026,-0.05080164968967438
1684201100033523000,1.41752294921875,-0.18340010941028595,-1.1416528224945068,-0.06969943642616272
1684201100043549000,1.427548828125,-0.3442578911781311,-0.9977767467498779,-0.013374010100960732
1684201100053574000,1.437573974609375,-0.44948285818099976,-0.738290011882782,0.14482735097408295
1684201100063599900,1.447599853515625,-0.44545039534568787,-0.4559687376022339,0.3761366009712219
1684201100073625900,1.4576259765625,-0.27315905690193176,-0.05195841193199158,0.6787734031677246
1684201100083650800,1.46765087890625,0.03264718875288963,0.3644346296787262,0.9807586073875427
1684201100093676800,1.4776767578125,0.46334344148635864,0.7789159417152405,1.2711265087127686
1684201100103701800,1.48770166015625,0.9530192017555237,1.1262089014053345,1.532106876373291
1684201100113727700,1.497727783203125,1.530321478843689,1.1956723928451538,1.7201217412948608
1684201100123753700,1.507753662109375,1.7563072443008423,0.38293543457984924,1.3208777904510498
1684201100133778700,1.51777880859375,1.6490987539291382,-0.671501874923706,0.5137011408805847
1684201100143804700,1.5278046875,1.7391384840011597,-1.551355242729187,0.01684749126434326
1684201100153830000,1.537829833984375,1.7234845161437988,-2.263509750366211,-0.23709744215011597
1684201100163856000,1.54785595703125,1.634714961051941,-2.852339506149292,-0.315540611743927
1684201100173881900,1.5578818359375,1.5713995695114136,-3.33443546295166,-0.2375052124261856
1684201100183906800,1.56790673828125,1.5091232061386108,-3.8266146183013916,-0.04359455779194832
1684201100193932800,1.577932861328125,1.2473901510238647,-4.079741954803467,0.17205171287059784
1684201100203958800,1.587958740234375,0.8379061222076416,-4.201254367828369,0.306118369102478
1684201100213983700,1.597983642578125,0.4510127007961273,-4.086064338684082,0.27199262380599976
1684201100224009700,1.608009765625,0.260860800743103,-3.8962624073028564,0.06873533874750137
1684201100234034700,1.61803466796875,0.3015666604042053,-3.7181763648986816,-0.32515791058540344
1684201100244060700,1.628060791015625,0.4415739178657532,-3.5031485557556152,-0.9571383595466614
1684201100254086700,1.638086669921875,0.5431095957756042,-2.9288065433502197,-1.5480698347091675
1684201100264111900,1.64811181640625,0.5279871225357056,-2.064211845397949,-1.7290233373641968
1684201100274137900,1.658137939453125,0.4429579973220825,-1.2753456830978394,-1.4569356441497803
1684201100284162800,1.668162841796875,0.35961025953292847,-0.7737258672714233,-0.9076423048973083
1684201100294188800,1.678188720703125,0.2560921311378479,-0.4905519485473633,-0.3064776360988617
1684201100304214800,1.68821484375,0.13504177331924438,-0.227644681930542,0.17032679915428162
1684201100314239700,1.69823974609375,0.003918109927326441,0.11639150977134705,0.46390408277511597
1684201100324265700,1.708265625,-0.10457299649715424,0.47488582134246826,0.6057347655296326
1684201100334291700,1.718291748046875,-0.17648287117481232,0.7136132121086121,0.638064444065094
1684201100344316700,1.728316650390625,-0.20194992423057556,0.8142165541648865,0.6000083684921265
1684201100354342700,1.7383427734375,-0.2036450207233429,0.7809454202651978,0.5091463923454285
1684201100364367600,1.74836767578125,-0.1905130296945572,0.6630273461341858,0.39502406120300293
1684201100374393600,1.7583935546875,-0.15119092166423798,0.4785863757133484,0.280516654253006
1684201100384419600,1.768419677734375,-0.10030345618724823,0.2508152723312378,0.1867353618144989
1684201100394444800,1.77844482421875,-0.0478983111679554,-0.01691337861120701,0.10807915776968002
1684201100404470800,1.788470703125,-0.001985537586733699,-0.2693171501159668,0.021879520267248154
1684201100414495700,1.798495849609375,0.03705773502588272,-0.4462043046951294,-0.07328587770462036
1684201100424521700,1.808521728515625,0.06640759855508804,-0.549532413482666,-0.15736141800880432
1684201100434547700,1.818547607421875,0.08287951350212097,-0.5936583280563354,-0.223547101020813
1684201100444572700,1.82857275390625,0.09634940326213837,-0.6033749580383301,-0.2745930552482605
1684201100454598700,1.8385986328125,0.10140354931354523,-0.6020761132240295,-0.29468581080436707
1684201100464623600,1.84862353515625,0.10020652413368225,-0.6285675764083862,-0.29914379119873047
1684201100474649600,1.858649658203125,0.08994163572788239,-0.6535573601722717,-0.281541109085083
1684201100484675600,1.868675537109375,0.06432872265577316,-0.6656854152679443,-0.2553664445877075
1684201100494700500,1.878700439453125,0.02965809404850006,-0.6470848321914673,-0.22171369194984436
1684201100504726500,1.8887265625,-0.015622548758983612,-0.6085575222969055,-0.20388339459896088
1684201100514752500,1.89875244140625,-0.06298527121543884,-0.5533654093742371,-0.19778475165367126
1684201100524777700,1.90877783203125,-0.11679477989673615,-0.4892500340938568,-0.18995913863182068
1684201100534803700,1.9188037109375,-0.16660521924495697,-0.4430828094482422,-0.18255528807640076
1684201100544828700,1.92882861328125,-0.2089141607284546,-0.41679710149765015,-0.17310626804828644
1684201100554854700,1.938854736328125,-0.24142096936702728,-0.3997209072113037,-0.16434819996356964
1684201100564881000,1.948880859375,-0.2603588104248047,-0.40216192603111267,-0.15457619726657867
1684201100574905600,1.958905517578125,-0.26923084259033203,-0.4024234414100647,-0.14040018618106842
1684201100584931600,1.968931640625,-0.28144577145576477,-0.40557873249053955,-0.11263464391231537
1684201100594956500,1.97895654296875,-0.2806345820426941,-0.40843841433525085,-0.07436102628707886
1684201100604982500,1.988982421875,-0.2699998915195465,-0.4181087613105774,-0.04761816933751106
1684201100615008800,1.9990087890625,-0.24512356519699097,-0.4342981278896332,-0.037037163972854614
1684201100625033700,2.00903369140625,-0.20668324828147888,-0.44936680793762207,-0.059410497546195984
1684201100635059700,2.019059814453125,-0.1559276580810547,-0.4659164845943451,-0.10881799459457397
1684201100645085700,2.029085693359375,-0.09478229284286499,-0.45192763209342957,-0.16292431950569153
1684201100655111000,2.03911083984375,-0.030968956649303436,-0.39485129714012146,-0.20634981989860535
1684201100665137000,2.049136962890625,0.03395669907331467,-0.3064601421356201,-0.2314925491809845
1684201100675161900,2.059161865234375,0.10683809965848923,-0.2037244439125061,-0.22275151312351227
1684201100685187800,2.069187744140625,0.18674620985984802,-0.08846715092658997,-0.1835208684206009
1684201100695213800,2.0792138671875,0.2710467278957367,0.021242566406726837,-0.10617893189191818
1684201100705238800,2.08923876953125,0.3575533330440521,0.1125912070274353,-0.02621777541935444
1684201100715264800,2.0992646484375,0.4153497815132141,0.14636196196079254,0.0012751026079058647
1684201100725289700,2.109289794921875,0.43600815534591675,0.13301126658916473,-0.08846015483140945
1684201100735315700,2.119315673828125,0.44966432452201843,0.12947086989879608,-0.3628230094909668
1684201100745341700,2.129341796875,0.46855196356773376,0.1469031572341919,-0.7815460562705994
1684201100755367000,2.139366943359375,0.48650991916656494,0.16041229665279388,-1.2336254119873047
1684201100765393000,2.149392822265625,0.5192707777023315,0.1370915323495865,-1.6819078922271729
1684201100775419000,2.1594189453125,0.5693914890289307,0.08764462918043137,-2.0919058322906494
1684201100785443800,2.16944384765625,0.6872414350509644,0.004930597264319658,-2.4247171878814697
1684201100795469800,2.1794697265625,0.9113059639930725,-0.09833506494760513,-2.6442041397094727
1684201100805494800,2.189494873046875,1.1539002656936646,-0.1561107635498047,-2.7281031608581543
1684201100815520800,2.199520751953125,1.3564001321792603,-0.1018214151263237,-2.632704257965088
1684201100825546800,2.209546630859375,1.4882583618164062,-0.02397538721561432,-2.3706648349761963
1684201100835571700,2.21957177734375,1.5246131420135498,-0.003961730282753706,-2.025068998336792
1684201100845597700,2.22959765625,1.507306694984436,-0.05346408113837242,-1.6463685035705566
1684201100855622700,2.23962255859375,1.425805926322937,-0.10509239137172699,-1.2812919616699219
1684201100865648600,2.249648681640625,1.2533386945724487,0.10729058086872101,-0.8812909722328186
1684201100875674600,2.259674560546875,1.0646367073059082,0.5340203046798706,-0.49495580792427063
1684201100885699800,2.269699951171875,0.8628909587860107,0.9086213111877441,-0.19615650177001953
1684201100895725800,2.279725830078125,0.7729983925819397,0.8768018484115601,-0.061706557869911194
1684201100905751800,2.289751708984375,0.8708180785179138,0.5908027291297913,-0.03219142556190491
1684201100915776800,2.29977685546875,1.0281578302383423,0.36543914675712585,-0.05232385918498039
1684201100925802800,2.309802734375,1.2052069902420044,0.3031550347805023,-0.1420186311006546
1684201100935827700,2.31982763671875,1.3007358312606812,0.44602856040000916,-0.2586655914783478
1684201100945853700,2.329853759765625,1.2425419092178345,0.7310451865196228,-0.32870620489120483
1684201100955879700,2.339879638671875,1.1634804010391235,1.0379726886749268,-0.34775498509407043
1684201100965904600,2.349904541015625,1.1131019592285156,1.1442294120788574,-0.32239750027656555
1684201100975930600,2.3599306640625,1.0358422994613647,1.1270370483398438,-0.22430741786956787
1684201100985955300,2.369955322265625,0.9426433444023132,1.0959278345108032,-0.054112836718559265
1684201100995981600,2.379981689453125,0.8918310403823853,1.0216225385665894,0.08792979270219803
1684201101006007600,2.390007568359375,0.858672559261322,0.9375318288803101,0.1724095344543457
1684201101016032500,2.400032470703125,0.8164635896682739,0.9032193422317505,0.20625698566436768
1684201101026058500,2.41005859375,0.7922154068946838,0.9215049743652344,0.20219939947128296
1684201101036084500,2.42008447265625,0.7951960563659668,1.0216708183288574,0.18433144688606262
1684201101046109400,2.430109375,0.7410147190093994,0.990241527557373,0.1620698869228363
1684201101056135400,2.440135498046875,0.6667948365211487,0.8884027600288391,0.1574985682964325
1684201101066160400,2.450160400390625,0.5714907050132751,0.7793585658073425,0.16117453575134277
1684201101076186400,2.460186279296875,0.46737441420555115,0.7015769481658936,0.16669580340385437
1684201101086212400,2.47021240234375,0.37882092595100403,0.5474426746368408,0.1806553155183792
1684201101096237300,2.4802373046875,0.3097805976867676,0.31462913751602173,0.2223857194185257
1684201101106263300,2.49026318359375,0.2500692903995514,0.016967982053756714,0.2724723219871521
1684201101116288500,2.50028857421875,0.1948329359292984,-0.24306811392307281,0.29528898000717163
1684201101126314500,2.510314453125,0.14791633188724518,-0.4326205849647522,0.27788466215133667
1684201101136340500,2.520340576171875,0.11375171691179276,-0.5218359231948853,0.2308148890733719
1684201101146365400,2.530365478515625,0.07662419974803925,-0.5112311840057373,0.17262309789657593
1684201101156391400,2.540391357421875,0.023420371115207672,-0.38144493103027344,0.14072348177433014
1684201101166417400,2.55041748046875,-0.05186329036951065,-0.15866108238697052,0.16764678061008453
1684201101176442400,2.5604423828125,-0.13237199187278748,0.09055114537477493,0.25507569313049316
1684201101186468400,2.57046826171875,-0.21773740649223328,0.2771081328392029,0.34730425477027893
1684201101196493300,2.580493408203125,-0.2991473376750946,0.34096699953079224,0.4061548113822937
1684201101206519300,2.590519287109375,-0.37306585907936096,0.28943780064582825,0.42142966389656067
1684201101216545300,2.600545166015625,-0.4426361322402954,0.1459784060716629,0.4101695716381073
1684201101226570200,2.6105703125,-0.508064866065979,-0.038446616381406784,0.407389372587204
1684201101236596200,2.62059619140625,-0.566353976726532,-0.26145628094673157,0.4210686981678009
1684201101246621400,2.630621337890625,-0.6227986216545105,-0.5029386281967163,0.45184606313705444
1684201101256647400,2.6406474609375,-0.6699632406234741,-0.743248462677002,0.4904427230358124
1684201101266673400,2.65067333984375,-0.7082365155220032,-0.9432685375213623,0.5278486609458923
1684201101276698400,2.660698486328125,-0.7428475022315979,-1.0475398302078247,0.5725898146629333
1684201101286724400,2.670724365234375,-0.7711296677589417,-1.0853315591812134,0.6052703261375427
1684201101296750300,2.680750244140625,-0.8099324703216553,-1.090869426727295,0.655684232711792
1684201101306775300,2.690775390625,-0.858578085899353,-1.0978751182556152,0.7153474688529968
1684201101316801300,2.70080126953125,-0.926500678062439,-1.132619857788086,0.7935642600059509
1684201101326826200,2.710826171875,-0.9837685227394104,-1.179781436920166,0.8861415386199951
1684201101336852200,2.720852294921875,-1.006723165512085,-1.2195626497268677,0.9968627691268921
1684201101346878200,2.730878173828125,-0.9797285199165344,-1.2015761137008667,1.0742413997650146
1684201101356903400,2.7409033203125,-0.9402018785476685,-1.06674325466156,1.061715006828308
1684201101366929400,2.750929443359375,-0.9013835787773132,-0.7950593829154968,0.9645754098892212
1684201101376954400,2.760954345703125,-0.8758939504623413,-0.4208095967769623,0.7923887372016907
1684201101386980400,2.77098046875,-0.843191921710968,-0.10483499616384506,0.5939487218856812
1684201101397006300,2.78100634765625,-0.8118821978569031,0.04216776788234711,0.4051763713359833
1684201101407031300,2.79103125,-0.7730222940444946,-0.004463894292712212,0.2914966344833374
1684201101417057300,2.801057373046875,-0.7158581018447876,-0.20398658514022827,0.26455289125442505
1684201101427083300,2.811083251953125,-0.6724449992179871,-0.46881452202796936,0.2913179099559784
1684201101437108200,2.821108154296875,-0.6716263294219971,-0.6778087019920349,0.31600168347358704
1684201101447134200,2.83113427734375,-0.6612198948860168,-0.6851881146430969,0.2576446533203125
1684201101457159200,2.8411591796875,-0.6226226687431335,-0.38609594106674194,0.05700874701142311
1684201101467185200,2.85118505859375,-0.49686434864997864,0.1405373513698578,-0.20937903225421906
1684201101477211100,2.861211181640625,-0.38464540243148804,0.6436878442764282,-0.40415117144584656
1684201101487236400,2.871236328125,-0.31418293714523315,0.8075257539749146,-0.4417848289012909
1684201101497262300,2.881262451171875,-0.25575557351112366,0.4841160178184509,-0.27608081698417664
1684201101507287300,2.891287353515625,-0.20167994499206543,-0.12627950310707092,-0.03289543092250824
1684201101517313300,2.901313232421875,-0.19161318242549896,-0.6197389960289001,0.11919397115707397
1684201101527339500,2.911339599609375,-0.22409741580486298,-0.8190951347351074,0.15721625089645386
1684201101537364200,2.9213642578125,-0.3046375513076782,-0.8035044074058533,0.0962759330868721
1684201101547390500,2.931390380859375,-0.41728565096855164,-0.6621384024620056,0.0018529519438743591
1684201101557416400,2.94141650390625,-0.5033084154129028,-0.43109583854675293,-0.04846454784274101
1684201101567441400,2.95144140625,-0.5471749901771545,-0.1427604854106903,-0.047676198184490204
1684201101577467400,2.96146728515625,-0.5848765969276428,0.1172521710395813,0.004742800258100033
1684201101587492400,2.971492431640625,-0.6357263922691345,0.2984674274921417,0.08814187347888947
1684201101597518300,2.981518310546875,-0.665495753288269,0.40983015298843384,0.18333950638771057
1684201101607544300,2.99154443359375,-0.6669741272926331,0.4862971901893616,0.277770459651947
1684201101617569500,3.001569580078125,-0.6393014788627625,0.5417951345443726,0.3450128734111786
1684201101627595500,3.011595458984375,-0.6043655276298523,0.5619831681251526,0.37234559655189514
1684201101637621500,3.02162158203125,-0.5602643489837646,0.5333735942840576,0.35088130831718445
1684201101647646500,3.031646484375,-0.5046364665031433,0.5030917525291443,0.3118214011192322
1684201101657672400,3.04167236328125,-0.4066624641418457,0.5012350082397461,0.2791806161403656
1684201101667697400,3.051697509765625,-0.2950766980648041,0.5085214972496033,0.27618759870529175
1684201101677723400,3.061723388671875,-0.2209388166666031,0.6706534028053284,0.39157384634017944
1684201101687749400,3.071749267578125,-0.19812597334384918,0.7402374148368835,0.5306192636489868
1684201101697774300,3.0817744140625,-0.1998724788427353,0.6334044337272644,0.5868526697158813
1684201101707800300,3.09180029296875,-0.16612209379673004,0.4380452036857605,0.5563202500343323
1684201101717825500,3.101825439453125,-0.1238982155919075,0.22206948697566986,0.4724988639354706
1684201101727851300,3.111851318359375,-0.08960983157157898,0.08075293898582458,0.38522276282310486
1684201101737877200,3.121877197265625,-0.05898960307240486,0.0629824623465538,0.3383364975452423
1684201101747902500,3.13190234375,-0.044034603983163834,0.20955951511859894,0.3592528700828552
1684201101757928400,3.141928466796875,-0.060650866478681564,0.39834141731262207,0.4263046085834503
1684201101767954400,3.151954345703125,-0.07801570743322372,0.42055562138557434,0.43671226501464844
1684201101777979400,3.1619794921875,-0.07945860922336578,0.2871190011501312,0.34177830815315247
1684201101788005400,3.17200537109375,-0.04982305318117142,0.11689333617687225,0.2080238163471222
1684201101798030300,3.1820302734375,-0.01620171032845974,-0.05339557304978371,0.09319549798965454
1684201101808056300,3.192056396484375,0.002368742832913995,-0.21440856158733368,0.030201010406017303
1684201101818082300,3.202082275390625,-0.009338513016700745,-0.3360942602157593,0.02434311993420124
1684201101828107300,3.212107177734375,-0.029550233855843544,-0.3511923849582672,0.042902279645204544
1684201101838133200,3.22213330078125,-0.058679886162281036,-0.2923344075679779,0.07364954054355621
1684201101848158500,3.232158447265625,-0.09837976843118668,-0.1835842877626419,0.129095196723938
1684201101858184400,3.242184326171875,-0.1135355532169342,-0.13157328963279724,0.17119844257831573
1684201101868210400,3.25221044921875,-0.10601366311311722,-0.10734526813030243,0.18628816306591034
1684201101878235400,3.2622353515625,-0.09254340082406998,-0.05428844317793846,0.19124484062194824
1684201101888261400,3.272261474609375,-0.0997312068939209,-0.010344001464545727,0.16904057562351227
1684201101898287400,3.282287353515625,-0.09532127529382706,-0.0070496718399226665,0.1336604803800583
1684201101908312300,3.292312255859375,-0.08613014221191406,-0.07771766185760498,0.08574818074703217
1684201101918338300,3.30233837890625,-0.08928439021110535,-0.1616154909133911,0.065323606133461
1684201101928363300,3.31236328125,-0.10738524794578552,-0.22704175114631653,0.0698651671409607
1684201101938389200,3.32238916015625,-0.12611445784568787,-0.25650617480278015,0.07537657767534256
1684201101948415200,3.332415283203125,-0.12726840376853943,-0.2228320837020874,0.10869725048542023
1684201101958440200,3.342440185546875,-0.13857166469097137,-0.18165110051631927,0.1443742960691452
1684201101968466200,3.352466064453125,-0.16157293319702148,-0.13337455689907074,0.1811320036649704
1684201101978492200,3.3624921875,-0.16336950659751892,-0.1780725121498108,0.19348162412643433
1684201101988517600,3.372517578125,-0.15295608341693878,-0.24696320295333862,0.18482594192028046
1684201101998543600,3.382543701171875,-0.1604321002960205,-0.26575741171836853,0.15723292529582977
1684201102008568600,3.392568603515625,-0.17484240233898163,-0.23235759139060974,0.12873537838459015
1684201102018594600,3.402594482421875,-0.18542660772800446,-0.1746671348810196,0.11469200253486633
1684201102028620800,3.412620849609375,-0.19687096774578094,-0.1286250799894333,0.11096734553575516
1684201102038645500,3.4226455078125,-0.20940087735652924,-0.12372566014528275,0.10791882872581482
1684201102048671700,3.432671630859375,-0.20549938082695007,-0.13821591436862946,0.09654389321804047
1684201102058696400,3.442696533203125,-0.20970505475997925,-0.13629044592380524,0.0764245092868805
1684201102068722400,3.452722412109375,-0.2174675464630127,-0.11092732846736908,0.05620799958705902
1684201102078748700,3.462748779296875,-0.21358174085617065,-0.06037440523505211,0.0540178157389164
1684201102088773400,3.4727734375,-0.20485331118106842,-0.0023105922155082226,0.06812120229005814
1684201102098799600,3.482799560546875,-0.19364966452121735,0.014561332762241364,0.07847850024700165
1684201102108825600,3.49282568359375,-0.1817503422498703,-0.013753091916441917,0.08349844068288803
1684201102118850800,3.502850830078125,-0.15164995193481445,-0.04921334981918335,0.08644416183233261
1684201102128876800,3.512876708984375,-0.12344787269830704,-0.06458918005228043,0.09440615028142929
1684201102138901800,3.52290185546875,-0.10993073135614395,-0.08517887443304062,0.08466910570859909
1684201102148927700,3.532927734375,-0.10570427030324936,-0.11165330559015274,0.05787620320916176
1684201102158953700,3.54295361328125,-0.1079501137137413,-0.14235663414001465,0.031329017132520676
1684201102168978700,3.552978759765625,-0.12557774782180786,-0.16388365626335144,-0.0026497463695704937
1684201102179004700,3.563004638671875,-0.13799792528152466,-0.14631664752960205,-0.043944720178842545
1684201102189029600,3.573029541015625,-0.12842044234275818,-0.1247921735048294,-0.08436781913042068
1684201102199055600,3.5830556640625,-0.1135815680027008,-0.1417762041091919,-0.0986948311328888
1684201102209081600,3.59308154296875,-0.10365419834852219,-0.18546925485134125,-0.09696034342050552
1684201102219106600,3.6031064453125,-0.09289155900478363,-0.23601019382476807,-0.08095154911279678
1684201102229132500,3.613132568359375,-0.07438921183347702,-0.30782637000083923,-0.07028448581695557
1684201102239158500,3.623158447265625,-0.05078801512718201,-0.3678300380706787,-0.06005528196692467
1684201102249183700,3.633183837890625,-0.030661562457680702,-0.3932439386844635,-0.05724278837442398
1684201102259209700,3.643209716796875,-0.02078416384756565,-0.3535252809524536,-0.054679229855537415
1684201102269234700,3.653234619140625,-0.0029036805499345064,-0.27193576097488403,-0.05547882243990898
1684201102279260700,3.6632607421875,0.029236944392323494,-0.17329838871955872,-0.06112312525510788
1684201102289286700,3.67328662109375,0.0777626484632492,-0.08364372700452805,-0.06752738356590271
1684201102299311600,3.6833115234375,0.12721195816993713,-0.023456286638975143,-0.07285957038402557
1684201102309337600,3.693337646484375,0.1848684549331665,0.014023661613464355,-0.07265383750200272
1684201102319362600,3.703362548828125,0.23421549797058105,0.048556871712207794,-0.05842350795865059
1684201102329388500,3.713388427734375,0.28138068318367004,0.0932059958577156,-0.023772552609443665
1684201102339414500,3.72341455078125,0.32326793670654297,0.13773564994335175,0.017344791442155838
1684201102349439700,3.733439697265625,0.3755062222480774,0.15562662482261658,0.05474158003926277
1684201102359465500,3.743465576171875,0.44228634238243103,0.12382636219263077,0.014808543026447296
1684201102369491500,3.753491455078125,0.4888227880001068,0.017391448840498924,-0.24192392826080322
1684201102379516700,3.7635166015625,0.5379679799079895,-0.12282957136631012,-0.782084584236145
1684201102389542700,3.773542724609375,0.6091055274009705,-0.2299005687236786,-1.3869625329971313
1684201102399567600,3.783567626953125,0.6586533784866333,-0.3557000160217285,-1.8043701648712158
1684201102409593600,3.793593505859375,0.6823474764823914,-0.5505663156509399,-2.122145891189575
1684201102419619600,3.80361962890625,0.7606230974197388,-0.7887437343597412,-2.4212844371795654
1684201102429644500,3.81364453125,0.8907417058944702,-1.0295552015304565,-2.6631128787994385
1684201102439670500,3.82367041015625,1.0427645444869995,-1.1885744333267212,-2.78320050239563
1684201102449696500,3.833696533203125,1.2136648893356323,-1.2072720527648926,-2.8099896907806396
1684201102459721500,3.843721435546875,1.3736774921417236,-1.0849658250808716,-2.716604471206665
1684201102469747500,3.85374755859375,1.5412541627883911,-0.7980499267578125,-2.4855518341064453
1684201102479772700,3.863772705078125,1.6162211894989014,-0.5534553527832031,-2.137345790863037
1684201102489798700,3.873798583984375,1.5942764282226562,-0.47218579053878784,-1.7530066967010498
1684201102499824600,3.88382470703125,1.516434669494629,-0.6270648241043091,-1.3895329236984253
1684201102509849600,3.893849609375,1.492837905883789,-0.8754584789276123,-1.0641052722930908
1684201102519875600,3.90387548828125,1.4687504768371582,-0.9330013990402222,-0.7236077189445496
1684201102529901600,3.913901611328125,1.4092726707458496,-0.8861875534057617,-0.40302976965904236
1684201102539926500,3.923926513671875,1.3503049612045288,-0.6833508014678955,-0.10893873870372772
1684201102549952500,3.933952392578125,1.3927593231201172,-0.43126797676086426,0.07560865581035614
1684201102559977500,3.9439775390625,1.5064773559570312,-0.1477811485528946,0.027983341366052628
1684201102570003500,3.95400341796875,1.6348310708999634,0.333333820104599,-0.10493019223213196
1684201102580029400,3.964029541015625,1.693833589553833,0.956294596195221,-0.22625741362571716
1684201102590054400,3.974054443359375,1.6655064821243286,1.645345687866211,-0.31617891788482666
1684201102600080400,3.984080322265625,1.5940208435058594,2.2628228664398193,-0.35674843192100525
1684201102610105600,3.994105712890625,1.5675703287124634,2.56282901763916,-0.29624977707862854
1684201102620131600,4.004131591796875,1.5492550134658813,2.4767744541168213,-0.1768602728843689
1684201102630157800,4.01415771484375,1.5062613487243652,2.191307306289673,-0.02147381193935871
1684201102640182500,4.0241826171875,1.3827415704727173,1.9692639112472534,0.13920241594314575
1684201102650208800,4.034208740234375,1.2243987321853638,1.785515546798706,0.25207391381263733
1684201102660234800,4.04423486328125,1.1000659465789795,1.6132843494415283,0.2852923274040222
1684201102670259700,4.054259765625,1.0026978254318237,1.5081449747085571,0.2704293727874756
1684201102680285700,4.06428564453125,0.916903018951416,1.4654649496078491,0.2368548959493637
1684201102690310700,4.074310546875,0.836319088935852,1.3943670988082886,0.2288600653409958
1684201102700336600,4.084336669921875,0.7770919799804688,1.259366750717163,0.23785941302776337
1684201102710362600,4.094362548828125,0.7126637697219849,1.0478419065475464,0.256001353263855
1684201102720387600,4.1043876953125,0.637703537940979,0.8129300475120544,0.29430586099624634
1684201102730413600,4.11441357421875,0.5620381832122803,0.5874979496002197,0.33026158809661865
1684201102740439600,4.124439453125,0.48965850472450256,0.3343240022659302,0.3508739173412323
1684201102750464800,4.13446484375,0.40797489881515503,0.12495238333940506,0.3543068468570709
1684201102760490800,4.14449072265625,0.3071327209472656,0.002608894370496273,0.36127418279647827
1684201102770515700,4.154515625,0.2220776081085205,-0.0902189239859581,0.3774011433124542
1684201102780541700,4.164541748046875,0.1616499423980713,-0.17881616950035095,0.40194404125213623
1684201102790567700,4.174567626953125,0.12066386640071869,-0.21881690621376038,0.4277880787849426
1684201102800592600,4.184592529296875,0.054518673568964005,-0.16286654770374298,0.45138099789619446
1684201102810618600,4.19461865234375,-0.04419775307178497,-0.016402490437030792,0.5006458759307861
1684201102820643600,4.2046435546875,-0.1452367603778839,0.19472627341747284,0.5711764693260193
1684201102830669600,4.214669677734375,-0.22724023461341858,0.38098177313804626,0.659362256526947
1684201102840695600,4.224695556640625,-0.3109750747680664,0.4668322503566742,0.7294813990592957
1684201102850720800,4.234720703125,-0.39609554409980774,0.46421170234680176,0.755282461643219
1684201102860746500,4.24474658203125,-0.46545037627220154,0.39320728182792664,0.7555391788482666
1684201102870772500,4.2547724609375,-0.5204041004180908,0.2652350068092346,0.7272836565971375
1684201102880797700,4.264797607421875,-0.5821313858032227,0.04791093245148659,0.6723535656929016
1684201102890823700,4.27482373046875,-0.6438426375389099,-0.18122383952140808,0.6354502439498901
1684201102900848600,4.2848486328125,-0.699345052242279,-0.43681618571281433,0.6120572686195374
1684201102910874600,4.29487451171875,-0.7479326128959656,-0.6851093769073486,0.5959247350692749
1684201102920900600,4.304900634765625,-0.7797834873199463,-0.8605839610099792,0.5713405609130859
1684201102930925600,4.314925537109375,-0.7846055030822754,-0.9263865351676941,0.5542930960655212
1684201102940951600,4.32495166015625,-0.7827447652816772,-0.9153288006782532,0.558792769908905
1684201102950977500,4.3349775390625,-0.7981101870536804,-0.8693486452102661,0.5870040059089661
1684201102961002500,4.34500244140625,-0.8300148844718933,-0.8227885961532593,0.6309571266174316
1684201102971028500,4.355028564453125,-0.8743653893470764,-0.7874058485031128,0.6782670617103577
1684201102981053700,4.3650537109375,-0.9180989861488342,-0.7603246569633484,0.7346581816673279
1684201102991079700,4.37507958984375,-0.9615910053253174,-0.768610417842865,0.8086049556732178
1684201103001105700,4.385105712890625,-1.028033971786499,-0.8285768032073975,0.8724265694618225
1684201103011130600,4.395130615234375,-1.1072839498519897,-0.9428980946540833,0.9297571182250977
1684201103021156600,4.405156494140625,-1.1755812168121338,-1.064477801322937,0.9766969084739685
1684201103031182600,4.4151826171875,-1.2418081760406494,-1.163208246231079,1.0129178762435913
1684201103041207600,4.42520751953125,-1.297353744506836,-1.2031042575836182,1.028730034828186
1684201103051233500,4.435233642578125,-1.3270087242126465,-1.1710315942764282,0.9956376552581787
1684201103061258500,4.445258544921875,-1.3026570081710815,-1.0783698558807373,0.9213178753852844
1684201103071284500,4.455284423828125,-1.2239596843719482,-0.9442018270492554,0.8618338108062744
1684201103081310500,4.465310546875,-1.1105692386627197,-0.8132613897323608,0.8606633543968201
1684201103091335400,4.47533544921875,-1.0422178506851196,-0.6905628442764282,0.9327466487884521
1684201103101361400,4.485361328125,-1.039780616760254,-0.6100109815597534,1.0499225854873657
1684201103111386600,4.49538671875,-1.1028547286987305,-0.5614745020866394,1.1216539144515991
1684201103121412600,4.50541259765625,-1.1353346109390259,-0.5483275055885315,1.063656210899353
1684201103131438600,4.5154384765625,-1.1068845987319946,-0.49128997325897217,0.8076538443565369
1684201103141463600,4.525463623046875,-0.9448736906051636,-0.3882075250148773,0.3399460017681122
1684201103151489500,4.535489501953125,-0.5646384358406067,-0.16990014910697937,-0.1935172826051712
1684201103161515800,4.545515869140625,-0.1372133493423462,0.08287831395864487,-0.5322897434234619
1684201103171540500,4.55554052734375,0.05341053381562233,0.29788586497306824,-0.6152224540710449
1684201103181566700,4.565566650390625,0.05762205645442009,0.31467655301094055,-0.44560572504997253
1684201103191591400,4.57559130859375,-0.04040465131402016,0.10245120525360107,-0.07418020069599152
1684201103201617700,4.58561767578125,-0.1996944397687912,-0.09764353930950165,0.2716089189052582
1684201103211643600,4.5956435546875,-0.37646669149398804,-0.10768590122461319,0.4449024498462677
1684201103221668600,4.605668701171875,-0.5522246956825256,0.12072943150997162,0.45793411135673523
1684201103231694600,4.615694580078125,-0.7084224820137024,0.48753368854522705,0.40822991728782654
1684201103241720600,4.625720458984375,-0.8236305713653564,0.8293051719665527,0.42881321907043457
1684201103251745800,4.635745849609375,-0.8845171332359314,1.0217591524124146,0.536907970905304
1684201103261771800,4.645771728515625,-0.8804709911346436,1.0119653940200806,0.6522281765937805
1684201103271796700,4.655796630859375,-0.8152630925178528,0.8637521266937256,0.7043492794036865
1684201103281822700,4.66582275390625,-0.6647292375564575,0.6205376386642456,0.6280885934829712
1684201103291848700,4.6758486328125,-0.4547958970069885,0.21826407313346863,0.32021647691726685
1684201103301873700,4.685873779296875,-0.24935007095336914,-0.22069065272808075,-0.143731489777565
1684201103311899600,4.695899658203125,-0.0886627584695816,-0.48472458124160767,-0.4491749107837677
1684201103321924600,4.705924560546875,0.005843510851264,-0.5440075993537903,-0.4800949990749359
1684201103331950600,4.71595068359375,0.030622083693742752,-0.49292081594467163,-0.37156638503074646
1684201103341976600,4.7259765625,0.019511375576257706,-0.37962859869003296,-0.21736536920070648
1684201103352001800,4.736001708984375,-0.007846079766750336,-0.34541329741477966,-0.08782386779785156
1684201103362027500,4.746027587890625,-0.04714581370353699,-0.4110695421695709,-0.010800449177622795
1684201103372053500,4.756053466796875,-0.09687075018882751,-0.5047953128814697,0.037025075405836105
1684201103382078700,4.76607861328125,-0.16194775700569153,-0.5194562673568726,0.055967871099710464
1684201103392104700,4.776104736328125,-0.21877798438072205,-0.40170159935951233,0.04950740933418274
1684201103402129700,4.786129638671875,-0.27000147104263306,-0.17983633279800415,0.018898634240031242
1684201103412155600,4.79615576171875,-0.28950315713882446,0.131853848695755,-0.005184884648770094
1684201103422181600,4.806181640625,-0.28177520632743835,0.597229540348053,0.06414731591939926
1684201103432206600,4.81620654296875,-0.2610573470592499,0.9053357839584351,0.12916620075702667
1684201103442232600,4.826232666015625,-0.24441657960414886,0.8791223168373108,0.14465221762657166
1684201103452258600,4.836258544921875,-0.22982831299304962,0.6948086023330688,0.21043916046619415
1684201103462283500,4.846283447265625,-0.21730825304985046,0.38413166999816895,0.29810774326324463
1684201103472309500,4.8563095703125,-0.19401603937149048,0.10299277305603027,0.34830743074417114
1684201103482334700,4.866334716796875,-0.16674953699111938,-0.06619225442409515,0.3324717581272125
1684201103492360700,4.876360595703125,-0.14141270518302917,-0.11667163670063019,0.25471004843711853
1684201103502386700,4.88638671875,-0.1289547085762024,-0.06090584769845009,0.13255245983600616
1684201103512411600,4.89641162109375,-0.12883709371089935,0.017549453303217888,-0.004998716991394758
1684201103522437600,4.906437744140625,-0.12248917669057846,0.07840641587972641,-0.08948111534118652
1684201103532462600,4.916462646484375,-0.11167671531438828,0.04677705094218254,-0.0723525807261467
1684201103542488600,4.926488525390625,-0.08721451461315155,-0.005465649999678135,0.021149136126041412
1684201103552514600,4.9365146484375,-0.07643995434045792,-0.052814897149801254,0.13077741861343384
1684201103562539500,4.94653955078125,-0.07544846087694168,-0.052395980805158615,0.2266477644443512
1684201103572565500,4.9565654296875,-0.07812673598527908,-0.031895462423563004,0.2972230017185211
1684201103582591500,4.966591552734375,-0.08554017543792725,-0.014264805242419243,0.32429882884025574
1684201103592616400,4.976616455078125,-0.08394261449575424,-0.010768376290798187,0.28844454884529114
1684201103602642400,4.986642333984375,-0.049790237098932266,-0.018516311421990395,0.1995287984609604
1684201103612667600,4.996667724609375,-0.026444988325238228,-0.05990488827228546,0.11808252334594727
1684201103622693600,5.006693603515625,-0.025110211223363876,-0.13240545988082886,0.10390038788318634
1684201103632719600,5.0167197265625,-0.022694675251841545,-0.1997595578432083,0.14691095054149628
1684201103642744600,5.02674462890625,-0.014916114509105682,-0.19517731666564941,0.232184037566185
1684201103652770600,5.0367705078125,-0.013960803858935833,-0.19075557589530945,0.27142277359962463
1684201103662796500,5.046796630859375,-0.05603155493736267,-0.15716885030269623,0.24492381513118744
1684201103672821500,5.056821533203125,-0.08243806660175323,-0.08398700505495071,0.1959678679704666
1684201103682847500,5.066847412109375,-0.07011295109987259,-0.03511347249150276,0.11008118093013763
1684201103692872400,5.07687255859375,-0.052102308720350266,-0.0477554090321064,0.03994818404316902
1684201103702898400,5.0868984375,-0.02258569747209549,-0.13715532422065735,-0.03721637651324272
1684201103712924700,5.096924560546875,0.03033592738211155,-0.2682191729545593,-0.1098647192120552
1684201103722949600,5.10694970703125,0.08382684737443924,-0.3915022313594818,-0.1601446568965912
1684201103732975600,5.1169755859375,0.1252521425485611,-0.4753837287425995,-0.19956959784030914
1684201103743001600,5.127001708984375,0.16098670661449432,-0.620337724685669,-0.23023749887943268
1684201103753026800,5.13702685546875,0.1787017434835434,-0.6946853399276733,-0.25382986664772034
1684201103763052800,5.147052734375,0.18864625692367554,-0.6807999014854431,-0.2796074151992798
1684201103773077500,5.157077392578125,0.18117135763168335,-0.6104860901832581,-0.3050740659236908
1684201103783103700,5.167103759765625,0.14560244977474213,-0.5597683191299438,-0.329151451587677
1684201103793129700,5.177129638671875,0.08104168623685837,-0.5681635737419128,-0.3425721228122711
1684201103803154700,5.18715478515625,0.012238387018442154,-0.6346397995948792,-0.3488880693912506
1684201103813180700,5.1971806640625,-0.03255170211195946,-0.7053386569023132,-0.33213022351264954
1684201103823206700,5.20720654296875,-0.04735222086310387,-0.6965222358703613,-0.28904959559440613
1684201103833231600,5.217231689453125,-0.06351076811552048,-0.6167272925376892,-0.24074064195156097
1684201103843257600,5.227257568359375,-0.08751490712165833,-0.4994073212146759,-0.19895003736019135
1684201103853282800,5.23728271484375,-0.12264276295900345,-0.3876604735851288,-0.16499261558055878
1684201103863308500,5.24730859375,-0.16023993492126465,-0.28914162516593933,-0.1441619098186493
1684201103873334500,5.25733447265625,-0.1998366415500641,-0.2918947637081146,-0.1429762989282608
1684201103883359700,5.26735986328125,-0.21466167271137238,-0.35953426361083984,-0.16991578042507172
1684201103893385700,5.2773857421875,-0.2324693202972412,-0.43872660398483276,-0.19083930552005768
1684201103903411700,5.28741162109375,-0.2482599914073944,-0.42844149470329285,-0.17740046977996826
1684201103913436700,5.297436767578125,-0.2735327482223511,-0.3283505141735077,-0.11707950383424759
1684201103923462700,5.307462646484375,-0.29540157318115234,-0.2077106237411499,-0.02820662409067154
1684201103933487600,5.317487548828125,-0.3177987337112427,-0.09826623648405075,0.044977251440286636
1684201103943513600,5.327513671875,-0.3375426232814789,-0.012529760599136353,0.104234978556633
1684201103953539600,5.33753955078125,-0.3474697470664978,0.026119137182831764,0.13352137804031372
1684201103963564500,5.347564453125,-0.3540096580982208,0.028968187049031258,0.14940392971038818
1684201103973590500,5.357590576171875,-0.3611436188220978,0.023059574887156487,0.17114312946796417
1684201103983615700,5.36761572265625,-0.37568873167037964,0.03365575894713402,0.199754536151886
1684201103993641700,5.377641845703125,-0.38459116220474243,0.03324316442012787,0.21566712856292725
1684201104003667700,5.387667724609375,-0.3683661222457886,-0.0031230980530381203,0.21408787369728088
1684201104013692700,5.397692626953125,-0.3308683931827545,-0.12892982363700867,0.17786087095737457
1684201104023718700,5.40771875,-0.28455042839050293,-0.24547427892684937,0.1221105307340622
1684201104033744600,5.41774462890625,-0.24414773285388947,-0.2650671601295471,0.0327417328953743
1684201104043769600,5.42776953125,-0.18593209981918335,-0.13291898369789124,-0.0665249302983284
1684201104053795600,5.437795654296875,-0.101699598133564,0.07980690151453018,-0.14128421247005463
1684201104063820500,5.447820556640625,0.03609368950128555,0.3084781765937805,-0.1695331633090973
1684201104073846500,5.457846435546875,0.21875914931297302,0.4876288175582886,-0.14058929681777954
1684201104083872500,5.46787255859375,0.39875155687332153,0.5505043864250183,-0.056660041213035583
1684201104093897500,5.4778974609375,0.5026373267173767,0.44571375846862793,0.04896516725420952
1684201104103923500,5.48792333984375,0.5535686612129211,0.2051195353269577,0.13231146335601807
1684201104113949400,5.497949462890625,0.5235435962677002,-0.08321008831262589,0.12613579630851746
1684201104123974700,5.507974609375,0.4356403946876526,-0.28754380345344543,-0.0657433494925499
1684201104134000600,5.518000732421875,0.40635859966278076,-0.28394344449043274,-0.6009482145309448
1684201104144025600,5.528025634765625,0.4739043414592743,-0.07107803970575333,-1.3914793729782104
1684201104154051600,5.538051513671875,0.5554389953613281,0.17809928953647614,-2.1258554458618164
1684201104164077600,5.54807763671875,0.605280876159668,0.33484947681427,-2.5650811195373535
1684201104174102500,5.5581025390625,0.6524176001548767,0.4034436345100403,-2.7038214206695557
1684201104184128500,5.56812841796875,0.7553647756576538,0.4816686511039734,-2.629467010498047
1684201104194154500,5.578154541015625,0.8492559790611267,0.600810706615448,-2.4433183670043945
1684201104204179500,5.588179443359375,0.8119208216667175,0.596259355545044,-2.2163078784942627
1684201104214205400,5.598205322265625,0.7590660452842712,0.444694459438324,-1.9920231103897095
1684201104224230400,5.60823046875,0.8339160084724426,0.2806330919265747,-1.69228196144104
1684201104234256400,5.61825634765625,0.8850427269935608,0.19130556285381317,-1.2409127950668335
1684201104244282600,5.62828271484375,0.8797486424446106,0.03642570972442627,-0.8281581997871399
1684201104254307600,5.6383076171875,0.803432285785675,-0.19061525166034698,-0.5273662209510803
1684201104264333600,5.64833349609375,0.7768664360046387,-0.23762457072734833,-0.25777602195739746
1684201104274359800,5.65835986328125,0.7636826038360596,-0.10413271188735962,-0.034207407385110855
1684201104284384500,5.668384521484375,0.7046568393707275,0.08628170937299728,0.10895614326000214
1684201104294410800,5.67841064453125,0.6812987923622131,0.23201307654380798,0.20468159019947052
1684201104304435500,5.688435546875,0.7094827890396118,0.27111440896987915,0.2706576883792877
1684201104314461700,5.698461669921875,0.7711077928543091,0.24243484437465668,0.30209386348724365
1684201104324487700,5.70848779296875,0.8734149932861328,0.39702385663986206,0.36856797337532043
1684201104334512600,5.7185126953125,0.9245449304580688,0.5764631628990173,0.4123907685279846
1684201104344538600,5.72853857421875,0.914364755153656,0.6994132995605469,0.43476957082748413
1684201104354563800,5.738563720703125,0.8345227241516113,0.8133760094642639,0.4685397744178772
1684201104364589600,5.748589599609375,0.7199375033378601,1.0025829076766968,0.5244067311286926
1684201104374615600,5.758615478515625,0.624038577079773,1.2937908172607422,0.6270094513893127
1684201104384640800,5.768640869140625,0.6033623218536377,1.6327323913574219,0.7812957167625427
1684201104394666800,5.778666748046875,0.6292435526847839,1.888718605041504,0.9689804911613464
1684201104404692700,5.788692626953125,0.6527156233787537,1.9513453245162964,1.1356844902038574
1684201104414717700,5.7987177734375,0.6361083984375,1.8388046026229858,1.2638134956359863
1684201104424743700,5.80874365234375,0.6028551459312439,1.6630250215530396,1.3342628479003906
1684201104434768600,5.8187685546875,0.5437860488891602,1.5495134592056274,1.3487437963485718
1684201104444794600,5.828794677734375,0.4702324867248535,1.5156835317611694,1.3066612482070923
1684201104454820600,5.838820556640625,0.4273378551006317,1.5796294212341309,1.2365564107894897
1684201104464845600,5.848845458984375,0.4029203951358795,1.6694996356964111,1.1838122606277466
1684201104474871600,5.85887158203125,0.3755604922771454,1.6236823797225952,1.1699402332305908
1684201104484897500,5.8688974609375,0.3305504322052002,1.4827505350112915,1.2116581201553345
1684201104494922800,5.8789228515625,0.3192271888256073,1.3676663637161255,1.2918968200683594
1684201104504948700,5.88894873046875,0.3173115849494934,1.3110989332199097,1.3854789733886719
1684201104514973700,5.8989736328125,0.298330694437027,1.353076457977295,1.4664894342422485
1684201104524999700,5.908999755859375,0.25441864132881165,1.452282428741455,1.5060338973999023
1684201104535025700,5.919025634765625,0.193868026137352,1.6106849908828735,1.492020606994629
1684201104545050600,5.929050537109375,0.12901605665683746,1.780693769454956,1.4319570064544678
1684201104555076600,5.93907666015625,0.08200235664844513,1.939578890800476,1.3512040376663208
1684201104565102600,5.9491025390625,0.051341913640499115,2.0918731689453125,1.2800198793411255
1684201104575127600,5.95912744140625,0.02909349463880062,2.2092533111572266,1.248055100440979
1684201104585153500,5.969153564453125,0.011892137117683887,2.24763822555542,1.2349072694778442
1684201104595178500,5.979178466796875,0.017877783626317978,2.2179744243621826,1.2362638711929321
1684201104605204500,5.98920458984375,0.034043967723846436,2.134242057800293,1.2214304208755493
1684201104615230500,5.99923046875,0.05719922110438347,2.0506863594055176,1.1871520280838013
1684201104625255700,6.009255615234375,0.085732601583004,2.0030033588409424,1.1199136972427368
1684201104635281700,6.01928173828125,0.09981953352689743,1.9815003871917725,1.0495132207870483
1684201104645307600,6.0293076171875,0.09431983530521393,1.9814766645431519,1.0089842081069946
1684201104655332600,6.03933251953125,0.07006450742483139,2.0040454864501953,1.0079612731933594
1684201104665358600,6.049358642578125,0.04099556803703308,2.050464630126953,1.0315186977386475
1684201104675383600,6.059383544921875,0.01900297962129116,2.080082893371582,1.064415454864502
1684201104685409500,6.069409423828125,0.00813967827707529,2.0803167819976807,1.1147269010543823
1684201104695435500,6.079435546875,-0.011900818906724453,2.06559681892395,1.1910043954849243
1684201104705460500,6.08946044921875,-0.032714489847421646,2.0199291706085205,1.2933939695358276
1684201104715486500,6.099486572265625,-0.03185681626200676,1.9662563800811768,1.4097007513046265
1684201104725512400,6.109512451171875,-0.014581956900656223,1.9237701892852783,1.5053192377090454
1684201104735537400,6.119537353515625,0.008483110927045345,1.9228285551071167,1.5460056066513062
1684201104745563400,6.1295634765625,0.03861518204212189,1.9778473377227783,1.5447502136230469
1684201104755588600,6.139588623046875,0.0496983602643013,2.052485466003418,1.4862403869628906
1684201104765614600,6.149614501953125,0.02869401127099991,2.134406805038452,1.383112907409668
1684201104775640600,6.159640625,-0.022203074768185616,2.1952359676361084,1.290266513824463
1684201104785665500,6.16966552734375,-0.09522029757499695,2.249197483062744,1.2452404499053955
1684201104795691500,6.17969140625,-0.1701236367225647,2.3471293449401855,1.2653177976608276
1684201104805717800,6.1897177734375,-0.2161979228258133,2.487574815750122,1.3194600343704224
1684201104815742500,6.199742431640625,-0.2484235167503357,2.5546412467956543,1.3610775470733643
1684201104825768700,6.209768798828125,-0.2844451665878296,2.4706099033355713,1.3720167875289917
1684201104835793400,6.21979345703125,-0.3122570514678955,2.257669687271118,1.3620131015777588
1684201104845819600,6.229819580078125,-0.3230724334716797,2.0000150203704834,1.3307931423187256
1684201104855845600,6.239845703125,-0.3326447308063507,1.7606326341629028,1.320088267326355
1684201104865870600,6.24987060546875,-0.3369356095790863,1.5745147466659546,1.3393080234527588
1684201104875896600,6.259896484375,-0.33583739399909973,1.4632601737976074,1.3638767004013062
1684201104885922600,6.269922607421875,-0.3318850100040436,1.4362828731536865,1.3680182695388794
1684201104895947800,6.27994775390625,-0.34763067960739136,1.4503637552261353,1.2964670658111572
1684201104905973800,6.289973876953125,-0.3852750062942505,1.3877276182174683,1.1357016563415527
1684201104915998700,6.299998779296875,-0.2925080358982086,1.019408941268921,0.9316003918647766
1684201104926024700,6.310024658203125,-0.032657019793987274,0.278813898563385,0.7278727889060974
1684201104936050700,6.32005078125,0.2364789992570877,-0.3933573365211487,0.578945517539978
1684201104946075600,6.33007568359375,0.34708327054977417,-0.6120406985282898,0.5290900468826294
1684201104956101600,6.3401015625,0.3532490134239197,-0.45429757237434387,0.5236583352088928
1684201104966127600,6.350127685546875,0.27974072098731995,-0.008522498421370983,0.38272330164909363
1684201104976152600,6.360152587890625,0.04802197962999344,0.6038310527801514,0.14596626162528992
1684201104986178000,6.370177978515625,-0.27971088886260986,1.0182015895843506,0.20404395461082458
1684201104996203300,6.380203369140625,-0.4773886203765869,1.287205696105957,0.5814350843429565
1684201105006229200,6.390229248046875,-0.4923691749572754,1.7022117376327515,1.0688849687576294
1684201105016255200,6.400255126953125,-0.47405344247817993,2.151845932006836,1.5007004737854004
1684201105026280200,6.4102802734375,-0.49991434812545776,2.5170440673828125,1.8405812978744507
1684201105036306200,6.42030615234375,-0.5317620635032654,2.7553622722625732,2.0658278465270996
1684201105046331100,6.4303310546875,-0.569074809551239,2.7343742847442627,2.0569796562194824
1684201105056357000,6.440357177734375,-0.5565088391304016,2.6128427982330322,1.8096357583999634
1684201105066383000,6.450383056640625,-0.5012091398239136,2.6579790115356445,1.5392205715179443
1684201105076408000,6.460407958984375,-0.4535713493824005,2.87746000289917,1.3940714597702026
1684201105086434000,6.47043408203125,-0.4176623523235321,3.0743682384490967,1.3844486474990845
1684201105096460300,6.480460205078125,-0.3904730975627899,3.100524425506592,1.4381976127624512
1684201105106485200,6.4904853515625,-0.35717347264289856,2.9800913333892822,1.5101075172424316
1684201105116511200,6.50051123046875,-0.31245172023773193,2.8364875316619873,1.5606409311294556
1684201105126536200,6.5105361328125,-0.28866755962371826,2.7243916988372803,1.5658929347991943
1684201105136562400,6.5205625,-0.28219279646873474,2.7121951580047607,1.5212184190750122
1684201105146588400,6.53058837890625,-0.293308824300766,2.7786381244659424,1.4589036703109741
1684201105156613000,6.540613037109375,-0.29877060651779175,2.883516788482666,1.404502034187317
1684201105166639400,6.550639404296875,-0.29919564723968506,2.9592301845550537,1.3870370388031006
1684201105176665300,6.560665283203125,-0.2896532118320465,2.986632823944092,1.4149619340896606
1684201105186690300,6.570690185546875,-0.2993287444114685,2.982048988342285,1.4633431434631348
1684201105196716300,6.58071630859375,-0.3216003179550171,2.9923906326293945,1.500519037246704
1684201105206741200,6.5907412109375,-0.3501182496547699,3.0697872638702393,1.5319541692733765
1684201105216767200,6.600767333984375,-0.37437739968299866,3.2135095596313477,1.5628703832626343
1684201105226793200,6.610793212890625,-0.3842816948890686,3.387369394302368,1.6134930849075317
1684201105236818400,6.620818359375,-0.3964311182498932,3.530970811843872,1.6760386228561401
1684201105246844400,6.630844482421875,-0.38068705797195435,3.643177032470703,1.7566850185394287
1684201105256870100,6.6408701171875,-0.3782722055912018,3.6679508686065674,1.7978715896606445
1684201105266895400,6.650895263671875,-0.3800716996192932,3.654064893722534,1.8387380838394165
1684201105276921300,6.66092138671875,-0.36130255460739136,3.5845565795898438,1.8657456636428833
1684201105286946300,6.6709462890625,-0.34213417768478394,3.4202914237976074,1.8564525842666626
1684201105296972300,6.68097216796875,-0.31276848912239075,3.141638994216919,1.7814890146255493
1684201105306998300,6.690998291015625,-0.28831028938293457,2.831554412841797,1.6461639404296875
1684201105317023200,6.701023193359375,-0.24073702096939087,2.5416550636291504,1.4605730772018433
1684201105327049200,6.71104931640625,-0.15420211851596832,2.227628707885742,1.2358665466308594
1684201105337075200,6.7210751953125,-0.07912511378526688,1.97156822681427,0.9987882375717163
1684201105347100200,6.73110009765625,-0.03834731876850128,1.821751594543457,0.7759522795677185
1684201105357126100,6.741126220703125,-0.0478142686188221,1.8079012632369995,0.6310849785804749
1684201105367151400,6.7511513671875,-0.10456649959087372,1.8752598762512207,0.6044312715530396
1684201105377177300,6.76117724609375,-0.18752039968967438,1.9673609733581543,0.6952354311943054
1684201105387203300,6.771203369140625,-0.2915240228176117,2.055046796798706,0.825435221195221
1684201105397228300,6.781228271484375,-0.39025792479515076,2.096592664718628,0.9026159048080444
1684201105407254300,6.791254150390625,-0.4553050994873047,2.071258783340454,0.8910108804702759
1684201105417280300,6.8012802734375,-0.47375619411468506,2.050189733505249,0.8334645628929138
1684201105427305200,6.81130517578125,-0.4694618284702301,2.0206568241119385,0.7647214531898499
1684201105437331200,6.821331298828125,-0.4517843723297119,1.9731253385543823,0.7083256840705872
1684201105447356200,6.831356201171875,-0.4177206754684448,1.9334346055984497,0.6637651324272156
1684201105457382100,6.841382080078125,-0.38120612502098083,1.8994324207305908,0.6428670883178711
1684201105467408100,6.851408203125,-0.34186723828315735,1.8821386098861694,0.6357833743095398
1684201105477433000,6.86143310546875,-0.29773762822151184,1.8684113025665283,0.6467478275299072
1684201105487459000,6.871458984375,-0.25420427322387695,1.8443543910980225,0.6538305282592773
1684201105497485000,6.881485107421875,-0.21680347621440887,1.8360223770141602,0.6567673087120056
1684201105507510300,6.89151025390625,-0.17233535647392273,1.870695948600769,0.6557528972625732
1684201105517536300,6.901536376953125,-0.124124675989151,1.9163923263549805,0.6446256637573242
1684201105527561200,6.911561279296875,-0.06793118268251419,1.9131581783294678,0.6115569472312927
1684201105537587200,6.921587158203125,-0.019892459735274315,1.8193165063858032,0.5374870300292969
1684201105547613200,6.93161328125,0.020001428201794624,1.6656646728515625,0.4128212332725525
1684201105557638100,6.94163818359375,0.04475446417927742,1.541171908378601,0.24104538559913635
1684201105567664000,6.9516640625,0.06951174139976501,1.4774107933044434,0.03413348272442818
1684201105577690000,6.961690185546875,0.08087057620286942,1.4228960275650024,-0.19141557812690735
1684201105587715000,6.971715087890625,0.08684138208627701,1.3163248300552368,-0.4278419613838196
1684201105597741000,6.981740966796875,0.10992806404829025,1.171733021736145,-0.679017186164856
1684201105607766300,6.991766357421875,0.16401658952236176,1.0239752531051636,-0.9304934144020081
1684201105617792300,7.001792236328125,0.24878066778182983,0.8900454640388489,-1.16417396068573
1684201105627818200,7.011818359375,0.3430211544036865,0.7918925285339355,-1.3420706987380981
1684201105637843200,7.02184326171875,0.4330105781555176,0.7799695134162903,-1.4468600749969482
1684201105647869400,7.031869384765625,0.5135815739631653,0.8622654676437378,-1.4727376699447632
1684201105657895400,7.0418955078125,0.6110671162605286,1.010099172592163,-1.442765235900879
1684201105667920100,7.051920166015625,0.6954576373100281,1.1417187452316284,-1.353129267692566
1684201105677946400,7.0619462890625,0.7689442038536072,1.1757348775863647,-1.209322452545166
1684201105687971000,7.07197119140625,0.8327362537384033,0.9768877625465393,-1.0449033975601196
1684201105697997300,7.081997314453125,0.8959164023399353,0.5440647006034851,-0.869755208492279
1684201105708023300,7.092023193359375,0.991651713848114,-0.00009130209218710661,-0.686704158782959
1684201105718048300,7.10204833984375,1.1183277368545532,-0.49342748522758484,-0.4983621835708618
1684201105728074200,7.11207421875,1.2451865673065186,-0.894536018371582,-0.3552266061306
1684201105738100200,7.122100341796875,1.3186430931091309,-1.2252981662750244,-0.3311905562877655
1684201105748125400,7.13212548828125,1.3208942413330078,-1.3815556764602661,-0.3907489478588104
1684201105758151200,7.142151123046875,1.3369144201278687,-1.071334719657898,-0.42805981636047363
1684201105768176400,7.15217626953125,1.3635321855545044,-0.5368397831916809,-0.49276426434516907
1684201105778202400,7.162202392578125,1.3513951301574707,0.12542881071567535,-0.4277453124523163
1684201105788228400,7.172228271484375,1.299359679222107,0.8103237748146057,-0.1308092176914215
1684201105798253300,7.18225341796875,1.2361271381378174,1.2988595962524414,0.3096728026866913
1684201105808279300,7.192279296875,1.2174906730651855,1.5921369791030884,0.7683567404747009
1684201105818305300,7.20230517578125,1.2719101905822754,1.7240644693374634,1.0444415807724
1684201105828330200,7.212330322265625,1.3543974161148071,1.8172221183776855,1.0865461826324463
1684201105838356200,7.222356201171875,1.4113954305648804,1.9477506875991821,0.9107897281646729
1684201105848381200,7.232381103515625,1.3726495504379272,2.0855464935302734,0.6215389966964722
1684201105858407200,7.2424072265625,1.2576948404312134,2.1739344596862793,0.3830547332763672
1684201105868433200,7.25243310546875,1.1662261486053467,2.1748158931732178,0.2999494671821594
1684201105878458400,7.262458251953125,1.121730923652649,2.0474026203155518,0.40085774660110474
1684201105888484400,7.272484375,1.089668869972229,1.7828130722045898,0.5630953311920166
1684201105898510300,7.28251025390625,1.0399763584136963,1.443661093711853,0.6434043049812317
1684201105908535300,7.292535400390625,0.9600088596343994,1.142825722694397,0.6364439129829407
1684201105918561300,7.302561279296875,0.8639956712722778,0.8912392854690552,0.5954303741455078
1684201105928586200,7.312586181640625,0.7576809525489807,0.6805680990219116,0.5660676956176758
1684201105938612200,7.3226123046875,0.6466279625892639,0.4906575381755829,0.5556570887565613
1684201105948638200,7.33263818359375,0.5362561941146851,0.3031259775161743,0.5560017228126526
1684201105958663200,7.3426630859375,0.44247156381607056,0.16986314952373505,0.5585137605667114
1684201105968689200,7.352689208984375,0.36839547753334045,0.12796124815940857,0.5648781657218933
1684201105978715100,7.362715087890625,0.3202490508556366,0.12455637753009796,0.564376175403595
1684201105988740000,7.372739990234375,0.26154711842536926,0.1558098942041397,0.5586482286453247
1684201105998766000,7.38276611328125,0.19191613793373108,0.2612047493457794,0.5760648250579834
1684201106008791300,7.392791259765625,0.12310245633125305,0.44986626505851746,0.6376515030860901
1684201106018817300,7.4028173828125,0.04388964921236038,0.6629500985145569,0.7531080842018127
1684201106028843300,7.41284326171875,-0.055322688072919846,0.7857649922370911,0.8787429928779602
1684201106038868200,7.4228681640625,-0.16025209426879883,0.782725989818573,0.9477664232254028
1684201106048894200,7.432894287109375,-0.24751242995262146,0.674241840839386,0.9686930179595947
1684201106058920200,7.442920166015625,-0.31730613112449646,0.5055570602416992,0.9338832497596741
1684201106068945200,7.452945068359375,-0.3493090569972992,0.31282469630241394,0.8681678771972656
1684201106078971100,7.46297119140625,-0.3698711693286896,0.10789002478122711,0.7829320430755615
1684201106088996000,7.47299609375,-0.38908880949020386,-0.07492107152938843,0.6892401576042175
1684201106099022000,7.48302197265625,-0.40184247493743896,-0.22577279806137085,0.5966044068336487
1684201106109048000,7.493048095703125,-0.41852185130119324,-0.3740977942943573,0.535003662109375
1684201106119073300,7.5030732421875,-0.44590190052986145,-0.49202701449394226,0.5108377933502197
1684201106129099000,7.51309912109375,-0.4762829840183258,-0.5461730360984802,0.5272242426872253
1684201106139125200,7.523125244140625,-0.5124624967575073,-0.5579584240913391,0.5858587622642517
1684201106149150200,7.533150146484375,-0.5589452981948853,-0.536000669002533,0.6548945307731628
1684201106159176200,7.54317626953125,-0.6246721148490906,-0.4671724736690521,0.7146048545837402
1684201106169202400,7.553202392578125,-0.7059592604637146,-0.40000009536743164,0.742943525314331
1684201106179227100,7.56322705078125,-0.7872390747070312,-0.33727601170539856,0.7175567746162415
1684201106189253400,7.57325341796875,-0.8637514114379883,-0.2765069305896759,0.6631712913513184
1684201106199278000,7.583278076171875,-0.9022602438926697,-0.26290541887283325,0.5944320559501648
1684201106209304300,7.59330419921875,-0.8848754167556763,-0.3022861182689667,0.5349501371383667
1684201106219330300,7.603330322265625,-0.82285076379776,-0.40973132848739624,0.4754300117492676
1684201106229355300,7.613355224609375,-0.7492085099220276,-0.5492804050445557,0.4032175838947296
1684201106239381200,7.62338134765625,-0.6814890503883362,-0.6936205625534058,0.33431684970855713
1684201106249407200,7.6334072265625,-0.6309257745742798,-0.8000836372375488,0.2896311283111572
1684201106259432200,7.64343212890625,-0.613461971282959,-0.8470427989959717,0.27564311027526855
1684201106269458200,7.653458251953125,-0.5964155793190002,-0.8223145604133606,0.2790842056274414
1684201106279483400,7.6634833984375,-0.5609809756278992,-0.7129710912704468,0.282206654548645
1684201106289509400,7.67350927734375,-0.5302744507789612,-0.4581185579299927,0.2873055338859558
1684201106299535400,7.683535400390625,-0.48563945293426514,-0.12379999458789825,0.262376070022583
1684201106309560300,7.693560302734375,-0.40143775939941406,0.24681109189987183,0.20876745879650116
1684201106319586300,7.70358642578125,-0.30013543367385864,0.42206621170043945,0.12740162014961243
1684201106329612300,7.7136123046875,-0.21032963693141937,0.3272944390773773,0.035258907824754715
1684201106339637200,7.72363720703125,-0.11406015604734421,0.03472565487027168,-0.07869283854961395
1684201106349663200,7.733663330078125,-0.028650712221860886,-0.33770889043807983,-0.2322312593460083
1684201106359688200,7.743688232421875,0.024062473326921463,-0.642035186290741,-0.3950755000114441
1684201106369714200,7.753714111328125,0.041702982038259506,-0.7057142853736877,-0.4806641638278961
1684201106379740200,7.763740234375,0.0013047312386333942,-0.49213558435440063,-0.4374314844608307
1684201106389765400,7.773765380859375,-0.0960090383887291,-0.16082637012004852,-0.28429651260375977
1684201106399791400,7.783791259765625,-0.2199263870716095,0.15363366901874542,-0.0690106526017189
1684201106409817300,7.7938173828125,-0.3365877568721771,0.4067192077636719,0.17456819117069244
1684201106419842300,7.80384228515625,-0.4181384742259979,0.5835322737693787,0.39430809020996094
1684201106429868300,7.813868408203125,-0.46313977241516113,0.6621208190917969,0.5405550599098206
1684201106439893200,7.823893310546875,-0.47929099202156067,0.6577198505401611,0.5911340713500977
1684201106449919200,7.833919189453125,-0.45521628856658936,0.6170070767402649,0.5641255974769592
1684201106459945200,7.8439453125,-0.3911195993423462,0.5430325269699097,0.48139724135398865
1684201106469970200,7.85397021484375,-0.31828346848487854,0.48102158308029175,0.3698541820049286
1684201106479996200,7.86399609375,-0.2875117361545563,0.46056488156318665,0.23949570953845978
1684201106490022100,7.874022216796875,-0.2575700879096985,0.5308347344398499,0.14615164697170258
1684201106500047000,7.884047119140625,-0.19524894654750824,0.6728259921073914,0.1379338949918747
1684201106510073000,7.894072998046875,-0.1378578245639801,0.8392610549926758,0.24092204868793488
1684201106520098300,7.904098388671875,-0.12947756052017212,1.0104460716247559,0.4230659604072571
1684201106530124300,7.914124267578125,-0.16318279504776,1.1817182302474976,0.5939812660217285
1684201106540150300,7.924150390625,-0.21006761491298676,1.316315770149231,0.7077091336250305
1684201106550175200,7.93417529296875,-0.20201314985752106,1.4210666418075562,0.7781662344932556
1684201106560201200,7.944201171875,-0.135389044880867,1.4075229167938232,0.8001702427864075
1684201106570227200,7.954227294921875,-0.07056265324354172,1.2224204540252686,0.7510541081428528
1684201106580252200,7.964252197265625,-0.018497010692954063,0.9070340394973755,0.6255795955657959
1684201106590278100,7.974278076171875,0.053699422627687454,0.5700554847717285,0.4433538615703583
1684201106600303000,7.98430322265625,0.13285353779792786,0.28713011741638184,0.271679550409317
1684201106610329000,7.9943291015625,0.1948910802602768,0.06295214593410492,0.15262532234191895
1684201106620355000,8.00435498046875,0.21680662035942078,-0.15679870545864105,0.08063696324825287
1684201106630380000,8.014380126953125,0.1981024444103241,-0.3977242410182953,0.0493786446750164
1684201106640406000,8.024406005859374,0.1505439728498459,-0.6263427734375,0.035132065415382385
1684201106650432300,8.034432373046876,0.10954861342906952,-0.7670564651489258,0.03225771337747574
1684201106660457200,8.044457275390625,0.08297879993915558,-0.7975234389305115,0.04323409125208855
1684201106670483200,8.054483154296875,0.06466397643089294,-0.734569251537323,0.07713878899812698
1684201106680508200,8.064508056640625,0.03237701952457428,-0.6402623653411865,0.10576289892196655
1684201106690534100,8.0745341796875,-0.017217162996530533,-0.5367441773414612,0.1479782611131668
1684201106700560400,8.084560302734374,-0.059772931039333344,-0.40720346570014954,0.19841039180755615
1684201106710585000,8.094585205078126,-0.08554034680128098,-0.2789304554462433,0.25639808177948
1684201106720611300,8.104611328125,-0.08928743004798889,-0.16388064622879028,0.3270738422870636
1684201106730637300,8.11463720703125,-0.09300893545150757,-0.07386527210474014,0.3767090439796448
1684201106740662300,8.124662353515625,-0.08962617069482803,0.03145628795027733,0.4059808552265167
1684201106750688300,8.134688232421874,-0.08303537964820862,0.12182586640119553,0.40897852182388306
1684201106760714200,8.14471435546875,-0.0859607607126236,0.16130858659744263,0.38719961047172546
1684201106770739200,8.1547392578125,-0.08930116146802902,0.14641058444976807,0.3431221842765808
1684201106780765200,8.16476513671875,-0.0756903812289238,0.0771164521574974,0.2872776389122009
1684201106790790400,8.174790283203125,-0.06977204233407974,-0.004299577325582504,0.23175977170467377
1684201106800816400,8.18481640625,-0.07412269711494446,-0.06875640153884888,0.20380263030529022
1684201106810842400,8.19484228515625,-0.06964858621358871,-0.13042081892490387,0.1941521316766739
1684201106820867300,8.204867431640626,-0.07166008651256561,-0.17981566488742828,0.1870141625404358
1684201106830893300,8.214893310546875,-0.07774168252944946,-0.1559324413537979,0.1854010969400406
1684201106840919300,8.224919189453125,-0.08394350856542587,-0.09062214940786362,0.18530651926994324
1684201106850944300,8.2349443359375,-0.08722345530986786,-0.02714250423014164,0.18859818577766418
1684201106860970200,8.24497021484375,-0.09077557921409607,0.012699717655777931,0.18404579162597656
1684201106870995200,8.2549951171875,-0.08290541172027588,0.01997307687997818,0.1710261106491089
1684201106881021200,8.265021240234375,-0.07002603262662888,0.009968006983399391,0.1482178419828415
1684201106891047200,8.275047119140625,-0.062307924032211304,-0.0344492569565773,0.12422861903905869
1684201106901072400,8.285072265625,-0.05838817358016968,-0.10935676842927933,0.09147299081087112
1684201106911098400,8.295098388671875,-0.05763556435704231,-0.1886364221572876,0.04266737028956413
1684201106921124000,8.3051240234375,-0.06230705976486206,-0.25855129957199097,-0.008575623854994774
1684201106931149300,8.3151494140625,-0.07221002131700516,-0.29698416590690613,-0.04976380616426468
1684201106941175300,8.32517529296875,-0.08550509065389633,-0.3157051205635071,-0.07339540868997574
1684201106951200300,8.3352001953125,-0.10121507942676544,-0.3363933563232422,-0.0784708634018898
1684201106961226200,8.345226318359375,-0.10463251173496246,-0.3450232148170471,-0.05505884811282158
1684201106971252200,8.355252197265624,-0.11803007870912552,-0.34552788734436035,-0.023243125528097153
1684201106981277200,8.365277099609376,-0.14065417647361755,-0.33940818905830383,0.000540565699338913
1684201106991303400,8.375303466796876,-0.15283708274364471,-0.3279997408390045,0.01681727170944214
1684201107001329400,8.385329345703125,-0.17055165767669678,-0.3349267840385437,0.018641382455825806
1684201107011354400,8.395354248046875,-0.1712435483932495,-0.3495509922504425,0.006052088458091021
1684201107021380400,8.40538037109375,-0.18060587346553802,-0.3636988401412964,-0.016080431640148163
1684201107031406300,8.41540625,-0.17935311794281006,-0.3687388598918915,-0.0443461574614048
1684201107041431600,8.425431640625,-0.179240420460701,-0.39175817370414734,-0.07672695815563202
1684201107051457300,8.435457275390625,-0.19127844274044037,-0.43591630458831787,-0.11492414772510529
1684201107061482500,8.445482421875,-0.20362703502178192,-0.4755932688713074,-0.15729504823684692
1684201107071508500,8.455508544921875,-0.22290858626365662,-0.499649316072464,-0.19309166073799133
1684201107081534500,8.465534423828124,-0.24259987473487854,-0.4955882728099823,-0.19871488213539124
1684201107091559400,8.475559326171876,-0.2608118951320648,-0.47275593876838684,-0.1795204132795334
1684201107101585400,8.48558544921875,-0.2750069797039032,-0.4443643391132355,-0.13504478335380554
1684201107111611400,8.495611328125,-0.27743393182754517,-0.41376009583473206,-0.08129341900348663
1684201107121636400,8.50563623046875,-0.2573375105857849,-0.379620224237442,-0.029528532177209854
1684201107131662300,8.515662353515625,-0.22935113310813904,-0.3406802713871002,0.019390808418393135
1684201107141687300,8.525687255859374,-0.1984061300754547,-0.3156743049621582,0.05794962868094444
1684201107151713300,8.53571337890625,-0.17595887184143066,-0.3123493492603302,0.09194621443748474
1684201107161739300,8.5457392578125,-0.1496439129114151,-0.3102257549762726,0.10950016975402832
1684201107171764500,8.555764404296875,-0.1405060738325119,-0.3065583109855652,0.12597768008708954
1684201107181790500,8.56579052734375,-0.12726694345474243,-0.2810679078102112,0.13733424246311188
1684201107191816400,8.57581640625,-0.1270698606967926,-0.23155440390110016,0.1605098694562912
1684201107201841400,8.58584130859375,-0.12130457162857056,-0.1638512909412384,0.2044300138950348
1684201107211867400,8.595867431640626,-0.1046808585524559,-0.09946324676275253,0.26948782801628113
1684201107221892400,8.605892333984375,-0.07887116074562073,-0.061790548264980316,0.33402347564697266
1684201107231918300,8.61591845703125,-0.05686891824007034,-0.0860772430896759,0.35214149951934814
1684201107241944300,8.6259443359375,-0.023255938664078712,-0.15477962791919708,0.2863213121891022
1684201107251969300,8.63596923828125,0.030356956645846367,-0.22717127203941345,0.11978797614574432
1684201107261995300,8.645995361328126,0.11669772118330002,-0.2835017740726471,-0.1212330088019371
1684201107272021200,8.656021240234375,0.22638587653636932,-0.3408029079437256,-0.3989618122577667
1684201107282046200,8.666046142578125,0.33128032088279724,-0.42935314774513245,-0.663977861404419
1684201107292072200,8.676072265625,0.4145145118236542,-0.5373339653015137,-0.8739609122276306
1684201107302097400,8.686097412109374,0.4916974902153015,-0.6042974591255188,-1.01132071018219
1684201107312123400,8.696123291015626,0.546799898147583,-0.5870587825775146,-1.084375023841858
1684201107322149400,8.7061494140625,0.5671167373657227,-0.5132184624671936,-1.1278821229934692
1684201107332174300,8.71617431640625,0.5914137959480286,-0.4220578968524933,-1.2238329648971558
1684201107342200300,8.726200439453125,0.6499066948890686,-0.2583494484424591,-1.5045028924942017
1684201107352226300,8.736226318359375,0.7683222889900208,0.03717992082238197,-2.113745927810669
1684201107362251300,8.746251220703124,0.9153300523757935,0.26834654808044434,-2.8424222469329834
1684201107372277200,8.75627734375,1.0534031391143799,0.23365408182144165,-3.3044087886810303
1684201107382302200,8.76630224609375,1.1367251873016357,0.07175645232200623,-3.4128530025482178
1684201107392328200,8.776328125,1.255365014076233,-0.029834087938070297,-3.271371603012085
1684201107402354200,8.786354248046875,1.3651564121246338,0.1265697330236435,-2.8830180168151855
1684201107412379400,8.79637939453125,1.3730353116989136,0.45145753026008606,-2.282850503921509
1684201107422405000,8.806405029296876,1.3213919401168823,0.613501787185669,-1.7249380350112915
1684201107432431400,8.816431396484376,1.2360734939575195,0.5065630674362183,-1.2842849493026733
1684201107442456300,8.826456298828125,1.0704755783081055,0.2980306148529053,-0.8999459743499756
1684201107452482600,8.836482666015625,0.9534808397293091,0.0667119100689888,-0.5322249531745911
1684201107462508500,8.846508544921875,1.0501493215560913,-0.055516086518764496,-0.2528470754623413
1684201107472533500,8.856533447265624,1.2860488891601562,-0.39411383867263794,-0.23274901509284973
1684201107482559500,8.8665595703125,1.7181638479232788,-0.6411473155021667,-0.37929075956344604
1684201107492584400,8.87658447265625,2.165182113647461,-0.39573225378990173,-0.5939024090766907
1684201107502610400,8.8866103515625,2.281733751296997,0.2959138751029968,-0.6916159987449646
1684201107512636400,8.896636474609375,2.0755300521850586,1.0159679651260376,-0.5842469334602356
1684201107522661400,8.906661376953124,1.783311367034912,1.4711833000183105,-0.30603930354118347
1684201107532687400,8.916687255859374,1.553856611251831,1.748678207397461,-0.011095560155808926
1684201107542713300,8.92671337890625,1.3834517002105713,1.963956356048584,0.14980050921440125
1684201107552738300,8.93673828125,1.247712254524231,2.147965431213379,0.20418331027030945
1684201107562764300,8.946764404296875,1.1982519626617432,2.162367820739746,0.1769566386938095
1684201107572789500,8.95678955078125,1.1921184062957764,2.056774616241455,0.1255432516336441
1684201107582815500,8.9668154296875,1.2355860471725464,1.7713228464126587,0.07914602756500244
1684201107592841500,8.976841552734374,1.302634835243225,1.383115530014038,0.05825699493288994
1684201107602866400,8.986866455078125,1.338699460029602,1.114527940750122,0.08040856570005417
1684201107612892400,8.996892333984375,1.2947733402252197,0.9413379430770874,0.09786345809698105
1684201107622918400,9.00691845703125,1.154320240020752,0.9556939005851746,0.12128131091594696
1684201107632943400,9.016943359375,1.0194412469863892,0.9727514386177063,0.16020606458187103
1684201107642969300,9.02696923828125,0.9525418877601624,0.8659951686859131,0.20977438986301422
1684201107652994300,9.036994384765626,0.9229133725166321,0.7271208763122559,0.2606801688671112
1684201107663020300,9.047020263671875,0.884651780128479,0.6535040140151978,0.29044872522354126
1684201107673046300,9.05704638671875,0.8050237894058228,0.6682712435722351,0.3123558759689331
1684201107683071500,9.067071533203125,0.6820525527000427,0.682833194732666,0.3340579569339752
1684201107693097500,9.077097412109374,0.5348945260047913,0.576814591884613,0.3645583391189575
1684201107703123500,9.08712353515625,0.3859885334968567,0.33302968740463257,0.37804409861564636
1684201107713148400,9.0971484375,0.24333176016807556,0.08875682950019836,0.37946435809135437
1684201107723174400,9.10717431640625,0.0999063178896904,-0.08668265491724014,0.373315691947937
1684201107733199400,9.117199462890625,-0.03657402843236923,-0.19076751172542572,0.3754259943962097
1684201107743225300,9.127225341796875,-0.15902963280677795,-0.2748488187789917,0.39432963728904724
1684201107753251300,9.137251220703124,-0.27729663252830505,-0.344157338142395,0.4526773691177368
1684201107763276300,9.1472763671875,-0.4007602035999298,-0.3855762779712677,0.5439578890800476
1684201107773302300,9.15730224609375,-0.530343234539032,-0.4283687472343445,0.6557456851005554
1684201107783328300,9.167328369140625,-0.6471425294876099,-0.49305394291877747,0.7653695344924927
1684201107793353200,9.177353271484375,-0.727452278137207,-0.5973182916641235,0.8563945293426514
1684201107803379200,9.187379150390624,-0.7676790952682495,-0.7323923110961914,0.9385191202163696
1684201107813405200,9.1974052734375,-0.7790997624397278,-0.9078307151794434,1.0335044860839844
1684201107823430400,9.207430419921875,-0.7996046543121338,-1.1270283460617065,1.123274564743042
1684201107833456400,9.217456298828125,-0.844404399394989,-1.3501347303390503,1.2084296941757202
1684201107843481300,9.2274814453125,-0.9245551824569702,-1.5244258642196655,1.2575633525848389
1684201107853507300,9.23750732421875,-1.0253435373306274,-1.5986812114715576,1.2663863897323608
1684201107863533300,9.247533203125,-1.1237210035324097,-1.576230525970459,1.2472798824310303
1684201107873558300,9.257558349609376,-1.1953073740005493,-1.4957606792449951,1.2025041580200195
1684201107883584300,9.267584228515625,-1.186719298362732,-1.3234293460845947,1.128359079360962
1684201107893610200,9.2776103515625,-1.1354800462722778,-1.0759268999099731,1.0361216068267822
1684201107903635200,9.28763525390625,-1.0557036399841309,-0.8273111581802368,0.928444504737854
1684201107913661200,9.2976611328125,-0.9034939408302307,-0.6272635459899902,0.8140966296195984
1684201107923686100,9.30768603515625,-0.7187439799308777,-0.4724196791648865,0.6773983240127563
1684201107933712100,9.317712158203125,-0.5746440887451172,-0.44021859765052795,0.5692795515060425
1684201107943738400,9.32773828125,-0.49015161395072937,-0.5841346383094788,0.4994618594646454
1684201107953763300,9.337763427734375,-0.44897568225860596,-0.7526748776435852,0.4640069007873535
1684201107963789600,9.34778955078125,-0.43809181451797485,-0.7556081414222717,0.4208230972290039
1684201107973815600,9.357815673828124,-0.4657000005245209,-0.5797502398490906,0.35702282190322876
1684201107983840500,9.367840576171876,-0.5059369206428528,-0.38140490651130676,0.27440017461776733
1684201107993866000,9.377865966796875,-0.5095422863960266,-0.3076246678829193,0.21887540817260742
1684201108003892000,9.38789208984375,-0.49741482734680176,-0.28054291009902954,0.1953788846731186
1684201108013917000,9.3979169921875,-0.46963778138160706,-0.1510285884141922,0.15603654086589813
1684201108023943000,9.40794287109375,-0.40770915150642395,-0.05689295753836632,0.11851877719163895
1684201108033967900,9.4179677734375,-0.3214448392391205,-0.08140949159860611,0.1250360608100891
1684201108043993900,9.427993896484375,-0.17865052819252014,-0.1813884973526001,0.1307886242866516
1684201108054019800,9.438019775390625,-0.018203597515821457,-0.2297874540090561,0.13027863204479218
1684201108064045000,9.448045166015625,0.11283667385578156,-0.24730657041072845,0.12089674174785614
1684201108074071000,9.458071044921875,0.1694118082523346,-0.2370677888393402,0.02518247440457344
1684201108084097000,9.468096923828124,0.09536087512969971,-0.027525339275598526,-0.1585065871477127
1684201108094122000,9.4781220703125,-0.017662348225712776,0.29626524448394775,-0.2536908984184265
1684201108104148000,9.48814794921875,-0.14655059576034546,0.448049396276474,-0.12235517799854279
1684201108114173000,9.4981728515625,-0.34481626749038696,0.4300844967365265,0.15576697885990143
1684201108124199000,9.508198974609375,-0.5748912692070007,0.3640308380126953,0.3385395407676697
1684201108134225000,9.518224853515624,-0.7245542407035828,0.18567360937595367,0.35090941190719604
1684201108144249900,9.528249755859376,-0.7286781668663025,-0.06307142227888107,0.2685011327266693
1684201108154275800,9.53827587890625,-0.6240657567977905,-0.2291160523891449,0.14397971332073212
1684201108164301800,9.5483017578125,-0.4933369755744934,-0.24032483994960785,0.014041371643543243
1684201108174326800,9.558326904296875,-0.38279423117637634,-0.13635049760341644,-0.06891077011823654
1684201108184352800,9.568352783203125,-0.33317887783050537,-0.015062137506902218,-0.04791155457496643
1684201108194378000,9.5783779296875,-0.36105579137802124,0.08258798718452454,0.04642346873879433
1684201108204404000,9.588404052734376,-0.4128662049770355,0.15393470227718353,0.07984858006238937
1684201108214430200,9.59843017578125,-0.4359840452671051,0.17950716614723206,0.030561724677681923
1684201108224455000,9.608454833984375,-0.4320446252822876,0.12546613812446594,-0.05352179333567619
1684201108234481200,9.618481201171875,-0.42337924242019653,-0.0461018830537796,-0.12809935212135315
1684201108244507100,9.628507080078125,-0.4188164174556732,-0.3648659586906433,-0.2145470678806305
1684201108254532000,9.638531982421876,-0.406244158744812,-0.8544196486473083,-0.3548983335494995
1684201108264558000,9.64855810546875,-0.3679817318916321,-1.5406198501586914,-0.5968355536460876
1684201108274584000,9.658583984375,-0.24778953194618225,-2.1052863597869873,-0.79742032289505
1684201108284609000,9.668609130859375,-0.017177365720272064,-2.1698524951934814,-0.6985573768615723
1684201108294635000,9.678635009765625,0.23654678463935852,-1.7774162292480469,-0.3213347792625427
1684201108304660000,9.688659912109374,0.21374058723449707,-1.2933746576309204,-0.09562968462705612
1684201108314686000,9.69868603515625,0.027399461716413498,-0.7489055395126343,-0.1999262571334839
1684201108324712000,9.7087119140625,-0.22932635247707367,0.015810396522283554,-0.49823376536369324
1684201108334737200,9.718737060546875,-0.39936330914497375,0.6794402599334717,-0.6328362822532654
1684201108344763100,9.72876318359375,-0.4870187044143677,0.9271377921104431,-0.4434046745300293
1684201108354789000,9.7387890625,-0.5572307705879211,0.8541170954704285,-0.053469959646463394
1684201108364814000,9.74881396484375,-0.6215181350708008,0.695410966873169,0.3299172818660736
1684201108374840000,9.758840087890626,-0.6552537679672241,0.5016201734542847,0.570984959602356
1684201108384865000,9.768864990234375,-0.6465166211128235,0.2994501292705536,0.6593756675720215
1684201108394891000,9.77889111328125,-0.5858034491539001,0.1738799512386322,0.6240602731704712
1684201108404917000,9.7889169921875,-0.5218602418899536,0.1587960124015808,0.5152704119682312
1684201108414942000,9.79894189453125,-0.49542149901390076,0.20612891018390656,0.3559803366661072
1684201108424968000,9.808968017578126,-0.48897385597229004,0.2695736587047577,0.20753434300422668
1684201108434994000,9.818993896484375,-0.4685729742050171,0.29135698080062866,0.10310486704111099
1684201108445019000,9.829018798828125,-0.3895207941532135,0.24189437925815582,0.053546637296676636
1684201108455044900,9.839044921875,-0.24709919095039368,0.16327494382858276,0.038982607424259186
1684201108465070000,9.849070068359374,-0.1153646931052208,0.045941561460494995,0.07804960012435913
1684201108475096000,9.859095947265626,-0.021368954330682755,-0.03021392598748207,0.18047024309635162
1684201108485122000,9.8691220703125,0.001318582915700972,0.026418762281537056,0.33244314789772034
1684201108495147000,9.87914697265625,-0.04410615563392639,0.1373460739850998,0.47723791003227234
1684201108505173000,9.889173095703125,-0.10378995537757874,0.10540490597486496,0.49429333209991455
1684201108515199000,9.899198974609375,-0.113950714468956,-0.003565786872059107,0.3736864924430847
1684201108525224000,9.909223876953124,-0.08514239639043808,-0.02270658314228058,0.19851644337177277
1684201108535250000,9.91925,-0.06945265084505081,0.11094176024198532,0.08950845152139664
1684201108545276000,9.92927587890625,-0.08360540121793747,0.33238402009010315,0.12159664928913116
1684201108555300900,9.93930078125,-0.10573520511388779,0.5238282680511475,0.25021135807037354
1684201108565326800,9.949326904296875,-0.12464715540409088,0.6485159993171692,0.39421966671943665
1684201108575352000,9.95935205078125,-0.13207924365997314,0.7868855595588684,0.5308464765548706
1684201108585378000,9.9693779296875,-0.1463237851858139,0.9029898643493652,0.6393048167228699
1684201108595404000,9.979404052734376,-0.16293151676654816,0.9667733311653137,0.724255383014679
1684201108605429000,9.989428955078125,-0.18298836052417755,0.9370315074920654,0.7885217666625977
1684201108615455000,9.999455078125,-0.18128900229930878,0.7881224751472473,0.8176117539405823
1684201108625481000,10.00948095703125,-0.15897467732429504,0.6237162351608276,0.7811375856399536
1684201108635506000,10.019505859375,-0.13072626292705536,0.5078855156898499,0.7029112577438354
1684201108645532000,10.029531982421876,-0.11932427436113358,0.3778385519981384,0.5774713754653931
1684201108655556900,10.039556884765625,-0.12138396501541138,0.21384747326374054,0.42764249444007874
1684201108665582800,10.049582763671875,-0.13451918959617615,0.06322286278009415,0.26024961471557617
1684201108675608800,10.05960888671875,-0.15775872766971588,-0.005086681805551052,0.1312713772058487
1684201108685633800,10.0696337890625,-0.17502790689468384,0.004730954300612211,0.08068786561489105
1684201108695659800,10.07965966796875,-0.20143741369247437,0.007949916645884514,0.09313494712114334
1684201108705686000,10.08968603515625,-0.24106404185295105,0.0008755497983656824,0.13507746160030365
1684201108715711000,10.0997109375,-0.25662779808044434,-0.014238155446946621,0.19747187197208405
1684201108725737200,10.1097373046875,-0.26655569672584534,-0.0176689475774765,0.2867807447910309
1684201108735762000,10.119761962890625,-0.23242251574993134,-0.054580092430114746,0.37706270813941956
1684201108745788200,10.1297880859375,-0.17784260213375092,-0.1561284214258194,0.4085390269756317
1684201108755814100,10.139814208984374,-0.14681145548820496,-0.25409120321273804,0.3652171194553375
1684201108765838800,10.1498388671875,-0.13300350308418274,-0.29474323987960815,0.25923827290534973
1684201108775865000,10.159864990234375,-0.13143011927604675,-0.2583588659763336,0.1303977370262146
1684201108785891000,10.16989111328125,-0.14715959131717682,-0.19237741827964783,0.02126295492053032
1684201108795916000,10.179916015625,-0.14732177555561066,-0.1635465770959854,-0.017642898485064507
1684201108805942000,10.18994189453125,-0.136490136384964,-0.18642167747020721,-0.003241699654608965
1684201108815968000,10.199968017578126,-0.12727506458759308,-0.24042579531669617,0.020783208310604095
1684201108825993000,10.209992919921875,-0.12934407591819763,-0.28852972388267517,0.02650761604309082
1684201108836019000,10.22001904296875,-0.12253144383430481,-0.29910939931869507,0.007931536994874477
1684201108846045000,10.230044921875,-0.11931589245796204,-0.29851818084716797,-0.026429954916238785
1684201108856070100,10.240070068359374,-0.13159680366516113,-0.3249764144420624,-0.058915723115205765
1684201108866096000,10.25009619140625,-0.14566713571548462,-0.348832368850708,-0.07395762950181961
1684201108876121000,10.26012109375,-0.16160401701927185,-0.3655114769935608,-0.0829484611749649
1684201108886147000,10.27014697265625,-0.1821497082710266,-0.37876009941101074,-0.06895739585161209
1684201108896173000,10.280173095703125,-0.19358745217323303,-0.3915563225746155,-0.03873877227306366
1684201108906198000,10.290197998046875,-0.19950415194034576,-0.3880324959754944,-0.004668533336371183
1684201108916224000,10.30022412109375,-0.20384137332439423,-0.3644573986530304,0.02181527204811573
1684201108926249000,10.3102490234375,-0.2149772197008133,-0.3268108069896698,0.04168257489800453
1684201108936275000,10.32027490234375,-0.2240830957889557,-0.30476754903793335,0.05702025443315506
1684201108946301000,10.330301025390625,-0.23226894438266754,-0.3097728192806244,0.062164440751075745
1684201108956326000,10.340325927734375,-0.24496875703334808,-0.36133694648742676,0.0484510213136673
1684201108966352000,10.350351806640624,-0.25007572770118713,-0.4216659665107727,0.02331164851784706
1684201108976377900,10.3603779296875,-0.2625851333141327,-0.4622858464717865,-0.004460594151169062
1684201108986403000,10.370403076171876,-0.2760985791683197,-0.49558255076408386,-0.038524333387613297
1684201108996429800,10.380429931640625,-0.2878122329711914,-0.5144369006156921,-0.06287920475006104
1684201109006455800,10.390455810546875,-0.29806801676750183,-0.518641471862793,-0.08339978009462357
1684201109016481000,10.40048095703125,-0.29721739888191223,-0.5392974615097046,-0.10287468135356903
1684201109026507000,10.410507080078125,-0.27900952100753784,-0.5542911887168884,-0.11714828759431839
1684201109036532000,10.420531982421876,-0.24712109565734863,-0.5209953188896179,-0.13680854439735413
1684201109046558000,10.430557861328126,-0.2071838676929474,-0.4187893271446228,-0.1584007889032364
1684201109056584000,10.440583984375,-0.16321560740470886,-0.26902806758880615,-0.18262171745300293
1684201109066609000,10.45060888671875,-0.1175706684589386,-0.11575281620025635,-0.20001742243766785
1684201109076635000,10.460634765625,-0.06181712448596954,0.013893594965338707,-0.18639640510082245
1684201109086660900,10.470660888671874,0.005537141114473343,0.10291840136051178,-0.15033753216266632
1684201109096685800,10.480685791015626,0.09114471822977066,0.13303795456886292,-0.08589409291744232
1684201109106711800,10.4907119140625,0.21147671341896057,0.09541862457990646,-0.0020752560812979937
1684201109116737800,10.50073779296875,0.32636338472366333,-0.023251837119460106,0.08004917949438095
1684201109126762800,10.5107626953125,0.4243457615375519,-0.2558026611804962,0.13999636471271515
1684201109136788700,10.520788818359375,0.4913889765739441,-0.5846980214118958,0.13042204082012177
1684201109146814000,10.53081396484375,0.5399413704872131,-0.9143148064613342,-0.0706501454114914
1684201109156840000,10.54083984375,0.6323187351226807,-0.9454993009567261,-0.6905416250228882
1684201109166866000,10.550865966796875,0.7619392275810242,-0.6508871912956238,-1.5000250339508057
1684201109176891000,10.560890869140625,0.8562148809432983,-0.34659337997436523,-2.099130392074585
1684201109186916900,10.570916748046875,0.9192301630973816,-0.19702093303203583,-2.5045101642608643
1684201109196942800,10.58094287109375,1.0020161867141724,-0.2667994797229767,-2.806439161300659
1684201109206967800,10.5909677734375,1.158036470413208,-0.49394848942756653,-3.012601137161255
1684201109216993800,10.600993896484376,1.358860731124878,-0.6195670962333679,-3.038670539855957
1684201109227018800,10.611018798828125,1.4511725902557373,-0.5472012758255005,-2.8573358058929443
1684201109237044700,10.621044677734375,1.475382924079895,-0.2853033244609833,-2.5167460441589355
1684201109247070700,10.63107080078125,1.4918441772460938,0.22494132816791534,-2.007225275039673
1684201109257096000,10.641095947265624,1.4796524047851562,0.7312899827957153,-1.4193912744522095
1684201109267121700,10.65112158203125,1.400788426399231,0.7535395622253418,-0.9615253210067749
1684201109277148000,10.66114794921875,1.2439836263656616,0.3599123954772949,-0.6460714936256409
1684201109287172900,10.6711728515625,1.1173416376113892,-0.08310768008232117,-0.3729061186313629
1684201109297199000,10.68119921875,1.1066584587097168,-0.34603357315063477,-0.14110110700130463
1684201109307225000,10.69122509765625,1.1767514944076538,-0.25939637422561646,0.07441476732492447
1684201109317250000,10.70125,1.3103992938995361,-0.12748786807060242,0.11914974451065063
1684201109327276000,10.711276123046876,1.5568736791610718,-0.003987541887909174,-0.14920438826084137
1684201109337301000,10.721301025390625,1.8355308771133423,0.49386167526245117,-0.5126233100891113
1684201109347327000,10.731326904296875,1.9822012186050415,1.3772902488708496,-0.7378935217857361
1684201109357353000,10.74135302734375,1.948563575744629,2.0876665115356445,-0.8497937321662903
1684201109367378000,10.7513779296875,1.7834769487380981,2.4087870121002197,-0.8137964606285095
1684201109377404000,10.76140380859375,1.6064560413360596,2.439194917678833,-0.5716288089752197
1684201109387430000,10.771429931640625,1.487107276916504,2.293501853942871,-0.2071572244167328
1684201109397455000,10.781455078125,1.4484260082244873,2.060734987258911,0.12984876334667206
1684201109407480800,10.791480712890625,1.4209531545639038,1.867950439453125,0.23918524384498596
1684201109417506000,10.801506103515624,1.3694007396697998,1.7293180227279663,0.1595173180103302
1684201109427532000,10.811531982421876,1.3636784553527832,1.5255117416381836,0.023518888279795647
1684201109437558000,10.82155810546875,1.3947585821151733,1.338931918144226,-0.03608398884534836
1684201109447583000,10.8315830078125,1.4045101404190063,1.1734117269515991,0.025113185867667198
1684201109457609000,10.84160888671875,1.351842999458313,0.990729570388794,0.17748089134693146
1684201109467635000,10.851635009765625,1.2173792123794556,0.8642171621322632,0.29391583800315857
1684201109477660000,10.861659912109374,1.0435200929641724,0.8017274141311646,0.3048022985458374
1684201109487686000,10.871685791015626,0.8897486925125122,0.7267826199531555,0.2554051876068115
1684201109497711900,10.8817119140625,0.7869815230369568,0.627380907535553,0.20708106458187103
1684201109507736800,10.89173681640625,0.7322676181793213,0.4682035446166992,0.15006688237190247
1684201109517762800,10.9017626953125,0.7421282529830933,0.26332443952560425,0.13742220401763916
1684201109527788000,10.9117880859375,0.7415854930877686,0.2360096573829651,0.23862813413143158
1684201109537814000,10.92181396484375,0.692088782787323,0.26637184619903564,0.35913723707199097
1684201109547840000,10.931840087890626,0.5812861919403076,0.3843305706977844,0.4493398666381836
1684201109557865000,10.941864990234375,0.4235732853412628,0.595589816570282,0.48069140315055847
1684201109567891000,10.951890869140625,0.2722051739692688,0.7621557712554932,0.4821387231349945
1684201109577917000,10.9619169921875,0.15529215335845947,0.77149897813797,0.4825238287448883
1684201109587942000,10.97194189453125,0.07571038603782654,0.6307945847511292,0.48013973236083984
1684201109597968000,10.9819677734375,0.021817326545715332,0.3870202302932739,0.4973333775997162
1684201109607993900,10.991993896484376,-0.026366179808974266,0.10136265307664871,0.5186746120452881
1684201109618018800,11.002018798828125,-0.07929863780736923,-0.15875200927257538,0.52471524477005
1684201109628044800,11.012044921875,-0.14562371373176575,-0.3933572769165039,0.5272282958030701
1684201109638069800,11.02206982421875,-0.22712203860282898,-0.5842979550361633,0.539786159992218
1684201109648095700,11.032095703125,-0.3209044635295868,-0.714078426361084,0.5411391854286194
1684201109658121700,11.042121826171876,-0.4139680862426758,-0.7671254277229309,0.5212522745132446
1684201109668147000,11.05214697265625,-0.49045097827911377,-0.779681921005249,0.5133914351463318
1684201109678173000,11.0621728515625,-0.5552999973297119,-0.7861113548278809,0.5232080817222595
1684201109688199000,11.072198974609375,-0.6092203259468079,-0.7779425978660583,0.5407953262329102
1684201109698223900,11.082223876953124,-0.6569598913192749,-0.8019200563430786,0.5752177238464355
1684201109708249900,11.092249755859376,-0.6919668316841125,-0.8610548973083496,0.6128646731376648
1684201109718274800,11.10227490234375,-0.732434093952179,-0.8790373802185059,0.6324748396873474
1684201109728300800,11.11230078125,-0.7699006199836731,-0.8360192179679871,0.6401989459991455
1684201109738326800,11.122326904296875,-0.8189656734466553,-0.7846876382827759,0.6614751815795898
1684201109748351700,11.132351806640624,-0.8767777681350708,-0.764685869216919,0.6842123866081238
1684201109758377700,11.142377685546874,-0.9554046392440796,-0.8104643225669861,0.7132235169410706
1684201109768404000,11.152404052734376,-1.0407567024230957,-0.9163028001785278,0.7184065580368042
1684201109778428700,11.1624287109375,-1.1257227659225464,-1.0840891599655151,0.6739872097969055
1684201109788455000,11.172454833984375,-1.2082440853118896,-1.168454647064209,0.6259040832519531
1684201109798481000,11.18248095703125,-1.273400902748108,-1.1168946027755737,0.5957778692245483
1684201109808506000,11.192506103515624,-1.3441929817199707,-1.0543532371520996,0.5639137625694275
1684201109818532000,11.202531982421876,-1.4645278453826904,-1.0236477851867676,0.5531854629516602
1684201109828557000,11.21255712890625,-1.6016441583633423,-1.049257755279541,0.5604321956634521
1684201109838583000,11.2225830078125,-1.788224697113037,-1.3186739683151245,0.5085164904594421
1684201109848609000,11.232609130859375,-1.9180299043655396,-1.3460288047790527,0.5023677945137024
1684201109858634000,11.242634033203124,-1.949087381362915,-1.1302366256713867,0.5555852055549622
1684201109868660000,11.252659912109374,-1.9365986585617065,-0.9716952443122864,0.5625419020652771
1684201109878686000,11.26268603515625,-1.897491693496704,-0.8552253842353821,0.5239835381507874
1684201109888711000,11.2727109375,-1.862096905708313,-0.7481566071510315,0.45599424839019775
1684201109898737000,11.28273681640625,-1.8629778623580933,-0.6444064974784851,0.3437175154685974
1684201109908763000,11.292762939453125,-1.855157732963562,-0.548657238483429,0.140504390001297
1684201109918787800,11.302787841796874,-1.661515235900879,-0.4252101480960846,-0.14003485441207886
1684201109928813800,11.312813720703126,-1.281192660331726,-0.37811872363090515,-0.30965733528137207
1684201109938839000,11.322839111328125,-0.8919327855110168,-0.45274582505226135,-0.3873201906681061
1684201109948865000,11.332864990234375,-0.589312732219696,-0.6032224893569946,-0.5636470913887024
1684201109958891000,11.34289111328125,-0.34127095341682434,-0.974318265914917,-0.7811990976333618
1684201109968916000,11.352916015625,-0.21896237134933472,-1.5676077604293823,-0.8010634779930115
1684201109978942000,11.36294189453125,-0.23453333973884583,-1.9559861421585083,-0.6236823201179504
1684201109988968000,11.372968017578126,-0.33688101172447205,-1.8607914447784424,-0.4259587824344635
1684201109998993000,11.382992919921875,-0.4885871708393097,-1.3625621795654297,-0.34435737133026123
1684201110009019000,11.393018798828125,-0.5955707430839539,-0.5914559960365295,-0.32376745343208313
1684201110019044900,11.403044921875,-0.6919899582862854,0.11038121581077576,-0.2682815492153168
1684201110029069800,11.41306982421875,-0.7423295378684998,0.5562352538108826,-0.13035011291503906
1684201110039095800,11.423095703125,-0.6729879975318909,0.847305417060852,0.07810403406620026
1684201110049121000,11.43312109375,-0.6033069491386414,0.9237059354782104,0.27607494592666626
1684201110059147000,11.44314697265625,-0.5067750811576843,0.8517097234725952,0.4250039756298065
1684201110069173000,11.453173095703125,-0.24798043072223663,0.7660893201828003,0.5008789896965027
1684201110079198000,11.463197998046875,0.21345482766628265,0.9631720185279846,0.5513957142829895
1684201110089224000,11.473223876953124,0.46125224232673645,1.2995256185531616,0.56999671459198
1684201110099250200,11.483250244140624,0.4893893301486969,1.6436930894851685,0.6040734648704529
1684201110109275000,11.49327490234375,-0.05233465135097504,1.8417333364486694,0.528578519821167
1684201110119301000,11.503301025390625,-0.49824339151382446,2.064452886581421,0.5140805244445801
1684201110129325800,11.513325927734375,-0.6364980340003967,2.4455790519714355,0.5925193428993225
1684201110139352000,11.52335205078125,-0.585006058216095,3.122321367263794,0.8497785925865173
1684201110149378000,11.5333779296875,-0.6817449331283569,3.9001128673553467,1.154191255569458
1684201110159403000,11.543403076171876,-0.9072302579879761,4.456233978271484,1.2718912363052368
1684201110169429000,11.553428955078125,-1.4128345251083374,4.721704483032227,1.1077698469161987
1684201110179455000,11.563455078125,-2.0794763565063477,4.698886394500732,0.817817211151123
1684201110189480200,11.573480224609375,-2.5791444778442383,4.433642864227295,0.4793550670146942
1684201110199506000,11.583505859375,-2.7015817165374756,3.1464736461639404,-0.16651155054569244
1684201110209532000,11.593531982421876,-2.576113700866699,0.8039782643318176,-1.105679988861084
1684201110219557000,11.60355712890625,-2.284217357635498,-1.0438076257705688,-1.6827208995819092
1684201110229583000,11.6135830078125,-2.148254632949829,-1.4248636960983276,-1.504073143005371
1684201110239608000,11.623608154296875,-1.789133906364441,-1.679481863975525,-1.0551514625549316
1684201110249634000,11.633634033203125,-1.2214587926864624,-2.311426877975464,-0.459428995847702
1684201110259660000,11.643659912109374,-0.5403342843055725,-2.7789998054504395,0.2235911339521408
1684201110269685000,11.65368505859375,-0.002121824538335204,-2.412440776824951,0.727767288684845
1684201110279711000,11.6637109375,0.3327499032020569,-1.0404865741729736,1.0416489839553833
1684201110289737000,11.673737060546875,0.41023632884025574,0.3175138533115387,1.0639984607696533
1684201110299762000,11.683761962890625,0.3843693137168884,0.9230958819389343,0.8776459097862244
1684201110309788000,11.693787841796874,0.41765156388282776,0.7832492589950562,0.6386492848396301
1684201110319814000,11.70381396484375,0.3744412362575531,0.6298498511314392,0.5089051723480225
1684201110329839000,11.713839111328125,0.3056263327598572,0.7289575934410095,0.5136347413063049
1684201110339865000,11.723864990234375,0.34071215987205505,0.8330768346786499,0.4978845715522766
1684201110349890000,11.73389013671875,0.43056565523147583,0.9743008613586426,0.41655439138412476
1684201110359916000,11.743916015625,0.5743033289909363,1.214708924293518,0.301322340965271
1684201110369942000,11.75394189453125,0.9473887085914612,1.1710468530654907,0.05408571660518646
1684201110379967000,11.763967041015626,1.331291675567627,0.9660812020301819,-0.19805997610092163
1684201110389993000,11.773992919921875,1.562332034111023,0.871956467628479,-0.30023545026779175
1684201110400019000,11.78401904296875,1.7148182392120361,0.8262526392936707,-0.29473283886909485
1684201110410044000,11.7940439453125,1.7363206148147583,0.8812398314476013,-0.21710561215877533
1684201110420070000,11.80406982421875,1.681935429573059,0.4436797797679901,-0.3560323417186737
1684201110430094800,11.8140947265625,1.1168628931045532,-0.20849455893039703,-0.5268180966377258
1684201110440120800,11.824120849609375,0.1295379400253296,-0.06973427534103394,-0.46087080240249634
1684201110450146800,11.834146728515625,-0.5766515731811523,0.7103347182273865,-0.1499030590057373
1684201110460172000,11.844172119140625,-0.7887654304504395,1.18354332447052,0.16252222657203674
1684201110470198000,11.854197998046875,-0.6499507427215576,0.6556013822555542,0.13420036435127258
1684201110480224000,11.86422412109375,-0.3780531883239746,-0.1753685027360916,-0.12387992441654205
1684201110490249000,11.8742490234375,-0.037739790976047516,-0.43093445897102356,-0.36494383215904236
1684201110500275000,11.88427490234375,0.32864487171173096,-0.3541182279586792,-0.5306199193000793
1684201110510301000,11.894301025390625,0.471871942281723,-0.20424406230449677,-0.7198227047920227
1684201110520326000,11.904325927734375,0.3303297460079193,0.21929840743541718,-0.8868998885154724
1684201110530351900,11.914351806640624,0.04266979917883873,0.9696373343467712,-0.9534018635749817
1684201110540378000,11.924378173828124,-0.33642929792404175,1.5515886545181274,-0.9339293837547302
1684201110550402800,11.93440283203125,-0.6702669262886047,1.9662214517593384,-0.5786643028259277
1684201110560429000,11.944428955078125,-0.8892576098442078,2.1736068725585938,-0.015633931383490562
1684201110570453800,11.954453857421875,-1.0287494659423828,2.034857749938965,0.7284389138221741
1684201110580480000,11.96447998046875,-1.1350756883621216,1.5234475135803223,1.4737586975097656
1684201110590506000,11.974506103515624,-1.2981281280517578,0.7257286310195923,2.06587815284729
1684201110600531000,11.984531005859376,-1.6541008949279785,0.049012236297130585,2.5202929973602295
1684201110610557200,11.99455712890625,-1.9954153299331665,-0.4698127806186676,2.8446836471557617
1684201110620583200,12.004583251953125,-2.2293949127197266,-0.9606559872627258,3.0739080905914307
1684201110630608100,12.014608154296875,-2.3005306720733643,-1.5897315740585327,3.2538583278656006
1684201110640634000,12.024634033203125,-2.2764742374420166,-2.8487260341644287,3.248713731765747
1684201110650659000,12.0346591796875,-2.0036509037017822,-3.8721420764923096,2.335143804550171
1684201110660685000,12.04468505859375,-1.424531102180481,-3.103861093521118,0.7722694873809814
1684201110670711000,12.0547109375,-0.9228943586349487,-1.7760909795761108,-0.20320318639278412
1684201110680736000,12.064736083984375,-0.7889525890350342,-0.9375995993614197,-0.3190176784992218
1684201110690762000,12.074761962890625,-0.7887028455734253,-0.6321555376052856,-0.008646108210086823
1684201110700788000,12.0847880859375,-0.6906998157501221,-0.6792487502098083,0.31962230801582336
1684201110710813000,12.09481298828125,-0.6195258498191833,-0.7000793218612671,0.4794573187828064
1684201110720839000,12.1048388671875,-0.5297325849533081,-0.7298853993415833,0.3999702036380768
1684201110730865000,12.114864990234375,0.4429619610309601,-0.6830339431762695,0.25781846046447754
1684201110740890000,12.12489013671875,1.7637146711349487,-0.34661757946014404,0.11356408149003983
1684201110750916000,12.134916015625,2.506580114364624,0.20437152683734894,-0.13336767256259918
1684201110760941000,12.144941162109374,2.8147199153900146,0.6440367698669434,-0.26295894384384155
1684201110770967000,12.154967041015626,2.9334049224853516,0.8548493981361389,-0.2789488136768341
1684201110780993000,12.164992919921875,3.132502317428589,1.0124640464782715,-0.2382490485906601
1684201110791018000,12.17501806640625,3.182607650756836,1.3501994609832764,-0.21238850057125092
1684201110801044000,12.1850439453125,3.012805461883545,1.5142848491668701,-0.3090170621871948
1684201110811070000,12.195070068359374,2.8311896324157715,1.3923637866973877,-0.595179557800293
1684201110821095000,12.205094970703126,2.5100276470184326,0.9826806783676147,-0.8509261012077332
1684201110831121000,12.215120849609375,2.2165935039520264,0.4630945026874542,-0.8244516253471375
1684201110841147000,12.22514697265625,2.0696702003479004,0.10410387814044952,-0.5498014092445374
1684201110851172000,12.235172119140625,2.0258684158325195,0.22507072985172272,-0.3320465385913849
1684201110861197800,12.24519775390625,2.0987019538879395,0.5620136260986328,-0.23751656711101532
1684201110871223000,12.25522314453125,2.329657554626465,0.945422887802124,-0.19449616968631744
1684201110881249000,12.2652490234375,2.361597776412964,1.0937129259109497,-0.1542683243751526
1684201110891275000,12.27527490234375,2.4057319164276123,0.928821325302124,-0.0681951642036438
1684201110901300000,12.285300048828125,2.4225893020629883,0.625461757183075,-0.00764766801148653
1684201110911326000,12.295325927734375,2.422499656677246,0.41581034660339355,-0.07701494544744492
1684201110921352000,12.30535205078125,2.33172345161438,0.15702062845230103,-0.23463626205921173
1684201110931377000,12.315376953125,2.119377374649048,0.01785835064947605,-0.33960461616516113
1684201110941403000,12.32540283203125,1.8989988565444946,-0.12886478006839752,-0.41820859909057617
1684201110951428900,12.335428955078125,1.7524210214614868,-0.20451737940311432,-0.49008071422576904
1684201110961453800,12.345453857421875,1.6229748725891113,-0.17398503422737122,-0.4901731014251709
1684201110971479800,12.355479736328125,1.6856976747512817,-0.3328263461589813,-0.5226343274116516
1684201110981505000,12.365505126953124,1.7089248895645142,-0.5197557806968689,-0.5068761110305786
1684201110991531000,12.375531005859376,1.6623857021331787,-0.7249454855918884,-0.3612733483314514
1684201111001556000,12.385555908203125,1.529453158378601,-0.946212649345398,-0.06345469504594803
1684201111011581000,12.395580810546875,1.5707988739013672,-0.9588311910629272,0.4569678008556366
1684201111021607000,12.40560693359375,1.7058310508728027,-0.6440147161483765,0.6047631502151489
1684201111031633000,12.4156328125,1.613806128501892,-0.15615010261535645,0.8940045237541199
1684201111041657900,12.425657958984376,1.3378342390060425,-0.26983776688575745,1.6510789394378662
1684201111051683800,12.435683837890625,1.316580891609192,-0.6801528930664062,2.139461040496826
1684201111061709800,12.445709716796875,1.2572858333587646,-1.0770834684371948,2.351832866668701
1684201111071734800,12.45573486328125,1.1199448108673096,-1.722737193107605,2.052725315093994
1684201111081760800,12.4657607421875,1.2205352783203125,-2.266521692276001,1.3809527158737183
1684201111091786000,12.475785888671876,1.5138977766036987,-1.832672119140625,0.6788344979286194
1684201111101812000,12.48581201171875,1.9533289670944214,-0.8793593049049377,0.23163145780563354
