time,seconds_elapsed,z,y,x
1684200626985348600,0.0273486328125,-0.9369056820869446,2.332921266555786,-0.26754072308540344
1684200626995373800,0.037373779296875,-1.1634175777435303,1.7984719276428223,0.04300331696867943
1684200627005399800,0.04739990234375,-1.3947622776031494,1.395132303237915,0.3068798780441284
1684200627015425800,0.05742578125,-1.564497470855713,1.1400214433670044,0.4062357544898987
1684200627025451800,0.06745166015625,-1.6294987201690674,1.151017665863037,0.29724982380867004
1684200627035477800,0.077477783203125,-1.6015470027923584,1.4298886060714722,-0.027636125683784485
1684200627045503700,0.087503662109375,-1.548553705215454,1.6834996938705444,-0.47993606328964233
1684200627055529500,0.097529541015625,-1.550890326499939,1.8651880025863647,-0.9054058790206909
1684200627065555500,0.107555419921875,-1.671597957611084,2.0406250953674316,-1.1964775323867798
1684200627075580700,0.11758056640625,-1.8688902854919434,2.312870979309082,-1.3509933948516846
1684200627085606700,0.127606689453125,-2.097635507583618,2.6436867713928223,-1.4422059059143066
1684200627095632600,0.137632568359375,-2.639572858810425,3.3025734424591064,-1.446061611175537
1684200627105658600,0.14765869140625,-3.306642532348633,4.264832496643066,-1.1495471000671387
1684200627115684600,0.1576845703125,-3.838289499282837,5.143219470977783,-0.6015534400939941
1684200627125710800,0.1677109375,-4.208240985870361,6.091207504272461,0.07214916497468948
1684200627135736600,0.177736572265625,-4.5531840324401855,6.965028285980225,0.7140492796897888
1684200627145762600,0.187762451171875,-5.046670913696289,7.510685443878174,1.2498862743377686
1684200627155788500,0.19778857421875,-5.7147135734558105,7.586458683013916,1.630340576171875
1684200627165814500,0.207814453125,-6.368752956390381,7.297827243804932,1.736886978149414
1684200627175839700,0.21783984375,-6.848089694976807,6.8548808097839355,1.5439680814743042
1684200627185865700,0.22786572265625,-7.2337870597839355,6.172532081604004,1.207738995552063
1684200627195891700,0.2378916015625,-7.71399450302124,5.254138469696045,0.8383931517601013
1684200627205917700,0.247917724609375,-8.220834732055664,4.437505722045898,0.5149936676025391
1684200627215943700,0.257943603515625,-8.507620811462402,3.9327545166015625,0.3744925260543823
1684200627225969700,0.2679697265625,-8.514546394348145,3.60813045501709,0.5165753364562988
1684200627235995600,0.27799560546875,-8.286578178405762,3.3115718364715576,0.8910927176475525
1684200627246020600,0.2880205078125,-7.819902420043945,3.0510010719299316,1.3976366519927979
1684200627256046600,0.298046630859375,-7.186604022979736,2.722925901412964,1.9733550548553467
1684200627266072600,0.308072509765625,-6.53065824508667,2.1220974922180176,2.5273969173431396
1684200627276098800,0.318098876953125,-5.921154499053955,1.2876461744308472,2.912933826446533
1684200627286124800,0.328124755859375,-5.360789775848389,0.40741321444511414,3.0556840896606445
1684200627296150800,0.33815087890625,-4.8687744140625,-0.3995102047920227,2.945744276046753
1684200627306176800,0.3481767578125,-4.481133937835693,-1.127009630203247,2.6469483375549316
1684200627316202800,0.35820263671875,-4.129277229309082,-1.6404380798339844,2.2820796966552734
1684200627326227700,0.368227783203125,-3.707360029220581,-1.9028759002685547,1.9371840953826904
1684200627336253700,0.378253662109375,-3.126828670501709,-2.157742738723755,1.488606333732605
1684200627346279700,0.38827978515625,-2.533745288848877,-2.217482328414917,1.1006447076797485
1684200627356305700,0.3983056640625,-1.8095049858093262,-2.2996158599853516,0.7249445915222168
1684200627366331600,0.40833154296875,-1.0614033937454224,-2.7165145874023438,0.4235047996044159
1684200627376357600,0.418357666015625,-0.14986811578273773,-3.1939690113067627,-0.2852329611778259
1684200627386383600,0.428383544921875,0.7156131863594055,-3.555906295776367,-0.8092879056930542
1684200627396409600,0.43840966796875,1.273513674736023,-3.9227402210235596,-1.0646929740905762
1684200627406434600,0.4484345703125,1.3065695762634277,-3.8845231533050537,-0.6654241681098938
1684200627416460500,0.45846044921875,1.0986446142196655,-4.061602592468262,0.054544657468795776
1684200627426486800,0.46848681640625,0.9886369705200195,-3.915534257888794,0.622891902923584
1684200627436512800,0.4785126953125,1.0760124921798706,-3.3611953258514404,1.142634391784668
1684200627446538800,0.488538818359375,1.047951340675354,-2.508110523223877,1.553736925125122
1684200627456564700,0.498564697265625,0.7002524137496948,-1.664241075515747,1.661321759223938
1684200627466590700,0.5085908203125,0.11075571924448013,-1.6685380935668945,1.0726128816604614
1684200627476616700,0.51861669921875,-0.2993527054786682,-1.5825026035308838,0.4734182059764862
1684200627486641700,0.5286416015625,-0.4735403060913086,-1.0640466213226318,0.5146781802177429
1684200627496667600,0.538667724609375,-0.46885207295417786,-0.4663728177547455,1.0451548099517822
1684200627506693600,0.548693603515625,-0.32667776942253113,-0.4710448384284973,1.1487210988998413
1684200627516719600,0.5587197265625,-0.11613517999649048,-0.4493347406387329,0.6508045196533203
1684200627526745600,0.56874560546875,0.2697567939758301,-0.3220977485179901,0.16916424036026
1684200627536771600,0.578771484375,0.6575229167938232,-0.14106059074401855,-0.12058529257774353
1684200627546797600,0.588797607421875,0.906610369682312,0.13528016209602356,-0.2882624566555023
1684200627556823800,0.59882373046875,1.0565146207809448,0.4617176651954651,-0.5708744525909424
1684200627566848500,0.6088486328125,1.4110137224197388,1.1065871715545654,-0.5741048455238342
1684200627576874800,0.618874755859375,1.8319940567016602,1.9805223941802979,-0.2529023289680481
1684200627586900700,0.628900634765625,1.8445241451263428,2.6281492710113525,-0.22141997516155243
1684200627596926700,0.6389267578125,1.9848500490188599,2.5913565158843994,-0.23863331973552704
1684200627606952700,0.64895263671875,2.0147299766540527,2.3692073822021484,-0.150845468044281
1684200627616978700,0.658978759765625,1.966813325881958,2.4433677196502686,0.07500124722719193
1684200627627004700,0.669004638671875,1.869003415107727,2.5179567337036133,0.30283766984939575
1684200627637030700,0.67903076171875,1.5964045524597168,2.32222056388855,0.4730658531188965
1684200627647055600,0.6890556640625,1.1782649755477905,1.9390007257461548,0.5598971247673035
1684200627657081600,0.69908154296875,0.8491299152374268,1.6801811456680298,0.5143317580223083
1684200627667107600,0.709107666015625,0.6844455599784851,1.4785635471343994,0.29372745752334595
1684200627677133600,0.719133544921875,0.4941898286342621,1.0398200750350952,-0.10791397839784622
1684200627687159600,0.72915966796875,0.2567295730113983,0.4477390646934509,-0.7103071212768555
1684200627697185500,0.739185546875,0.31738197803497314,-0.015614738687872887,-1.3391249179840088
1684200627707211800,0.749211669921875,0.9264465570449829,-0.322831392288208,-1.8824150562286377
1684200627717237800,0.75923779296875,1.9447823762893677,-0.8190124034881592,-2.152108907699585
1684200627727262700,0.7692626953125,2.502889394760132,-0.898816704750061,-2.077448844909668
1684200627737288700,0.779288818359375,2.4183075428009033,-0.4761538505554199,-1.6990458965301514
1684200627747314700,0.789314697265625,1.484545111656189,1.37666654586792,-0.6195051074028015
1684200627757340700,0.799340576171875,0.4762185513973236,3.4842369556427,0.7968925833702087
1684200627767366700,0.80936669921875,0.3824962377548218,3.6535744667053223,1.4852749109268188
1684200627777392600,0.819392578125,0.590115487575531,2.7952628135681152,1.0858124494552612
1684200627787418600,0.829418701171875,0.7609522938728333,2.1229355335235596,0.2095092087984085
1684200627797443600,0.839443603515625,0.8521727323532104,2.5626418590545654,-0.47117799520492554
1684200627807469600,0.849469482421875,0.8315500020980835,3.1110544204711914,-0.8142725229263306
1684200627817495600,0.85949560546875,0.9987720251083374,3.002046823501587,-0.9915782809257507
1684200627827521500,0.869521484375,1.3529115915298462,2.3148934841156006,-1.1355805397033691
1684200627837547500,0.879547607421875,1.7424699068069458,1.2082462310791016,-1.2972360849380493
1684200627847573500,0.889573486328125,1.8932653665542603,-0.0024312124587595463,-1.6486824750900269
1684200627857599700,0.899599853515625,1.8880380392074585,-0.8174200057983398,-1.9629459381103516
1684200627867625700,0.909625732421875,0.7841681241989136,0.7054387331008911,-1.4788215160369873
1684200627877650700,0.919650634765625,0.04527650400996208,1.7173196077346802,-0.5738956332206726
1684200627887676700,0.9296767578125,-0.022704066708683968,2.387960910797119,0.07104065269231796
1684200627897702700,0.93970263671875,0.2877611219882965,3.4562320709228516,0.29266199469566345
1684200627907728600,0.949728759765625,0.668587863445282,3.80832576751709,0.27283942699432373
1684200627917754600,0.959754638671875,0.936225950717926,3.0984911918640137,-0.12064313888549805
1684200627927780600,0.969780517578125,0.8962153196334839,2.2451581954956055,-0.6788066625595093
1684200627937806600,0.979806640625,0.5310596823692322,1.3673644065856934,-1.14760422706604
1684200627947832600,0.98983251953125,-0.12339628487825394,0.28057700395584106,-1.518202543258667
1684200627957857500,0.999857421875,-1.0126696825027466,-0.5354073643684387,-1.5779236555099487
1684200627967883500,1.009883544921875,-1.936501145362854,-0.8790012001991272,-1.5224506855010986
1684200627977909500,1.019909423828125,-2.774620532989502,-0.9830495715141296,-1.552261233329773
1684200627987935500,1.029935546875,-3.728813409805298,-0.9935654401779175,-1.543845295906067
1684200627997961500,1.03996142578125,-4.44920015335083,-1.4062925577163696,-1.4882677793502808
1684200628007987700,1.04998779296875,-4.846476078033447,-1.8337762355804443,-0.9423967599868774
1684200628018013700,1.060013671875,-4.581670761108398,-2.0176448822021484,0.48626264929771423
1684200628028039700,1.070039794921875,-4.5069708824157715,-1.8908765316009521,1.399283766746521
1684200628038064600,1.080064697265625,-4.676502227783203,-1.5337756872177124,1.5532327890396118
1684200628048090600,1.090090576171875,-4.653142929077148,-0.758708119392395,1.421824336051941
1684200628058116600,1.10011669921875,-4.1153669357299805,0.01159261167049408,1.271193027496338
1684200628068142600,1.110142578125,-3.3719098567962646,0.2519276738166809,0.8735067248344421
1684200628078168600,1.12016845703125,-2.649815559387207,0.43233421444892883,0.4015144407749176
1684200628088194600,1.130194580078125,-2.303666830062866,0.6169533133506775,0.06731041520833969
1684200628098220500,1.140220458984375,-2.4432742595672607,1.0438811779022217,-0.054952383041381836
1684200628108246500,1.15024658203125,-2.8801209926605225,1.7633702754974365,-0.08515439182519913
1684200628118271500,1.160271484375,-3.32934832572937,2.573343515396118,-0.049985479563474655
1684200628128297500,1.17029736328125,-3.452272415161133,3.064823627471924,0.10466156899929047
1684200628138323500,1.180323486328125,-2.9160187244415283,2.842878818511963,0.45009857416152954
1684200628148349400,1.190349365234375,-1.990534782409668,2.033189296722412,0.8690932989120483
1684200628158375700,1.200375732421875,-1.3599618673324585,2.2186295986175537,0.595943033695221
1684200628168401700,1.210401611328125,-0.9736834764480591,2.0852341651916504,0.00518552353605628
1684200628178427600,1.220427734375,-0.6215478181838989,1.47831392288208,-0.5929415225982666
1684200628188453600,1.23045361328125,-0.38750946521759033,0.915897786617279,-1.1796201467514038
1684200628198478600,1.240478515625,-0.1760273277759552,0.5642105937004089,-1.5853495597839355
1684200628208504600,1.250504638671875,-0.07437783479690552,0.7563812732696533,-1.5432239770889282
1684200628218530600,1.260530517578125,-0.1944166123867035,2.200451374053955,-0.8205452561378479
1684200628228556500,1.270556640625,-0.5352070927619934,4.192181587219238,0.20207159221172333
1684200628238582500,1.28058251953125,-0.8954427242279053,4.929217338562012,0.8526762127876282
1684200628248608500,1.2906083984375,-0.942035973072052,5.571114540100098,1.3851643800735474
1684200628258634500,1.300634521484375,-0.5704456567764282,5.927945137023926,1.9290874004364014
1684200628268660500,1.310660400390625,0.4750292897224426,5.482662200927734,2.474421501159668
1684200628278685700,1.320685791015625,1.9159296751022339,4.406869888305664,2.8436286449432373
1684200628288711400,1.33071142578125,2.432114601135254,3.5895020961761475,2.8968825340270996
1684200628298737400,1.3407373046875,2.2473928928375244,3.0337862968444824,2.7345011234283447
1684200628308763600,1.350763671875,1.8907077312469482,2.1890029907226562,2.257960319519043
1684200628318789600,1.36078955078125,1.1534448862075806,1.0779260396957397,1.5432260036468506
1684200628328815600,1.370815673828125,0.33497944474220276,0.07494141906499863,0.7255034446716309
1684200628338841600,1.380841552734375,-0.09481481462717056,-0.8118427395820618,-0.023658640682697296
1684200628348867600,1.39086767578125,-0.053223058581352234,-1.2966585159301758,-0.3217853605747223
1684200628358892800,1.400892822265625,0.2008986920118332,-1.328161597251892,-0.1570134460926056
1684200628368918800,1.410918701171875,0.3893425762653351,-1.525503158569336,0.03194943815469742
1684200628378944500,1.420944580078125,0.7328160405158997,-1.713560700416565,0.21130667626857758
1684200628388970500,1.430970458984375,1.1539431810379028,-1.7442153692245483,0.35370010137557983
1684200628398996500,1.44099658203125,1.4966498613357544,-1.7768207788467407,0.3305377960205078
1684200628409022500,1.4510224609375,1.6664838790893555,-1.9525538682937622,0.2071785181760788
1684200628419048400,1.46104833984375,1.4526234865188599,-1.8896777629852295,-0.06702667474746704
1684200628429074400,1.471074462890625,-0.15643367171287537,-0.6363899111747742,-1.4825762510299683
1684200628439099600,1.481099609375,-0.5708122253417969,0.010484699159860611,-0.7397060990333557
1684200628449125600,1.491125732421875,-0.7797456383705139,-0.45449957251548767,-0.365397185087204
1684200628459151600,1.501151611328125,-0.6302213668823242,-0.7450317740440369,-0.41475141048431396
1684200628469177600,1.511177490234375,-0.22933000326156616,-0.9805838465690613,-0.8886253833770752
1684200628479203600,1.52120361328125,-0.03978485241532326,-1.3617857694625854,-1.2940146923065186
1684200628489229600,1.5312294921875,-0.024887749925255775,-2.0242834091186523,-1.4496551752090454
1684200628499255300,1.54125537109375,-0.05699801445007324,-2.292137861251831,-1.358661413192749
1684200628509281300,1.55128125,0.021816464141011238,-2.223041534423828,-1.1711987257003784
1684200628519306500,1.561306396484375,0.09800044447183609,-2.224156618118286,-1.0080960988998413
1684200628529332500,1.57133251953125,0.20015913248062134,-2.5132498741149902,-0.9596112966537476
1684200628539358700,1.581358642578125,0.26583561301231384,-3.381664514541626,-1.1279553174972534
1684200628549384700,1.591384765625,0.31049349904060364,-4.522591590881348,-1.2744150161743164
1684200628559410700,1.60141064453125,0.27163267135620117,-4.770209789276123,-1.1824790239334106
1684200628569436700,1.611436767578125,0.06256374716758728,-4.3917236328125,-0.9086348414421082
1684200628579462700,1.621462646484375,-0.43922504782676697,-3.6598827838897705,-0.35094785690307617
1684200628589488400,1.63148828125,-1.2698540687561035,-2.646235466003418,0.3455444872379303
1684200628599513600,1.641513671875,-1.9064075946807861,-1.522027611732483,1.2678799629211426
1684200628609539600,1.65153955078125,-2.0530428886413574,-0.8813791871070862,2.6143224239349365
1684200628619565600,1.661565673828125,-1.713612675666809,0.1679142266511917,2.8677902221679688
1684200628629591600,1.671591552734375,-1.108227252960205,0.7069340348243713,2.68137526512146
1684200628639617500,1.681617431640625,-0.545235276222229,0.43346309661865234,2.1687426567077637
1684200628649643500,1.6916435546875,-0.5938940644264221,-1.3888484239578247,1.9900304079055786
1684200628659669500,1.70166943359375,-0.7709729671478271,-2.7431490421295166,2.241661548614502
1684200628669694500,1.711694580078125,-0.9823706746101379,-1.868890643119812,2.9682154655456543
1684200628679720400,1.721720458984375,-1.9171767234802246,1.276623249053955,3.333845615386963
1684200628689746700,1.73174658203125,-2.463773488998413,2.6145613193511963,3.448796272277832
1684200628699772700,1.741772705078125,-1.8740397691726685,2.665087938308716,3.6365976333618164
1684200628709798700,1.751798583984375,-1.8827952146530151,1.5527619123458862,3.567727565765381
1684200628719824600,1.76182470703125,-1.8660705089569092,0.2247665524482727,3.3073785305023193
1684200628729850600,1.7718505859375,-1.5890089273452759,-0.07120902836322784,3.167314291000366
1684200628739876600,1.781876708984375,-1.9807406663894653,-0.06777887791395187,3.4303300380706787
1684200628749901600,1.791901611328125,-2.8148107528686523,0.7646149396896362,3.4396114349365234
1684200628759927600,1.801927490234375,-3.5762460231781006,1.446112036705017,2.597517967224121
1684200628769953500,1.81195361328125,-3.4951679706573486,1.3790327310562134,1.3549319505691528
1684200628779979500,1.8219794921875,-2.9846303462982178,0.8359023332595825,0.24203374981880188
1684200628790005500,1.832005615234375,-2.2832188606262207,1.128377914428711,-0.5935399532318115
1684200628800031500,1.842031494140625,-1.7469221353530884,2.045865535736084,-1.0191082954406738
1684200628810057500,1.852057373046875,-1.4282041788101196,3.1335365772247314,-1.371590256690979
1684200628820083700,1.862083740234375,-1.3248817920684814,3.8368985652923584,-1.696062684059143
1684200628830108400,1.8721083984375,-1.2640557289123535,4.271997928619385,-1.908202886581421
1684200628840134400,1.882134521484375,-0.8901160955429077,4.607729434967041,-2.016972064971924
1684200628850160600,1.89216064453125,-0.4362596571445465,4.403469562530518,-1.6242433786392212
1684200628860186600,1.9021865234375,0.003083091229200363,3.448298454284668,0.0079153161495924
1684200628870212600,1.912212646484375,0.6041434407234192,1.4899275302886963,0.8919901847839355
1684200628880238600,1.922238525390625,1.213625431060791,0.9527312517166138,0.5417525768280029
1684200628890264600,1.9322646484375,1.3204630613327026,0.620143473148346,-0.25187382102012634
1684200628900290600,1.94229052734375,1.018483281135559,0.2569762170314789,-0.8863498568534851
1684200628910315500,1.9523154296875,0.5844485759735107,-0.3134823441505432,-1.1841543912887573
1684200628920341500,1.962341552734375,0.21974094212055206,-0.8650853633880615,-1.282960295677185
1684200628930367500,1.972367431640625,-0.048130784183740616,-1.2468894720077515,-1.2760303020477295
1684200628940393500,1.9823935546875,-0.31197652220726013,-1.460992455482483,-1.1958057880401611
1684200628950419500,1.99241943359375,-0.5415247082710266,-1.5064454078674316,-1.102808952331543
1684200628960445400,2.002445556640625,-0.6034743189811707,-1.3498281240463257,-1.011863350868225
1684200628970471400,2.012471435546875,-0.43872421979904175,-0.9873170256614685,-0.8671170473098755
1684200628980497700,2.02249755859375,-0.14466623961925507,-0.6060633659362793,-0.6556588411331177
1684200628990522400,2.0325224609375,0.12301391363143921,-0.19138577580451965,-0.3279963433742523
1684200629000548600,2.042548583984375,0.3004656732082367,0.3075558543205261,0.06462019681930542
1684200629010574600,2.05257470703125,0.4515435993671417,0.7170166969299316,0.4302622079849243
1684200629020600600,2.0626005859375,0.5435571670532227,0.8251405358314514,0.6527181267738342
1684200629030626600,2.07262646484375,0.5466283559799194,0.5906029343605042,0.7080489993095398
1684200629040652500,2.082652587890625,0.4999963939189911,0.17277666926383972,0.633166491985321
1684200629050678500,2.092678466796875,0.3866770267486572,-0.23514777421951294,0.4344157576560974
1684200629060704500,2.10270458984375,0.17679357528686523,-0.42287296056747437,0.23979249596595764
1684200629070729500,2.1127294921875,-0.04900626465678215,-0.3049582839012146,0.035386890172958374
1684200629080755500,2.12275537109375,-0.23490209877490997,0.010253194719552994,-0.15548957884311676
1684200629090781400,2.132781494140625,-0.35409316420555115,0.3533734977245331,-0.2848195731639862
1684200629100807400,2.142807373046875,-0.3783942461013794,0.6010472178459167,-0.2702435553073883
1684200629110833400,2.15283349609375,-0.31403613090515137,0.7360628247261047,-0.1372803896665573
1684200629120859400,2.162859375,-0.2000483125448227,0.7301729917526245,0.06318214535713196
1684200629130885600,2.1728857421875,-0.08462908118963242,0.5805851221084595,0.2906285524368286
1684200629140911600,2.18291162109375,0.004168698564171791,0.31341707706451416,0.49726319313049316
1684200629150936600,2.1929365234375,0.07833807915449142,0.0070731076411902905,0.6411451697349548
1684200629160962600,2.202962646484375,0.13308095932006836,-0.2811219096183777,0.7058331370353699
1684200629170988500,2.212988525390625,0.16689758002758026,-0.512678325176239,0.6921002864837646
1684200629181014500,2.2230146484375,0.2051086127758026,-0.7012554407119751,0.620574414730072
1684200629191040500,2.23304052734375,0.24212533235549927,-0.8475751280784607,0.5186556577682495
1684200629201066500,2.24306640625,0.265421062707901,-0.9658408164978027,0.40321189165115356
1684200629211092500,2.253092529296875,0.28242504596710205,-1.0602253675460815,0.29288557171821594
1684200629221118500,2.263118408203125,0.28347060084342957,-1.2467819452285767,0.22376403212547302
1684200629231143400,2.273143310546875,0.28776782751083374,-1.8307781219482422,0.15725091099739075
1684200629241169400,2.28316943359375,0.2663038372993469,-2.375303268432617,-0.1579081118106842
1684200629251195400,2.2931953125,0.20154617726802826,-2.0151851177215576,-0.6269863843917847
1684200629261221400,2.303221435546875,0.15270912647247314,-1.054380178451538,-0.9304357767105103
1684200629271247400,2.313247314453125,0.1466340571641922,-0.12806667387485504,-0.9050595760345459
1684200629281273600,2.323273681640625,0.12485312670469284,0.47390279173851013,-0.68972247838974
1684200629291299600,2.333299560546875,0.08352110534906387,0.7608063220977783,-0.4162541329860687
1684200629301325600,2.34332568359375,0.06484382599592209,0.7933946251869202,-0.16678942739963531
1684200629311350500,2.3533505859375,0.07569368928670883,0.6404845118522644,0.012360984459519386
1684200629321376500,2.36337646484375,0.11205781996250153,0.3916318118572235,0.09808574616909027
1684200629331402500,2.373402587890625,0.15337726473808289,0.10093922913074493,0.09358728677034378
1684200629341428500,2.383428466796875,0.17143481969833374,-0.16126202046871185,0.017809173092246056
1684200629351454500,2.393454345703125,0.18684306740760803,-0.3701631724834442,-0.09413136541843414
1684200629361480400,2.40348046875,0.20515789091587067,-0.5037643313407898,-0.17600147426128387
1684200629371506400,2.41350634765625,0.20970013737678528,-0.5621827244758606,-0.18910007178783417
1684200629381532400,2.423532470703125,0.19696888327598572,-0.5689104199409485,-0.14202070236206055
1684200629391557400,2.433557373046875,0.17527276277542114,-0.5260611176490784,-0.06836778670549393
1684200629401583400,2.443583251953125,0.15326040983200073,-0.43395066261291504,-0.0008968696929514408
1684200629411609300,2.453609375,0.13171350955963135,-0.30788475275039673,0.040181323885917664
1684200629421635300,2.46363525390625,0.09607668966054916,-0.1819039285182953,0.06189541146159172
1684200629431661300,2.473661376953125,0.06184493005275726,-0.09578566253185272,0.06542127579450607
1684200629441687300,2.483687255859375,0.024611808359622955,-0.060834337025880814,0.05383466184139252
1684200629451713300,2.49371337890625,0.005519347731024027,-0.07906178385019302,0.048169899731874466
1684200629461739300,2.5037392578125,0.0044783176854252815,-0.1390092670917511,0.04451710730791092
1684200629471764200,2.51376416015625,0.017351463437080383,-0.21818724274635315,0.05561327561736107
1684200629481790200,2.523790283203125,0.02418486773967743,-0.2801502048969269,0.07301623374223709
1684200629491816200,2.533816162109375,0.01664193719625473,-0.3037458658218384,0.08165564388036728
1684200629501842200,2.54384228515625,0.0123366704210639,-0.29917240142822266,0.08088971674442291
1684200629511868400,2.553868408203125,0.009016800671815872,-0.28506937623023987,0.08194437623023987
1684200629521894400,2.563894287109375,0.008092683739960194,-0.26725679636001587,0.07961491495370865
1684200629531920400,2.57392041015625,0.010363397188484669,-0.27120378613471985,0.09110889583826065
1684200629541946400,2.5839462890625,0.0026431598234921694,-0.29594749212265015,0.09531056880950928
1684200629551971300,2.593971435546875,-0.01501930970698595,-0.30674654245376587,0.08730574697256088
1684200629561997300,2.603997314453125,-0.027391022071242332,-0.28606656193733215,0.06896721571683884
1684200629572023300,2.614023193359375,-0.014419781044125557,-0.2478971928358078,0.0394875705242157
1684200629582049300,2.62404931640625,0.005745674483478069,-0.21412086486816406,0.003885901067405939
1684200629592075300,2.6340751953125,0.027728494256734848,-0.1909584403038025,-0.025409776717424393
1684200629602101200,2.644101318359375,0.04593146592378616,-0.1837250292301178,-0.05456153675913811
1684200629612127200,2.654127197265625,0.061732057482004166,-0.20580168068408966,-0.07663674652576447
1684200629622153200,2.6641533203125,0.08420194685459137,-0.2772897183895111,-0.0850326269865036
1684200629632178400,2.674178466796875,0.09743702411651611,-0.38453176617622375,-0.09129168838262558
1684200629642204200,2.6842041015625,0.09591715782880783,-0.4970165193080902,-0.10382851958274841
1684200629652230100,2.694230224609375,0.08059097826480865,-0.6054636836051941,-0.11975310742855072
1684200629662256400,2.70425634765625,0.06663761287927628,-0.6737159490585327,-0.1388455629348755
1684200629672282400,2.714282470703125,0.04859447479248047,-0.6683060526847839,-0.15854573249816895
1684200629682308400,2.724308349609375,0.016154509037733078,-0.5763665437698364,-0.16848251223564148
1684200629692334300,2.734334228515625,-0.03510221838951111,-0.4437676668167114,-0.16107578575611115
1684200629702360300,2.7443603515625,-0.0826931744813919,-0.31596389412879944,-0.1315341293811798
1684200629712385500,2.754385498046875,-0.12034296989440918,-0.2429586797952652,-0.08268702030181885
1684200629722411500,2.76441162109375,-0.13900348544120789,-0.24262845516204834,-0.021008210256695747
1684200629732437200,2.774437255859375,-0.14455139636993408,-0.29876959323883057,0.016805853694677353
1684200629742463200,2.784463134765625,-0.15678462386131287,-0.3820098638534546,0.035236794501543045
1684200629752489200,2.7944892578125,-0.1806633621454239,-0.45875245332717896,0.03142857924103737
1684200629762515200,2.80451513671875,-0.20993895828723907,-0.5177047252655029,0.017504774034023285
1684200629772541200,2.814541259765625,-0.2331543117761612,-0.5418596267700195,0.023234937340021133
1684200629782567200,2.824567138671875,-0.2519855201244354,-0.518059492111206,0.044487763196229935
1684200629792592400,2.83459228515625,-0.2718088924884796,-0.4575522840023041,0.08591818064451218
1684200629802618400,2.844618408203125,-0.28606054186820984,-0.35958895087242126,0.13833372294902802
1684200629812644600,2.85464453125,-0.29673662781715393,-0.24166126549243927,0.19412560760974884
1684200629822670300,2.86467041015625,-0.2995910048484802,-0.11962350457906723,0.24290166795253754
1684200629832696300,2.8746962890625,-0.30053308606147766,-0.016809169203042984,0.28394028544425964
1684200629842722300,2.884722412109375,-0.298833966255188,0.055637869983911514,0.3071878254413605
1684200629852748300,2.894748291015625,-0.2978958785533905,0.12402240186929703,0.3257180452346802
1684200629862774300,2.904774169921875,-0.28239333629608154,0.18773826956748962,0.34126636385917664
1684200629872799500,2.914799560546875,-0.2501230537891388,0.25944456458091736,0.356781005859375
1684200629882825500,2.924825439453125,-0.20373636484146118,0.3250366151332855,0.38148021697998047
1684200629892851500,2.9348515625,-0.13734160363674164,0.394248902797699,0.40552690625190735
1684200629902877400,2.94487744140625,-0.06836681067943573,0.4554038643836975,0.42776748538017273
1684200629912903400,2.9549033203125,-0.010741956532001495,0.4566154181957245,0.4376046061515808
1684200629922929400,2.964929443359375,0.03635045513510704,0.2920438051223755,0.43897560238838196
1684200629932955400,2.974955322265625,0.09156715124845505,-0.19540022313594818,0.4322996139526367
1684200629942981400,2.9849814453125,0.18378521502017975,-0.8592767715454102,0.3667794466018677
1684200629953006300,2.99500634765625,0.3157808184623718,-1.1630775928497314,0.17430882155895233
1684200629963032600,3.005032470703125,0.4383160173892975,-0.9202262759208679,-0.14019399881362915
1684200629973058600,3.01505859375,0.4872436821460724,-0.4177934527397156,-0.4799169600009918
1684200629983084500,3.02508447265625,0.4627852141857147,-0.017638321965932846,-0.7164950966835022
1684200629993110500,3.035110595703125,0.40538644790649414,0.13555556535720825,-0.7813554406166077
1684200630003136500,3.045136474609375,0.35451528429985046,0.1352333277463913,-0.7259310483932495
1684200630013162500,3.05516259765625,0.32104676961898804,0.07607869803905487,-0.6290308833122253
1684200630023188500,3.0651884765625,0.31662511825561523,0.01451440155506134,-0.5456590056419373
1684200630033213400,3.07521337890625,0.3408464193344116,-0.020790932700037956,-0.5161401033401489
1684200630043239400,3.085239501953125,0.3701329231262207,-0.05725306645035744,-0.5376754999160767
1684200630053265400,3.095265380859375,0.3762458264827728,-0.1464114487171173,-0.597586452960968
1684200630063291400,3.10529150390625,0.3571144938468933,-0.30079010128974915,-0.674984872341156
1684200630073317400,3.1153173828125,0.33672285079956055,-0.5663164258003235,-0.7563564777374268
1684200630083343400,3.12534326171875,0.374909907579422,-1.1978139877319336,-1.2012667655944824
1684200630093369600,3.13536962890625,0.5896100997924805,-1.6743446588516235,-2.6206021308898926
1684200630103395600,3.1453955078125,0.7730907201766968,-1.6231374740600586,-3.6914970874786377
1684200630113420500,3.155420654296875,0.7827823162078857,-1.451634407043457,-3.983320474624634
1684200630123446500,3.165446533203125,0.7093483209609985,-1.2752575874328613,-3.8000223636627197
1684200630133472500,3.175472412109375,0.6556758284568787,-0.748907744884491,-3.348496437072754
1684200630143498500,3.18549853515625,0.6743302345275879,0.2652708888053894,-2.8946540355682373
1684200630153524500,3.1955244140625,0.7166244387626648,1.063003420829773,-2.729210138320923
1684200630163550500,3.205550537109375,0.7825219631195068,1.7132560014724731,-2.589409828186035
1684200630173576400,3.215576416015625,0.8025690317153931,2.382516384124756,-2.4082252979278564
1684200630183602400,3.2256025390625,0.7036224603652954,3.054237127304077,-2.1840336322784424
1684200630193627400,3.23562744140625,0.5917018055915833,3.2866060733795166,-2.0210368633270264
1684200630203653400,3.2456533203125,0.6539883613586426,2.9132158756256104,-1.9492934942245483
1684200630213679400,3.255679443359375,0.9302773475646973,1.8999744653701782,-1.9070625305175781
1684200630223705300,3.265705322265625,1.2896373271942139,0.7555921077728271,-1.7630212306976318
1684200630233731300,3.2757314453125,1.5052499771118164,0.2955671548843384,-1.483785629272461
1684200630243757600,3.285757568359375,1.5830554962158203,0.5235616564750671,-1.1122713088989258
1684200630253783600,3.295783447265625,1.6020550727844238,1.06857430934906,-0.7643558382987976
1684200630263809500,3.3058095703125,1.5710978507995605,1.6287035942077637,-0.6129290461540222
1684200630273834500,3.31583447265625,1.4530982971191406,2.0797746181488037,-0.5843889713287354
1684200630283860500,3.325860595703125,1.318489670753479,2.298880100250244,-0.6163626313209534
1684200630293886500,3.335886474609375,1.1443020105361938,2.242053747177124,-0.6371113061904907
1684200630303912400,3.345912353515625,1.0232155323028564,2.052229642868042,-0.5613294839859009
1684200630313938400,3.3559384765625,0.9114153981208801,1.750657558441162,-0.4741935729980469
1684200630323964400,3.36596435546875,0.8372040390968323,1.5388448238372803,-0.32896021008491516
1684200630333990400,3.375990478515625,0.7828972935676575,1.384498119354248,-0.2792181372642517
1684200630344016400,3.386016357421875,0.7877418398857117,1.303899884223938,-0.27830734848976135
1684200630354041300,3.396041259765625,0.8514519333839417,1.2867614030838013,-0.29303380846977234
1684200630364067300,3.4060673828125,0.9196986556053162,1.2432557344436646,-0.2755890488624573
1684200630374093300,3.41609326171875,0.9200474619865417,1.1334190368652344,-0.21496888995170593
1684200630384119300,3.426119384765625,0.8449660539627075,1.020545244216919,-0.15066899359226227
1684200630394146000,3.43614599609375,0.7735814452171326,0.951338529586792,-0.10494715720415115
1684200630404172000,3.446172119140625,0.7390940189361572,0.8735068440437317,-0.07252689450979233
1684200630414198300,3.4561982421875,0.7133846282958984,0.7797030210494995,-0.046831123530864716
1684200630424224300,3.466224365234375,0.6692693829536438,0.6697672009468079,-0.019141441211104393
1684200630434249000,3.4762490234375,0.5953679084777832,0.5497056841850281,0.030215242877602577
1684200630444275200,3.486275146484375,0.5284176468849182,0.4176190197467804,0.07906933128833771
1684200630454301200,3.49630126953125,0.46994560956954956,0.2746754288673401,0.11301803588867188
1684200630464327200,3.5063271484375,0.4048456847667694,0.16497474908828735,0.14437729120254517
1684200630474353200,3.516353271484375,0.3446178734302521,0.07270652055740356,0.18811075389385223
1684200630484379100,3.526379150390625,0.2882739007472992,-0.02316221408545971,0.2278914600610733
1684200630494405000,3.536405029296875,0.23369480669498444,-0.09217289090156555,0.2804354131221771
1684200630504431000,3.54643115234375,0.15304231643676758,-0.12198884785175323,0.33726462721824646
1684200630514456000,3.5564560546875,0.05113118514418602,-0.10991962999105453,0.4009329676628113
1684200630524482000,3.56648193359375,-0.05430788919329643,-0.09259549528360367,0.47197332978248596
1684200630534508000,3.576508056640625,-0.14031608402729034,-0.10334504395723343,0.5433030724525452
1684200630544534000,3.586533935546875,-0.20898382365703583,-0.1521347016096115,0.6134288907051086
1684200630554560000,3.59656005859375,-0.2563989460468292,-0.2572968304157257,0.6856677532196045
1684200630564586000,3.6065859375,-0.2695762515068054,-0.3961135745048523,0.7628533840179443
1684200630574612200,3.6166123046875,-0.25208720564842224,-0.5581256747245789,0.8377593755722046
1684200630584638200,3.62663818359375,-0.21944566071033478,-0.710921585559845,0.8996379375457764
1684200630594663200,3.6366630859375,-0.1666606217622757,-0.839616596698761,0.9449365735054016
1684200630604689200,3.646689208984375,-0.10287710279226303,-0.9459187984466553,0.9926257729530334
1684200630614715100,3.656715087890625,-0.026208750903606415,-1.0218744277954102,1.0618599653244019
1684200630624741000,3.6667412109375,0.044669151306152344,-1.0920965671539307,1.143810510635376
1684200630634767000,3.67676708984375,0.09226740151643753,-1.1309475898742676,1.2283039093017578
1684200630644793000,3.68679296875,0.09771516174077988,-1.1162458658218384,1.32028067111969
1684200630654819000,3.696819091796875,0.07560432702302933,-1.060404658317566,1.4128628969192505
1684200630664845000,3.706844970703125,0.02821364253759384,-1.0210639238357544,1.4452978372573853
1684200630674870000,3.7168701171875,-0.05148644372820854,-0.9988111853599548,1.3947222232818604
1684200630684896000,3.72689599609375,-0.13399863243103027,-0.9034519791603088,1.2836401462554932
1684200630694922000,3.736921875,-0.20897825062274933,-0.7418397068977356,1.133857250213623
1684200630704948000,3.746947998046875,-0.27147170901298523,-0.5853201150894165,1.0014406442642212
1684200630714974000,3.756973876953125,-0.33509156107902527,-0.46124687790870667,0.9126434326171875
1684200630725000200,3.767000244140625,-0.3994162082672119,-0.33099114894866943,0.8788439035415649
1684200630735026200,3.777026123046875,-0.45948725938796997,-0.18537797033786774,0.9106274843215942
1684200630745052200,3.78705224609375,-0.5251136422157288,-0.06854882836341858,1.0115084648132324
1684200630755077000,3.7970771484375,-0.5732534527778625,-0.06313610076904297,1.1322684288024902
1684200630765103000,3.80710302734375,-0.6085368990898132,-0.13179133832454681,1.1846160888671875
1684200630775129000,3.817129150390625,-0.6276430487632751,-0.20337136089801788,1.0758507251739502
1684200630785155000,3.827155029296875,-0.6157168745994568,-0.22639039158821106,0.7936484813690186
1684200630795181000,3.83718115234375,-0.5765604376792908,-0.2546399235725403,0.46640363335609436
1684200630805207000,3.84720703125,-0.5527248978614807,-0.3458899259567261,0.3624865412712097
1684200630815233000,3.85723291015625,-0.5448033213615417,-0.4723176956176758,0.508999764919281
1684200630825259000,3.867259033203125,-0.5399614572525024,-0.5092411041259766,0.7092660069465637
1684200630835284000,3.877283935546875,-0.5871157050132751,-0.42125335335731506,0.8252914547920227
1684200630845310000,3.88731005859375,-0.6664427518844604,-0.36476266384124756,0.8119860291481018
1684200630855336000,3.8973359375,-0.6773022413253784,-0.4450586140155792,0.7081857323646545
1684200630865362000,3.90736181640625,-0.5848135948181152,-0.510266900062561,0.5657380223274231
1684200630875388200,3.91738818359375,-0.4274175763130188,-0.3953815698623657,0.43817445635795593
1684200630885414100,3.9274140625,-0.27309298515319824,-0.2082287222146988,0.30891287326812744
1684200630895440100,3.937440185546875,-0.13952653110027313,-0.14758874475955963,0.18119975924491882
1684200630905466000,3.947466064453125,-0.04198824614286423,-0.30005842447280884,0.08413978666067123
1684200630915491000,3.957490966796875,-0.036000847816467285,-0.5390905141830444,0.03587440773844719
1684200630925517000,3.96751708984375,-0.13166451454162598,-0.6221132278442383,0.03408183157444
1684200630935543000,3.97754296875,-0.1883699595928192,-0.47157320380210876,0.07684352248907089
1684200630945569000,3.987569091796875,-0.244440957903862,-0.211388498544693,0.09584251046180725
1684200630955595000,3.997594970703125,-0.33608219027519226,0.011957046575844288,0.09740503877401352
1684200630965621000,4.00762109375,-0.41111570596694946,0.12611211836338043,0.12704680860042572
1684200630975647000,4.01764697265625,-0.45273709297180176,0.12307743728160858,0.1894504278898239
1684200630985673000,4.0276728515625,-0.460234135389328,-0.025472354143857956,0.2632138729095459
1684200630995698000,4.037697998046875,-0.4402919411659241,-0.2223902940750122,0.33113357424736023
1684200631005724000,4.047723876953125,-0.3880319595336914,-0.3607252538204193,0.3965322971343994
1684200631015750000,4.05775,-0.3270314931869507,-0.3643253743648529,0.4286019206047058
1684200631025776000,4.067776123046875,-0.26069188117980957,-0.23563235998153687,0.41102319955825806
1684200631035802000,4.077802001953125,-0.18256613612174988,-0.024586660787463188,0.3279087543487549
1684200631045828000,4.087828125,-0.09265115857124329,0.1326410472393036,0.19576804339885712
1684200631055854000,4.09785400390625,0.004409152083098888,0.1872187703847885,0.09456003457307816
1684200631065880000,4.107880126953125,0.05381345376372337,0.1824924498796463,0.05741879343986511
1684200631075905000,4.117905029296875,0.04403026029467583,0.19823603332042694,0.0918528288602829
1684200631085931000,4.127930908203125,-0.014194699935615063,0.24774685502052307,0.17267364263534546
1684200631095957000,4.13795703125,-0.10216186195611954,0.29442504048347473,0.2441551238298416
1684200631105983000,4.14798291015625,-0.2079271674156189,0.29004865884780884,0.28243860602378845
1684200631116009000,4.158009033203125,-0.34685689210891724,0.17782199382781982,0.312000036239624
1684200631126035000,4.168034912109375,-0.49597474932670593,-0.04637675732374191,0.32195067405700684
1684200631136061000,4.17806103515625,-0.624240517616272,-0.2916257679462433,0.3154533803462982
1684200631146087000,4.1880869140625,-0.7156658172607422,-0.5200733542442322,0.2997143864631653
1684200631156112000,4.19811181640625,-0.7613056898117065,-0.7027188539505005,0.27908074855804443
1684200631166137900,4.208137939453125,-0.7690756916999817,-0.8541117906570435,0.2339756190776825
1684200631176164000,4.2181640625,-0.7330613732337952,-0.982719361782074,0.1817154437303543
1684200631186190000,4.228190185546875,-0.6749930381774902,-1.082702875137329,0.1297646313905716
1684200631196216000,4.238216064453125,-0.6172634959220886,-1.1508959531784058,0.0716112032532692
1684200631206242000,4.248241943359375,-0.5902422666549683,-1.1524240970611572,0.014232601970434189
1684200631216268000,4.25826806640625,-0.5905040502548218,-1.081322193145752,-0.039706263691186905
1684200631226294000,4.2682939453125,-0.6175870299339294,-0.971497118473053,-0.10913567245006561
1684200631236319000,4.278319091796875,-0.6454058289527893,-0.8123553395271301,-0.21917413175106049
1684200631246345000,4.288344970703125,-0.6366791725158691,-0.5644211769104004,-0.33929651975631714
1684200631256371000,4.298370849609375,-0.6034327745437622,-0.2456168532371521,-0.44507622718811035
1684200631266397000,4.30839697265625,-0.5918259620666504,0.1384434700012207,-0.5284041166305542
1684200631276423000,4.3184228515625,-0.6058388352394104,0.6346592307090759,-0.5929219126701355
1684200631286449000,4.328448974609375,-0.6508784294128418,1.2439793348312378,-0.6165921092033386
1684200631296475000,4.338474853515625,-0.6935722231864929,1.8204858303070068,-0.5372694134712219
1684200631306501000,4.348501220703125,-0.683327317237854,2.22824764251709,-0.36429980397224426
1684200631316525800,4.35852587890625,-0.5906358957290649,2.358997344970703,-0.14319945871829987
1684200631326552000,4.368552001953125,-0.4506484866142273,2.101004123687744,0.09136749058961868
1684200631336578000,4.378578125,-0.31563466787338257,1.3405723571777344,0.3241887092590332
1684200631346604000,4.38860400390625,-0.22279660403728485,0.3920865058898926,0.4978116452693939
1684200631356630000,4.398630126953125,-0.1331813633441925,-0.2069358080625534,0.5381050705909729
1684200631366656000,4.408656005859375,0.01135396771132946,-0.413951575756073,0.4653427302837372
1684200631376682000,4.418681884765625,0.13113363087177277,-0.38937485218048096,0.3544747829437256
1684200631386708000,4.4287080078125,0.18007402122020721,-0.2419811487197876,0.2540310025215149
1684200631396732200,4.438732177734375,0.16861386597156525,-0.07118528336286545,0.17814356088638306
1684200631406758100,4.448758056640625,0.14187173545360565,0.08158083260059357,0.15832777321338654
1684200631416784400,4.458784423828125,0.1317233145236969,0.17280760407447815,0.20198401808738708
1684200631426810400,4.468810302734375,0.12643961608409882,0.19236372411251068,0.2864680290222168
1684200631436836400,4.47883642578125,0.152818500995636,0.07994203269481659,0.3899022042751312
1684200631446862300,4.4888623046875,0.18820205330848694,-0.10615513473749161,0.47953808307647705
1684200631456888300,4.498888427734375,0.2271939516067505,-0.30552616715431213,0.5303590893745422
1684200631466914300,4.508914306640625,0.2684665620326996,-0.4554613530635834,0.5351120233535767
1684200631476939300,4.518939208984375,0.31278252601623535,-0.5057843327522278,0.4958308935165405
1684200631486965200,4.52896533203125,0.34758231043815613,-0.49317479133605957,0.4334000051021576
1684200631496991200,4.5389912109375,0.3606536388397217,-0.45104992389678955,0.3771803677082062
1684200631507017200,4.549017333984375,0.34102723002433777,-0.426618367433548,0.3336361050605774
1684200631517043200,4.559043212890625,0.2943446934223175,-0.41100144386291504,0.3083850145339966
1684200631527069200,4.569069091796875,0.2229333519935608,-0.3880585730075836,0.2856304347515106
1684200631537095200,4.57909521484375,0.1511002779006958,-0.34890684485435486,0.2436467856168747
1684200631547121400,4.589121337890625,0.08074222505092621,-0.2622968554496765,0.17027243971824646
1684200631557146000,4.59914599609375,0.02648228220641613,-0.11629930883646011,0.054561860859394073
1684200631567172000,4.609172119140625,-0.012000927701592445,0.06563826650381088,-0.06345106661319733
1684200631577198300,4.6191982421875,-0.040327038615942,0.22572921216487885,-0.14976443350315094
1684200631587224300,4.629224365234375,-0.06621988862752914,0.325000137090683,-0.18107548356056213
1684200631597250300,4.639250244140625,-0.06450462341308594,0.36752432584762573,-0.1556907743215561
1684200631607276300,4.6492763671875,-0.03673131391406059,0.3453383147716522,-0.09864665567874908
1684200631617302300,4.65930224609375,-0.0066181812435388565,0.2499486804008484,-0.01967039704322815
1684200631627328300,4.669328369140625,-0.008036847226321697,0.0840449333190918,0.0654655396938324
1684200631637353200,4.679353271484375,-0.02793918177485466,-0.11595393717288971,0.14945363998413086
1684200631647379200,4.689379150390625,-0.040076274424791336,-0.3078802227973938,0.22064046561717987
1684200631657405200,4.6994052734375,-0.0420924574136734,-0.4541374742984772,0.26464203000068665
1684200631667431200,4.70943115234375,-0.04032784700393677,-0.5412457585334778,0.28648367524147034
1684200631677457200,4.71945703125,-0.043578363955020905,-0.5745947957038879,0.2808168828487396
1684200631687483100,4.729483154296875,-0.0446297787129879,-0.561754584312439,0.270519495010376
1684200631697509000,4.739509033203125,-0.041371673345565796,-0.5069971084594727,0.25367921590805054
1684200631707535400,4.749535400390625,-0.03566478565335274,-0.4031658172607422,0.23599477112293243
1684200631717560000,4.75956005859375,-0.016637684777379036,-0.3133879005908966,0.2382337898015976
1684200631727586300,4.76958642578125,-0.037564270198345184,-0.21988804638385773,0.24136221408843994
1684200631737612300,4.7796123046875,-0.07819156348705292,-0.13121193647384644,0.2338346391916275
1684200631747638300,4.78963818359375,-0.10446444153785706,-0.05249769240617752,0.213009774684906
1684200631757664300,4.799664306640625,-0.10377749055624008,0.007315534166991711,0.19260191917419434
1684200631767690200,4.809690185546875,-0.10853496193885803,0.02527695707976818,0.17177839577198029
1684200631777716200,4.81971630859375,-0.12159090489149094,0.014874309301376343,0.14435134828090668
1684200631787742200,4.8297421875,-0.12461119890213013,-0.028149057179689407,0.113748699426651
1684200631797767200,4.83976708984375,-0.10254684835672379,-0.07035068422555923,0.07070882618427277
1684200631807793200,4.849793212890625,-0.07844258099794388,-0.10865120589733124,0.027733922004699707
1684200631817819100,4.859819091796875,-0.06714104861021042,-0.14328503608703613,-0.006119861733168364
1684200631827845000,4.86984521484375,-0.06390903890132904,-0.16204887628555298,-0.02861957810819149
1684200631837871000,4.87987109375,-0.06088997796177864,-0.1575211137533188,-0.015090933069586754
1684200631847897000,4.88989697265625,-0.03920358791947365,-0.1726824939250946,-0.004683831240981817
1684200631857923300,4.89992333984375,-0.020726531744003296,-0.19730399549007416,0.009838972240686417
1684200631867949300,4.90994921875,-0.012765010818839073,-0.22457849979400635,0.03180632367730141
1684200631877974300,4.919974365234375,-0.003027429338544607,-0.25286737084388733,0.05064952000975609
1684200631888000300,4.930000244140625,0.00548563152551651,-0.26893556118011475,0.0646636039018631
1684200631898026200,4.940026123046875,0.011425754986703396,-0.27975669503211975,0.07321128249168396
1684200631908052200,4.95005224609375,0.0026660857256501913,-0.30605727434158325,0.08097546547651291
1684200631918078200,4.960078125,-0.010191191919147968,-0.3440893888473511,0.08199657499790192
1684200631928104200,4.970104248046875,-0.028019189834594727,-0.3518037796020508,0.07052420824766159
1684200631938130200,4.980130126953125,-0.021743014454841614,-0.3159755766391754,0.05428504943847656
1684200631948156200,4.99015625,-0.00730575155466795,-0.27210503816604614,0.03947441279888153
1684200631958181000,5.00018115234375,0.0027826866135001183,-0.2282087653875351,0.0236295647919178
1684200631968207000,5.01020703125,-0.0008919429965317249,-0.19287553429603577,0.0079219751060009
1684200631978233000,5.020233154296875,-0.01377872470766306,-0.1470523178577423,-0.007996218279004097
1684200631988259000,5.030259033203125,-0.028241019695997238,-0.09079409390687943,-0.02679067850112915
1684200631998285000,5.04028515625,-0.03832027316093445,-0.020114947110414505,-0.04816047102212906
1684200632008311300,5.050311279296875,-0.05399324372410774,0.04286002740263939,-0.06225871294736862
1684200632018337300,5.060337158203125,-0.07732585817575455,0.0759008377790451,-0.07106173783540726
1684200632028363300,5.07036328125,-0.08735878020524979,0.06863386929035187,-0.08178549259901047
1684200632038388200,5.08038818359375,-0.08915428072214127,0.04217912629246712,-0.1044907420873642
1684200632048414200,5.090414306640625,-0.06821144372224808,0.022376658394932747,-0.14305172860622406
1684200632058440200,5.100440185546875,-0.02858433686196804,0.015384497120976448,-0.18667152523994446
1684200632068466200,5.110466064453125,0.023016007617115974,0.016469469293951988,-0.2240854799747467
1684200632078492200,5.1204921875,0.05655774474143982,0.027698267251253128,-0.23709192872047424
1684200632088518100,5.13051806640625,0.06746259331703186,0.043879635632038116,-0.23593080043792725
1684200632098544000,5.140544189453125,0.07144232839345932,0.066766656935215,-0.21668370068073273
1684200632108570000,5.150570068359375,0.07924246042966843,0.07273639738559723,-0.1970261037349701
1684200632118595000,5.160594970703125,0.09679684787988663,0.06059051305055618,-0.16984662413597107
1684200632128621000,5.17062109375,0.12154427170753479,-0.03704416751861572,-0.16171866655349731
1684200632138647000,5.18064697265625,0.16895316541194916,-0.32588839530944824,-0.16521646082401276
1684200632148673000,5.190673095703125,0.2415807545185089,-0.940150260925293,-0.20837059617042542
1684200632158699300,5.20069921875,0.36176183819770813,-2.090909481048584,-0.4400295913219452
1684200632168725200,5.210725341796875,0.6540038585662842,-3.3637590408325195,-1.7243614196777344
1684200632178751200,5.220751220703125,0.9731063842773438,-3.468348979949951,-3.3504488468170166
1684200632188777200,5.230777099609375,1.0928189754486084,-2.9371607303619385,-4.043464660644531
1684200632198802200,5.24080224609375,1.1072403192520142,-2.568580389022827,-3.9689693450927734
1684200632208828200,5.250828125,1.192337155342102,-1.8374861478805542,-3.461646318435669
1684200632218854100,5.260854248046875,1.1778795719146729,-0.3981829285621643,-2.743190288543701
1684200632228880100,5.270880126953125,1.0543770790100098,0.9509387612342834,-2.246372699737549
1684200632238906000,5.280906005859375,1.0294524431228638,1.5761207342147827,-2.1297504901885986
1684200632248932000,5.29093212890625,0.9365866780281067,1.9928544759750366,-2.0366055965423584
1684200632258958000,5.3009580078125,0.7439007759094238,2.3008251190185547,-1.7854154109954834
1684200632268984000,5.310984130859375,0.8010855317115784,2.4138214588165283,-1.3938614130020142
1684200632279009000,5.321009033203125,1.0964289903640747,2.012269973754883,-1.2117576599121094
1684200632289035000,5.331034912109375,1.4580413103103638,1.1646039485931396,-1.4165966510772705
1684200632299061000,5.34106103515625,1.7168991565704346,0.6726136207580566,-1.6324224472045898
1684200632309087200,5.351087158203125,1.8219050168991089,0.8088521361351013,-1.5821237564086914
1684200632319113200,5.36111328125,1.7736711502075195,1.2301135063171387,-1.2884058952331543
1684200632329139200,5.37113916015625,1.6173821687698364,1.6935245990753174,-1.0228501558303833
1684200632339165200,5.381165283203125,1.4801123142242432,2.1365649700164795,-0.8599843978881836
1684200632349191200,5.391191162109375,1.3708466291427612,2.4249892234802246,-0.7599344849586487
1684200632359216000,5.401216064453125,1.2379289865493774,2.5150306224823,-0.7001517415046692
1684200632369242000,5.4112421875,1.0969204902648926,2.422602653503418,-0.6642749309539795
1684200632379268000,5.42126806640625,0.9540160894393921,2.1265869140625,-0.6755320429801941
1684200632389294000,5.431294189453125,0.8511496186256409,1.7818161249160767,-0.7150671482086182
1684200632399320600,5.441320556640625,0.8341526389122009,1.5450363159179688,-0.7255802154541016
1684200632409346600,5.4513466796875,0.8802999258041382,1.398918867111206,-0.7255727648735046
1684200632419372500,5.46137255859375,0.967166006565094,1.3353554010391235,-0.6997234225273132
1684200632429398500,5.4713984375,1.0266590118408203,1.2308902740478516,-0.5815227031707764
1684200632439423500,5.481423583984375,1.0290248394012451,1.102102518081665,-0.46010833978652954
1684200632449449500,5.491449462890625,0.9809685349464417,1.0757782459259033,-0.3934001326560974
1684200632459475500,5.501475341796875,0.8848133087158203,1.1343708038330078,-0.3645559847354889
1684200632469501700,5.511501708984375,0.7991721630096436,1.1572293043136597,-0.3281974494457245
1684200632479527700,5.521527587890625,0.7365319728851318,1.090476632118225,-0.2670868933200836
1684200632489553700,5.5315537109375,0.7019487023353577,1.0218943357467651,-0.18185430765151978
1684200632499579600,5.54157958984375,0.6787828803062439,0.9819716811180115,-0.09278258681297302
1684200632509605600,5.551605712890625,0.6318246722221375,0.946580708026886,-0.020102787762880325
1684200632519630600,5.561630615234375,0.5788179636001587,0.899818480014801,0.05021478608250618
1684200632529656600,5.571656494140625,0.5394468903541565,0.8118539452552795,0.12363338470458984
1684200632539682600,5.5816826171875,0.49192261695861816,0.6442086696624756,0.18098407983779907
1684200632549708500,5.59170849609375,0.44944411516189575,0.4681292474269867,0.24386849999427795
1684200632559734500,5.601734619140625,0.3863919675350189,0.30791613459587097,0.2985106110572815
1684200632569760500,5.611760498046875,0.3401896059513092,0.2518121302127838,0.3723891079425812
1684200632579786500,5.621786376953125,0.299284428358078,0.17616672813892365,0.4533775746822357
1684200632589812500,5.6318125,0.22168950736522675,0.0883425921201706,0.5263679027557373
1684200632599837400,5.64183740234375,0.15060356259346008,0.023135853931307793,0.5867959856987
1684200632609863400,5.651863525390625,0.08962144702672958,-0.024586394429206848,0.6597759127616882
1684200632619889700,5.6618896484375,0.005535437259823084,-0.061981961131095886,0.7282521724700928
1684200632629915600,5.67191552734375,-0.07509975135326385,-0.08564920723438263,0.8096468448638916
1684200632639941600,5.681941650390625,-0.15036162734031677,-0.1581190824508667,0.8907467722892761
1684200632649967600,5.691967529296875,-0.22330453991889954,-0.3076995313167572,0.9698285460472107
1684200632659993600,5.70199365234375,-0.2847535014152527,-0.5075730681419373,1.032039761543274
1684200632670019600,5.71201953125,-0.3266700506210327,-0.7180948853492737,1.0653915405273438
1684200632680044500,5.72204443359375,-0.3495601713657379,-0.893454372882843,1.0753767490386963
1684200632690070500,5.732070556640625,-0.35406196117401123,-1.0059324502944946,1.0873106718063354
1684200632700096500,5.742096435546875,-0.3460586369037628,-1.044476866722107,1.0937919616699219
1684200632710122500,5.75212255859375,-0.32898885011672974,-1.0373209714889526,1.08967924118042
1684200632720148500,5.7621484375,-0.33477914333343506,-1.047148585319519,1.0942790508270264
1684200632730174500,5.772174560546875,-0.36918798089027405,-1.0907971858978271,1.0953189134597778
1684200632740200400,5.782200439453125,-0.4128790497779846,-1.1376601457595825,1.0986406803131104
1684200632750226700,5.792226806640625,-0.44840988516807556,-1.1618045568466187,1.0909098386764526
1684200632760251600,5.802251708984375,-0.4441158175468445,-1.1622036695480347,1.0646101236343384
1684200632770277600,5.812277587890625,-0.4011020362377167,-1.1340519189834595,1.0294804573059082
1684200632780303600,5.8223037109375,-0.3350459635257721,-1.1073557138442993,1.0095133781433105
1684200632790329600,5.83232958984375,-0.29085132479667664,-1.08055579662323,0.9917455911636353
1684200632800355600,5.84235546875,-0.2834986448287964,-1.0396816730499268,0.9506785273551941
1684200632810381600,5.852381591796875,-0.3033407926559448,-0.9606584906578064,0.889700710773468
1684200632820407600,5.862407470703125,-0.345376580953598,-0.856365978717804,0.841060221195221
1684200632830433500,5.87243359375,-0.402879536151886,-0.7638843059539795,0.8516771793365479
1684200632840458800,5.882458740234375,-0.4867788255214691,-0.7038121819496155,0.9293054342269897
1684200632850484700,5.892484619140625,-0.5793260931968689,-0.6811332106590271,1.0325329303741455
1684200632860510500,5.902510498046875,-0.6821130514144897,-0.7120893001556396,1.1027929782867432
1684200632870536400,5.912536376953125,-0.7713968753814697,-0.7939189076423645,1.1222084760665894
1684200632880562400,5.9225625,-0.8436970114707947,-0.887702226638794,1.0946035385131836
1684200632890588400,5.93258837890625,-0.9007320404052734,-0.9751021265983582,1.0322130918502808
1684200632900614700,5.94261474609375,-0.9317485690116882,-1.027611494064331,0.9882603287696838
1684200632910640600,5.952640625,-0.9379172921180725,-1.0443891286849976,0.9482953548431396
1684200632920665900,5.962665771484375,-0.9517307281494141,-1.0616031885147095,0.9228916764259338
1684200632930691800,5.97269189453125,-0.9887329339981079,-1.0586990118026733,0.931545078754425
1684200632940717800,5.9827177734375,-1.0520695447921753,-1.0563814640045166,0.9560914635658264
1684200632950743600,5.99274365234375,-1.1132793426513672,-1.023316502571106,0.9517214894294739
1684200632960769500,6.00276953125,-1.1409595012664795,-0.9389984607696533,0.9028925895690918
1684200632970795500,6.01279541015625,-1.1416339874267578,-0.8212494850158691,0.790732741355896
1684200632980821500,6.022821533203125,-1.100823998451233,-0.7073424458503723,0.6419681906700134
1684200632990847500,6.032847412109375,-1.017196536064148,-0.6282574534416199,0.45838552713394165
1684200633000872700,6.042872802734375,-0.8887957334518433,-0.5562389492988586,0.28851938247680664
1684200633010898700,6.052898681640625,-0.7381220459938049,-0.441824734210968,0.20017275214195251
1684200633020924700,6.062924560546875,-0.5717651844024658,-0.3947994112968445,0.13495197892189026
1684200633030950700,6.07295068359375,-0.40353596210479736,-0.4037500321865082,0.08646221458911896
1684200633040976600,6.0829765625,-0.28346070647239685,-0.4201506972312927,0.06338039040565491
1684200633051002600,6.093002685546875,-0.22793062031269073,-0.40066301822662354,0.036644645035266876
1684200633061028600,6.103028564453125,-0.24150316417217255,-0.3017454147338867,0.025520410388708115
1684200633071054600,6.1130546875,-0.27552637457847595,-0.10779751092195511,0.028910081833600998
1684200633081079800,6.123079833984375,-0.3220326602458954,0.15853454172611237,0.03911760449409485
1684200633091105800,6.133105712890625,-0.3710297644138336,0.42398616671562195,0.04929434135556221
1684200633101131800,6.1431318359375,-0.433984637260437,0.573065459728241,0.0636594370007515
1684200633111157800,6.15315771484375,-0.493679404258728,0.576278805732727,0.09138666838407516
1684200633121183700,6.163183837890625,-0.504970371723175,0.4659242331981659,0.1516779661178589
1684200633131209700,6.173209716796875,-0.4655672609806061,0.2599859833717346,0.23748129606246948
1684200633141235700,6.183235595703125,-0.38955655694007874,-0.01928575523197651,0.32708823680877686
1684200633151261700,6.19326171875,-0.30067193508148193,-0.36792948842048645,0.392830491065979
1684200633161286700,6.20328662109375,-0.23168031871318817,-0.6901555061340332,0.4139164090156555
1684200633171312600,6.213312744140625,-0.20846927165985107,-0.807772696018219,0.3502463400363922
1684200633181338600,6.223338623046875,-0.2021176815032959,-0.6929056644439697,0.22842669486999512
1684200633191364600,6.233364501953125,-0.20487138628959656,-0.4820253551006317,0.09220841526985168
1684200633201390800,6.243390869140625,-0.2236173301935196,-0.30125561356544495,0.0038799364119768143
1684200633211416800,6.253416748046875,-0.2352319061756134,-0.1570579707622528,-0.0331457257270813
1684200633221442800,6.26344287109375,-0.22993062436580658,-0.038296159356832504,-0.03688773512840271
1684200633231468800,6.27346875,-0.20091281831264496,0.09102374315261841,-0.02148054726421833
1684200633241493800,6.28349365234375,-0.16670837998390198,0.2220662385225296,-0.006952951662242413
1684200633251519700,6.293519775390625,-0.15483440458774567,0.33089444041252136,-0.0004915902391076088
1684200633261545700,6.303545654296875,-0.1703222543001175,0.4015285074710846,-0.009748844429850578
1684200633271571700,6.31357177734375,-0.21525217592716217,0.44833168387413025,-0.03428960591554642
1684200633281597700,6.32359765625,-0.26309385895729065,0.5285664200782776,-0.062223661690950394
1684200633291623700,6.333623779296875,-0.31334689259529114,0.6999938488006592,-0.08543045073747635
1684200633301649700,6.343649658203125,-0.3534623980522156,1.0031787157058716,-0.12085219472646713
1684200633311675600,6.353675537109375,-0.4023172855377197,1.4961857795715332,-0.181993305683136
1684200633321700600,6.36370068359375,-0.40104711055755615,1.9115922451019287,-0.18124502897262573
1684200633331726600,6.3737265625,-0.31778019666671753,2.0831894874572754,-0.08107580244541168
1684200633341752600,6.383752685546875,-0.1982240527868271,2.038898229598999,0.04401995241641998
1684200633351778600,6.393778564453125,-0.06133783981204033,1.8472378253936768,0.13364863395690918
1684200633361804800,6.4038046875,0.06517822295427322,1.4956754446029663,0.19530485570430756
1684200633371830800,6.413830810546875,0.16554610431194305,1.0749818086624146,0.24229127168655396
1684200633381856800,6.423856689453125,0.2473621666431427,0.6940517425537109,0.25817421078681946
1684200633391882800,6.4338828125,0.29714280366897583,0.40143242478370667,0.24716709554195404
1684200633401908200,6.443908203125,0.32853490114212036,0.18077927827835083,0.23394536972045898
1684200633411934200,6.453934326171875,0.34617406129837036,-0.010381624102592468,0.24845507740974426
1684200633421960200,6.463960205078125,0.3463253974914551,-0.1921798437833786,0.30680859088897705
1684200633431986200,6.473986083984375,0.33036932349205017,-0.35777705907821655,0.40279531478881836
1684200633442012200,6.48401220703125,0.3078675866127014,-0.5151433348655701,0.5057641267776489
1684200633452038100,6.4940380859375,0.30407923460006714,-0.6898408532142639,0.589877188205719
1684200633462064400,6.504064453125,0.3228107690811157,-0.8226168155670166,0.6441500186920166
1684200633472090400,6.51409033203125,0.3351348340511322,-0.9126705527305603,0.6560921669006348
1684200633482115300,6.524115234375,0.30455780029296875,-0.9482755064964294,0.6129860281944275
1684200633492141300,6.534141357421875,0.24564999341964722,-0.8850754499435425,0.5152221322059631
1684200633502167300,6.544167236328125,0.1742846667766571,-0.7063537836074829,0.3735217750072479
1684200633512193300,6.554193359375,0.09388117492198944,-0.42409515380859375,0.21378912031650543
1684200633522219300,6.56421923828125,0.02281821332871914,-0.11556100100278854,0.06805519014596939
1684200633532245200,6.574245361328125,-0.030743815004825592,0.10946359485387802,-0.04355469346046448
1684200633542271200,6.584271240234375,-0.06798114627599716,0.23707130551338196,-0.10266056656837463
1684200633552297200,6.594297119140625,-0.08815699070692062,0.2798568606376648,-0.12830601632595062
1684200633562322200,6.604322265625,-0.08857033401727676,0.2976416051387787,-0.1282566338777542
1684200633572348200,6.61434814453125,-0.07252079248428345,0.31284239888191223,-0.11621488630771637
1684200633582374100,6.6243740234375,-0.036758169531822205,0.3512825667858124,-0.08810063451528549
1684200633592400100,6.634400146484375,0.004345056600868702,0.36692118644714355,-0.055531248450279236
1684200633602426000,6.644426025390625,0.03447582945227623,0.3610689342021942,-0.0066626667976379395
1684200633612452400,6.654452392578125,0.05507005378603935,0.31956595182418823,0.04845651239156723
1684200633622478300,6.664478271484375,0.07547423988580704,0.2001759111881256,0.10370106995105743
1684200633632504300,6.67450439453125,0.0982208326458931,-0.016055986285209656,0.16194839775562286
1684200633642529300,6.684529296875,0.0976639911532402,-0.26713743805885315,0.20741158723831177
1684200633652555300,6.69455517578125,0.09961581975221634,-0.4491770267486572,0.24498826265335083
1684200633662581200,6.704581298828125,0.093732550740242,-0.5441274642944336,0.2596416175365448
1684200633672607200,6.714607177734375,0.08614786714315414,-0.5511675477027893,0.2613782584667206
1684200633682633200,6.72463330078125,0.08461760729551315,-0.5306621789932251,0.2410818338394165
1684200633692659200,6.7346591796875,0.0731913149356842,-0.4828107953071594,0.1869054138660431
1684200633702685200,6.744685302734375,0.059356994926929474,-0.408424437046051,0.1057751402258873
1684200633712711200,6.754711181640625,0.04680844396352768,-0.3138955533504486,0.015060418285429478
1684200633722736000,6.764736083984375,0.03770365193486214,-0.18890689313411713,-0.045911964029073715
1684200633732762000,6.77476220703125,0.0621621236205101,-0.09441874176263809,-0.09095240384340286
1684200633742788000,6.7847880859375,0.08115390688180923,-0.03608052060008049,-0.10666260868310928
1684200633752814000,6.79481396484375,0.09691396355628967,-0.04835077002644539,-0.0922708809375763
1684200633762840300,6.80484033203125,0.08848849684000015,-0.11755924671888351,-0.05349142476916313
1684200633772866300,6.8148662109375,0.06106939539313316,-0.2464040368795395,0.006868055555969477
1684200633782892300,6.824892333984375,0.04015347361564636,-0.41094645857810974,0.06936120986938477
1684200633792918300,6.834918212890625,0.009863477200269699,-0.5633572936058044,0.10580150783061981
1684200633802943200,6.844943115234375,-0.018560074269771576,-0.6305391788482666,0.11296307295560837
1684200633812969200,6.85496923828125,-0.03397418186068535,-0.6365898847579956,0.08465393632650375
1684200633822995200,6.8649951171875,-0.06257732957601547,-0.5755147933959961,0.03358328714966774
1684200633833021200,6.875021240234375,-0.0798010602593422,-0.5086055397987366,-0.03171449154615402
1684200633843047200,6.885047119140625,-0.09964124858379364,-0.452487587928772,-0.07854723930358887
1684200633853073200,6.8950732421875,-0.09992939978837967,-0.3917320966720581,-0.09033865481615067
1684200633863099100,6.90509912109375,-0.09894799441099167,-0.32119637727737427,-0.06970091909170151
1684200633873125000,6.915125,-0.1010311171412468,-0.26094743609428406,-0.03325022757053375
1684200633883150000,6.925150146484375,-0.11432836949825287,-0.22769616544246674,0.021807590499520302
1684200633893176000,6.935176025390625,-0.13656842708587646,-0.2597680985927582,0.08148503303527832
1684200633903202000,6.9452021484375,-0.15694831311702728,-0.358075886964798,0.13794995844364166
1684200633913228300,6.955228271484375,-0.17039968073368073,-0.4894147217273712,0.1713113784790039
1684200633923254300,6.965254150390625,-0.16500619053840637,-0.5943725109100342,0.16660307347774506
1684200633933280300,6.9752802734375,-0.1587672084569931,-0.6323012113571167,0.10489203035831451
1684200633943306200,6.98530615234375,-0.14019295573234558,-0.557504415512085,0.009278375655412674
1684200633953332200,6.995332275390625,-0.1299847960472107,-0.407630980014801,-0.07414327561855316
1684200633963357200,7.005357177734375,-0.14611496031284332,-0.24221108853816986,-0.11642320454120636
1684200633973383200,7.015383056640625,-0.17292261123657227,-0.1358763873577118,-0.1027073860168457
1684200633983409200,7.0254091796875,-0.18876442313194275,-0.09309076517820358,-0.04895968362689018
1684200633993435100,7.03543505859375,-0.18632790446281433,-0.11258537322282791,0.015003053471446037
1684200634003461000,7.045461181640625,-0.1625441312789917,-0.16273050010204315,0.05859777703881264
1684200634013487000,7.055487060546875,-0.1367889642715454,-0.21912214159965515,0.07803645730018616
1684200634023513000,7.06551318359375,-0.11648982763290405,-0.29752498865127563,0.07208488136529922
1684200634033539000,7.0755390625,-0.09211737662553787,-0.3984372019767761,0.06079813465476036
1684200634043564000,7.08556396484375,-0.08561338484287262,-0.5625197887420654,0.04576687887310982
1684200634053590000,7.095590087890625,-0.08462348580360413,-0.7734360098838806,0.018250565975904465
1684200634063616300,7.1056162109375,-0.0801614448428154,-1.2332103252410889,-0.023829296231269836
1684200634073642200,7.115642333984375,-0.05048743635416031,-1.6889989376068115,-0.044411271810531616
1684200634083668200,7.125668212890625,-0.023268934339284897,-1.893837332725525,-0.06608812510967255
1684200634093694200,7.135694091796875,0.013327160850167274,-1.7899223566055298,-0.08886907249689102
1684200634103720200,7.14572021484375,0.06245262920856476,-1.4551947116851807,-0.11712973564863205
1684200634113746200,7.15574609375,0.13810983300209045,-1.068138599395752,-0.15002723038196564
1684200634123771100,7.165771240234375,0.22291575372219086,-0.7337633967399597,-0.1843617707490921
1684200634133797000,7.175797119140625,0.3080737888813019,-0.47376537322998047,-0.22324950993061066
1684200634143823000,7.185822998046875,0.37316858768463135,-0.2991764545440674,-0.22910474240779877
1684200634153849000,7.19584912109375,0.4131641983985901,-0.1832229495048523,-0.19294168055057526
1684200634163875000,7.205875,0.42744043469429016,-0.010324899107217789,-0.14567413926124573
1684200634173901000,7.215901123046875,0.44219088554382324,0.2141936868429184,-0.13165898621082306
1684200634183927000,7.225927001953125,0.4053567349910736,0.31234827637672424,-0.17835469543933868
1684200634193953300,7.235953369140625,0.32971975207328796,0.257298082113266,-0.2758884131908417
1684200634203978000,7.24597802734375,0.2405208945274353,0.07347504049539566,-0.3899710774421692
1684200634214004200,7.256004150390625,0.14275439083576202,-0.2083664983510971,-0.5084958076477051
1684200634224030200,7.2660302734375,0.08412417024374008,-0.5917676687240601,-0.6593720316886902
1684200634234056200,7.27605615234375,0.10430560261011124,-1.0618138313293457,-0.8783217072486877
1684200634244082200,7.286082275390625,0.17131967842578888,-1.3689110279083252,-1.052717924118042
1684200634254108200,7.296108154296875,0.2424660176038742,-1.476283073425293,-1.1587495803833008
1684200634264134100,7.306134033203125,0.3019215166568756,-1.393769383430481,-1.230491042137146
1684200634274160000,7.31616015625,0.33701157569885254,-1.0651895999908447,-1.319389820098877
1684200634284185000,7.32618505859375,0.34662699699401855,-0.5910091400146484,-1.5485029220581055
1684200634294211000,7.336211181640625,0.3517245352268219,-0.16672202944755554,-1.8725649118423462
1684200634304237000,7.346237060546875,0.3790833055973053,0.04055323451757431,-2.0910756587982178
1684200634314263000,7.356262939453125,0.39732837677001953,-0.03287650644779205,-2.1269237995147705
1684200634324289000,7.3662890625,0.38790950179100037,-0.2590460181236267,-2.039961099624634
1684200634334315000,7.37631494140625,0.3937218487262726,-0.3661503791809082,-1.885490894317627
1684200634344341200,7.38634130859375,0.353421688079834,-0.31858426332473755,-1.6769686937332153
1684200634354367200,7.3963671875,0.30918020009994507,0.053886767476797104,-1.2819223403930664
1684200634364393200,7.406393310546875,0.3058294951915741,0.41364753246307373,-0.782421886920929
1684200634374418200,7.416418212890625,0.2955446243286133,0.5696216821670532,-0.3444855511188507
1684200634384444200,7.426444091796875,0.28846120834350586,0.6273843050003052,-0.08955696225166321
1684200634394470100,7.43647021484375,0.32803311944007874,0.4595966637134552,-0.12858346104621887
1684200634404495400,7.446495361328125,0.4662047028541565,0.378108948469162,-0.24931924045085907
1684200634414521300,7.456521240234375,0.6710643172264099,0.5896715521812439,-0.2560964524745941
1684200634424547000,7.466547119140625,0.8242180943489075,0.8858097791671753,-0.16215632855892181
1684200634434573000,7.476572998046875,0.8622389435768127,0.9440645575523376,-0.0554509237408638
1684200634444599300,7.486599365234375,0.7942138910293579,0.8264147639274597,0.03266343101859093
1684200634454624300,7.496624267578125,0.682517409324646,0.6843057870864868,0.1096748635172844
1684200634464650500,7.506650390625,0.6104804277420044,0.6493402719497681,0.20589981973171234
1684200634474676500,7.516676513671875,0.5606606602668762,0.778314471244812,0.2937399446964264
1684200634484702500,7.526702392578125,0.5389681458473206,0.9476932287216187,0.35618337988853455
1684200634494728400,7.536728515625,0.5456175208091736,1.114342212677002,0.407480925321579
1684200634504754400,7.54675439453125,0.5474870800971985,1.1416196823120117,0.43489593267440796
1684200634514780200,7.5567802734375,0.5397021174430847,1.1207306385040283,0.4365721046924591
1684200634524806100,7.56680615234375,0.5375707745552063,1.0915268659591675,0.4120437204837799
1684200634534831400,7.576831298828125,0.558282196521759,1.0846554040908813,0.3844483196735382
1684200634544857300,7.586857421875,0.5793221592903137,1.1292657852172852,0.40878593921661377
1684200634554883300,7.59688330078125,0.5930965542793274,1.1680413484573364,0.4938680827617645
1684200634564909300,7.606909423828125,0.6068648099899292,1.1847329139709473,0.5863288044929504
1684200634574935300,7.616935302734375,0.6192005276679993,1.2198292016983032,0.622516930103302
1684200634584961300,7.626961181640625,0.6182564496994019,1.2816609144210815,0.6078186631202698
1684200634594987500,7.636987548828125,0.6004651784896851,1.4063937664031982,0.574931263923645
1684200634605013200,7.64701318359375,0.5667238831520081,1.523565649986267,0.5550665855407715
1684200634615038500,7.65703857421875,0.5097860097885132,1.6622809171676636,0.535221517086029
1684200634625064400,7.667064453125,0.42072486877441406,1.8449677228927612,0.5107097625732422
1684200634635090400,7.67709033203125,0.31826451420783997,2.0477309226989746,0.4676847755908966
1684200634645116400,7.687116455078125,0.2193654626607895,2.2062337398529053,0.4092402756214142
1684200634655142400,7.697142333984375,0.14514663815498352,2.2647175788879395,0.37070247530937195
1684200634665168400,7.70716845703125,0.12609659135341644,2.239238977432251,0.3540779650211334
1684200634675194400,7.7171943359375,0.14445695281028748,2.1570746898651123,0.35695895552635193
1684200634685220400,7.727220458984375,0.17065328359603882,2.068765878677368,0.3684845268726349
1684200634695245300,7.737245361328125,0.19167307019233704,1.9968918561935425,0.37498530745506287
1684200634705271300,7.747271240234375,0.19584301114082336,1.9869695901870728,0.3837381899356842
1684200634715297300,7.75729736328125,0.18482817709445953,2.0247318744659424,0.3749263286590576
1684200634725323300,7.7673232421875,0.17112305760383606,2.0960071086883545,0.35141414403915405
1684200634735349200,7.777349365234375,0.15504901111125946,2.1803455352783203,0.32537269592285156
1684200634745375500,7.78737548828125,0.13316385447978973,2.277979850769043,0.2991942763328552
1684200634755401500,7.7974013671875,0.10702866315841675,2.356959342956543,0.296670138835907
1684200634765427500,7.807427490234375,0.06920447200536728,2.3715081214904785,0.3287530839443207
1684200634775452400,7.817452392578125,0.0278551634401083,2.316659688949585,0.39368095993995667
1684200634785478400,7.827478515625,-0.003677449654787779,2.224355459213257,0.4540848433971405
1684200634795504400,7.83750439453125,-0.0109558692201972,2.1086437702178955,0.4830978512763977
1684200634805530400,7.8475302734375,-0.031434692442417145,2.0020594596862793,0.5010100603103638
1684200634815556400,7.857556396484375,-0.05386996269226074,1.942488193511963,0.5382256507873535
1684200634825582300,7.867582275390625,-0.08139298856258392,1.8840463161468506,0.610988199710846
1684200634835608300,7.8776083984375,-0.10488659888505936,1.855781078338623,0.7142192721366882
1684200634845634300,7.88763427734375,-0.14548766613006592,1.8547930717468262,0.8212542533874512
1684200634855659300,7.8976591796875,-0.22325409948825836,1.8771183490753174,0.9093077182769775
1684200634865685200,7.907685302734375,-0.31380942463874817,1.9253995418548584,0.963339626789093
1684200634875711200,7.917711181640625,-0.4161193072795868,1.9586060047149658,0.9689168334007263
1684200634885737200,7.9277373046875,-0.5095469355583191,1.9917453527450562,0.9555463194847107
1684200634895763500,7.937763427734375,-0.5974304676055908,1.9788695573806763,0.9275327920913696
1684200634905789400,7.94778955078125,-0.6673519015312195,1.9290918111801147,0.9055314660072327
1684200634915815400,7.9578154296875,-0.7137779593467712,1.860710859298706,0.9090854525566101
1684200634925841400,7.96784130859375,-0.7261976003646851,1.7966854572296143,0.9414763450622559
1684200634935866400,7.977866455078125,-0.7234646677970886,1.7432011365890503,0.9961369037628174
1684200634945892400,7.987892333984375,-0.7200244069099426,1.7159106731414795,1.05323326587677
1684200634955918300,7.99791845703125,-0.7250495553016663,1.7047232389450073,1.1001213788986206
1684200634965944300,8.0079443359375,-0.734442949295044,1.6994653940200806,1.1367791891098022
1684200634975970300,8.01797021484375,-0.742291271686554,1.6841479539871216,1.1777695417404175
1684200634985996300,8.027996337890626,-0.7523981928825378,1.6426901817321777,1.2283954620361328
1684200634996022300,8.038022216796875,-0.7740761041641235,1.6009280681610107,1.2669873237609863
1684200635006048300,8.04804833984375,-0.8291407823562622,1.5295543670654297,1.3120481967926025
1684200635016073200,8.0580732421875,-0.957889974117279,1.4405683279037476,1.4347254037857056
1684200635026099200,8.06809912109375,-1.0109968185424805,1.4024280309677124,1.6137583255767822
1684200635036125200,8.078125244140624,-0.6003404855728149,1.6248888969421387,0.6904941201210022
1684200635046151400,8.0881513671875,-0.09001488238573074,1.15598726272583,-0.13735900819301605
1684200635056177400,8.098177490234375,0.05065860599279404,0.8036423921585083,-0.25003066658973694
1684200635066203400,8.108203369140625,-0.042720720171928406,1.010626196861267,-0.14796914160251617
1684200635076229400,8.1182294921875,-0.18387703597545624,1.569649577140808,-0.054458100348711014
1684200635086255400,8.12825537109375,-0.20029649138450623,2.1184232234954834,0.07880834490060806
1684200635096280300,8.1382802734375,-0.18909363448619843,2.6166701316833496,0.29542672634124756
1684200635106306300,8.148306396484376,-0.24464112520217896,3.096292734146118,0.5477349758148193
1684200635116332300,8.158332275390626,-0.3424702286720276,3.572722911834717,0.7802169322967529
1684200635126358300,8.168358154296875,-0.4741298258304596,4.017650604248047,0.952746570110321
1684200635136384300,8.17838427734375,-0.5666278004646301,4.4139723777771,1.0547600984573364
1684200635146410200,8.18841015625,-0.5302966833114624,4.6542792320251465,1.1202521324157715
1684200635156436200,8.198436279296875,-0.3805822730064392,4.464331150054932,1.2070467472076416
1684200635166462200,8.208462158203124,-0.21824148297309875,3.478395938873291,1.3692277669906616
1684200635176487200,8.218487060546876,-0.0877591148018837,1.9169265031814575,1.5746268033981323
1684200635186513200,8.22851318359375,-0.002566158538684249,0.8988737463951111,1.5841282606124878
1684200635196539400,8.238539306640625,0.06939005851745605,0.7046020030975342,1.3634307384490967
1684200635206565400,8.2485654296875,0.11877202987670898,0.9845753312110901,1.042911410331726
1684200635216591400,8.25859130859375,0.12819962203502655,1.492485761642456,0.7685136795043945
1684200635226617300,8.268617431640624,0.09769054502248764,1.992942214012146,0.5997983813285828
1684200635236643300,8.278643310546874,0.04389842227101326,2.3214457035064697,0.5392511487007141
1684200635246669300,8.28866943359375,-0.03736576437950134,2.49796986579895,0.5513452887535095
1684200635256695300,8.2986953125,-0.13263264298439026,2.6119608879089355,0.5998491644859314
1684200635266720300,8.30872021484375,-0.20208559930324554,2.648935079574585,0.6308518052101135
1684200635276746200,8.318746337890625,-0.230313241481781,2.6551289558410645,0.658679187297821
1684200635286772200,8.328772216796875,-0.21324598789215088,2.615638017654419,0.6849289536476135
1684200635296798200,8.338798095703124,-0.17609062790870667,2.5304551124572754,0.7263261675834656
1684200635306824200,8.34882421875,-0.15307749807834625,2.3976244926452637,0.7844449877738953
1684200635316850200,8.35885009765625,-0.15916842222213745,2.2440755367279053,0.8587623834609985
1684200635326876400,8.36887646484375,-0.19711484014987946,2.166308641433716,0.890343189239502
1684200635336902400,8.37890234375,-0.253467321395874,2.1372578144073486,0.8596630692481995
1684200635346927400,8.38892724609375,-0.31346115469932556,2.133296489715576,0.7632564902305603
1684200635356953300,8.398953369140624,-0.36146223545074463,2.1723968982696533,0.6323227286338806
1684200635366979300,8.408979248046874,-0.39625439047813416,2.2542502880096436,0.5215166807174683
1684200635377005300,8.41900537109375,-0.4294653534889221,2.365961790084839,0.4518427550792694
1684200635387031300,8.42903125,-0.44706591963768005,2.483365535736084,0.4366297125816345
1684200635397057300,8.439057373046875,-0.4485977590084076,2.587693452835083,0.45274582505226135
1684200635407083800,8.449083740234375,-0.4161545932292938,2.652761459350586,0.48521625995635986
1684200635417109800,8.45910986328125,-0.36245355010032654,2.697441816329956,0.4924331605434418
1684200635427134700,8.469134765625,-0.3232499063014984,2.6895203590393066,0.46592631936073303
1684200635437160700,8.47916064453125,-0.2941889464855194,2.6495373249053955,0.43165650963783264
1684200635447186700,8.489186767578126,-0.24809926748275757,2.6209585666656494,0.42155125737190247
1684200635457212700,8.499212646484375,-0.20628443360328674,2.5560503005981445,0.43594858050346375
1684200635467238700,8.50923876953125,-0.17238520085811615,2.47513484954834,0.46814560890197754
1684200635477264600,8.5192646484375,-0.13971060514450073,2.4143717288970947,0.5002433657646179
1684200635487291000,8.529290771484375,-0.12815402448177338,2.3807594776153564,0.4943387508392334
1684200635497316900,8.53931689453125,-0.12468019872903824,2.3550474643707275,0.4626780152320862
1684200635507341800,8.549341796875,-0.14704596996307373,2.3379387855529785,0.42383208870887756
1684200635517367800,8.559367919921876,-0.1814931482076645,2.3433523178100586,0.3932456970214844
1684200635527393800,8.569393798828125,-0.2129371017217636,2.377629280090332,0.3647059202194214
1684200635537419800,8.579419677734375,-0.25293830037117004,2.412116765975952,0.3484209477901459
1684200635547445800,8.58944580078125,-0.29389166831970215,2.452662229537964,0.3447534143924713
1684200635557471700,8.5994716796875,-0.3303849399089813,2.4947006702423096,0.36422619223594666
1684200635567497700,8.609497802734374,-0.3565200865268707,2.535897731781006,0.3882448077201843
1684200635577523700,8.619523681640626,-0.363339900970459,2.5563833713531494,0.4040655791759491
1684200635587548700,8.629548583984375,-0.36123085021972656,2.5380589962005615,0.3936033248901367
1684200635597574700,8.63957470703125,-0.34053248167037964,2.449589729309082,0.36360546946525574
1684200635607600600,8.6496005859375,-0.29839301109313965,2.3251707553863525,0.3175230026245117
1684200635617626600,8.659626708984375,-0.2518707811832428,2.2108943462371826,0.2893212139606476
1684200635627652600,8.669652587890624,-0.21371686458587646,2.0980114936828613,0.28063103556632996
1684200635637678800,8.679678955078124,-0.1941213309764862,1.9811155796051025,0.2993389666080475
1684200635647704800,8.689704833984376,-0.19411183893680573,1.893064260482788,0.3210138976573944
1684200635657730800,8.699730712890625,-0.19953350722789764,1.8882488012313843,0.3228527903556824
1684200635667755800,8.709755859375,-0.2086317539215088,1.9680185317993164,0.29874762892723083
1684200635677781800,8.71978173828125,-0.2237691581249237,2.109976291656494,0.26190119981765747
1684200635687807700,8.729807861328124,-0.23965711891651154,2.2330234050750732,0.2223227322101593
1684200635697833700,8.739833740234374,-0.25487762689590454,2.279801845550537,0.18635568022727966
1684200635707859700,8.749859619140626,-0.26065921783447266,2.2392690181732178,0.16112171113491058
1684200635717885700,8.7598857421875,-0.25550734996795654,2.1242799758911133,0.14924614131450653
1684200635727911700,8.76991162109375,-0.24471531808376312,1.9669232368469238,0.13377796113491058
1684200635737937700,8.779937744140625,-0.2386758029460907,1.7763921022415161,0.11593131721019745
1684200635747962600,8.789962646484375,-0.22860611975193024,1.5829325914382935,0.1148257851600647
1684200635757988600,8.799988525390624,-0.21497312188148499,1.4223225116729736,0.12846943736076355
1684200635768014600,8.8100146484375,-0.21199357509613037,1.3360035419464111,0.13351404666900635
1684200635778040600,8.82004052734375,-0.21857771277427673,1.3114041090011597,0.0906432718038559
1684200635788066800,8.83006689453125,-0.23198480904102325,1.2923989295959473,-0.02548716776072979
1684200635798092800,8.8400927734375,-0.24256128072738647,1.245823860168457,-0.17333921790122986
1684200635808118800,8.850118896484375,-0.24243508279323578,1.1729170083999634,-0.31045177578926086
1684200635818144800,8.860144775390625,-0.22841326892375946,1.0951005220413208,-0.41909945011138916
1684200635828169700,8.870169677734374,-0.2044430822134018,1.029190182685852,-0.5053467154502869
1684200635838195700,8.88019580078125,-0.18093082308769226,0.9962372779846191,-0.5690476894378662
1684200635848221700,8.8902216796875,-0.16758541762828827,1.0087580680847168,-0.632568895816803
1684200635858247700,8.90024755859375,-0.17467927932739258,1.0685254335403442,-0.690385639667511
1684200635868273700,8.910273681640625,-0.19442567229270935,1.1579253673553467,-0.7340818047523499
1684200635878299600,8.920299560546875,-0.2143186777830124,1.2729744911193848,-0.7732361555099487
1684200635888325600,8.93032568359375,-0.22457078099250793,1.3590819835662842,-0.7958825826644897
1684200635898351600,8.9403515625,-0.21720927953720093,1.392970085144043,-0.7994632124900818
1684200635908377600,8.950377685546876,-0.2056104689836502,1.3944214582443237,-0.809293270111084
1684200635918402600,8.960402587890625,-0.19677063822746277,1.4085687398910522,-0.8467007875442505
1684200635928428500,8.970428466796875,-0.17342136800289154,1.4854354858398438,-0.9135417938232422
1684200635938454800,8.980454833984375,-0.15695184469223022,1.613028645515442,-1.008560299873352
1684200635948480800,8.990480712890625,-0.1394667774438858,1.668689250946045,-1.1098809242248535
1684200635958506800,9.0005068359375,-0.13751761615276337,1.5968225002288818,-1.2248106002807617
1684200635968532700,9.01053271484375,-0.11204619705677032,1.4791702032089233,-1.3565239906311035
1684200635978558700,9.020558837890626,-0.030312983319163322,1.3535059690475464,-1.5287666320800781
1684200635988584700,9.030584716796875,0.09124386310577393,1.1832778453826904,-1.7248218059539795
1684200635998609700,9.040609619140625,0.21116681396961212,0.9620912075042725,-1.9124982357025146
1684200636008635600,9.0506357421875,0.3309222459793091,0.7051942348480225,-2.0244758129119873
1684200636018661600,9.06066162109375,0.42926105856895447,0.49625512957572937,-2.017138957977295
1684200636028687600,9.0706875,0.5119225978851318,0.3833363950252533,-1.8929274082183838
1684200636038713600,9.080713623046876,0.5995573997497559,0.40062215924263,-1.6630982160568237
1684200636048739600,9.090739501953125,0.6767590641975403,0.17928220331668854,-1.4075233936309814
1684200636058765600,9.100765625,0.7923224568367004,-0.9138716459274292,-1.297255277633667
1684200636068791800,9.110791748046875,0.8635463714599609,-0.8843343257904053,-0.9513224363327026
1684200636078816800,9.120816650390625,0.7930974960327148,-0.007985773496329784,-0.4718717038631439
1684200636088842800,9.1308427734375,0.7395037412643433,1.037825107574463,-0.0808955654501915
1684200636098868700,9.14086865234375,0.7458415627479553,1.7368981838226318,0.08150026947259903
1684200636108894700,9.150894775390626,0.9110031127929688,1.3804528713226318,0.027187123894691467
1684200636118920700,9.160920654296875,1.1739457845687866,1.4954724311828613,0.013736294582486153
1684200636128946700,9.17094677734375,1.4125049114227295,1.9874887466430664,0.07378652691841125
1684200636138972700,9.18097265625,1.5880120992660522,1.8123608827590942,0.036606404930353165
1684200636148998700,9.19099853515625,1.6468586921691895,1.742936611175537,0.13445930182933807
1684200636159023900,9.20102392578125,1.5882039070129395,1.8434480428695679,0.22905585169792175
1684200636169049900,9.2110498046875,1.4314100742340088,1.8922441005706787,0.2214638739824295
1684200636179075800,9.221075927734375,1.2301384210586548,1.9488351345062256,0.16694337129592896
1684200636189101800,9.231101806640625,1.0357391834259033,2.139059066772461,0.11067242920398712
1684200636199127600,9.24112744140625,0.8712753653526306,2.36177659034729,0.10065388679504395
1684200636209153500,9.251153564453125,0.7782297134399414,2.416187047958374,0.13774904608726501
1684200636219179800,9.2611796875,0.7948191165924072,2.2937734127044678,0.19989284873008728
1684200636229205800,9.271205810546874,0.8712511658668518,2.1063804626464844,0.2745378613471985
1684200636239231700,9.281231689453126,0.9295451045036316,1.868918776512146,0.32864317297935486
1684200636249257000,9.291257080078125,0.9237745404243469,1.6032801866531372,0.3645469844341278
1684200636259283000,9.301282958984375,0.8600525259971619,1.3206915855407715,0.373019814491272
1684200636269309000,9.311308837890625,0.7665358185768127,1.1026012897491455,0.3507271707057953
1684200636279334700,9.321334716796875,0.7049437761306763,0.9937520623207092,0.3119318187236786
1684200636289360600,9.331360595703124,0.6939595341682434,0.965456485748291,0.263263463973999
1684200636299386600,9.34138671875,0.692870020866394,0.9288931488990784,0.24797825515270233
1684200636309412600,9.35141259765625,0.6834450364112854,0.8548519611358643,0.2621816396713257
1684200636319437800,9.361437744140625,0.644615888595581,0.7684987187385559,0.29890209436416626
1684200636329463800,9.3714638671875,0.612998366355896,0.7279788255691528,0.3406839966773987
1684200636339489800,9.38148974609375,0.579454779624939,0.745081901550293,0.38368844985961914
1684200636349515800,9.391515869140624,0.5303978323936462,0.7846148014068604,0.4383077621459961
1684200636359541800,9.401541748046874,0.4770965278148651,0.8196252584457397,0.5100994110107422
1684200636369567700,9.411567626953126,0.42363467812538147,0.8208440542221069,0.5685909390449524
1684200636379593700,9.42159375,0.3712915778160095,0.805360734462738,0.5882823467254639
1684200636389619700,9.43161962890625,0.31342869997024536,0.8003936409950256,0.5733811855316162
1684200636399644200,9.44164404296875,0.27292415499687195,0.7827179431915283,0.5425401329994202
1684200636409670400,9.45167041015625,0.25032296776771545,0.687731146812439,0.5024363398551941
1684200636419696400,9.4616962890625,0.250319242477417,0.5381877422332764,0.4707018733024597
1684200636429722400,9.471722412109376,0.2617975175380707,0.3784275949001312,0.46625709533691406
1684200636439748400,9.481748291015625,0.2907024025917053,0.2616080343723297,0.49361735582351685
1684200636449774300,9.4917744140625,0.319421648979187,0.20768895745277405,0.5553657412528992
1684200636459800300,9.50180029296875,0.3332700729370117,0.1869964599609375,0.6410055756568909
1684200636469826300,9.511826416015625,0.3425898551940918,0.1194053590297699,0.733588695526123
1684200636479851300,9.521851318359374,0.3438636362552643,0.01628083921968937,0.7995339035987854
1684200636489877200,9.531877197265626,0.32545897364616394,-0.07977679371833801,0.828771710395813
1684200636499903200,9.5419033203125,0.25747114419937134,-0.1494176685810089,0.8190724849700928
1684200636509929200,9.55192919921875,0.16381704807281494,-0.1955224871635437,0.8151323199272156
1684200636519955200,9.561955078125,0.09448538720607758,-0.1783171445131302,0.8516013622283936
1684200636529981200,9.571981201171875,0.0476573184132576,-0.062218077480793,0.8594528436660767
1684200636540007400,9.58200732421875,-0.006290067452937365,0.08068687468767166,0.8331312537193298
1684200636550033400,9.592033447265624,-0.08700818568468094,0.17282840609550476,0.8296102285385132
1684200636560059400,9.602059326171876,-0.16796882450580597,0.12702549993991852,0.8521459102630615
1684200636570084400,9.61208447265625,-0.2150488793849945,0.0010359900770708919,0.8854029774665833
1684200636580110300,9.6221103515625,-0.2184305638074875,-0.11849972605705261,0.906051516532898
1684200636590136300,9.63213623046875,-0.18774791061878204,-0.1790950894355774,0.8945469856262207
1684200636600162300,9.642162353515625,-0.15904861688613892,-0.19613824784755707,0.8821014761924744
1684200636610188300,9.652188232421874,-0.1589655876159668,-0.23623624444007874,0.8566270470619202
1684200636620214300,9.66221435546875,-0.18450796604156494,-0.2868557572364807,0.8373644351959229
1684200636630240300,9.672240234375,-0.23182077705860138,-0.32560837268829346,0.8107754588127136
1684200636640266200,9.682266357421875,-0.29297199845314026,-0.3384826183319092,0.7903647422790527
1684200636650291200,9.692291259765625,-0.33541834354400635,-0.3637201189994812,0.7676184773445129
1684200636660317200,9.702317138671875,-0.3500569462776184,-0.4380068778991699,0.7256680727005005
1684200636670343200,9.71234326171875,-0.32622575759887695,-0.5581060647964478,0.6665875315666199
1684200636680369200,9.722369140625,-0.2824100852012634,-0.6573293209075928,0.5874937772750854
1684200636690395400,9.7323955078125,-0.236694797873497,-0.7027060389518738,0.5001110434532166
1684200636700421400,9.74242138671875,-0.21685132384300232,-0.6835041046142578,0.42406049370765686
1684200636710447400,9.752447265625,-0.2296852320432663,-0.5554144382476807,0.3733367323875427
1684200636720473300,9.762473388671875,-0.26932451128959656,-0.3521190881729126,0.35458168387413025
1684200636730498300,9.772498291015625,-0.31830739974975586,-0.10340196639299393,0.3460608720779419
1684200636740524300,9.782524169921874,-0.37095144391059875,0.12794551253318787,0.3439175486564636
1684200636750550300,9.79255029296875,-0.4217996299266815,0.2807835042476654,0.3435700535774231
1684200636760576300,9.802576171875,-0.45086005330085754,0.2866525650024414,0.3275487422943115
1684200636770602200,9.812602294921875,-0.44640621542930603,0.15633590519428253,0.2893175482749939
1684200636780628200,9.822628173828125,-0.4191319942474365,-0.08277201652526855,0.21747370064258575
1684200636790654200,9.832654296875,-0.3765449821949005,-0.3592400848865509,0.13799799978733063
1684200636800680200,9.84268017578125,-0.3296315371990204,-0.617123007774353,0.06459569185972214
1684200636810705200,9.852705078125,-0.2820950150489807,-0.7147957682609558,0.02373177744448185
1684200636820731100,9.862731201171876,-0.2655879259109497,-0.5578261017799377,0.05242041498422623
1684200636830757000,9.872757080078125,-0.2770398259162903,-0.21623671054840088,0.10596060752868652
1684200636840783400,9.882783447265625,-0.2912304699420929,0.10311464965343475,0.17172549664974213
1684200636850809300,9.892809326171875,-0.2941862940788269,0.2876249849796295,0.2396576702594757
1684200636860835300,9.90283544921875,-0.3045201599597931,0.3030739724636078,0.29044950008392334
1684200636870861300,9.912861328125,-0.3215515613555908,0.16828973591327667,0.30575916171073914
1684200636880887300,9.92288720703125,-0.34026268124580383,-0.05580035597085953,0.3004181683063507
1684200636890913300,9.932913330078126,-0.3484930396080017,-0.3211499750614166,0.2920210361480713
1684200636900938200,9.942938232421875,-0.3459113538265228,-0.6284528970718384,0.2665084898471832
1684200636910964200,9.952964111328125,-0.33084404468536377,-0.9811728000640869,0.23776443302631378
1684200636920990200,9.962990234375,-0.3199906051158905,-1.3179481029510498,0.2150048017501831
1684200636931016200,9.97301611328125,-0.3069421052932739,-1.5089983940124512,0.17529015243053436
1684200636941042200,9.983042236328124,-0.2898286283016205,-1.4961923360824585,0.13540798425674438
1684200636951068200,9.993068115234376,-0.26445940136909485,-1.340194821357727,0.1312263309955597
1684200636961094100,10.00309423828125,-0.2443796992301941,-1.0985617637634277,0.15293189883232117
1684200636971119000,10.013119140625,-0.25116217136383057,-0.8788137435913086,0.15209177136421204
1684200636981145000,10.02314501953125,-0.27440783381462097,-0.7622394561767578,0.11441203951835632
1684200636991171300,10.03317138671875,-0.2948315143585205,-0.7255757451057434,0.059283431619405746
1684200637001197300,10.043197265625,-0.3273218274116516,-0.7718348503112793,0.0028774156235158443
1684200637011223300,10.053223388671874,-0.36539575457572937,-0.8625083565711975,-0.039562929421663284
1684200637021249300,10.063249267578126,-0.4015076756477356,-0.9669101238250732,-0.06430263072252274
1684200637031275300,10.073275146484375,-0.4219633936882019,-1.0746937990188599,-0.0920739695429802
1684200637041301200,10.08330126953125,-0.41603705286979675,-1.1649984121322632,-0.1069495901465416
1684200637051327200,10.0933271484375,-0.39048171043395996,-1.2022809982299805,-0.11545631289482117
1684200637061352200,10.103352294921875,-0.32670164108276367,-1.1234122514724731,-0.11263655126094818
1684200637071378200,10.113378173828124,-0.24261562526226044,-0.9176595211029053,-0.10069579631090164
1684200637081404200,10.123404052734376,-0.1680082380771637,-0.6165667772293091,-0.08094472438097
1684200637091430100,10.13343017578125,-0.10136550664901733,-0.21693137288093567,-0.03400012105703354
1684200637101456100,10.1434560546875,-0.07123982906341553,0.27327215671539307,0.020821580663323402
1684200637111482000,10.153482177734375,-0.07536400109529495,0.976220428943634,0.051587749272584915
1684200637121508400,10.16350830078125,-0.1314759999513626,1.9499852657318115,0.009746826253831387
1684200637131534300,10.173534423828125,-0.18920721113681793,2.4723422527313232,0.12839385867118835
1684200637141559300,10.183559326171874,-0.1340227723121643,2.26845121383667,0.3591993451118469
1684200637151585300,10.193585205078126,0.00018780515529215336,1.7786946296691895,0.5161375999450684
1684200637161611300,10.203611328125,0.1168409213423729,1.3712276220321655,0.4879469573497772
1684200637171637200,10.21363720703125,0.21004657447338104,1.055863618850708,0.34863999485969543
1684200637181663200,10.223663330078125,0.3002158999443054,0.6937144994735718,0.19204238057136536
1684200637191689200,10.233689208984375,0.34858939051628113,0.2758901119232178,0.05684275180101395
1684200637201715200,10.243715087890624,0.3786202371120453,-0.09250468760728836,-0.01540694385766983
1684200637211741200,10.2537412109375,0.4009729027748108,-0.3652864992618561,-0.017157917842268944
1684200637221766100,10.26376611328125,0.4224904477596283,-0.5283443927764893,0.03311004489660263
1684200637231792000,10.273792236328125,0.41336143016815186,-0.6156735420227051,0.094133660197258
1684200637241818000,10.283818115234375,0.3635416626930237,-0.6454935073852539,0.14513160288333893
1684200637251844000,10.293843994140625,0.27448201179504395,-0.6219170689582825,0.16597840189933777
1684200637261870000,10.3038701171875,0.18122053146362305,-0.5390714406967163,0.15703870356082916
1684200637271896300,10.313896240234374,0.11315757781267166,-0.37070825695991516,0.14883829653263092
1684200637281922300,10.32392236328125,0.0664832815527916,-0.09667006880044937,0.14489682018756866
1684200637291948300,10.3339482421875,0.04433891922235489,0.1568923145532608,0.17120251059532166
1684200637301973200,10.34397314453125,0.05548637732863426,0.337406724691391,0.21228763461112976
1684200637311999200,10.353999267578125,0.10538718104362488,0.43660005927085876,0.24375031888484955
1684200637322025200,10.364025146484375,0.1478305160999298,0.4532797038555145,0.27032068371772766
1684200637332051200,10.37405126953125,0.1793752908706665,0.4122157096862793,0.2783435881137848
1684200637342077200,10.3840771484375,0.19727519154548645,0.3201981782913208,0.2776799499988556
1684200637352103200,10.394103271484376,0.1942186802625656,0.21042044460773468,0.27381107211112976
1684200637362129200,10.404129150390625,0.1831042319536209,0.09697511047124863,0.27410054206848145
1684200637372155100,10.414155029296875,0.17989946901798248,0.013264010660350323,0.28445613384246826
1684200637382181000,10.42418115234375,0.16640974581241608,-0.04928432032465935,0.2993623912334442
1684200637392206000,10.4342060546875,0.14319631457328796,-0.0997280552983284,0.30959904193878174
1684200637402232000,10.444232177734374,0.12382180243730545,-0.12310715019702911,0.2996143102645874
1684200637412258000,10.454258056640626,0.11033684760332108,-0.10396111011505127,0.2640970051288605
1684200637422284300,10.4642841796875,0.09128911793231964,-0.04691646620631218,0.20534317195415497
1684200637432310300,10.474310302734375,0.06960612535476685,0.016179634258151054,0.13852909207344055
1684200637442336300,10.484336181640625,0.033219095319509506,0.049268610775470734,0.086333267390728
1684200637452362200,10.4943623046875,-0.003186385612934828,0.029601626098155975,0.07528839260339737
1684200637462388200,10.50438818359375,-0.02120400220155716,-0.027972986921668053,0.08318706601858139
1684200637472413200,10.5144130859375,-0.002639543730765581,-0.07893915474414825,0.10130241513252258
1684200637482439200,10.524439208984376,0.022032512351870537,-0.11213678866624832,0.11623236536979675
1684200637492465200,10.534465087890625,0.03991552069783211,-0.13698959350585938,0.12894560396671295
1684200637502491100,10.5444912109375,0.05356501787900925,-0.1544807106256485,0.1335078626871109
1684200637512517000,10.55451708984375,0.06172392889857292,-0.17322035133838654,0.12924739718437195
1684200637522543000,10.564543212890625,0.05775608494877815,-0.17855732142925262,0.10570850968360901
1684200637532569000,10.574569091796874,0.06752932816743851,-0.14770257472991943,0.06175953149795532
1684200637542595000,10.584594970703124,0.08794858306646347,-0.10616845637559891,0.01637713983654976
1684200637552620300,10.594620361328126,0.09452632069587708,-0.057763904333114624,-0.015004219487309456
1684200637562646300,10.604646240234375,0.07042684406042099,-0.02531701698899269,-0.03276670351624489
1684200637572672300,10.61467236328125,0.03931662440299988,-0.022149713709950447,-0.02548210695385933
1684200637582698200,10.6246982421875,0.007405831478536129,-0.04153699427843094,0.006643070839345455
1684200637592724200,10.63472412109375,-0.02371501363813877,-0.060761936008930206,0.05477038398385048
1684200637602750200,10.644750244140624,-0.04440511018037796,-0.0694212093949318,0.1125122457742691
1684200637612776200,10.654776123046876,-0.04790910333395004,-0.0731048583984375,0.17658646404743195
1684200637622802200,10.66480224609375,-0.041005924344062805,-0.06639661639928818,0.2256554663181305
1684200637632827400,10.674827392578125,-0.043550390750169754,-0.07914330065250397,0.2568816840648651
1684200637642853400,10.684853271484375,-0.06491214036941528,-0.11315107345581055,0.26879215240478516
1684200637652879400,10.69487939453125,-0.09655075520277023,-0.16261076927185059,0.27109044790267944
1684200637662905300,10.7049052734375,-0.11793465167284012,-0.2205328792333603,0.25032252073287964
1684200637672931000,10.71493115234375,-0.13080580532550812,-0.2609347999095917,0.2300153374671936
1684200637682957000,10.72495703125,-0.13332673907279968,-0.2696143090724945,0.18995526432991028
1684200637692983000,10.734983154296875,-0.11854545772075653,-0.2620294988155365,0.1485854536294937
1684200637703009300,10.74500927734375,-0.09410802274942398,-0.2712336480617523,0.12072772532701492
1684200637713034200,10.7550341796875,-0.07365782558917999,-0.30069926381111145,0.10679859668016434
1684200637723060500,10.765060546875,-0.06344486773014069,-0.35422080755233765,0.1073908805847168
1684200637733086500,10.77508642578125,-0.05890245735645294,-0.42432963848114014,0.1150798574090004
1684200637743112400,10.785112548828126,-0.059047602117061615,-0.4682563543319702,0.1267990916967392
1684200637753138200,10.79513818359375,-0.06283415853977203,-0.47252964973449707,0.13512158393859863
1684200637763164200,10.8051640625,-0.07665383815765381,-0.44036293029785156,0.1395978182554245
1684200637773190100,10.815190185546875,-0.09755915403366089,-0.3936944603919983,0.12907513976097107
1684200637783216000,10.825216064453125,-0.1121082752943039,-0.3166169822216034,0.10932540148496628
1684200637793241300,10.835241455078124,-0.11160790175199509,-0.22699524462223053,0.08150990307331085
1684200637803267300,10.845267333984374,-0.10123568773269653,-0.15736636519432068,0.06327684223651886
1684200637813293300,10.855293212890626,-0.09069587290287018,-0.1315353810787201,0.052920978516340256
1684200637823319300,10.8653193359375,-0.07919101417064667,-0.16047008335590363,0.0661691427230835
1684200637833345300,10.87534521484375,-0.07972681522369385,-0.24566033482551575,0.09409616887569427
1684200637843371300,10.885371337890625,-0.08314311504364014,-0.36764004826545715,0.13728012144565582
1684200637853397200,10.895397216796875,-0.0925692468881607,-0.4945162832736969,0.18527795374393463
1684200637863423200,10.90542333984375,-0.08309318870306015,-0.5708661675453186,0.2161322683095932
1684200637873448200,10.9154482421875,-0.05929315462708473,-0.560114324092865,0.21623101830482483
1684200637883474400,10.925474365234376,-0.0036733027081936598,-0.456482470035553,0.1877754032611847
1684200637893500400,10.93550048828125,0.05392806977033615,-0.2918053865432739,0.13640138506889343
1684200637903526400,10.9455263671875,0.11732781678438187,-0.10147513449192047,0.07491778582334518
1684200637913552400,10.955552490234375,0.18586847186088562,0.06934722512960434,0.013398392125964165
1684200637923578400,10.965578369140625,0.22134897112846375,0.21892046928405762,-0.03531455248594284
1684200637933604400,10.975604248046874,0.21879060566425323,0.31489133834838867,-0.0795324519276619
1684200637943630300,10.98563037109375,0.19994688034057617,0.3128226101398468,-0.11741911619901657
1684200637953656300,10.99565625,0.18586032092571259,0.15361963212490082,-0.1415010690689087
1684200637963681300,11.005681396484375,0.18204374611377716,-0.14592713117599487,-0.14596053957939148
1684200637973707300,11.015707275390625,0.18934330344200134,-0.5271372199058533,-0.1185440868139267
1684200637983733200,11.025733154296875,0.19710108637809753,-0.92120361328125,-0.08508626371622086
1684200637993759200,11.03575927734375,0.2010921984910965,-1.2665464878082275,-0.07126866281032562
1684200638003785200,11.04578515625,0.20996372401714325,-1.5430688858032227,-0.09747869521379471
1684200638013811500,11.0558115234375,0.21884073317050934,-1.7423843145370483,-0.20253539085388184
1684200638023837400,11.06583740234375,0.2027757465839386,-1.8125450611114502,-0.3869318962097168
1684200638033863400,11.075863525390625,0.18419012427330017,-1.6952277421951294,-0.647842526435852
1684200638043888400,11.085888427734375,0.1944318413734436,-1.3799430131912231,-0.9431332945823669
1684200638053914400,11.095914306640625,0.22760380804538727,-0.9722022414207458,-1.2099498510360718
1684200638063940400,11.1059404296875,0.26481136679649353,-0.603388249874115,-1.3892825841903687
1684200638073966300,11.11596630859375,0.29945608973503113,-0.35329651832580566,-1.4647496938705444
1684200638083992300,11.125992431640626,0.31825295090675354,-0.22789305448532104,-1.4354066848754883
1684200638094018300,11.136018310546875,0.34474480152130127,-0.2533007264137268,-1.3882890939712524
1684200638104044300,11.146044189453125,0.4180786907672882,-0.3278239667415619,-1.546272873878479
1684200638114070300,11.1560703125,0.5393995642662048,-0.2521214783191681,-2.1099462509155273
1684200638124095200,11.16609521484375,0.6227210760116577,-0.15810950100421906,-2.7496492862701416
1684200638134121200,11.176121337890624,0.6372414231300354,-0.3012430965900421,-3.085970878601074
1684200638144147200,11.186147216796876,0.6952253580093384,-0.29654660820961,-2.996575117111206
1684200638154173200,11.196173095703125,0.7229945063591003,-0.13552874326705933,-2.70251727104187
1684200638164199400,11.206199462890625,0.6513251066207886,-0.12468088418245316,-2.4189960956573486
1684200638174225400,11.216225341796875,0.5984510183334351,-0.20691797137260437,-2.2232491970062256
1684200638184251400,11.22625146484375,0.6158422231674194,-0.10950086265802383,-2.032169818878174
1684200638194277400,11.23627734375,0.6754215955734253,0.022008536383509636,-1.8273627758026123
1684200638204302300,11.24630224609375,0.8416297435760498,0.19922059774398804,-1.5415494441986084
1684200638214328300,11.256328369140626,1.1723709106445312,0.4664134979248047,-1.3233054876327515
1684200638224354300,11.266354248046875,1.530434012413025,0.9139372110366821,-1.2835533618927002
1684200638234380300,11.27638037109375,1.7513717412948608,1.4686543941497803,-1.2906080484390259
1684200638244406300,11.28640625,1.7862279415130615,1.9488757848739624,-1.2338474988937378
1684200638254432300,11.296432373046875,1.6775102615356445,2.1316978931427,-1.132045865058899
1684200638264458200,11.306458251953124,1.400632619857788,2.121971607208252,-1.116802453994751
1684200638274484200,11.316484130859376,1.141910433769226,2.0751681327819824,-1.0978952646255493
1684200638284509200,11.32650927734375,0.9464000463485718,2.0283122062683105,-1.0307362079620361
1684200638294535200,11.33653515625,0.8308835625648499,1.9699229001998901,-0.9423719644546509
1684200638304561200,11.34656103515625,0.7760723233222961,1.8474349975585938,-0.9023916125297546
1684200638314587400,11.35658740234375,0.7778807282447815,1.7619657516479492,-0.9229803085327148
1684200638324613400,11.36661328125,0.8490172028541565,1.722967267036438,-0.9500859379768372
1684200638334639400,11.376639404296874,0.9301677942276001,1.6516509056091309,-0.931960940361023
1684200638344665300,11.386665283203126,0.9950626492500305,1.6572346687316895,-0.8633397817611694
1684200638354691300,11.39669140625,1.029975414276123,1.625713586807251,-0.7463570237159729
1684200638364717300,11.40671728515625,1.0301117897033691,1.5548018217086792,-0.6016829013824463
1684200638374742300,11.4167421875,0.9923229813575745,1.5170131921768188,-0.4911714196205139
1684200638384768300,11.426768310546874,0.9088342189788818,1.491909384727478,-0.42519211769104004
1684200638394794200,11.436794189453124,0.8200607299804688,1.420784831047058,-0.3983578085899353
1684200638404820200,11.4468203125,0.7518553137779236,1.3807839155197144,-0.4074721932411194
1684200638414846200,11.45684619140625,0.7144086360931396,1.2828303575515747,-0.37207305431365967
1684200638424872400,11.46687255859375,0.6907299160957336,1.0834523439407349,-0.2637593746185303
1684200638434898400,11.4768984375,0.6542631387710571,0.8681568503379822,-0.15136712789535522
1684200638444924400,11.48692431640625,0.6207805871963501,0.6469610929489136,-0.0704999715089798
1684200638454949400,11.496949462890624,0.6043276786804199,0.5417174696922302,-0.003415315179154277
1684200638464975400,11.506975341796876,0.5684714317321777,0.4147283434867859,0.03386734053492546
1684200638475001300,11.51700146484375,0.5121325254440308,0.2791663706302643,0.0968153104186058
1684200638485027300,11.52702734375,0.46658211946487427,0.212836354970932,0.178402841091156
1684200638495053300,11.53705322265625,0.4439496099948883,0.2542126178741455,0.24287079274654388
1684200638505079300,11.547079345703125,0.40857669711112976,0.3008709251880646,0.3109598159790039
1684200638515105300,11.557105224609375,0.35555529594421387,0.3181442320346832,0.40331557393074036
1684200638525131300,11.56713134765625,0.2883315086364746,0.2516680061817169,0.5208587050437927
1684200638535156200,11.57715625,0.20984068512916565,0.12467925250530243,0.6263567805290222
1684200638545182200,11.58718212890625,0.13748712837696075,-0.09264933317899704,0.7317860126495361
1684200638555208200,11.597208251953125,0.07955373823642731,-0.3532160818576813,0.8150433301925659
1684200638565234200,11.607234130859375,0.020878436043858528,-0.585580587387085,0.8529395461082458
1684200638575260400,11.617260498046875,-0.03735654801130295,-0.7518344521522522,0.8571211099624634
1684200638585286400,11.627286376953125,-0.09263604879379272,-0.8468338847160339,0.8490176200866699
1684200638595312400,11.6373125,-0.12966395914554596,-0.8809508681297302,0.8439036011695862
1684200638605338400,11.64733837890625,-0.14643467962741852,-0.868029773235321,0.8440819978713989
1684200638615363300,11.65736328125,-0.15871644020080566,-0.8458399176597595,0.8651601076126099
1684200638625389300,11.667389404296875,-0.16996802389621735,-0.8310449719429016,0.9018339514732361
1684200638635415300,11.677415283203125,-0.18311399221420288,-0.8097445964813232,0.9435367584228516
1684200638645441300,11.687441162109375,-0.18661685287952423,-0.7625344395637512,0.9809754490852356
1684200638655467300,11.69746728515625,-0.19017404317855835,-0.7012324929237366,1.0130202770233154
1684200638665493200,11.7074931640625,-0.1961991786956787,-0.6396753787994385,1.0376558303833008
1684200638675519200,11.717519287109376,-0.20282480120658875,-0.5890865325927734,1.064398169517517
1684200638685545200,11.727545166015625,-0.2120891511440277,-0.5717363357543945,1.0966999530792236
1684200638695570200,11.737570068359375,-0.22698600590229034,-0.5717004537582397,1.1398061513900757
1684200638705596200,11.74759619140625,-0.25159522891044617,-0.5733292698860168,1.1759843826293945
1684200638715622100,11.7576220703125,-0.29829883575439453,-0.575060248374939,1.197985053062439
1684200638725648400,11.7676484375,-0.36629146337509155,-0.6051971316337585,1.2164779901504517
1684200638735674400,11.77767431640625,-0.43694257736206055,-0.6474570631980896,1.2280417680740356
1684200638745700400,11.787700439453126,-0.4897621273994446,-0.6725192666053772,1.2186404466629028
1684200638755726300,11.797726318359375,-0.5322679877281189,-0.6971663236618042,1.1880186796188354
1684200638765752300,11.80775244140625,-0.5727925300598145,-0.7232064008712769,1.152786135673523
1684200638775777300,11.81777734375,-0.61981600522995,-0.7430011034011841,1.128370761871338
1684200638785803300,11.82780322265625,-0.6749112606048584,-0.766394317150116,1.1172856092453003
1684200638795829200,11.837829345703126,-0.7140514254570007,-0.753873884677887,1.1168291568756104
1684200638805855200,11.847855224609376,-0.7283778786659241,-0.7066197991371155,1.0988110303878784
1684200638815881200,11.857881103515625,-0.7205776572227478,-0.644023060798645,1.056024432182312
1684200638825907200,11.8679072265625,-0.7056304216384888,-0.6242238283157349,0.9918744564056396
1684200638835933200,11.87793310546875,-0.7130522131919861,-0.6837013363838196,0.9230716228485107
1684200638845959200,11.887959228515625,-0.7411304116249084,-0.7699078917503357,0.8600484132766724
1684200638855984000,11.897984130859374,-0.7920664548873901,-0.8464915156364441,0.787319540977478
1684200638866010000,11.908010009765626,-0.8579970002174377,-0.8043891191482544,0.6546893119812012
1684200638876036400,11.918036376953125,-0.8626507520675659,-0.4688587486743927,0.41665056347846985
1684200638886062300,11.928062255859375,-0.7971993088722229,0.1890895515680313,0.12309111654758453
1684200638896088300,11.93808837890625,-0.6881842613220215,0.7442401051521301,-0.06914287805557251
1684200638906114300,11.9481142578125,-0.5684602856636047,0.7499927878379822,-0.12639445066452026
1684200638916140300,11.958140380859374,-0.5282283425331116,0.3238219618797302,-0.11174450814723969
1684200638926166300,11.968166259765624,-0.605758547782898,0.013669949024915695,-0.02006944641470909
1684200638936192300,11.978192138671876,-0.7419825792312622,-0.014701468870043755,0.11728761345148087
1684200638946217200,11.98821728515625,-0.797516942024231,0.11621154099702835,0.3156489133834839
1684200638956243200,11.9982431640625,-0.7553865909576416,0.3144761323928833,0.535556435585022
1684200638966269200,12.008269287109375,-0.6945501565933228,0.48026084899902344,0.6824777126312256
1684200638976295200,12.018295166015625,-0.6772730946540833,0.5328550934791565,0.7240414619445801
1684200638986321200,12.028321044921874,-0.7254395484924316,0.4026707112789154,0.7033151388168335
1684200638996347100,12.03834716796875,-0.8118694424629211,0.055099520832300186,0.6568056344985962
1684200639006373400,12.048373291015626,-0.8781017661094666,-0.4820467531681061,0.6261710524559021
1684200639016399400,12.0583994140625,-0.8484140634536743,-1.1746453046798706,0.6260852813720703
1684200639026424300,12.06842431640625,-0.735085129737854,-1.9804627895355225,0.6524127125740051
1684200639036450300,12.0784501953125,-0.6331640481948853,-2.6577625274658203,0.625725507736206
1684200639046476300,12.088476318359374,-0.5850156545639038,-2.87447452545166,0.5208907127380371
1684200639056502300,12.098502197265624,-0.5766393542289734,-2.6568500995635986,0.3537746071815491
1684200639066528300,12.1085283203125,-0.5716677904129028,-2.1598002910614014,0.17885899543762207
1684200639076554200,12.11855419921875,-0.5866562128067017,-1.5105748176574707,0.011701266281306744
1684200639086580200,12.128580322265625,-0.6073689460754395,-0.8447512984275818,-0.1291746199131012
1684200639096606200,12.138606201171875,-0.6426441073417664,-0.2799399793148041,-0.22906692326068878
1684200639106631200,12.148631103515624,-0.6689060926437378,0.16193516552448273,-0.29306668043136597
1684200639116657200,12.1586572265625,-0.6615954041481018,0.47593289613723755,-0.3176305294036865
1684200639126683100,12.16868310546875,-0.6214810013771057,0.677269458770752,-0.2987966537475586
1684200639136709000,12.178709228515626,-0.515920102596283,0.8207188844680786,-0.22762270271778107
1684200639146735000,12.188735107421875,-0.39872977137565613,0.8845404386520386,-0.10905183106660843
1684200639156761300,12.19876123046875,-0.28835469484329224,0.9748602509498596,0.018006565049290657
1684200639166786300,12.208786376953125,-0.16425669193267822,1.2355765104293823,0.13040022552013397
1684200639176812300,12.218812255859374,-0.0876864343881607,1.6469447612762451,0.21329361200332642
1684200639186838300,12.22883837890625,-0.029489442706108093,1.8235284090042114,0.3350517153739929
1684200639196864300,12.2388642578125,0.03879018500447273,1.5687832832336426,0.47935688495635986
1684200639206890200,12.24889013671875,0.15398681163787842,1.0377742052078247,0.5665745735168457
1684200639216916200,12.258916259765625,0.2890649139881134,0.5969308614730835,0.5072163343429565
1684200639226942200,12.268942138671875,0.37042075395584106,0.32494673132896423,0.3244686424732208
1684200639236968200,12.27896826171875,0.3807964622974396,0.1728057563304901,0.11694411933422089
1684200639246994200,12.288994140625,0.31876876950263977,0.14347876608371735,-0.03165494278073311
1684200639257019400,12.299019287109376,0.26029348373413086,0.19833242893218994,-0.09069482237100601
1684200639267045400,12.30904541015625,0.27141910791397095,0.30711111426353455,-0.08791075646877289
1684200639277071400,12.3190712890625,0.2891235053539276,0.3923055827617645,-0.03780849650502205
1684200639287097000,12.32909716796875,0.3033096492290497,0.4454308748245239,0.04233187809586525
1684200639297123000,12.339123046875,0.3181605339050293,0.48118433356285095,0.13076597452163696
1684200639307149300,12.3491494140625,0.3261015713214874,0.5024528503417969,0.20277971029281616
1684200639317175300,12.35917529296875,0.3108966052532196,0.4788441061973572,0.2555215358734131
1684200639327201300,12.369201171875,0.30001360177993774,0.3925352990627289,0.29667404294013977
1684200639337226500,12.3792265625,0.2895703911781311,0.25353938341140747,0.3215074837207794
1684200639347252500,12.38925244140625,0.27516400814056396,0.10622316598892212,0.3391149640083313
1684200639357278500,12.399278564453125,0.2561801075935364,-0.014533265493810177,0.35436519980430603
1684200639367304400,12.409304443359375,0.22426612675189972,-0.045006752014160156,0.37327495217323303
1684200639377330200,12.419330078125,0.16813459992408752,0.04147205129265785,0.4076608717441559
1684200639387356200,12.429356201171874,0.12007731944322586,0.2208295613527298,0.4588393568992615
1684200639397382100,12.439382080078126,0.09514863044023514,0.36706969141960144,0.5297470688819885
1684200639407409200,12.4494091796875,0.06776014715433121,0.43195948004722595,0.5970818996429443
1684200639417434000,12.45943408203125,0.03940071910619736,0.41127678751945496,0.6404094696044922
1684200639427460000,12.469460205078125,0.007922157645225525,0.35604071617126465,0.6246089339256287
1684200639437486000,12.479486083984375,-0.010975020006299019,0.3060542345046997,0.5180211067199707
1684200639447512000,12.489511962890624,-0.01356867328286171,0.2723258137702942,0.358355849981308
