time,seconds_elapsed,z,y,x
1684253236006542300,0.011542236328125,-2.418364626032114,0.9884574220549315,1.7265720098026096
1684253236016568300,0.021568359375,-1.6509844155073166,1.8184082897178828,1.8369380720123647
1684253236026594300,0.03159423828125,-1.105140923783183,2.512474988359213,2.041517518532276
1684253236036619500,0.04161962890625,-1.782075139707327,1.9394826468162238,-0.026552491360902784
1684253236046645500,0.0516455078125,-0.9680980131804943,0.8056754543885588,-3.5142388320371505
1684253236056671500,0.06167138671875,5.16129263009727,0.746022949719429,-1.9478310807056725
1684253236066696400,0.071696533203125,6.521801230612397,0.7628133410006761,2.0850195372588933
1684253236076722400,0.081722412109375,2.192849651250243,0.4127303217858076,1.3114962939344346
1684253236086748400,0.09174853515625,-0.8741893109053372,0.3456137648463249,-0.7673011539392173
1684253236096773400,0.1017734375,-1.5053075320720672,0.46838031281530856,-1.6637480354905128
1684253236106799400,0.11179931640625,0.36115269476175305,1.024289271479845,-1.5894748847946523
1684253236116825300,0.121825439453125,2.412267478200793,1.2316846522033214,-2.2527030853189527
1684253236126850300,0.131850341796875,2.597649764558673,1.1793246426299213,-3.484626953105628
1684253236136876300,0.141876220703125,1.501231076413393,1.2760101161420345,-3.91089918577075
1684253236146902300,0.15190234375,0.7963888628661632,1.265356327919662,-2.7873005220159888
1684253236156927200,0.16192724609375,0.7558575305134058,1.1862173247531056,-1.1980886720716952
1684253236166953200,0.171953125,1.3605764050543308,1.1724421896398067,-0.5906242982149124
1684253236176979200,0.181979248046875,2.6253064177691936,1.4305948209151624,-0.9172612676516174
1684253236187005200,0.192005126953125,3.0816935104519128,1.1719780792593955,-1.2364812388300894
1684253236197030400,0.202030517578125,2.9266987635731696,0.46279812876880166,-1.2411834251716731
1684253236207056400,0.212056396484375,2.6867811694294215,0.06322364115417003,-1.035031614768505
1684253236217082400,0.222082275390625,2.498335988369584,-0.029530045866966247,-0.7860597765535116
1684253236227107300,0.232107421875,1.7643559431433677,0.1113970126926899,-0.7921598469942808
1684253236237133300,0.24213330078125,-0.19205168111920357,0.9219324743330478,0.17510668379813432
1684253236247159300,0.2521591796875,-0.17642273483276366,1.7991066462680696,1.7848887358233332
1684253236257184300,0.262184326171875,-1.2395265978753567,2.1789961902037263,2.8733655250534413
1684253236267210200,0.272210205078125,-1.6280132897645234,2.4436399370640514,2.911307425434887
1684253236277236500,0.282236572265625,-1.2364631186515092,2.206552013388276,2.177464158330858
1684253236287261200,0.29226123046875,-0.3480786936551332,2.4967764839679,2.800301457886398
1684253236297287400,0.302287353515625,0.18060674251914025,2.990101852947473,3.8410368372544643
1684253236307313400,0.3123134765625,0.9286515534549951,3.9498865035519,3.6745325621068474
1684253236317338400,0.32233837890625,1.9520114351302384,4.105217935039103,3.4263168029561637
1684253236327364400,0.3323642578125,2.7407974217772484,3.6609047265097496,2.994899900878966
1684253236337390300,0.342390380859375,2.3640040902912616,2.8873788528367874,1.476569805626571
1684253236347416300,0.352416259765625,2.0985522419184446,2.4608625822827217,0.2995353197604418
1684253236357441500,0.362441650390625,3.636740883851051,3.618909751345217,0.7610860788166522
1684253236367467500,0.372467529296875,5.705977599436045,4.59418014037311,-1.592394279372692
1684253236377493500,0.382493408203125,7.017258350923657,4.151785040424764,-9.488145775875449
1684253236387518500,0.3925185546875,7.780409545576572,7.689421699184179,-7.854384297847747
1684253236397544400,0.40254443359375,7.53451112345755,10.640484504163265,-6.0164884867191315
1684253236407570400,0.4125703125,5.627624778211117,10.584871922534704,-5.1901247568279505
1684253236417595400,0.422595458984375,3.8913676790878173,9.323789326411486,-3.702667354223132
1684253236427621400,0.432621337890625,3.23191534384042,8.184682420140504,-2.935428013473749
1684253236437647400,0.4426474609375,4.1503094149142505,8.127220411252974,-3.757060623189807
1684253236447672300,0.45267236328125,5.18671173351407,8.57880448756814,-4.5606554719120265
1684253236457698300,0.4626982421875,5.102790172246098,8.329232345372438,-4.879841833081842
1684253236467724300,0.472724365234375,4.716980590611696,7.838136927402019,-4.656772497886419
1684253236477749200,0.482749267578125,3.679378248572349,7.721659834966063,-4.030543802326918
1684253236487775200,0.492775146484375,2.028652776262164,7.990855546042322,-1.7504028211146592
1684253236497801200,0.50280126953125,-0.877470232272148,8.116248350861667,1.7722727076172828
1684253236507827200,0.5128271484375,-3.8515386497855184,7.311720605203509,5.890654952394962
1684253236517852400,0.522852294921875,-5.236479096245765,5.749063876968622,9.489878883278369
1684253236527878400,0.53287841796875,-5.0610605700194835,4.444606249499321,12.381398781442641
1684253236537904400,0.542904296875,-3.3717361947238444,3.309815160600841,14.321906241261958
1684253236547929300,0.552929443359375,-0.5534663147527724,1.3889564041033386,15.42667599364519
1684253236557955300,0.562955322265625,2.1491654078245164,-1.5004554158657788,16.994760007625818
1684253236567981300,0.572981201171875,3.732192139393091,-4.330011317548156,18.479236348593233
1684253236578006300,0.58300634765625,5.075588277065753,-6.178418001297116,19.949477243459224
1684253236588032300,0.5930322265625,4.577352339690924,-7.056980704981088,21.045722328603265
1684253236598058500,0.60305859375,2.135563583451509,-7.794685908210277,21.38926922404766
1684253236608083200,0.613083251953125,0.49449149014949795,-8.670942673039436,20.467894383597372
1684253236618109400,0.623109375,0.18047522509396074,-8.923651359695196,18.884017757201192
1684253236628135400,0.633135498046875,0.8514127578865737,-8.865657435888052,16.433151376014948
1684253236638160400,0.643160400390625,2.275768172955513,-8.868840157577395,13.334052557253838
1684253236648186400,0.653186279296875,3.568604920735955,-8.706158947849273,9.850779064583778
1684253236658212400,0.66321240234375,4.087894752055407,-8.5179312089324,7.144944235116243
1684253236668238300,0.67323828125,3.9411879410505293,-8.186974330469965,4.691599481117725
1684253236678263600,0.683263671875,3.452974215996265,-7.6778575181186195,2.5559189932882784
1684253236688289300,0.693289306640625,2.7273633551865815,-7.118142737430333,1.1911287699311972
1684253236698315300,0.703315185546875,2.0072773952782152,-6.47830344966948,0.056710898259282105
1684253236708340500,0.713340576171875,0.7422884393662214,-5.279761773133278,-1.2116045717269182
1684253236718366500,0.723366455078125,-0.24452421115636824,-3.4844381525352595,-2.663538825529814
1684253236728392400,0.733392333984375,-0.5427777109453454,-2.2019693617731333,-2.78527486140728
1684253236738417400,0.74341748046875,-0.6287269421160221,-1.6026678361058235,-2.9222634114742276
1684253236748443400,0.753443359375,1.410548934969306,-1.6925144035086035,-3.584006488007307
1684253236758469400,0.763469482421875,2.649000597089529,-1.4783002826809881,-4.685871751120686
1684253236768494300,0.773494384765625,5.590315330514311,-0.48991643731892104,-4.767967266005277
1684253236778520300,0.783520263671875,8.067061418366432,0.13575579340159893,-5.316116696584224
1684253236788546300,0.79354638671875,6.213409235179424,0.9712836574792861,-5.71676611995399
1684253236798571300,0.8035712890625,2.6822937948822974,2.30146463200897,-5.631189192694425
1684253236808597200,0.81359716796875,-1.2388251716077328,4.438538912284374,-6.711576783493161
1684253236818623200,0.823623291015625,-3.655341539424658,6.696931587547064,-6.1769005824714895
1684253236828648400,0.8336484375,-4.548191711658239,6.625640959793329,-5.565111331152916
1684253236838674400,0.84367431640625,-4.294000677490234,5.117707755392789,-6.149747202607989
1684253236848700200,0.8537001953125,-2.1464462119936942,3.7942759628623723,-7.3802236480653285
1684253236858726100,0.86372607421875,0.9813152221500873,4.578526059645414,-6.605705256223678
1684253236868751400,0.87375146484375,3.4233576608896255,5.716081060299277,-5.417056612670422
1684253236878777300,0.88377734375,4.184213438081741,6.22460633649826,-3.7385476458996534
1684253236888803300,0.89380322265625,3.455494674384594,6.448660591077804,-1.975184805446863
1684253236898828300,0.903828369140625,1.8018483461916446,6.9426493924021715,-1.6955676535993813
1684253236908854300,0.913854248046875,1.3440215760946272,6.72127633973062,-2.534559978917241
1684253236918880500,0.923880615234375,0.9744587803840636,5.87890781597793,-1.8207237270534038
1684253236928905200,0.9339052734375,-0.7579273955900222,4.62734006717503,0.7898124070852994
1684253236938931500,0.943931396484375,-2.320038837967068,2.1477906123399735,1.3022808679521083
1684253236948957400,0.95395751953125,-2.4355156673192977,1.1905670443952083,1.831959991338849
1684253236958982400,0.963982421875,-2.708266440528631,-0.007575403690338134,1.7663830650568006
1684253236969007600,0.974007568359375,-2.9052433030903337,-0.46714814067184923,1.3748036678493023
1684253236979033600,0.98403369140625,-3.0896836324229833,-0.5250187303602695,0.8960019142627715
1684253236989059600,0.9940595703125,-2.9719173769593237,-0.18107786716222762,1.5456933184742927
1684253236999084800,1.004084716796875,-2.615962250840664,2.696289002487063,4.0796936176821585
1684253237009110800,1.01411083984375,-2.5107670153975485,6.008941724601388,6.785631615263223
1684253237019136800,1.02413671875,-1.6520681190907953,6.092347153040766,7.06432405348122
1684253237029161700,1.03416162109375,-1.0879518885731696,4.631639225673675,5.959059795579314
1684253237039187700,1.044187744140625,-0.4270038348753005,2.558215579792857,4.1591681364133954
1684253237049213700,1.054213623046875,0.0709714788019657,0.6312234351068735,2.459573419255018
1684253237059238700,1.06423876953125,0.5262496969273314,-0.4792097498655319,1.2467740847855806
1684253237069264600,1.0742646484375,0.995510336241126,-1.3580723132789134,0.40705286067128177
1684253237079290600,1.08429052734375,1.5505074407577513,-1.8382009315550327,0.3466898696452379
1684253237089315600,1.094315673828125,1.9525386738747357,-2.402118424630165,0.8778539708927273
1684253237099341600,1.104341552734375,1.9479227045118808,-3.0538258448392153,1.2483145922258496
1684253237109367800,1.114367919921875,2.382310146832466,-2.896626281392574,1.1592283416710794
1684253237119392500,1.124392578125,3.3968829109400507,-2.0676772111833093,1.0552418244305997
1684253237129418800,1.134418701171875,4.504006240712106,0.3733908295661211,1.2812570768848062
1684253237139444700,1.14444482421875,5.53401359757781,1.4103274011731146,0.7238616790547967
1684253237149470700,1.154470703125,3.8971757808446883,-1.6560294239372013,0.5237286905497313
1684253237159496000,1.164495849609375,3.134546564239263,-2.338577972611785,0.25673092790916563
1684253237169522000,1.17452197265625,2.9507763892531393,-2.5106384205818175,0.6876419262908399
1684253237179548000,1.1845478515625,2.2779317807301878,-3.4768045889168975,1.3590487570956349
1684253237189572900,1.19457275390625,1.7090953898228705,-2.507584878230095,1.4795609502665699
1684253237199598800,1.204598876953125,1.4136077380180359,-1.6789280689656734,1.5530346211478112
1684253237209624800,1.214624755859375,0.9596743220977485,-0.851634364748001,1.8264438582658766
1684253237219649800,1.22464990234375,0.4342489836979657,0.0004465747237205505,1.869349518534541
1684253237229675800,1.23467578125,0.3733692387888208,0.5095458514183759,1.6418492151543498
1684253237239701800,1.24470166015625,0.8244394838303327,1.3957079241901635,0.8378601064175367
1684253237249726700,1.254726806640625,0.7511164734661578,2.7438831128329038,-0.4283633597254753
1684253237259752700,1.264752685546875,-0.026211130577325818,4.3630911648511885,-1.0968076874628663
1684253237269778700,1.27477880859375,-1.1138999843001365,4.664343225401639,-0.36731472452282904
1684253237279803600,1.2848037109375,-2.228356579569727,3.319426746293902,1.7666016762435435
1684253237289829600,1.29482958984375,-3.7020100593581793,4.225169717848301,2.0824510019451377
1684253237299855600,1.304855712890625,-4.976204358249903,5.421062341180443,1.8438859914541244
1684253237309881600,1.314881591796875,-4.6545922312378885,5.849463694828748,1.4829700280576943
1684253237319906800,1.32490673828125,-4.4371503805354235,5.7672091899901625,0.6455822153270244
1684253237329932800,1.334932861328125,-3.8215588143244386,5.289153870856762,0.11924597262740134
1684253237339958800,1.344958740234375,-3.8702015569403767,3.7086803309023377,0.6544400600433349
1684253237349983700,1.354983642578125,-2.579949272695184,1.9876146634310483,0.9412988535821437
1684253237360009700,1.365009765625,-0.7346119133889675,0.8341863863408565,0.8244728015780448
1684253237370035700,1.37503564453125,-0.007380319509655237,-0.4202198007583618,1.0086334371864796
1684253237380060700,1.385060791015625,0.06705868927240372,-1.5149766931712627,1.6365192523032426
1684253237390086700,1.395086669921875,0.45885194842629135,-1.6117741026252508,1.2352116572856902
1684253237400112600,1.405112548828125,0.2626630944371223,-2.4566776978135105,2.2856506845444438
1684253237410137600,1.4151376953125,0.6211211432874202,-1.748855591672659,1.555159650477767
1684253237420163600,1.42516357421875,0.670072513461113,-2.1311247242212294,2.059400965747237
1684253237430189800,1.43518994140625,0.48576808546781536,-2.474517890408635,3.0161084008634087
1684253237440215800,1.4452158203125,0.7238812605381012,-0.9851444250494241,1.3138520632803439
1684253237450240800,1.45524072265625,0.8714426425457,0.011562427499890327,0.6393348453700542
1684253237460266800,1.465266845703125,3.070105948510766,0.8299994560450314,1.3393459854990244
1684253237470292700,1.475292724609375,6.327482189083099,2.79471138279438,0.6128308693259954
1684253237480318000,1.48531787109375,12.654776162117718,5.122307942664623,-0.008444587740302085
1684253237490344000,1.495343994140625,14.802653283697365,5.606608878189325,0.1770738922178745
1684253237500369700,1.50536962890625,9.192879219475389,3.954723129928112,0.40249768158495425
1684253237510395000,1.515394775390625,6.34165392229855,2.8161732730180025,-0.0056529111951589585
1684253237520420900,1.5254208984375,6.270567292684317,2.1030285105496644,-0.4222936844229698
1684253237530446800,1.53544677734375,5.674661254674196,0.9246674522548913,-0.6123258424133062
1684253237540471800,1.545471923828125,4.095518086540698,-0.6514753650188446,-0.604875526407361
1684253237550497800,1.555497802734375,2.6284154897004366,-1.9368343242645263,-0.4887020930930972
1684253237560523800,1.565523681640625,1.1252408780038357,-2.34882581038177,-0.44499797592312096
1684253237570548700,1.575548828125,-0.13499299233555792,-1.6818372344106436,-0.621390023356676
1684253237580574700,1.58557470703125,-0.9596282909989357,-0.18406009784340857,-0.7288724929541349
1684253237590600700,1.5956005859375,-2.1885002238690854,1.4412684828817843,-1.3928139563143251
1684253237600626700,1.605626708984375,3.3499802899897095,4.674321598580479,-3.021388094832003
1684253237610651600,1.615651611328125,15.454015251469611,10.499354031985998,-5.391774287375807
1684253237620677600,1.625677734375,11.213915675514937,12.656516868305205,-5.808738301208615
1684253237630703600,1.63570361328125,5.510040601316094,11.939667406100034,-4.108239620947837
1684253237640728800,1.645728759765625,0.6223825415253639,10.039275683569908,-2.5073241814672946
1684253237650754800,1.6557548828125,-4.428169786222279,7.685727520841359,-0.46963878844380375
1684253237660780500,1.665780517578125,-9.121365888881682,6.1530608572006225,1.8847762202471494
1684253237670805800,1.6758056640625,-12.316306423807143,5.649157395583391,3.5832299506768583
1684253237680831700,1.685831787109375,-13.785808483004569,5.195703433743119,5.34557426173687
1684253237690857700,1.695857666015625,-14.704896673822402,5.157437123712897,8.137700304213165
1684253237700882700,1.705882568359375,-15.827122587919234,5.250174444121122,11.819591412389277
1684253237710908700,1.71590869140625,-15.451308915120363,5.35749207854569,14.899351908951997
1684253237720934700,1.7259345703125,-10.099092146629095,5.152310282218456,16.18483478683829
1684253237730959600,1.735959716796875,-4.924618547919392,4.761332358035445,15.062335316497087
1684253237740985600,1.745985595703125,-4.348682700270414,4.24425085041523,11.220987221336364
1684253237751011800,1.75601171875,-4.909903209346533,3.3876147318571803,5.654620921686291
1684253237761037800,1.766037841796875,-1.855583735771477,3.059553574836254,0.04698087381832301
1684253237771062800,1.776062744140625,4.578092052142321,3.7759576313614844,-3.934833895848691
1684253237781088800,1.7860888671875,6.195488378563523,4.326183868214488,-6.084066815951466
1684253237791114800,1.79611474609375,3.6711572404548525,2.729482831558585,-7.710548073843121
1684253237801139700,1.8061396484375,1.6756708207353948,1.2848048324942587,-6.870965381416678
1684253237811165700,1.816165771484375,-1.7348565846756099,0.5112146614134312,-5.044206465852261
1684253237821191700,1.826191650390625,-4.225053105731308,-0.4189472966045141,-4.223588878397643
1684253237831217000,1.836216796875,-5.404277210596203,-2.142865430897474,-3.6675095316022635
1684253237841243000,1.846242919921875,-3.992752416332066,-4.168346006864309,-3.689161099179089
1684253237851268900,1.856268798828125,-0.6952958020448684,-5.282409072771668,-4.920270874103903
1684253237861293800,1.8662939453125,2.833663629262149,-4.440663649353385,-6.736237177497148
1684253237871319800,1.87631982421875,3.8790155625149607,-1.4951730915486812,-6.238393454310297
1684253237881345800,1.886345703125,2.7368209193617106,1.0846809040784835,-3.496445693454146
1684253237891371800,1.896371826171875,0.4388996590480208,1.7192162402123212,-2.4069775550991297
1684253237901396700,1.906396728515625,-0.7341326054394245,0.8581389243364334,-2.0836621313005685
1684253237911422700,1.916422607421875,-0.7336804777577519,-0.8173223453015088,-2.3278660244613882
1684253237921448700,1.92644873046875,-0.6231149474531412,-2.197385541114211,-2.7959938238203526
1684253237931473700,1.9364736328125,-0.9837991479203104,-2.9193039771467446,-2.907011189545691
1684253237941499600,1.946499755859375,-1.5075649556100368,-3.5470419082254168,-2.645907891771197
1684253237951525600,1.956525634765625,-1.65297354349792,-4.286608813673258,-2.5189567515939473
1684253237961550600,1.966550537109375,-2.154569312694669,-4.882569212219119,-2.257947561843693
1684253237971577600,1.97657763671875,-3.543507596619427,-5.09747102304995,-1.3259458211779593
1684253237981603600,1.986603515625,-4.289355482032895,-5.080895151302218,-0.2741363823488355
1684253237991628300,1.996628173828125,-4.151543925145268,-5.193688002267479,0.4902179775487631
1684253238001654500,2.006654541015625,-3.763476335451007,-5.544020612329244,0.8297906355999409
1684253238011680500,2.016680419921875,-3.523348897948861,-6.060183836060762,0.7015246134318411
1684253238021705700,2.026705810546875,-3.343645534010231,-6.518719046688079,0.3932474765501916
1684253238031731700,2.036731689453125,-3.2733813266947864,-6.752585670229792,0.18870529330074787
1684253238041757700,2.0467578125,-3.199410666076839,-6.732510265928506,-0.15901348100081086
1684253238051783700,2.05678369140625,-2.454929100580513,-6.629597003942727,-0.6232134393915534
1684253238061808600,2.06680859375,-1.2466449054479598,-6.466808826708793,-0.6058119304746389
1684253238071834600,2.076834716796875,-0.456322210752964,-6.321085766044258,0.6470642705783247
1684253238081860600,2.086860595703125,1.7863854041218756,-5.494128746435046,3.354612625965476
1684253238091885600,2.096885498046875,19.625294389176368,3.7637826249212023,12.962897523915768
1684253238101911600,2.10691162109375,21.887789239060876,24.95048052740097,18.09187836847305
1684253238111937500,2.1169375,-15.366542719721794,33.947944142282005,3.0977500345006583
1684253238121962500,2.12696240234375,-21.095018566691873,29.06885809600353,-13.118330077689885
1684253238131988500,2.136988525390625,1.0869595896001905,23.294088115370272,-15.894353126627205
1684253238142014500,2.147014404296875,33.45663478929996,8.47747527990341,-9.76990753853619
1684253238152039400,2.157039306640625,13.368821088296174,-3.018727058929205,-2.714048531061411
1684253238162065400,2.1670654296875,-7.131365791618824,-4.1766146535158155,-2.0208450251206753
1684253238172091400,2.17709130859375,-6.848643659493327,-3.7660675209879875,-2.3683286754921076
1684253238182117400,2.187117431640625,-1.5935066245287657,-5.248038016614317,-2.9687203344836828
1684253238192142600,2.197142578125,4.020739032149315,-6.214985690715909,-5.0580502822875975
1684253238202168600,2.20716845703125,0.7042603220060467,-5.048970319253206,-4.257681994396448
1684253238212194600,2.217194580078125,-2.763615987306833,-4.201477292093634,-2.3120880250930784
1684253238222219500,2.227219482421875,-4.752303248405457,-3.7200796767950055,-1.0411939367905259
1684253238232245500,2.23724560546875,-5.53175675856173,-3.3582980364799497,-0.5226259900048374
1684253238242271500,2.247271484375,-5.150697586324811,-2.9166034860163927,-0.6906912308588623
1684253238252296400,2.25729638671875,-4.435585907697678,-2.496915015655756,-1.2772750215113162
1684253238262322400,2.267322509765625,-3.9089384070917963,-2.168486778888106,-1.919042646986246
1684253238272348700,2.2773486328125,-3.387686628049612,-1.759306843060255,-2.3157325190752744
1684253238282373400,2.287373291015625,-2.8372750977575776,-1.4437895257920026,-2.1237378288403153
1684253238292399600,2.297399658203125,-2.407789456003904,-1.121288340985775,-1.7374553689971566
1684253238302425600,2.307425537109375,-2.0896644404552878,-0.6701765583574771,-1.5041536858618259
1684253238312450300,2.3174501953125,-1.820420944714546,-0.027995675906538963,-1.4309578090086579
1684253238322476500,2.3274765625,-1.5687316642343998,0.835863964164257,-1.396977213473618
1684253238332502500,2.33750244140625,-1.0709434706270695,1.801655453968048,-1.2355819519028066
1684253238342528500,2.347528564453125,-0.4204547785580158,2.5277351013332603,-0.8218950600445271
1684253238352553700,2.3575537109375,0.23995909519791603,2.948739914989471,-0.2850520363777876
1684253238362579700,2.367579833984375,0.6978373032212257,3.084035105141997,0.2922621138870716
1684253238372605400,2.37760546875,1.010743561208248,2.7716794667750597,0.7644184381097555
1684253238382630700,2.387630615234375,1.1164292105168103,2.1683540924191473,1.2335305723309515
1684253238392656600,2.39765673828125,1.1060691445440054,1.2534832270354033,1.7538965084493159
1684253238402682600,2.4076826171875,1.0913122318517416,0.04663081827163696,2.226125313386321
1684253238412707600,2.41770751953125,1.077400610877201,-1.2198983528196812,2.5728309651225802
1684253238422733600,2.427733642578125,1.1331571310210973,-2.2015198644399643,2.7648756319791077
1684253238432759600,2.437759521484375,1.2274532982438802,-2.7084651779711244,2.648162977221608
1684253238442784500,2.447784423828125,1.2685533703953027,-2.6696897493749856,2.0700006856948137
1684253238452810500,2.457810546875,1.2753252026177941,-2.109597952067852,1.1736278922930359
1684253238462836500,2.46783642578125,1.1883581361740827,-1.3315741824537515,0.24655776281058786
1684253238472862500,2.477862548828125,0.9379355146288871,-0.4100041116923094,-0.4858581018388271
1684253238482887400,2.487887451171875,0.5818173799682408,0.37543139548301696,-0.9147373021319508
1684253238492913400,2.497913330078125,0.195639549543336,0.843016174006462,-0.892671893057227
1684253238502939400,2.507939453125,-0.19806991849541664,1.002446272984147,-0.6548422111034393
1684253238512964600,2.517964599609375,-0.5751759691923857,0.9659627547174692,-0.464421930578351
1684253238522990600,2.527990478515625,-0.8322913663744926,0.8857166670918464,-0.3641793491065502
1684253238533016300,2.538016357421875,-1.1249813502848147,0.8524164550364017,-0.3298608999192714
1684253238543041500,2.54804150390625,-1.4111948316574097,0.7922896108537912,-0.2459422612607479
1684253238553067500,2.558067626953125,-1.4760481198400257,0.6797165401190519,-0.14638123231232164
1684253238563093500,2.568093505859375,-1.2520949875473975,0.5245101963162422,-0.025622224773466585
1684253238573118500,2.578118408203125,-0.7553355524659157,0.3769149120390415,0.18273615576326846
1684253238583144400,2.58814453125,-0.1557482686597854,0.20833938357532023,0.4267950874954462
1684253238593170700,2.598170654296875,0.3633084845561534,-0.043027825343608855,0.7385787711933255
1684253238603196700,2.60819677734375,0.7523164969056845,-0.387357980120182,1.0646247889995575
1684253238613221600,2.6182216796875,1.029050786793232,-0.7912649439811706,1.310727793779969
1684253238623247600,2.62824755859375,1.255419163534045,-1.2148317170798777,1.4499863346055148
1684253238633273600,2.638273681640625,1.456626357141882,-1.593175785139203,1.487608793774247
1684253238643298600,2.648298583984375,1.7065164792455731,-1.7976234219729899,1.380350488321483
1684253238653324500,2.658324462890625,2.0420506024956704,-1.8044056294590234,1.1179898839622735
1684253238663350500,2.6683505859375,2.5250451315969227,-1.6068530128359795,0.8548030579119921
1684253238673375500,2.67837548828125,3.1111253566414114,-1.3668635224997996,0.7067416174277663
1684253238683401500,2.6884013671875,3.79590268728137,-1.2505904282033442,0.6978624376624822
1684253238693427500,2.698427490234375,4.576013784563541,-1.3021394136548041,0.9346493325650691
1684253238703452700,2.70845263671875,5.343425559270382,-1.4544804311543702,1.4733657488882541
1684253238713478700,2.718478759765625,5.99612491312623,-1.5633680913746355,2.253556341147423
1684253238723504600,2.728504638671875,6.466419535130262,-1.6051678362280128,3.0142344236850738
1684253238733529600,2.738529541015625,6.530832093808055,-1.585633699196577,3.585857084310055
1684253238743555600,2.7485556640625,5.905348663657903,-1.341735510984063,3.6921208257675167
1684253238753581600,2.75858154296875,4.959382987308502,-1.1432546736001967,3.4358366187125444
1684253238763607600,2.768607666015625,4.104403988307714,-1.1226257270693778,2.9718302831977605
1684253238773632500,2.778632568359375,3.42704190236032,-1.0394657978236674,2.4988220183208583
1684253238783658500,2.788658447265625,3.0779242210462687,-0.5020388367891311,1.9493050987809895
1684253238793684500,2.7986845703125,3.0384347989618776,0.17173019310235976,1.4151052830994129
1684253238803709400,2.80870947265625,2.559066059142351,1.0568296050786972,1.1701087782561779
1684253238813735400,2.8187353515625,1.7655384309262037,2.7375802132964133,1.172827681826055
1684253238823761400,2.828761474609375,1.319149731297046,5.669827258646488,1.281917586620152
1684253238833786400,2.838786376953125,0.9590383622817694,9.551810146534443,0.14400895022302865
1684253238843812400,2.848812255859375,0.7960602154336869,13.310599200952053,-2.859180640095472
1684253238853838300,2.85883837890625,0.17761749757528303,15.535914951521157,-6.357095237058401
1684253238863863600,2.868863525390625,-1.703097464582324,15.220524475502966,-9.167489926674962
1684253238873889500,2.8788896484375,-2.6884423806399105,12.294563378554582,-10.354945561051368
1684253238883915500,2.88891552734375,-0.8450374507009982,7.808726708522438,-9.448312362658976
1684253238893941800,2.898941650390625,3.4029525862425563,3.2135008584886786,-8.065655058699846
1684253238903966500,2.908966552734375,9.404996952545643,-1.3230623746961354,-6.963342051818967
1684253238913992700,2.91899267578125,4.514576442304254,-2.921062218990922,-4.701434938694536
1684253238924018700,2.929018798828125,-0.6483668776094913,-2.9963883858710525,-2.347788284027576
1684253238934043600,2.939043701171875,-1.9058043952286243,-3.20710209736228,-2.5675533169806
1684253238944069600,2.949069580078125,-2.331193707579374,-3.7582057015717028,-4.2990696513175966
1684253238954095600,2.959095703125,-1.5062287385702133,-3.9001965899705886,-6.548771655124425
1684253238964119800,2.969119873046875,-1.3349836986362933,-3.422116720917821,-8.975309066218138
1684253238974146000,2.97914599609375,-2.2552853568971156,-3.006572510755062,-9.970456414365767
1684253238984172000,2.989172119140625,-3.0599346831083296,-2.918769139617681,-9.854946705657243
1684253238994197200,2.999197265625,-1.5022259326696394,-2.8052590802937742,-9.009737405520678
1684253239004223200,3.00922314453125,2.9997125618577,-2.299790853577852,-7.696773815512657
1684253239014249000,3.0192490234375,2.8592881921231745,-2.227605907332897,-6.854502322393655
1684253239024275000,3.02927490234375,-0.286673792360723,-2.306162142175436,-6.059531509631872
1684253239034300200,3.039300048828125,-1.1023664906337856,-1.796959405106306,-5.490509971415996
1684253239044326100,3.049326171875,-1.6493080067276953,-1.1330904224604368,-4.228738808506727
1684253239054352100,3.05935205078125,-1.1617696967169642,-0.13126841885447502,-2.360640166816115
1684253239064377000,3.069377197265625,-1.288543726761639,1.3292086223661899,-0.7027876191049813
1684253239074403000,3.079403076171875,-2.4557561990544197,2.7287188614487645,0.5557414931431413
1684253239084429000,3.089428955078125,-3.643432782705128,4.054698000374436,1.4568392692402004
1684253239094454000,3.0994541015625,-3.8628105699062347,5.1158267639517785,2.409542437151074
1684253239104480000,3.10947998046875,-4.4243952361196275,5.332291001793742,3.8533231951147315
1684253239114506000,3.119506103515625,-5.804758291661739,4.622351172846556,5.21233658863604
1684253239124531000,3.129531005859375,-6.983598073384165,3.2542852888196703,6.443496924704313
1684253239134557000,3.139556884765625,-7.230307227364182,1.4420564183890818,7.5430106562554835
1684253239144583000,3.1495830078125,-6.646688423997164,-0.378417133295536,8.185558033931255
1684253239154608000,3.159608154296875,-5.930545648756623,-2.1321564053565263,7.5482660925656555
1684253239164634000,3.169634033203125,-5.946932135412097,-3.707267541494965,6.594483604985475
1684253239174659800,3.179659912109375,-6.114130530303716,-5.290488918852806,5.473484017813205
1684253239184685800,3.189685791015625,-5.848066102990508,-6.583201747992635,3.971384341871738
1684253239194711000,3.1997109375,-4.672212059080601,-7.588087815344333,2.973921117997169
1684253239204737000,3.209737060546875,-3.0900311306864023,-8.470870767071842,2.5073078148543835
1684253239214763000,3.219762939453125,-1.6222303224489092,-9.112639561590552,2.549944887314737
1684253239224788000,3.2297880859375,-0.6916697205021977,-9.455979536285996,2.7074498634487387
1684253239234814000,3.23981396484375,2.8218492728278037,-9.78514485515654,2.9103748207598925
1684253239244840200,3.249840087890625,16.47483480101228,-10.697606321310996,3.629123979106545
1684253239254865000,3.259864990234375,55.34376702575683,-7.894176210010051,-13.151944762521982
1684253239264891000,3.269890869140625,61.66759244589805,16.09955187408924,-34.65563180838823
1684253239274917000,3.279917236328125,-19.36234370996952,12.179786660295724,-17.059027020353078
1684253239284941800,3.28994189453125,-35.103340504574774,5.485914460319281,-8.428226972609759
1684253239294968000,3.299968017578125,-22.979145383119583,4.8423447538584465,-8.376361176294088
1684253239304994000,3.309994140625,-18.66188424155116,1.7362831103473901,-3.737195646768808
1684253239315020000,3.32002001953125,-18.214914381033182,2.208976610186696,4.552894774782657
1684253239325045000,3.330044921875,-15.573246026527881,2.7703070093780755,9.214130097296833
1684253239335071000,3.340071044921875,-15.664213999176024,3.234660550895333,11.598519388490915
1684253239345097000,3.350096923828125,-15.86750837432146,4.056461502915621,10.404051245003938
1684253239355122200,3.3601220703125,-15.878607275962828,5.525629215592145,6.775238231542706
1684253239365148200,3.370148193359375,-16.6085091119647,8.32471808281839,2.5307512342840432
1684253239375174100,3.380174072265625,-14.681391879594326,11.463809304749965,-3.4992519830465314
1684253239385199000,3.39019921875,-10.487245076519251,13.608938004404306,-9.17676219741106
1684253239395225000,3.40022509765625,-7.2957777706623075,13.198339433950185,-12.299912922888993
1684253239405251000,3.4102509765625,-3.666834408819675,11.212937185871601,-10.56270568343401
1684253239415276000,3.420276123046875,3.7634021011710166,9.580829904791711,-5.691136588656902
1684253239425302000,3.430302001953125,3.4902713887333867,6.304553733438253,-3.3917677598834035
1684253239435328000,3.440327880859375,0.042674847187474364,4.295274350687861,-3.9252845617368815
1684253239445354000,3.45035400390625,3.231033592569828,3.6069244222581385,0.5859048684775829
1684253239455379000,3.46037890625,2.878355296164751,5.585013716974854,3.7245246735051274
1684253239465405000,3.470405029296875,4.626943761333823,7.509890476942062,4.748817744377255
1684253239475431000,3.480430908203125,7.510879487979412,7.278564185532927,7.149702827820182
1684253239485456000,3.490455810546875,7.511036139845848,5.679337429791689,7.362458274272083
1684253239495481900,3.50048193359375,5.012886029437184,3.460709194162488,6.402841089189052
1684253239505507800,3.5105078125,2.4501100098609925,1.357804602253437,5.942342469534277
1684253239515533000,3.520532958984375,0.8904723371863364,-0.12116378894746303,6.172458216109871
1684253239525559000,3.53055908203125,-0.013614702120888977,-0.7360527598470449,6.595640373805165
1684253239535585000,3.5405849609375,-0.6011317002365365,-0.9439671960085629,6.961511913782358
1684253239545610000,3.55060986328125,-1.280695643609762,-1.209556991547346,7.5754779246181245
1684253239555636000,3.560635986328125,-1.4510335055708885,-1.4310644842535256,7.964902189618349
1684253239565662200,3.570662109375,-2.1445745729029175,-1.1263491315066814,8.768910295316577
1684253239575687000,3.58068701171875,-2.924047372281551,-0.46484161729514595,8.875850328600405
1684253239585713000,3.590712890625,-2.405382394862175,0.5133756388396025,8.712440220075845
1684253239595739100,3.6007392578125,-1.2347732658684254,1.2992390160381793,8.163735493701695
1684253239605765000,3.61076513671875,-0.905736541813612,1.776009556058049,7.015166931602359
1684253239615790000,3.6207900390625,-1.4594851075738668,2.4094722945243117,6.2045478833317755
1684253239625816000,3.630816162109375,-1.9555834483981132,3.22162980440855,5.2557186342448
1684253239635842000,3.640842041015625,-1.0364274530410766,3.5290152531474828,3.724067869648337
1684253239645867000,3.650866943359375,-0.6796896521121263,3.3919951388984915,2.6808967875659464
1684253239655893000,3.66089306640625,-0.8939572566926479,3.0078508601278067,2.14912156868279
1684253239665919000,3.6709189453125,-0.8062520852327346,2.22405669041872,2.0451947457402944
1684253239675944200,3.680944091796875,-0.23014146553874015,1.6611358071655034,1.9131442365974187
1684253239685970200,3.69097021484375,0.4296270960509777,1.346435651499033,1.77845110399127
1684253239695996200,3.70099609375,0.924799042745307,0.6487783810198307,1.9356500829160213
1684253239706021000,3.711021240234375,1.146847291264683,-0.3365419851183891,2.250047456243634
1684253239716047000,3.721047119140625,1.548585532784462,-1.5614292322665453,2.383294481694698
1684253239726073000,3.731072998046875,3.074676909688115,-2.778323727095127,1.848106824019551
1684253239736099000,3.74109912109375,5.4610319479972125,-3.2045746247112747,0.8750771996557712
1684253239746124000,3.7511240234375,6.782720696252584,-2.721026553380489,0.20413024144768713
1684253239756150000,3.76114990234375,6.98903588052392,-1.68758776076138,-0.25279344232976436
1684253239766176000,3.771176025390625,8.729245224404334,-0.814050776284933,-1.172773613551259
1684253239776201000,3.781200927734375,11.00504379249811,-0.12188976513445376,-2.552655607578158
1684253239786227000,3.79122705078125,8.207955159178375,0.5005179108321667,-2.079931128078699
1684253239796253000,3.8012529296875,5.535583623373508,0.3775158005416393,-1.2125164258748293
1684253239806278000,3.81127783203125,4.550043477004766,-0.23329086948037145,-0.7521592605173587
1684253239816303900,3.821303955078125,3.1034570139706132,-0.6604226415842771,0.386830156853795
1684253239826329900,3.831329833984375,1.7201134813129901,-0.7268699209600686,1.2411363711595536
1684253239836355000,3.84135498046875,0.9580581190727651,-0.4357376878857612,1.8158967452883719
1684253239846381000,3.851381103515625,0.18777721867039798,1.1757862393707037,1.5066197837144135
1684253239856407000,3.861406982421875,-0.8712690395444631,4.27884577845633,0.2285445517361164
1684253239866433000,3.87143310546875,-1.532639775633812,7.993260853618383,-1.7045792275726794
1684253239876458000,3.8814580078125,-2.577824535626173,12.237537422996759,-4.275366119647026
1684253239886484200,3.891484130859375,-4.172743949562311,15.525601647299528,-6.235473182949423
1684253239896510200,3.90151025390625,-5.573056152677536,16.338135004758833,-6.498173686787486
1684253239906535000,3.911534912109375,-7.272194650501012,14.494515555286407,-5.283129203739762
1684253239916561200,3.92156103515625,-7.598625575971603,10.295807143384218,-3.4054882422000166
1684253239926587100,3.931587158203125,-6.593293518418073,5.297267034685611,-1.100357196637988
1684253239936612000,3.941612060546875,-5.436144759500026,1.3455430865734814,0.8088783420830965
1684253239946638000,3.95163818359375,-4.1833600361227985,-1.182350420191884,1.707964778357744
1684253239956664000,3.9616640625,-3.324405119228363,-2.87417947178483,2.066970524218678
1684253239966689500,3.971689453125,-2.6038252383232114,-4.040291289359331,2.208996483930945
1684253239976715500,3.981715576171875,-1.8970939961589872,-4.600303007167578,2.032369166436791
1684253239986741500,3.991741455078125,-1.088027949484065,-4.772907645016908,1.3674421991705894
1684253239996767500,4.001767578125,5.793928270089626,-4.554506886154413,-1.7024012990117072
1684253240006792400,4.01179248046875,9.672066172987222,-2.464870356619358,-3.886348097360134
1684253240016818400,4.021818359375,4.151901068019867,0.06296586700081824,-1.2192542096972465
1684253240026844400,4.031844482421875,-0.09543371988534927,1.795806727939844,-0.07289630938470364
1684253240036869600,4.04186962890625,-2.3982044660568236,3.1021313183248043,-0.4131839107722044
1684253240046895600,4.0518955078125,-3.7170270112261172,4.065786965143681,-1.152765429267287
1684253240056921600,4.061921630859375,-4.518238179682195,4.581948435309529,-1.3208490825608372
1684253240066946600,4.071946533203125,-4.9917047097206115,4.195741963312029,-0.9219947259142994
1684253240076972500,4.08197265625,-4.866350483345985,3.2815929824620484,-0.019532383465766905
1684253240086998500,4.09199853515625,-3.689379418104887,2.402758476099372,1.5190356131732463
1684253240097023500,4.1020234375,-2.0215479126930234,1.8340724534481763,3.4202208241686223
1684253240107049500,4.112049560546875,-1.216935119099915,1.6083604947894812,4.89247042850852
1684253240117075500,4.122075439453125,-2.2790233753591775,1.2383616457492113,5.271958405905962
1684253240127100400,4.132100341796875,-4.136447186039388,1.0165881955832243,4.873996614184976
1684253240137126400,4.14212646484375,-5.478218645119667,0.9639373863697052,4.195959989976883
1684253240147152400,4.15215234375,-5.934768819409609,0.8106652254998683,3.2301495032116767
1684253240157178600,4.1621787109375,-5.7150739290833465,0.6408622010678052,2.417182430510223
1684253240167203300,4.172203369140625,-5.00185200972557,0.6547475185573101,2.2091990207657215
1684253240177229600,4.1822294921875,-4.2790795872122045,0.9928770651280879,2.177554174701869
1684253240187255600,4.192255615234375,-3.814534030254185,1.4134499171078205,1.85188546577543
1684253240197280800,4.20228076171875,-3.4476433763623238,1.8662813631355761,1.1860098194822668
1684253240207306500,4.212306396484375,-3.1188860537707805,2.201166228696704,0.3620306466400623
1684253240217332500,4.22233251953125,-3.0392335481241344,2.3006693899780513,-0.2903767385318875
1684253240227357700,4.232357666015625,-3.0085327049121258,2.1349416521608826,-0.8401070085614919
1684253240237383700,4.2423837890625,-2.828479796883464,1.5913532458871602,-1.5647715284317731
1684253240247409700,4.25240966796875,-2.6939035686552524,0.7759948941349982,-2.3071400472968815
1684253240257435600,4.262435546875,-2.626838449642062,-0.23347440935373304,-2.9004858794301747
1684253240267460600,4.272460693359375,-2.693819982025027,-1.3357143509984015,-3.5150822971239686
1684253240277486600,4.282486572265625,-2.8378365310326217,-2.3866700956076383,-3.7792566729068753
1684253240287512600,4.2925126953125,-2.987283872917294,-3.39069282412827,-3.8579263049960133
1684253240297537500,4.30253759765625,-3.16928849953562,-4.238865650245547,-3.881632759276032
1684253240307563500,4.3125634765625,-3.504046231585741,-4.895430447357893,-3.7981899214357133
1684253240317589500,4.322589599609375,-3.939213426107168,-5.387943915432691,-3.4452301777407524
1684253240327614500,4.332614501953125,-4.38597110517919,-5.63880960457027,-3.0483792698711154
1684253240337640400,4.342640380859375,-4.656401911008357,-5.645045284089446,-2.651990134294331
1684253240347666400,4.35266650390625,-4.856370356601476,-5.340306550467014,-2.285398755609989
1684253240357691600,4.362691650390625,-4.831646249711513,-4.855847209510207,-2.035560217563063
1684253240367717600,4.372717529296875,-4.346644472441077,-4.5633998021841045,-2.002751442286372
1684253240377743400,4.382743408203125,-3.5872371404916046,-4.439897925677895,-1.963183694268763
1684253240387769300,4.392769287109375,-2.9816826919093726,-4.451568489727378,-1.9032995728008448
1684253240397794600,4.402794677734375,-2.4543922172248362,-4.526041839170456,-1.8208105285540221
1684253240407820500,4.412820556640625,-2.227936454461515,-4.61173041011095,-1.567857365617901
1684253240417846500,4.422846435546875,-2.0481451199784875,-4.6637136953264475,-1.110357197126746
1684253240427871500,4.43287158203125,-1.4708569809377192,-4.528904827386141,-0.5010284907028079
1684253240437897500,4.4428974609375,-1.4731670114457607,-4.143892533609271,0.18410306020230055
1684253240447923500,4.45292333984375,-2.343770426688343,-3.7065474105268716,0.5816249992012977
1684253240457948400,4.462948486328125,-3.220036982259154,-3.239164876577258,0.7598597518920898
1684253240467974400,4.472974365234375,-3.834623755341768,-2.7531583061784506,0.8465335344776511
1684253240478000600,4.483000732421875,-4.064740670961141,-2.297248767879605,0.6386126685753465
1684253240488025300,4.493025390625,-4.0779204705297944,-1.5462030215620994,0.06463292343020438
1684253240498051600,4.503051513671875,-4.214786270999908,0.8108347368478774,-1.0331187668845057
1684253240508077600,4.51307763671875,20.925427723705766,14.255045120388269,-0.5025684136211872
1684253240518102500,4.5231025390625,14.937735123360156,35.0473713645935,-3.3444548045665026
1684253240528128500,4.53312841796875,-7.231068859386443,40.87317945854664,-8.324053481429814
1684253240538154500,4.543154541015625,-2.57169407004714,25.232601186501977,-13.230579323297738
1684253240548180500,4.553180419921875,8.613239841133355,9.116154876235127,-9.31257352039218
1684253240558205700,4.563205810546875,20.68332810934782,-2.966601734894514,-1.698954957950115
1684253240568231700,4.573231689453125,15.802003344231842,-9.945039064514637,4.425657511140406
1684253240578257700,4.583257568359375,5.620906283611059,-8.446340136927367,4.769472702132165
1684253240588282600,4.59328271484375,-1.2014239539742468,-5.750474328288435,3.139584558406472
1684253240598308600,4.60330859375,-2.585543731701374,-5.10562159627974,2.601013688033819
1684253240608334600,4.61333447265625,-2.8879180742800235,-4.47920410014987,1.6969754745706915
1684253240618359600,4.623359619140625,-2.4600012892782686,-3.474564116513729,-0.08408961131125688
1684253240628385500,4.633385498046875,-0.09761289055533706,-1.2336129899173973,-0.9888476634815335
1684253240638411500,4.64341162109375,1.2892344855047762,0.9434259287387132,-0.38945436787754295
1684253240648436500,4.6534365234375,-0.46338557326793667,1.121191310352087,0.3323787279590964
1684253240658462500,4.66346240234375,-0.9738719204068184,0.9706231477439403,0.8534577807828784
1684253240668488400,4.673488525390625,-0.530129789763689,0.08271160095632075,1.4069839359641074
1684253240678514400,4.683514404296875,0.1288064126551151,-1.0383207194417714,1.7545295456558465
1684253240688539400,4.693539306640625,0.8603134918965398,-1.4516916772186754,1.6211065791159867
1684253240698565400,4.7035654296875,1.7329694557547568,-1.6128315027236937,1.2164672093272209
1684253240708591400,4.71359130859375,2.5652584840416908,-1.5268173530906437,0.7175526420384645
1684253240718616600,4.723616455078125,2.8089456598520277,-1.0634586678296327,0.25138942075073717
1684253240728642600,4.733642578125,2.246025361120701,-0.18119827867150307,-0.03951134165525436
1684253240738668500,4.74366845703125,1.3669032699882984,0.791782830375433,-0.07817161943912505
1684253240748693500,4.753693603515625,0.5888952824652195,1.5446791729956864,0.0317278481721878
1684253240758719500,4.763719482421875,-0.05009588230000808,2.0295231293559075,0.2599748782664537
1684253240768745500,4.773745361328125,-0.38381343938112256,2.3096815484732387,0.5473059654921293
1684253240778771700,4.783771728515625,-0.5679916106462478,2.2498820365488528,0.8938035274356603
1684253240788796400,4.79379638671875,-0.7311994745969772,1.9372534264594314,1.1539140147805214
1684253240798822700,4.80382275390625,-0.9487795647263526,1.5342027871668338,1.3230074296385048
1684253240808848600,4.8138486328125,-0.9267232157409191,1.0635556984633208,1.4211714512705802
1684253240818873600,4.82387353515625,-0.9528186109840869,0.5950713407516479,1.566893927413225
1684253240828899600,4.833899658203125,-0.9244903421223163,0.09843348622322082,1.6728975566297768
1684253240838925600,4.843925537109375,-0.6781622964143753,-0.41683600353896616,1.6037433563828467
1684253240848950500,4.853950439453125,-0.3223299198925495,-0.8293769402325153,1.483884804815054
1684253240858976500,4.8639765625,0.03741878982279449,-1.0981465348511934,1.234454701438546
1684253240869002500,4.87400244140625,0.4227478944638744,-1.25442138466835,0.9662865798443555
1684253240879027700,4.88402783203125,0.7645576273847371,-1.3257383159071205,0.7698246810674667
1684253240889053700,4.8940537109375,0.9152923787314444,-1.293441143414378,0.6247545313537121
1684253240899079700,4.90407958984375,0.8730367068041115,-1.1280763936907052,0.5558136815965176
1684253240909104600,4.914104736328125,1.0419371563732625,-1.0599380924880504,0.49225598618239164
1684253240919130600,4.924130615234375,1.191940086314082,-1.079579197025299,0.32797581682503224
1684253240929156600,4.934156494140625,1.1649521261453628,-1.0722288342624902,0.07222352468967437
1684253240939182600,4.9441826171875,1.0253649378873406,-1.0515700771152972,-0.16951719322800635
1684253240949207600,4.95420751953125,0.8863719161301851,-0.9686994862049817,-0.454384520688653
1684253240959233500,4.964233642578125,0.7537136503525078,-0.8489905722409486,-0.6926216143995523
1684253240969258800,4.9742587890625,0.7419359726667404,-0.6955103215783834,-0.8120984731733798
1684253240979283700,4.98428369140625,0.842799900907278,-0.48435354249477386,-0.7468634921967983
1684253240989309700,4.994309814453125,0.9502214340977371,-0.31020050615966316,-0.43915626415759323
1684253240999335700,5.004335693359375,0.894213423410803,-0.17228081272244453,-0.04208937544971704
1684253241009361000,5.01436083984375,0.7433915783025324,-0.061220484638214105,0.37978696034401654
1684253241019387000,5.024386962890625,0.4334915163941681,-0.04538461760282516,0.8435305532693862
1684253241029412900,5.034412841796875,-0.08902911354005336,-0.21878654330968855,1.2657593557626008
1684253241039437800,5.044437744140625,-0.6152512283407151,-0.5872971996188163,1.69120595125854
1684253241049463800,5.0544638671875,-0.9594202012062072,-1.0494079306453465,2.1235265241771937
1684253241059490000,5.064489990234375,-0.93233038809821,-1.5350883378297089,2.499789109787345
1684253241069516000,5.07451611328125,-0.30725378518328067,-2.0200994674503803,2.7345494672983883
1684253241079541000,5.084541015625,0.7663605120882392,-2.3260808946102856,2.545390000489354
1684253241089567000,5.09456689453125,2.4179034382611513,-2.5756430999338624,1.886246292799711
1684253241099593000,5.104593017578125,4.112519197963178,-2.7051111913681027,1.103850299450755
1684253241109618000,5.114617919921875,5.6194870644629,-2.455817281591892,0.309025909422338
1684253241119644000,5.124643798828125,7.3048179862082,-1.7372259441554545,-0.7787918313771486
1684253241129670000,5.134669921875,13.100409805595874,-0.3786439277887344,-2.4805799669265745
1684253241139694800,5.14469482421875,22.50571772378683,1.470665257757902,-4.028970269399881
1684253241149720800,5.154720947265625,6.3993947481274605,0.6590297259211539,-2.058614199283719
1684253241159746800,5.164746826171875,1.0951251412034033,0.35058161638677116,0.0015343699604272842
1684253241169772000,5.17477197265625,0.07414923205524683,1.2307651992708444,0.7751949759289621
1684253241179797800,5.1847978515625,-0.791172881783545,3.4212539666086434,1.040882094362378
1684253241189823700,5.19482373046875,-0.675980860722065,6.869218245488405,0.8436515493005514
1684253241199849700,5.204849609375,-1.1771696565531193,10.590711296212673,-0.2746896323174238
1684253241209875000,5.214875,-2.5017852520406243,14.820197123694419,-3.2561332547739146
1684253241219901000,5.22490087890625,-5.174349095547199,19.088705632531642,-8.201821186468004
1684253241229927000,5.234927001953125,-5.37136687464118,17.474978642272948,-10.892112994366883
1684253241239952000,5.244951904296875,-3.0631571522861716,11.668232976186275,-9.652809683853388
1684253241249977900,5.254977783203125,-1.3920119922816752,6.660643299591541,-7.429093185174465
1684253241260003800,5.26500390625,0.029366525868326422,1.991108350765705,-4.1460003195434805
1684253241270028800,5.27502880859375,0.8732580214045942,-1.8448691572725773,-1.464326117864251
1684253241280054800,5.2850546875,2.2816455405563114,-4.687382155683636,-0.15958733536601066
1684253241290080800,5.295080810546875,18.349478334301708,-6.92336835334897,-1.8856673238679766
1684253241300106800,5.305106689453125,15.27178821427226,-6.065375559484958,-2.2367951759606597
1684253241310131700,5.315131591796875,1.7449463092744348,-4.728825926706195,-0.5589356130093336
1684253241320157700,5.32515771484375,-3.4112229864597317,-3.796571964845061,-0.05159048650562763
1684253241330183700,5.33518359375,-4.290336894285678,-1.9701707766771315,-1.316388303759694
1684253241340209000,5.345208984375,-5.164061510288715,0.31505963662862774,-3.2563065655142065
1684253241350234600,5.355234619140625,-6.3941889961779115,2.812957233580947,-6.275169818043708
1684253241360260900,5.3652607421875,-7.640196772766113,4.662261742952466,-9.19420082346797
1684253241370285800,5.375285888671875,-8.01913179245591,4.892011578825116,-9.876032748305796
1684253241380312000,5.38531201171875,-7.077979069346189,4.224438480964303,-7.820838586598634
1684253241390338000,5.395338134765625,-1.2174863232418893,3.946992827937007,-3.1489567823857065
1684253241400363000,5.405363037109375,5.180682974743843,3.562144200289249,2.135110286726057
1684253241410389000,5.415388916015625,3.8594291107743977,2.4201631998866797,4.1811105036303395
1684253241420415000,5.4254150390625,0.7545479092195629,1.4143828140437602,4.424115834656358
1684253241430440000,5.43543994140625,-2.060926275618374,0.3502408401250839,4.081320342101156
1684253241440466000,5.4454658203125,-4.27515335367918,-0.6970826854616403,3.6488758505418892
1684253241450492000,5.455491943359375,-5.665960061824322,-1.4939122778326273,3.0894518694937227
1684253241460518000,5.465517822265625,-6.45765872104764,-2.0169711062967774,2.4875106429725884
1684253241470542800,5.47554296875,-6.9573688226282595,-2.37484229516983,2.177012030649185
1684253241480568800,5.48556884765625,-7.167187046584487,-2.5727602379739283,1.8469158606693148
1684253241490594800,5.4955947265625,-7.0701727795094245,-2.633158884835243,1.321975748503208
1684253241500619800,5.505619873046875,-6.601826953485608,-2.885830162090063,0.737337538960576
1684253241510645800,5.515645751953125,-5.698423823055625,-3.4935505565345286,0.2118935689255595
1684253241520671700,5.525671630859375,-4.709399341702461,-4.26815896474719,-0.11722791080325841
1684253241530697000,5.535697021484375,-4.245420186455547,-4.871930329304933,-0.28856998137086626
1684253241540723000,5.545722900390625,-4.142915213009715,-5.206465650776028,-0.40944034032970666
1684253241550749000,5.5557490234375,-4.2032063078433275,-5.058588042426109,-0.15948416725248096
1684253241560774000,5.56577392578125,-4.191688596267998,-4.429121680119634,0.41122342435419557
1684253241570799900,5.5757998046875,-4.12637236674875,-3.9843133815497156,0.490466764678061
1684253241580825900,5.585825927734375,-4.263523706161975,-3.7005490468949076,0.360904857480526
1684253241590851800,5.595851806640625,-4.417055102489888,-3.3082255533218383,0.27382863157391546
1684253241600876800,5.605876708984375,-4.311813689817488,-2.90541807513535,0.1474839328572154
1684253241610902800,5.61590283203125,-3.9303944520965217,-2.4351281293064355,0.26270927166640756
1684253241620928800,5.6259287109375,-3.5418192051410675,-1.8904425754457712,0.35583559139221904
1684253241630953700,5.63595361328125,-3.2855893586218357,-1.2327122416853904,0.3428723571836948
1684253241640979700,5.645979736328125,-3.0216441154196856,-0.5144359615474939,0.3306275003775954
1684253241651005700,5.656005615234375,-1.7589254425272345,0.7862526687771082,0.38482583129405973
1684253241661030700,5.66603076171875,9.22372385507226,4.7570086496174335,-2.1223726779669523
1684253241671056600,5.676056640625,17.86039367163181,7.588198874503374,-6.821059486997127
1684253241681083000,5.686082763671875,11.511290017849205,7.866240155336261,-9.460084633517265
1684253241691107800,5.69610791015625,7.1733800560057155,9.65161082945764,-12.933921604800224
1684253241701134000,5.706134033203125,2.1814476750090717,10.151722497576474,-14.62187118461132
1684253241711160000,5.71616015625,-3.534982637119293,7.293563601744174,-10.503131212437152
1684253241721186000,5.72618603515625,-5.252167663764953,3.763141988930106,-3.768387488368153
1684253241731211000,5.7362109375,-3.937261122995615,0.19243629652261732,-0.24203590147197246
1684253241741237000,5.746237060546875,-3.7144121525526046,-2.5971611042588947,2.079485430137813
1684253241751263000,5.756262939453125,-3.693593820929527,-4.189944675210118,3.581229424509406
1684253241761288000,5.766287841796875,-3.497399048656225,-4.985637957027555,4.195715075305104
1684253241771314000,5.77631396484375,-3.3531752866387365,-4.907462830457091,4.42383175701797
1684253241781340000,5.78633984375,-3.8155458376452325,-3.9642198570698497,4.81805786934197
1684253241791364900,5.79636474609375,-4.571905764722824,-2.5178724634885787,5.009584065282344
1684253241801390800,5.806390869140625,-5.148569342124462,-0.9998094947397709,4.829353170338273
1684253241811416800,5.816416748046875,-5.273196423268318,0.48492871203422544,4.162334199228883
1684253241821442800,5.82644287109375,-5.298654689651728,2.00036834654212,3.46357744307518
1684253241831467800,5.8364677734375,-4.882156832025945,3.53564139328897,2.866786438924074
1684253241841493800,5.84649365234375,-3.6907343398451804,4.537847427776455,2.6847815200448033
1684253241851519700,5.856519775390625,-2.1483331947840747,4.458993671292066,2.8890280813485383
1684253241861545000,5.866544921875,-0.8540601305902004,3.267057676631212,3.050463090407848
1684253241871571000,5.876571044921875,0.6090531774181872,1.6476017873317002,2.7276193757742644
1684253241881597000,5.886596923828125,4.258715429097414,-0.31150983519256115,1.4490461311459542
1684253241891622000,5.896621826171875,4.780895721161365,-0.9666384620219468,1.3006173186540604
1684253241901648000,5.90664794921875,2.699472893220186,-0.7879027740716934,2.39117968198657
1684253241911673900,5.916673828125,1.3494915319383143,-0.593040127184987,2.6352076340585944
1684253241921698800,5.92669873046875,0.7647732428967953,-0.1070791494935751,1.8261825769811868
1684253241931724800,5.936724853515625,0.2852431750357151,0.5829419270187616,0.7256856796115636
1684253241941750800,5.946750732421875,-0.01915828945636749,1.3043185112595557,-0.26137597723603245
1684253241951775700,5.956775634765625,-0.13862521135807038,1.8517460573047397,-0.999246015638113
1684253241961801700,5.9668017578125,-0.11634208614574744,1.9195494274646043,-1.3268389706254005
1684253241971828000,5.976827880859375,0.07442485239254311,1.4465870475560425,-0.9315215559333563
1684253241981854000,5.98685400390625,0.5218050290107726,0.6943126362264156,0.02759235580265522
1684253241991879000,5.99687890625,1.044714804393053,0.1584954484760761,0.9450549912452697
1684253242001905000,6.00690478515625,1.4854402175635097,-0.05826514196395874,1.5980214716047048
1684253242011931000,6.016930908203125,1.5716040048003195,0.11552139914631843,2.1458786412388084
1684253242021955800,6.026955810546875,1.2277081497877835,0.5769160908579826,2.429780338537693
1684253242031981800,6.03698193359375,0.7878034053504467,0.9532570024013519,2.446742579254508
1684253242042007800,6.0470078125,0.5741548094511032,1.1939233690857887,2.3660662835180757
1684253242052033000,6.057032958984375,0.3113631201982498,1.3610446070879696,2.1029688893169163
1684253242062059000,6.06705908203125,-0.014896531225508079,1.390222186255455,1.7875474336385726
1684253242072085000,6.0770849609375,-0.12908697402901015,1.2071703886717557,1.4328648116737603
1684253242082111000,6.087111083984375,-0.09456046244846657,0.9416232632309198,1.0132698648154734
1684253242092136000,6.097135986328125,0.036639603877533226,0.8464630995899438,0.7307815414458513
1684253242102162000,6.107161865234375,0.3285323547292501,0.9397732514500617,0.6991127299845218
1684253242112188200,6.117188232421875,0.7490764920711517,1.0418401257395744,0.8961270019471644
1684253242122212900,6.127212890625,1.1657675341814755,1.1260913573533295,1.0975023917287587
1684253242132239000,6.137239013671875,1.375059688436985,1.240329730951786,1.323348790422082
1684253242142265000,6.14726513671875,1.377732122516632,1.3085539568722246,1.616723249465227
1684253242152289800,6.157289794921875,1.217559680739045,1.3127467323869466,1.9565531702131032
1684253242162316000,6.16731591796875,1.004880222132802,1.2611761196255684,2.250420965731144
1684253242172342000,6.177342041015625,0.7571715357214212,1.1507464906603098,2.5475246744304894
1684253242182367000,6.187366943359375,0.5517874948203564,1.101698089852929,2.8254291771411895
1684253242192393000,6.19739306640625,0.3438450381407514,1.0321382314145564,3.041888738808036
1684253242202419000,6.2074189453125,0.15775898742768912,0.993399043175578,3.0818916633725166
1684253242212445000,6.21744482421875,-0.04558974825348705,1.0954980661690235,2.997711743429303
1684253242222470100,6.22747021484375,-0.25843524760901926,1.1439110916823148,2.804579281336069
1684253242232496000,6.23749609375,-0.4888782899102196,1.1657464913934468,2.5449258901089427
1684253242242522000,6.247522216796875,-0.656767626208067,1.1042337458103895,2.3375135582506656
1684253242252547000,6.257547119140625,-0.748909903332591,0.9547592236578464,2.211986313396692
1684253242262573000,6.267572998046875,-0.9067968645215034,0.7683399954676627,2.1486048513323066
1684253242272599000,6.27759912109375,-1.1127098977327345,0.623499562856555,2.017634538641572
1684253242282624000,6.2876240234375,-1.271024144423008,0.4789648351937532,1.7775322355806826
1684253242292650000,6.29764990234375,-1.3128268118858337,0.40346798792183397,1.4664046777039765
1684253242302676000,6.307676025390625,-1.3066694582998752,0.4616811074376106,1.1005974351346492
1684253242312701000,6.317700927734375,-1.2881599881410597,0.5210837289988994,0.7840127808958292
1684253242322727000,6.327726806640625,-1.1876684003442526,0.583442862278223,0.5307160652190447
1684253242332753000,6.3377529296875,-1.0591361284554004,0.5739946504533291,0.46861645965874194
1684253242342779000,6.34777880859375,-0.9723416420996188,0.5088906023800372,0.5374269610345364
1684253242352803800,6.357803955078125,-0.9270634074807167,0.41901802375316616,0.6857751095056533
1684253242362829800,6.367829833984375,-0.9619418286383151,0.29529110631942745,0.6943237421423196
1684253242372855800,6.377855712890625,-1.012920320725441,0.21326222693026065,0.5318149663716555
1684253242382881000,6.387881103515625,-1.0628840828120707,0.17661796514391898,0.3185217597812414
1684253242392907000,6.397906982421875,-1.0440291602164506,0.14061258578300476,0.09309446328282356
1684253242402933000,6.40793310546875,-1.028351114091277,0.10765373451113701,-0.02456862406730652
1684253242412958000,6.4179580078125,-1.0059867220699787,0.017972879064083097,0.038134792605042454
1684253242422984000,6.42798388671875,-0.9835106863677501,-0.10656827736198901,0.25417875920832156
1684253242433010200,6.43801025390625,-1.0166519084692,-0.1618903516113758,0.44624797598421573
1684253242443035000,6.448034912109375,-1.061402904343605,-0.0832195504784584,0.5475052874565124
1684253242453061000,6.45806103515625,-1.1355132656931877,0.20572481716275215,0.5298702620446681
1684253242463087000,6.468087158203125,-1.224609599250555,0.7562240257382392,0.4182183978080749
1684253242473111800,6.47811181640625,-1.3042612281143664,1.4804723660230636,0.2964174800008535
1684253242483138000,6.488137939453125,-1.4062544526457785,2.169242565691471,0.08767185371220111
1684253242493164000,6.4981640625,-1.5494342585682868,2.8233716600894927,-0.09265022664666175
1684253242503190000,6.50818994140625,-1.631046373850107,3.342497240757942,-0.29033728330433367
1684253242513215000,6.518215087890625,-1.6265502314746378,3.672688980066776,-0.4294458942651748
1684253242523241000,6.528240966796875,-1.6462077026247977,3.7226217624932527,-0.39425475389659403
1684253242533267000,6.538266845703125,-1.7283914803147316,3.370505191624164,-0.1079582704156637
1684253242543292200,6.548292236328125,-1.7978221594154833,2.6716794618874786,0.49555999616384505
1684253242553318100,6.558318115234375,-1.6006899601615965,1.7740502386838197,1.324111591488123
1684253242563344100,6.56834423828125,-1.1736031231779605,0.8709791166871785,2.0392747080415488
1684253242573369000,6.578369140625,-0.6394388902664184,0.03247778975665569,2.5242040045976637
1684253242583395000,6.58839501953125,-0.14230654848562552,-0.7598626745015382,2.8758547115206716
1684253242593421000,6.598421142578125,0.2972352261245251,-1.466778771713376,3.1814252197921276
1684253242603447000,6.608447021484375,0.821309369111061,-1.9382365922778844,3.4295062466472386
1684253242613472000,6.618471923828125,1.7293997805744408,-1.9939035344421863,3.4868297238469124
1684253242623498000,6.628498046875,10.024038366949558,-1.176442072930932,2.5108511865496634
1684253242633524000,6.63852392578125,13.108786004275082,-0.16237082860469818,1.1350842266261576
1684253242643549000,6.648548828125,6.5816627018570895,0.38223756836652756,1.5470359652549028
1684253242653575000,6.658574951171875,2.381254500299692,0.9380682010978459,1.7526567375212907
1684253242663601000,6.668600830078125,-0.3683925828874111,1.6766987024784088,1.3443605987906455
1684253242673625900,6.6786259765625,-2.163046779791266,2.293636422601342,0.7974135297387838
1684253242683651800,6.68865185546875,-3.4335143132448196,2.850977459895611,0.19420389071702956
1684253242693677800,6.698677734375,-4.466067555201053,3.528699026805162,-0.4996265149503946
1684253242703703000,6.708703125,-5.3486611218363045,4.2362440695703025,-0.970916577732563
1684253242713729000,6.71872900390625,-6.053624331414699,4.703895483589172,-0.7533627910882235
1684253242723755000,6.728755126953125,-6.255972950142621,4.824376550969482,0.016570611050724982
1684253242733781000,6.738781005859375,-6.587540653979778,4.739896186774969,0.623421236923337
1684253242743806000,6.748805908203125,-7.164151624411344,4.326182114648819,1.3750365998223424
1684253242753832200,6.758832275390625,-7.519546778559684,3.735903853392601,2.26857446205914
1684253242763858200,6.768858154296875,-6.766864955472946,3.3735984814643856,3.11413096819818
1684253242773883100,6.778883056640625,-1.7957615736238657,3.5355262424767013,4.645626542232931
1684253242783909000,6.7889091796875,3.193663939118385,3.4674592529445887,6.147959150147438
1684253242793935000,6.79893505859375,2.6886849572241305,2.847235350757837,5.480082685425877
1684253242803960000,6.8089599609375,0.7059130576491356,2.237607661387324,3.193563693614304
1684253242813986000,6.818986083984375,-0.756755940657854,1.5016554393053054,0.48820086557269093
1684253242824012000,6.829011962890625,-0.9828969383835792,0.9921873292982578,-1.79683051802963
1684253242834037000,6.839037109375,-0.53795156943053,0.8070055339485407,-2.906529543508589
1684253242844063000,6.84906298828125,-0.7486709800101816,0.9176461753159761,-2.8216800537407396
1684253242854089000,6.8590888671875,-2.038580588297546,1.1037585295140742,-2.5167387832835315
1684253242864115000,6.869114990234375,-3.492001573526859,1.2001859366118908,-2.868649310186505
1684253242874140000,6.879139892578125,-3.9941014928534626,1.107617543029785,-3.607385902290046
1684253242884166000,6.889165771484375,-3.6621585259631275,0.8260749760776758,-4.098101381032168
1684253242894191900,6.89919189453125,-3.2752702091813086,0.31137247254848477,-4.276504768288135
1684253242904217000,6.909217041015625,-2.488638185697794,-0.3213713039934635,-4.345010733759403
1684253242914243000,6.9192431640625,-1.5973957409217954,-0.8747247329562902,-4.124325663352012
1684253242924269000,6.92926904296875,-1.2884218539476393,-0.9852560687303542,-3.2630496100336313
1684253242934294000,6.9392939453125,-1.4597972422629595,-0.9529477903217076,-2.6312182721614836
1684253242944320000,6.949320068359375,-1.4617092133641243,-1.1299638148725033,-2.5952795282959937
1684253242954346000,6.959345947265625,-1.40922645419389,-1.4823708931207655,-2.742801162815094
1684253242964371000,6.969370849609375,-1.4472884738236664,-1.8766005125761032,-2.879569640390575
1684253242974397200,6.979397216796875,-1.5504250231713055,-2.349167171165347,-2.962817832441628
1684253242984423200,6.989423095703125,-1.7724644307971,-2.792521763795614,-2.9878911911606787
1684253242994449400,6.999449462890625,-1.996289260534942,-3.11571619156301,-3.0537261838570235
1684253243004474000,7.00947412109375,-2.2878259827569125,-3.45947409940958,-3.1390088043451305
1684253243014500400,7.019500244140625,-2.5514649364888666,-3.765338622191548,-3.116688251465559
1684253243024526300,7.0295263671875,-2.8066999267518518,-3.9878035617530343,-2.9410727413624524
1684253243034551300,7.03955126953125,-3.124233844539523,-4.204806728777289,-2.6314269464761018
1684253243044577300,7.049577392578125,-3.3783079743295907,-4.444124603462219,-2.3226168717615305
1684253243054603300,7.059603271484375,-3.543800149825215,-4.667522439959645,-1.9852365361228583
1684253243064628500,7.06962841796875,-3.580178454151749,-4.8787616366297,-1.5510188974112271
1684253243074654500,7.079654541015625,-3.426526354053616,-5.054996739935874,-1.0981669931173323
1684253243084680200,7.08968017578125,-3.228274649250507,-5.2123558778584,-0.6880556216582655
1684253243094705400,7.099705322265625,-3.1526310869842766,-5.363773350772261,-0.3820917301550507
1684253243104731400,7.1097314453125,-2.986784983484447,-5.485911537709832,-0.13773206191062926
1684253243114757400,7.11975732421875,-2.5830057376563547,-5.52435378882885,0.04131897559911012
1684253243124783400,7.129783447265625,-2.1123159788548946,-5.425787616136669,0.2787365696206689
1684253243134808300,7.139808349609375,-1.5285072058737277,-5.107404972565174,0.5246984123647213
1684253243144834300,7.149834228515625,-0.6627218584373593,-4.449544874945283,0.7057450076058507
1684253243154860300,7.1598603515625,0.8555985922038555,-3.3332588722914456,0.7198024667918682
1684253243164885200,7.16988525390625,3.072826897907257,-1.4681640885919331,0.778692170394957
1684253243174911200,7.1799111328125,4.983825354647636,1.131307046175003,0.462896328446269
1684253243184937200,7.189937255859375,5.4909740817964074,4.633785005530715,-0.8079954217687249
1684253243194962200,7.199962158203125,5.172355875903368,8.016962047201394,-2.1766323836818335
1684253243204988200,7.20998828125,4.65210801320672,10.545165350568293,-3.2379657299205657
1684253243215014100,7.22001416015625,3.7915000684082507,12.351606869769096,-4.234143005637824
1684253243225039400,7.230039306640625,3.0237372883066533,13.392584241199492,-5.2728527243971826
1684253243235065300,7.2400654296875,2.747879488992691,13.536872300624847,-5.670217719268798
1684253243245091000,7.250091064453125,3.3603146369993686,11.425198126804828,-3.5202672985464334
1684253243255117000,7.260116943359375,4.279108228784799,5.631865484520793,-0.45429391979575157
1684253243265142300,7.270142333984375,4.538840530467033,1.481004865464568,1.392079796820879
1684253243275168300,7.280168212890625,4.379474144375324,-0.6273983238607644,2.8160727352529764
1684253243285194200,7.2901943359375,3.905928411620855,-1.9363526782274245,3.7558243593931198
1684253243295219200,7.30021923828125,1.8237690860986708,-2.4245178879648446,3.5549686095714566
1684253243305245200,7.3102451171875,-0.3879635447978973,-2.3599457548111675,2.7106080352187156
1684253243315271400,7.320271484375,-1.1633935715917496,-2.1626111648529767,1.9292805478841066
1684253243325296000,7.330296142578125,-1.2081927905220538,-2.131860637280345,1.3379483936607837
1684253243335322400,7.340322265625,-1.4028184868477285,-2.1015958473980425,0.8523013042241334
1684253243345348400,7.350348388671875,-1.7107659533835946,-1.9879700527399777,0.6112982529312372
1684253243355374300,7.360374267578125,-1.9448469503283499,-1.7493021663963795,0.7507236747562885
1684253243365399300,7.3703994140625,-2.3022340089462694,-1.290914255285263,0.7506763284832239
1684253243375425300,7.38042529296875,-2.9283202272951603,-0.4762602524101734,0.5769459014743566
1684253243385451300,7.390451171875,-3.5580782660245895,0.465615524277091,0.34975977860987184
1684253243395476200,7.400476318359375,-4.039261361789703,1.2070026308894157,0.14733283394873142
1684253243405502200,7.410502197265625,-4.1353640669777985,1.7368009967416524,0.02778875515758991
1684253243415528200,7.420528076171875,-4.258756637890636,1.8867524887561797,0.22626024019122123
1684253243425553400,7.430553466796875,-4.255134648001194,1.3858447018235922,0.4760498245298862
1684253243435579400,7.440579345703125,-3.974534914857149,0.7679477812796831,0.6932943990945816
1684253243445605400,7.45060546875,-3.493755139195919,0.2021925513833761,0.7306815882027149
1684253243455630300,7.46063037109375,-3.1420179230332375,-0.27492636368274687,0.5608394008040428
1684253243465656300,7.47065625,-3.054741790640354,-0.7311936293780803,0.1588841555327177
1684253243475682300,7.480682373046875,-2.8745629181444645,-0.9892430925399065,-0.596098930233717
1684253243485707300,7.490707275390625,-2.4396470680356024,-0.6392863300532102,-1.4813041406720875
1684253243495733200,7.500733154296875,-1.6854244452476501,0.03556464985609054,-1.8440175088793038
1684253243505759200,7.51075927734375,-0.8107114027291535,0.5130447994500398,-1.2977151674717664
1684253243515785200,7.52078515625,0.05936344032837078,0.6581219634264707,-0.2874561749100685
1684253243525810200,7.53081005859375,0.6401449927091598,0.6564882247447967,0.6563041003495454
1684253243535836200,7.540836181640625,0.833749163967371,0.5749509282648563,1.4506921447873116
1684253243545862100,7.550862060546875,0.6708721394062042,0.4777572129696607,1.9788585255235431
1684253243555887000,7.56088720703125,0.4825999768257141,0.3798264155715704,2.2357664174348115
1684253243565913000,7.5709130859375,0.3403063060879707,0.3105839525192976,2.3499416626691816
1684253243575939000,7.58093896484375,0.29495443997727705,0.516962849676609,2.474389295592904
1684253243585964300,7.59096435546875,0.3697860830724239,1.000689200183749,2.4934201592773197
1684253243595990300,7.600990234375,0.6139701024889945,1.5794915431797503,2.3841648347884417
1684253243606016300,7.611016357421875,1.1069769070386886,1.8661895931988954,2.2440040844261646
1684253243616041200,7.621041259765625,1.7011977684408426,1.6299848820984362,1.9172715456604956
1684253243626067200,7.631067138671875,2.1320774949014187,1.0878174485385417,1.3002496543854474
1684253243636093400,7.641093505859375,2.303996488574147,0.5580407099962235,0.31183599840700627
1684253243646119400,7.651119384765625,2.5556068585991856,0.18980010280013082,-0.5950853692770004
1684253243656144400,7.661144287109375,3.838042039352655,-0.2599585116535425,-1.3829343673348427
1684253243666170400,7.67117041015625,6.167292796170711,-0.8404115444660186,-2.143223742815852
1684253243676196400,7.6811962890625,6.243885037463903,-1.0101625464498996,-2.1173381909310818
1684253243686221300,7.69122119140625,3.341546223643422,-0.48722120688557624,-0.9530810613125562
1684253243696247300,7.701247314453125,1.4788690224796532,-0.12226911984086036,-0.1880371847808361
1684253243706273300,7.711273193359375,0.8115958574134856,0.0029196868389844894,0.004541735082864761
1684253243716298200,7.72129833984375,0.29108722488880157,-0.02975391775071621,0.31208851186335085
1684253243726324200,7.73132421875,0.08363927372787147,-0.08463643153905868,0.7118406941324472
1684253243736350200,7.74135009765625,-0.07945170411122962,-0.16271628104150293,1.0962830790668725
1684253243746376200,7.751376220703125,-0.35275428425073624,-0.28260522774755953,1.4708949748605489
1684253243756401400,7.7614013671875,-0.523164042404294,-0.35890520809590815,1.9229694650411604
1684253243766427400,7.771427490234375,-0.46699674950242037,-0.3680529756695032,2.394808978399634
1684253243776453400,7.781453369140625,-0.22570960230482742,-0.2975894463896751,2.7978081797659398
1684253243786478300,7.791478271484375,0.006337989116180688,-0.15487375084757804,2.952287962859869
1684253243796504300,7.80150439453125,0.28260343764927237,0.0582668955296278,2.8213310941725966
1684253243806530300,7.8115302734375,0.6527904662054032,0.254248901835084,2.5009949784457683
1684253243816555300,7.82155517578125,1.212230083214119,0.3723468734711408,2.2023756044864653
1684253243826581200,7.831581298828125,1.9484885217010974,0.4315688777685165,2.012795866438746
1684253243836607200,7.841607177734375,2.7637235393345354,0.4468862738877535,1.9868851801127194
1684253243846632200,7.851632080078125,4.016894631680846,0.34578912141323087,2.2085300354629753
1684253243856658200,7.861658203125,7.732322683277726,0.010371756410598754,2.819667544874549
1684253243866684200,7.87168408203125,9.071122725331783,-0.6552309181600808,3.387012674310803
1684253243876710100,7.881710205078125,7.221588498857617,-1.240614977633953,3.3418677106827497
1684253243886735000,7.891735107421875,6.129598148548602,-1.5255676452904938,1.9934218884050845
1684253243896761000,7.901760986328125,5.114252646502852,-1.4633780233591793,-0.00768061763048172
1684253243906787300,7.911787353515625,4.548187035483122,-0.5704881036370992,-1.361019472646713
1684253243916812300,7.921812255859375,3.6474212678194045,1.360575820532441,-1.9603285970985889
1684253243926838300,7.93183837890625,1.9488216991782188,3.757043087533116,-2.5428601897507903
1684253243936864300,7.9418642578125,1.171545386930555,6.820798205712437,-3.933952144578099
1684253243946889200,7.95188916015625,3.0908067912340162,11.37551142809391,-6.4816644505351775
1684253243956915500,7.96191552734375,3.9671348677337166,15.713033267402649,-8.306132040292024
1684253243966941400,7.97194140625,2.2463763665154577,15.579520284491776,-7.462642403554916
1684253243976966000,7.9819658203125,1.6186249914333224,13.043699491858481,-5.505027741590142
1684253243986991900,7.991991943359375,-2.722390242949128,9.795837514084576,-4.055622129482031
1684253243997017900,8.002017822265625,-10.024012647986412,7.431351193234324,-1.9576321976214646
1684253244007043800,8.0120439453125,-15.493713640129565,5.821535238939523,2.040064397114515
1684253244017068800,8.02206884765625,-15.809160230249166,3.7754368223577734,7.059302425926924
1684253244027094800,8.0320947265625,-15.342165818834303,1.9479308878183363,10.979622935515641
1684253244037120800,8.042120849609375,-14.311231702512503,1.0619500168323517,13.740310468155144
1684253244047145700,8.052145751953125,-10.20984384715557,1.3326836050003765,16.69838636676669
1684253244057171700,8.062171630859375,-4.926093881168962,2.44127437697649,19.032337848621605
1684253244067197700,8.07219775390625,-4.338927614453435,3.369866309198737,17.132520126587153
1684253244077223000,8.082222900390626,-6.172373460435867,3.971768957275152,12.14503215777874
1684253244087249000,8.092248779296876,-6.769412886390089,4.322107997077703,6.063223349887132
1684253244097275000,8.10227490234375,-3.602412205530703,5.23275861441791,0.7506965675536542
1684253244107300900,8.11230078125,3.5404221978247166,6.919912659937143,-3.589327683030069
1684253244117325800,8.122325927734375,9.970517204642295,7.630057071545719,-7.75402305843234
1684253244127351800,8.132351806640624,11.900599132037161,4.73698526776433,-10.243176792436838
1684253244137378000,8.1423779296875,8.580855574879049,1.95592480918169,-8.853241606429219
1684253244147402800,8.15240283203125,2.365765839266777,1.1936340307503939,-6.156354638049006
1684253244157429000,8.162428955078125,-3.798040283831954,0.4383937553524971,-4.883855744898319
1684253244167455000,8.172455078125,-7.493465996363758,-1.0085732314318419,-4.690850416316092
1684253244177479700,8.182479736328125,-8.67867297503054,-2.3565911836862563,-3.9400139288350937
1684253244187506000,8.192505859375,-8.404433424568175,-3.3410131396800278,-3.0899300083994863
1684253244197532000,8.202531982421876,-6.828143892300129,-3.9522599546849726,-2.6458272277504205
1684253244207556900,8.212556884765625,-4.411241740036011,-4.196250497356057,-2.8265236943796275
1684253244217582800,8.222582763671875,-2.3796184235304594,-3.7963790726214643,-3.3117683404952287
1684253244227608800,8.23260888671875,-2.055748288458586,-2.487307813876867,-2.9253987868905065
1684253244237634000,8.242634033203124,-3.102728115174174,-1.8413082499206066,-2.0671299525640903
1684253244247660000,8.252659912109374,-4.529306978446245,-2.390477086675167,-1.8937433705568312
1684253244257686000,8.26268603515625,-5.728270679786801,-3.498884903299808,-1.920208183634281
1684253244267712000,8.2727119140625,-6.320457405012846,-4.733918281409144,-1.6207548430688679
1684253244277737000,8.282737060546875,-6.720256349033117,-5.832800144797563,-1.3327404497541486
1684253244287763000,8.292762939453125,-7.141810028743744,-6.40571693688631,-0.9230285990066825
1684253244297789000,8.302788818359375,-7.16253600590825,-6.745403649771213,-0.3827598386749625
1684253244307814000,8.31281396484375,-6.615740912547707,-7.139194293287396,0.07057035065516828
1684253244317840000,8.32283984375,-5.576116124770045,-7.564492420223355,0.40732685530707236
1684253244327865900,8.332865966796875,-4.150770018163323,-8.040373317927122,0.482230851252377
1684253244337890800,8.342890869140625,-2.231606667406857,-8.579516435229777,0.6277604351714253
1684253244347916800,8.352916748046875,0.12868629340678453,-9.09859876127839,1.3641235761418937
1684253244357942800,8.36294287109375,2.496350075249374,-8.954125992935895,3.1112285247549414
1684253244367967700,8.3729677734375,3.6276834249094128,-6.496612428820133,5.057973125398159
1684253244377993700,8.38299365234375,6.712748749881983,-1.2206564777106046,7.889390144777297
1684253244388019700,8.393019775390625,28.037298541259766,18.148457749307155,13.181356734967231
1684253244398045700,8.403045654296875,8.046012785118817,38.87219268784523,-0.6502671582728624
1684253244408071000,8.41307080078125,-21.219690071499347,37.07248719890117,-19.85349407299757
1684253244418097000,8.423096923828124,-22.056594484627247,28.832428343975543,-24.295963310468196
1684253244428123000,8.433122802734376,34.44555697932243,11.423245823693275,-18.78101915501952
1684253244438147800,8.44314794921875,44.69708892765045,-5.929161500921845,-7.649137619590759
1684253244448173800,8.453173828125,2.068616245599091,-3.866565538525581,-5.329412231487035
1684253244458200000,8.463199951171875,-11.468000326699018,-0.36261750661730763,-5.2349850582957265
1684253244468224800,8.473224853515624,-9.555588496029376,-2.2648808682382104,-3.907633169712126
1684253244478250800,8.483250732421874,-8.726148427432776,-2.477779522553086,-4.487210296472907
1684253244488277000,8.493277099609376,-9.033666562640667,-2.789208109202981,-4.0641564413324
1684253244498303000,8.503302978515626,-7.742597993576526,-3.297755597233772,-2.240288278773427
1684253244508328000,8.513327880859375,-6.4027744536936275,-3.5011890885889527,-0.46323710470795626
1684253244518354000,8.52335400390625,-4.800285773546993,-3.390495840251446,0.952630102674663
1684253244528380000,8.5333798828125,-3.6333886508136986,-3.6703269271105525,2.183109178480506
1684253244538404900,8.54340478515625,-2.839335829679668,-3.5560774475961923,1.8180287888810038
1684253244548430800,8.553430908203126,-2.916167724947631,-2.7720465465217825,0.4609048623681068
1684253244558456800,8.563456787109375,-3.248349761290848,-2.1030635818630454,-1.054129113948345
1684253244568482000,8.57348193359375,-3.2700071740865706,-1.344727094015479,-2.4008979429244994
1684253244578507800,8.5835078125,-3.199488115227222,-0.43101825814843175,-3.333942762902379
1684253244588533800,8.59353369140625,-2.9694822587668894,0.5490238753259181,-3.8174724217936395
1684253244598559000,8.60355908203125,-2.617241184735298,1.270054422608018,-3.724784493485093
1684253244608585000,8.6135849609375,-2.2771827159285545,1.7185621602177619,-3.2593694602161642
1684253244618611000,8.62361083984375,-1.9165420623421667,1.9729110152959823,-2.518573012973368
1684253244628636000,8.633635986328125,-1.3871639677286147,2.1265496713906527,-1.6077642824620006
1684253244638662000,8.643661865234375,-1.0505214448451996,2.3664842166692015,-0.45641690329909324
1684253244648687900,8.65368798828125,-0.5677332519710063,1.937660838216543,0.7732748215213417
1684253244658713900,8.6637138671875,0.15307342342734337,1.5893986046880482,1.5584709669828414
1684253244668738800,8.67373876953125,0.6528969222545623,1.3033195633500814,2.253369001881778
1684253244678764800,8.683764892578125,0.8198077323764562,0.8161977251857518,2.756055488924682
1684253244688790800,8.693790771484375,0.9435925174772739,0.4918149644166231,3.311785876151919
1684253244698815700,8.703815673828124,1.0857529172241687,0.17289046905338762,3.456333463296294
1684253244708841700,8.713841796875,1.299150168710947,-0.14601181447803974,3.496254262535274
1684253244718867700,8.72386767578125,1.5003624768853188,-0.31281098091900345,3.497348487512767
1684253244728893000,8.733892822265625,1.629979621401429,-0.34367782834768296,3.578637069928646
1684253244738918700,8.743918701171875,1.6895546769201755,-0.2940489973038435,3.5481256118088957
1684253244748944600,8.753944580078125,1.602422336912155,-0.25997838539779183,3.39666079262197
1684253244758971000,8.763970947265625,1.3677157554149626,-0.19422201089560984,2.9843104100644586
1684253244768995800,8.773995849609374,1.0732944176673889,-0.14980068536698818,2.6096663655668495
1684253244779022000,8.78402197265625,0.6957634195566177,-0.06505027205944061,2.1530723521351813
1684253244789048000,8.794048095703126,0.24177111305594443,0.02347439908981323,1.656487396837771
1684253244799072800,8.80407275390625,-0.12314999432861805,0.0605237345457077,1.1461980335757136
1684253244809099000,8.81409912109375,-0.3296411927539855,0.18757307440042495,0.7783852964028716
1684253244819125000,8.824125,-0.33259302829690274,0.3583662789136171,0.45276422601044175
1684253244829150000,8.83414990234375,-0.16601006188988685,0.5181827468603849,0.27538813597559925
1684253244839176000,8.844176025390626,0.012014262920618057,0.6752332572251558,0.2980035801485181
1684253244849202000,8.854201904296875,0.15257131912410257,0.7076596090555191,0.3888607858985662
1684253244859227000,8.864226806640625,0.35888299626410003,0.6716834557890892,0.3995321097776294
1684253244869252900,8.8742529296875,0.6935335416126995,0.6611831045627593,0.41762627713382244
1684253244879278800,8.88427880859375,0.9868433379217981,0.5961316634595394,0.5499386520832776
1684253244889304800,8.894304931640624,1.2749575383491814,0.3814584006875753,0.8046551714301109
1684253244899329800,8.904329833984375,1.6131537204153834,0.01206336275935173,1.0373504131048916
1684253244909355800,8.914355712890625,1.9294116269178687,-0.4447673820376396,1.2428706476062537
1684253244919381800,8.9243818359375,2.2087528844334186,-1.013078726157546,1.5345628526508808
1684253244929407000,8.934406982421875,2.6083926923692227,-1.6019138028681277,1.7884648407444357
1684253244939433000,8.944432861328124,3.0018437286674975,-2.215423302108049,2.0081454102844
1684253244949459000,8.954458984375,3.514415065386891,-2.920163224324584,2.133798035083711
1684253244959484000,8.96448388671875,4.359832747577131,-3.5722950074255464,2.2471073111385107
1684253244969510000,8.974510009765625,5.177415497380495,-3.9125153887957334,2.225387939022481
1684253244979536400,8.984536376953125,5.606989986461401,-3.8262937338918444,2.0470400813460348
1684253244989561300,8.994561279296875,5.8203708713352675,-3.533853925350308,1.7486562697082757
1684253244999587300,9.00458740234375,5.9894613635838025,-3.116044692865014,1.3594360028475523
1684253245009613300,9.01461328125,6.028007659599185,-2.2180822921842336,0.8161381039530038
1684253245019638300,9.02463818359375,5.781418332606553,-0.6834878753513097,0.06402589744776487
1684253245029664300,9.034664306640625,5.417396219888329,1.1351947012633083,-0.9050622958138584
1684253245039690200,9.044690185546875,4.8810237363427875,2.920705660638213,-1.9667975008517502
1684253245049716200,9.05471630859375,3.8039842869281766,4.295056324023008,-2.8809292383059857
1684253245059741200,9.0647412109375,2.1372703873693943,4.613527230399847,-2.897320401136577
1684253245069767200,9.07476708984375,0.630521132056415,4.265991557580232,-1.6333350693091748
1684253245079793200,9.084793212890625,-0.5446946139499544,4.260222911050915,0.03312982392460108
1684253245089818000,9.094818115234375,-1.571092255885899,5.240048771426081,0.5271636334344745
1684253245099844000,9.104843994140625,-2.6841999207645655,7.047983744055032,0.3734454823628068
1684253245109870000,9.1148701171875,-3.3522365444838997,8.885006864002346,-0.35833822186291214
1684253245119895300,9.124895263671876,-3.8239907176464794,10.168260959923266,-1.9817042703434824
1684253245129921300,9.13492138671875,-4.600332233262062,10.72300029028654,-3.9772175780698653
1684253245139947300,9.144947265625,-5.5363423327863215,10.170338350719213,-6.906189255011081
1684253245149973200,9.15497314453125,-4.794803835004568,8.420792438694834,-7.466833425503968
1684253245159998200,9.164998291015625,-2.224639312612265,5.714988004365563,-5.850742628723383
1684253245170024200,9.175024169921874,0.10221607350185513,2.98427066257596,-4.602625312635302
1684253245180050200,9.18505029296875,1.3263818745076656,0.44212008239924905,-4.32528428902626
1684253245190075100,9.1950751953125,1.5810522166252134,-1.741061576795578,-4.516931188736856
1684253245200101000,9.20510107421875,1.789399345115572,-3.594666413709521,-4.302481213326752
1684253245210127400,9.21512744140625,2.7657670278608797,-5.186228918433189,-4.0957387435540555
1684253245220152000,9.225152099609375,3.9410321659669276,-6.286575009155273,-4.717588201116025
1684253245230178000,9.235177978515624,12.874174115324019,-7.439798703584074,-8.350608310878277
1684253245240204300,9.245204345703126,15.900862362390756,-7.503194778695702,-10.772233400011062
1684253245250229200,9.255229248046875,8.37574158309102,-6.359027666425704,-9.287890330034493
1684253245260255200,9.265255126953125,2.854497450715303,-5.369475361806154,-7.764274987855553
1684253245270281200,9.27528125,-0.3204845842868089,-4.40967639041543,-6.6177604356765745
1684253245280307200,9.28530712890625,-1.6230226418703793,-3.535788108283281,-5.809849477320909
1684253245290332400,9.29533251953125,-1.7289233952343463,-2.8704765256136655,-5.367895983660221
1684253245300358400,9.3053583984375,-0.782151663199067,-2.168082874262333,-4.57867306690067
1684253245310384400,9.31538427734375,1.6004630195379257,-0.9684142395228147,-4.088822388294339
1684253245320409300,9.325409423828125,2.6527906370222567,1.3067314176201819,-4.720629468508064
1684253245330435300,9.335435302734375,-0.2547803783632815,2.2999966052830216,-4.487250628483295
1684253245340461300,9.34546142578125,-1.1852034715354443,3.1777807258099315,-3.4792052203178403
1684253245350486300,9.355486328125,0.8783049295306206,4.577502561816573,-1.9822648268356917
1684253245360512300,9.36551220703125,2.98621010620594,5.993071370774508,-0.3792968387395143
1684253245370538200,9.375538330078125,0.9424806107126176,6.60697016159296,0.31078707387596366
1684253245380563200,9.385563232421875,-2.111281375110149,6.617750498804449,1.067745551368594
1684253245390589200,9.395589111328125,-5.245501191613077,6.680682463535666,2.469194649559259
1684253245400615200,9.405615234375,-8.267705571264027,6.3480807404756545,3.099544516701996
1684253245410641200,9.41564111328125,-9.005830461210012,5.3215702858150005,3.187736010374129
1684253245420666000,9.425666015625,-7.577767496860027,4.917508423653245,4.375990686173737
1684253245430692000,9.435692138671875,-4.737633210279047,4.7259167612612245,5.058371769326925
1684253245440718000,9.445718017578125,-2.249071596948802,4.230315264043211,3.4318276753321286
1684253245450743300,9.455743408203125,-0.7303069096714258,2.3408611151129004,0.46945144917815923
1684253245460769300,9.465769287109374,-0.8463783439159392,-0.08147358359396457,-0.9175514827698469
1684253245470795300,9.475795166015626,-2.0595178701251746,-1.6169740093559026,-0.8682795023396611
1684253245480820200,9.4858203125,-3.5477246297925706,-2.793841614222526,-0.4480091404378414
1684253245490846200,9.49584619140625,-4.446315976026654,-3.8991760147511956,0.5122682621195912
1684253245500872200,9.5058720703125,-5.097839856362342,-5.02863480271101,1.5438397995620965
1684253245510897200,9.515897216796875,-5.477230218604206,-6.281635214665532,2.432920682390034
1684253245520923100,9.525923095703124,-5.502170598593354,-7.3237383752554654,3.227305511957407
1684253245530949400,9.535949462890626,-5.35993245743513,-7.9775313695669166,3.650997665001452
1684253245540975400,9.545975341796876,-5.149436772608757,-8.34150029079318,3.8738010427370666
1684253245551000000,9.556,-4.537811187419295,-8.64030963436663,4.127942684805393
1684253245561026300,9.5660263671875,-3.642516544643044,-8.997185966983437,4.399827488835156
1684253245571052300,9.57605224609375,-2.3818834458529947,-9.37404418039918,4.803581307961046
1684253245581077200,9.5860771484375,-0.7488008900001645,-9.561646480894089,5.159143343108892
1684253245591103200,9.596103271484376,1.12200613386631,-9.212598649945855,5.317978398802876
1684253245601129200,9.606129150390625,4.005418421159685,-8.343356732314824,5.464906159082055
1684253245611154400,9.616154541015625,11.778864265203476,-6.460802864292264,4.234709115087986
1684253245621180400,9.626180419921875,32.829335249638554,-0.6527344251692294,-2.473906480512023
1684253245631206400,9.636206298828125,26.171247479748725,9.350057155612111,-13.436876971912383
1684253245641231400,9.6462314453125,-3.116811293323338,16.968317406380176,-17.408181818807122
1684253245651257300,9.65625732421875,-21.282584626829625,20.929329991841314,-21.65165642415285
1684253245661283300,9.666283447265625,-20.59660844179392,21.135521257472035,-22.612753034138677
1684253245671309300,9.676309326171875,-11.222965243411064,12.640775693815947,-12.464255928349495
1684253245681334300,9.686334228515625,-7.345883571568131,4.319471803355217,-4.317604255917668
1684253245691360300,9.6963603515625,-6.9203440370917315,1.3139742283552884,-2.1025231913760303
1684253245701386200,9.70638623046875,-5.465079762083292,-1.5892951443135737,0.1330330904394388
1684253245711411200,9.7164111328125,-4.770083819767833,-3.8460160869717597,1.795698591390252
1684253245721437200,9.726437255859375,-4.438127408874035,-5.031550982418656,3.0215783567070957
1684253245731463200,9.736463134765625,-4.251642714232206,-5.2209226306736465,3.816559398601949
1684253245741488000,9.746488037109375,-4.4609705243229865,-4.732649868908524,4.118630374319851
1684253245751514000,9.75651416015625,-4.235695203515887,-3.7495436716884374,4.031525214579701
1684253245761540000,9.7665400390625,-4.3633179593443865,-2.136095498371124,4.355878749254345
1684253245771565300,9.7765654296875,-5.029152689105272,0.39970366695225235,4.4781718344926835
1684253245781591300,9.78659130859375,-5.323349570447206,3.059980860337615,3.514863393676281
1684253245791617300,9.7966171875,-5.254270773524046,5.075158653476834,2.2640695518553255
1684253245801643000,9.80664306640625,-5.005643218702078,6.244090789169073,1.0225900663465262
1684253245811668200,9.816668212890624,-4.497717077440023,6.3138219125211235,1.1676987945050001
1684253245821694200,9.826694091796876,-3.9468975508689876,5.517753952172399,1.9852865127444266
1684253245831720400,9.836720458984376,-3.554054417335987,4.24850149359703,2.7359458900928497
1684253245841745200,9.8467451171875,-3.8570939458251,2.048684925943613,3.462786000436544
1684253245851771400,9.856771484375,-2.199187768230587,0.7763257335245609,4.119446659138799
1684253245861797400,9.86679736328125,-0.4609411757905036,0.9820780232161282,4.547429495114088
1684253245871822000,9.876822021484376,0.8480571638483554,1.063693061107397,4.746664950257539
1684253245881848300,9.886848388671876,2.5266964059352874,0.13147241699397563,4.561942589113116
1684253245891874300,9.896874267578125,4.755845451056957,-1.1651678147226572,3.9217502501308914
1684253245901899300,9.906899169921875,5.393077186667919,-1.4699930575847624,3.353442997664213
1684253245911925200,9.91692529296875,4.68263876054883,-0.7537076590031385,2.7987743944495915
1684253245921951200,9.926951171875,3.9959365993261335,0.4739940610438585,2.109398045581579
1684253245931977200,9.936977294921874,3.6029672090649605,1.5682693074196576,1.4805840097039937
1684253245942002200,9.947002197265626,3.606252222084999,2.0390718789458275,1.2085025140583514
1684253245952028200,9.957028076171875,3.5046249082565306,2.1093881087094544,0.9146580994158983
1684253245962054100,9.96705419921875,2.9687212112665176,2.5994214504063127,0.039760932502150535
1684253245972079400,9.977079345703125,2.2826257837653157,2.795512177783251,-0.13418050690889358
1684253245982105300,9.987105224609374,1.6059551872134208,2.054910084068775,0.9069909257888793
1684253245992131600,9.997131591796874,1.2882143486768007,0.9591104046046733,2.389813069808483
1684253246002156300,10.00715625,1.2514064207613467,-0.1905810240447521,3.381602924221754
1684253246012182500,10.0171826171875,0.9372668215870856,-0.5591676681995391,3.3818758959442374
1684253246022208500,10.02720849609375,0.6589753653854131,-0.37872108467817306,2.7968156615972517
1684253246032234500,10.037234375,0.4563116893589496,0.10025427190959453,1.8748340874254703
1684253246042259500,10.047259521484374,0.497661936879158,0.9503045823365449,0.7088298218786716
1684253246052285400,10.057285400390626,1.14380339352414,1.8620605305701494,-0.21972236285507676
1684253246062311400,10.0673115234375,1.7755039446234702,2.281810960251093,-0.691536741772294
1684253246072336400,10.07733642578125,2.363416061270237,2.3256349044084548,-0.6885305456936359
1684253246082362400,10.0873623046875,2.8172698360830544,1.8513795620799063,0.1724649371176958
1684253246092388400,10.097388427734375,3.0141303787887095,1.518564488530159,0.8654244051694869
1684253246102413300,10.107413330078124,3.4645687922000885,1.1261229215353727,1.7402829936385154
1684253246112439300,10.117439208984376,3.5057688175946473,0.8122276525110006,2.2814871351242063
1684253246122465300,10.12746533203125,3.3130557499572633,0.5987514905691147,2.5240175421148536
1684253246132490500,10.137490478515625,3.2926538901805875,0.25402386090755463,2.777588983079791
1684253246142516500,10.1475166015625,3.464626659867167,-0.15962357572317123,2.8283815972059965
1684253246152542500,10.15754248046875,4.337027333790064,-0.7614046432465315,1.8715683636277913
1684253246162568400,10.167568359375,5.149515098541975,-1.4785779305785893,1.154453528484702
1684253246172593400,10.177593505859376,5.144692208430171,-1.9792454790145158,1.2003443420439959
1684253246182619400,10.187619384765625,4.420806856238841,-1.8476345303326844,1.0371031603455543
1684253246192645400,10.197645263671875,3.773589733186364,-1.478518893867731,0.8579729201197623
1684253246202670300,10.20767041015625,3.1364602889060973,-1.1135498556882142,0.8533283091843128
1684253246212696300,10.2176962890625,2.685470086830854,-0.9623340428262949,0.7229249827265739
1684253246222722300,10.227722412109374,2.3774681136287747,-0.8062678673237562,0.38962534053027625
1684253246232747300,10.237747314453125,2.232116224364191,-0.3863537715137005,0.1999970871657133
1684253246242773200,10.247773193359375,2.164311539030075,0.8829846117794513,-0.22165362317860124
1684253246252799200,10.25779931640625,1.9856389794439075,3.0941479183554645,-0.9015262306421995
1684253246262824200,10.26782421875,1.6191916854053734,5.805355088511109,-1.8959744906097649
1684253246272850200,10.27785009765625,1.175187104433775,8.580901167586445,-3.4107460165977477
1684253246282876200,10.287876220703126,0.14784078347086907,10.783825638127327,-4.8498108519554135
1684253246292901400,10.2979013671875,-1.9514742595136165,11.579869633078575,-4.909731359910965
1684253246302927400,10.30792724609375,-4.645740231740475,11.029297943788766,-3.5608138284683224
1684253246312953600,10.31795361328125,-5.022043733882904,9.416429616186022,-2.974546556419134
1684253246322979300,10.327979248046875,-4.755962355434894,6.830608821108937,-2.9829648406744003
1684253246333004500,10.338004638671874,-4.526851986509561,3.9422926874220368,-1.915456020671129
1684253246343030500,10.348030517578126,-3.7191020639345047,1.262726856198907,-1.2038806994765996
1684253246353056500,10.358056396484375,-3.085245649975538,-0.13797288492918014,-0.5812678563266992
1684253246363081500,10.36808154296875,-2.77058728762418,-0.7794552637219428,0.09252104730904102
1684253246373107500,10.378107421875,-2.2269591338619588,-1.0991343768447637,0.8037544231981039
1684253246383133400,10.388133544921875,-1.641819112277031,-1.0843401278167963,1.5257757350832224
1684253246393158400,10.398158447265626,-1.4797706474944947,-0.8688754224061965,2.5252917998343705
1684253246403184400,10.408184326171876,-2.316471939265728,-0.16287351742982864,3.5672704572618006
1684253246413210400,10.41821044921875,-3.885558992809057,0.7140297286093235,4.488312704756856
1684253246423235300,10.4282353515625,-4.933503865164518,1.5379571712642908,4.652149514260888
1684253246433261300,10.43826123046875,-6.127399761721492,2.5642852550953625,4.4956624829977745
1684253246443287300,10.448287353515624,-6.432179996398091,3.30273864634335,4.1442900084942575
1684253246453313300,10.458313232421874,-5.971107376247644,3.5640403892993926,3.0298879198908804
1684253246463338500,10.46833837890625,-5.365034164488315,2.9230805730760094,2.1239368585437535
1684253246473364500,10.478364501953125,-4.458924989970028,1.7455939595282077,1.6244582276314496
1684253246483390200,10.48839013671875,-3.6001425070330497,0.6588268968254327,0.8827490494579077
1684253246493415400,10.49841552734375,-2.420122575615346,0.5981786591172218,0.018881810602545738
1684253246503441400,10.50844140625,-1.010092988345027,1.1533195560187102,-0.4736106146842241
1684253246513467400,10.51846728515625,0.7493623232752085,1.761421643257141,-0.6785825676530599
1684253246523492400,10.528492431640625,2.6400200027763843,2.294861580482125,-0.4532674993574619
1684253246533518300,10.538518310546875,4.228832039748132,2.532946698501706,0.08908756572902202
1684253246543544300,10.54854443359375,3.991636856305599,2.1107927148103713,0.7233207040458918
1684253246553569300,10.5585693359375,2.898308827652037,1.6294757635325192,1.2940005308628082
1684253246563595300,10.56859521484375,1.0898001467883587,1.0735697274774312,1.3750418605193495
1684253246573621200,10.578621337890626,-2.3478464439556,-0.4085246867895126,2.573044023351371
1684253246583647200,10.588647216796875,-4.858294018140435,-1.7609084330379963,3.317961057655513
1684253246593672200,10.598672119140625,-5.451071694996953,-1.5697411335378884,0.9366419676870107
1684253246603698200,10.6086982421875,-5.609459591445327,-1.4505267250925302,-0.9431544183209538
1684253246613724400,10.618724365234375,-5.299626749554276,-1.590295845788717,-1.9859803402274845
1684253246623749400,10.628749267578126,-5.190185547104478,-1.7882453527748583,-2.0819646797329185
1684253246633775400,10.638775390625,-4.853348378431797,-2.5664228516459464,-2.180425053963065
1684253246643801300,10.64880126953125,-2.724098215910792,-5.094797419926524,-2.4574147799164057
1684253246653826600,10.65882666015625,-3.6244986573934552,-3.7866029440164564,-1.5825903859779238
1684253246663852500,10.6688525390625,-3.6065059045851227,-1.7856822242885826,-2.2013304793477055
1684253246673878500,10.67887841796875,-3.5194518905103203,-2.214737073409557,-2.6771476641654965
1684253246683903500,10.688903564453126,-3.8293449381560083,-3.0463895573586224,-2.597727505970001
1684253246693929500,10.698929443359376,-4.1259985650002955,-3.038963791272044,-2.0123238650128243
1684253246703955500,10.70895556640625,-4.534890331536531,-2.018172883301973,-1.6949895614504813
1684253246713981400,10.7189814453125,-5.389900310197472,-1.4666981076925991,-1.853571811427176
1684253246724006400,10.72900634765625,-5.612495598140359,-1.7891548688352108,-2.612179225170612
1684253246734032400,10.739032470703124,-4.96272528347373,-1.5596084465801714,-3.918447993715107
1684253246744058400,10.749058349609374,-4.2421813506647945,-1.073989998716116,-4.2295375576689835
1684253246754083300,10.759083251953125,-3.0780770735204217,-0.5980512333452701,-2.871252770683169
1684253246764109300,10.769109375,-1.3484209800973534,-0.40708091772198673,-1.0549307857200503
1684253246774135300,10.77913525390625,0.5973568213403224,-0.2827764926612377,0.8029080355018376
1684253246784160300,10.78916015625,2.1517326279640194,-0.11590309194028377,2.429228549873829
1684253246794186200,10.799186279296874,2.916357986822724,0.06401040761768817,3.3107787449359893
1684253246804212200,10.809212158203126,2.9485248109340665,-0.07473579977154732,3.585141629517078
1684253246814237400,10.819237548828125,2.96571326162219,-0.2719587460488081,4.197467471930384
1684253246824263400,10.829263427734375,2.957858456468582,-0.4044394633024931,4.0741593644306064
1684253246834289400,10.839289306640625,3.1384380187198517,0.09768763629198074,3.0348174852475522
1684253246844315400,10.8493154296875,3.582721124371886,1.160336156782508,2.345904954499006
1684253246854340400,10.85934033203125,4.355092275051772,2.5590011772125956,1.7825363274782895
1684253246864366300,10.869366455078126,4.932635265636444,5.038807237157226,1.637370608435571
1684253246874392300,10.879392333984375,5.376380903410912,6.784493551144004,0.7098705631032586
1684253246884417300,10.889417236328125,5.758925930291414,7.004064522829651,-1.111882799258828
1684253246894443300,10.899443359375,4.506882672931254,6.896720000398159,-2.3778926226511596
1684253246904469200,10.90946923828125,2.916936078971624,6.608510961294174,-4.358597068302333
1684253246914494200,10.919494140625,2.646355927799642,7.624557305085658,-6.269612183916569
1684253246924520200,10.929520263671876,1.7285550003133714,9.574435235318541,-6.596882482820749
1684253246934546400,10.93954638671875,-0.5598647105529904,9.478749001976848,-5.721906405451893
1684253246944571100,10.949571044921875,-0.4960594701185822,5.391959580814838,-5.355546205174923
1684253246954597400,10.959597412109375,2.625901753313839,3.0710061122208834,-3.8406747259438037
1684253246964623400,10.969623291015624,3.6319358216568824,2.7817244754493236,-1.7217086415499447
1684253246974649000,10.979649169921874,2.135636940948665,4.008545905530452,1.6334391142055391
1684253246984674300,10.98967431640625,0.7712973839685321,2.3704461060374973,2.2588488945975898
1684253246994700300,10.9997001953125,0.6947682710394263,-0.43801966134309767,1.8927920611813662
1684253247004726300,11.009726318359375,0.2596314716562629,-0.8038315800875425,2.852437303315103
1684253247014751200,11.019751220703125,-1.1245128559902309,-2.4837825623601675,1.2711509856730698
1684253247024777200,11.029777099609374,-2.171773253212869,-3.5168408312290906,-0.4620196917422116
1684253247034803200,11.03980322265625,-3.187273945820331,-3.5887779401928186,-1.256331602203846
