time,seconds_elapsed,z,y,x
1684252652125483500,0.0184833984375,-2.0103075567543507,1.8082964994177222,1.3153019698277115
1684252652135509500,0.028509521484375,-2.441134091722965,2.0246409102723,2.847100910723209
1684252652145535500,0.038535400390625,-3.038658670845628,3.3263495312944054,4.767315816359222
1684252652155561500,0.0485615234375,-3.7548967231541868,5.179837171569466,4.996023157441615
1684252652165587500,0.05858740234375,-4.254724313634633,4.9685079585283995,3.9591120125368233
1684252652175613400,0.068613525390625,-4.637400273418426,3.7730475891336797,3.4825656366616484
1684252652185639400,0.078639404296875,-4.608128586226702,3.108972270260751,2.828040820944309
1684252652195665400,0.08866552734375,-4.012196829253435,2.1951564668878913,2.1360162956550717
1684252652205691600,0.098691650390625,-2.017514711654186,1.881973730047047,1.2649603143393993
1684252652215717600,0.108717529296875,0.9281476955860852,1.0681021097213028,-0.7570159067682921
1684252652225742600,0.11874267578125,3.1372306887567043,-1.6503595616072415,-3.8182226556390524
1684252652235768600,0.1287685546875,3.863861540263891,-2.962323619183898,-4.96417957393527
1684252652245794600,0.138794677734375,3.4603742631196974,-1.6776503041148185,-3.9230066799327727
1684252652255820500,0.148820556640625,0.49570788020193574,-1.0839905837267636,-3.789281515575945
1684252652265846500,0.158846435546875,-1.3333324242979288,-3.01679638312757,-5.752513725161552
1684252652275872500,0.16887255859375,-1.916657213154435,-3.278720057374239,-5.4385903990864755
1684252652285898500,0.1788984375,-1.046628529059887,-0.5790040030479431,-3.183973735231161
1684252652295924500,0.188924560546875,0.405278836736083,3.5776959896862506,-0.1280766370758414
1684252652305950500,0.198950439453125,-0.6247463480472565,6.12730916082859,0.5389582622550427
1684252652315976400,0.2089765625,-0.9641028060644864,6.44049891193211,1.4721531582280993
1684252652326002400,0.21900244140625,0.3362029624223709,6.010259821462631,2.4149583247199655
1684252652336028700,0.229028564453125,1.309900110784173,5.12906443118751,1.0169880085557699
1684252652346054700,0.2390546875,5.074833659306169,7.391884275242686,0.9500932776734232
1684252652356080600,0.24908056640625,4.939443776607513,6.980851989546418,-3.098300361859798
1684252652366105600,0.259105712890625,5.112480960655212,6.113689216277003,-5.762094038933515
1684252652376131600,0.269131591796875,6.262332548302411,7.601476289227604,-6.072556410899758
1684252652386157600,0.279157470703125,6.537829405349493,9.160516580531,-6.188777482748031
1684252652396183600,0.28918359375,6.196144796645641,10.73359416501522,-5.813841761827469
1684252652406209500,0.29920947265625,5.201045379292965,11.713322994756698,-5.5947875074923035
1684252652416235500,0.309235595703125,4.289906393913925,12.235796716809272,-5.398220394775271
1684252652426261500,0.319261474609375,5.028762813004851,12.896468949240445,-5.882484505420923
1684252652436287700,0.329287841796875,5.579786337715387,13.326598734116553,-5.9830368834942576
1684252652446313700,0.339313720703125,4.5679508896172045,13.490684549945593,-5.2852802442938085
1684252652456339700,0.349339599609375,3.8672050054728984,12.64164429334402,-4.803563480043411
1684252652466365700,0.35936572265625,3.2079052304387092,11.80181259459257,-3.830384218075871
1684252652476391700,0.3693916015625,2.6863106293082235,11.671758812224864,-2.9337311464279887
1684252652486417400,0.37941748046875,1.4587749134778976,11.811767002373934,-2.2828502401709554
1684252652496443400,0.389443359375,0.19427396027855573,11.780920613211393,-0.8327823647618293
1684252652506468600,0.399468505859375,-0.9873394508756697,11.99044131552577,1.237922085288167
1684252652516494600,0.40949462890625,-2.253619469511509,12.278251710700989,3.5909506080567835
1684252652526520600,0.4195205078125,-2.459357146155834,11.741695687282085,6.453641886621713
1684252652536546600,0.429546630859375,-1.9261384504660963,10.865131463938951,9.267117591118812
1684252652546572500,0.439572509765625,-0.9065899437725543,9.872698635447025,11.73875554217696
1684252652556598500,0.4495986328125,0.8531983991943299,7.889674806937575,14.533084647655485
1684252652566624800,0.459624755859375,2.5103087502360344,5.5924277926236385,19.020898755240438
1684252652576650500,0.469650390625,3.707462187284231,3.271159266731143,23.28893964656591
1684252652586676500,0.479676513671875,4.717205047017336,1.45108669706285,26.02913851792812
1684252652596702500,0.489702392578125,5.302457589066028,0.052386605319380754,27.05577406027317
1684252652606728400,0.499728515625,6.276048938965797,-1.6828677465021609,26.756318820011614
1684252652616754400,0.50975439453125,8.054128287035226,-3.7346161516696212,24.91944241505861
1684252652626780400,0.519780517578125,7.119411149930953,-4.8103345816135405,21.055928080797194
1684252652636806400,0.529806396484375,7.707766334170103,-5.346123712313175,18.90808486148715
1684252652646831600,0.53983154296875,7.212458266940713,-6.104468383467197,15.50107043263316
1684252652656857600,0.549857666015625,4.973706696215272,-6.450722199782729,12.851908507502078
1684252652666883600,0.559883544921875,4.116331741988659,-7.710393175542354,10.422259101867676
1684252652676909600,0.56990966796875,4.058921171027421,-8.383414601936936,8.085605375316739
1684252652686935600,0.579935546875,3.855998551803827,-8.494355103033781,6.189477739971876
1684252652696961500,0.58996142578125,3.7455928882360454,-8.710770241037011,4.041307188403606
1684252652706987500,0.599987548828125,3.682935648792982,-8.415648646065593,2.270187742474675
1684252652717013500,0.610013427734375,3.5774101584821936,-7.5986325902342795,0.7609849565297365
1684252652727039500,0.62003955078125,3.236501794847846,-6.559238104081153,-0.4287579120010137
1684252652737065500,0.6300654296875,2.4628666155815124,-5.415447423908114,-1.8281050694763659
1684252652747091500,0.640091552734375,6.915700010678171,-1.7550310654371977,-6.581759147968888
1684252652757117400,0.650117431640625,12.704807728743553,2.454119830024242,-10.772053367269038
1684252652767143400,0.660143310546875,6.889290727180242,1.5158587367027998,-8.78298616694212
1684252652777169400,0.67016943359375,0.9345324281871318,0.5755830886885523,-5.47112605651021
1684252652787194400,0.6801943359375,-1.938526515135169,2.0627236804291607,-4.964466574183106
1684252652797220400,0.690220458984375,2.5067981117665767,-1.255085693795979,-4.8630531953662635
1684252652807246300,0.700246337890625,1.8857704919815061,-5.7215352340519425,-0.3636123628735542
1684252652817272300,0.710272216796875,1.119389813888073,-2.477434654638171,0.3499707910120487
1684252652827298600,0.720298583984375,1.7724761212348936,-1.4069769217014312,-0.2718143691420555
1684252652837324500,0.730324462890625,-1.0690461125731467,3.579736555603146,1.276803896868229
1684252652847350500,0.7403505859375,-3.3882805022895335,3.44776203430593,-0.6351420698553324
1684252652857376500,0.75037646484375,-1.0888953069031237,-0.8909396624371408,-2.7494822480142114
1684252652867402500,0.760402587890625,2.2584148870944976,-2.337202884866297,0.10928922675848006
1684252652877428500,0.770428466796875,1.4204770392656325,4.342886581212282,0.8708066827297211
1684252652887454500,0.780454345703125,-3.384299908220768,7.0365656934618945,2.1557482933461665
1684252652897480400,0.79048046875,-9.007584026879071,8.360676115906237,3.9578006376773116
1684252652907506400,0.80050634765625,-9.10083864915967,8.873936603933572,4.287285690021514
1684252652917532400,0.810532470703125,-6.10550649434328,7.914594728660583,2.3108231197237967
1684252652927557400,0.820557373046875,-1.347683021211624,6.182490365302562,0.6235562614798545
1684252652937583400,0.830583251953125,2.472674892890453,4.989537302553654,-0.6027268239408731
1684252652947609300,0.840609375,5.187382764643431,3.8374943423420187,-0.9189683638304471
1684252652957635600,0.850635498046875,7.1003884695529935,3.9224925929307934,-0.9651374098092317
1684252652967661600,0.86066162109375,7.475840907824039,4.783027472493052,-2.4262545024991033
1684252652977687600,0.8706875,5.523156687998771,5.860514665675163,-2.935439119389653
1684252652987713500,0.880713623046875,3.5860382860958575,4.538721288001537,-1.1313590686231851
1684252652997739500,0.890739501953125,2.168254723697901,2.06590435629189,-2.149650560992956
1684252653007765500,0.900765625,-0.33730990075096484,1.261577686163783,-4.2008033383548256
1684252653017791500,0.91079150390625,-2.4424058652244507,0.4161223023116588,-4.455500568479299
1684252653027817500,0.9208173828125,-3.9036183811128136,-0.4865928458541631,-3.273694922688603
1684252653037843500,0.930843505859375,-4.649209076894819,-0.9385919327110052,-1.4931845480799675
1684252653047869400,0.940869384765625,-5.7760085825175045,-0.3019733605623245,0.29486148273050783
1684252653057895700,0.950895751953125,-6.6433613254010675,1.4798510192543268,2.107384367671609
1684252653067920400,0.96092041015625,-4.397816733534634,1.7102584422528744,5.357839284548163
1684252653077946400,0.9709462890625,-3.0476015634968876,0.9808096107155084,3.345311129134893
1684252653087972600,0.98097265625,-3.1183342651069164,0.9697223995119333,1.4954688596248626
1684252653097998600,0.99099853515625,-2.2596052659228443,0.6951701298385858,-0.053767830544710155
1684252653108024600,1.001024658203125,-1.3863330698624252,0.31333471253216266,-0.8037240280598401
1684252653118050600,1.011050537109375,-0.6132645845681428,-0.436737804839015,-0.6625736821383238
1684252653128076500,1.02107666015625,-0.7564470208391547,-1.3288088093936443,-1.378620011267066
1684252653138102500,1.0311025390625,-0.7947475253999233,-1.316613929209113,-2.0766618971496817
1684252653148128500,1.04112841796875,-0.4452466899871826,0.16082067655324936,-1.230071956309676
1684252653158154500,1.051154541015625,-0.13695552458018065,0.4215443273603916,0.23448446317911148
1684252653168180500,1.061180419921875,-0.17687252442687748,0.7462631882160902,1.6150550239920616
1684252653178206500,1.07120654296875,-0.03716244044154882,2.405160861065984,1.956820588977635
1684252653188232700,1.081232666015625,0.19288725516051053,1.0705085863411425,1.9375477332308888
1684252653198258700,1.0912587890625,0.2749325011625886,-1.419707808458805,2.1203297739624976
1684252653208283400,1.101283447265625,0.5191499844573438,-0.958465676960349,1.900724607746303
1684252653218309600,1.1113095703125,0.9403389225088059,-1.6094576423764229,2.94481631180495
1684252653228335600,1.121335693359375,0.9641020754121243,-1.6840215927124023,2.8088489214792847
1684252653238361600,1.131361572265625,1.337068249825388,-2.1314000340312718,2.4449025043457744
1684252653248387600,1.1413876953125,2.0124830010972916,-2.8104443739771843,2.052357184715569
1684252653258413600,1.15141357421875,3.022135990589857,-2.3445015174418686,1.715842672125995
1684252653268439600,1.161439453125,3.274933524572849,-1.7372750439941882,1.449719500362873
1684252653278465500,1.171465576171875,3.0124867032349107,-1.0584159974873066,0.9212633428998291
1684252653288491500,1.181491455078125,2.299070868740231,-1.2003320670843123,0.43005964224934573
1684252653298517500,1.191517578125,1.7908697099290787,-1.5984154393583536,0.2236427511692047
1684252653308543500,1.20154345703125,1.9661387446820735,-1.2914713046461344,0.5466971859440207
1684252653318569700,1.21156982421875,2.962556843417883,-0.6540700576871633,2.3560902484267947
1684252653328595700,1.221595703125,3.8818379264593124,-0.7310586048215627,4.878674250607192
1684252653338620700,1.23162060546875,4.315086720138788,-1.0644307277321814,6.762647045516967
1684252653348646700,1.241646728515625,4.336569068628549,-1.0480880802184342,7.48691642858982
1684252653358672600,1.251672607421875,3.974538421988487,-0.7643944727122783,7.334158646982908
1684252653368698600,1.26169873046875,3.3516324411109086,0.007445055308938026,6.104592302107811
1684252653378724600,1.271724609375,2.2367709183022377,1.363959033229947,4.880271164409816
1684252653388750600,1.28175048828125,0.5786874844446778,2.5787702920436857,3.9448654605194924
1684252653398776600,1.291776611328125,-0.5936980065718293,2.5479963835954664,2.143570656557381
1684252653408802600,1.301802490234375,-1.126579140870273,1.945074329343438,0.34187808544933795
1684252653418828500,1.31182861328125,-1.230963644452393,1.7179098337888716,-0.9252750627592206
1684252653428854500,1.3218544921875,-1.3029238420307636,1.6585475442379711,-1.6790467269092797
1684252653438880500,1.331880615234375,-1.39077222135365,1.252821548256278,-1.6441528159216046
1684252653448906500,1.341906494140625,-1.435690975010395,0.9016331981480121,-1.738356994011998
1684252653458932500,1.351932373046875,-1.3858818189635873,1.0775029752731322,-3.7245115217626092
1684252653468958500,1.36195849609375,-1.037959484913945,0.37529052570760246,-6.181416598591208
1684252653478983400,1.3719833984375,-0.4935188457250595,-1.325556529599428,-8.337201716816425
1684252653489009400,1.382009521484375,0.017664251506328582,-2.556459091514349,-9.696458271443843
1684252653499035400,1.392035400390625,0.19673750084787606,-3.267315450784564,-10.332612148690224
1684252653509061400,1.402061279296875,0.25776947717666626,-3.4940322025716304,-10.378003780555725
1684252653519087400,1.41208740234375,0.8248328670620918,-3.0168665257543323,-10.197752427345513
1684252653529113600,1.422113525390625,2.268262911891937,-2.6257021390885114,-9.385700715923308
1684252653539139600,1.4321396484375,4.372367527240515,-2.2082143936425447,-7.870397275015711
1684252653549165600,1.44216552734375,5.130746100664139,-0.36609424281716346,-6.938009457641839
1684252653559191600,1.452191650390625,4.825008419132232,2.376087326794863,-6.293783333098888
1684252653569217500,1.462217529296875,3.8373756843984124,2.080546045106649,-3.962089567042887
1684252653579243500,1.472243408203125,2.7150843038499355,1.4382184476613997,-1.9293787475615738
1684252653589269500,1.48226953125,1.9166282793208955,1.6933897250384091,-0.26605419818013903
1684252653599295500,1.49229541015625,0.19235081019625067,2.238704224452376,1.793581745366752
1684252653609320400,1.502320556640625,-2.08927295691967,3.7153164079159495,4.5666099964022635
1684252653619346400,1.512346435546875,-3.140034055739641,5.656850288173556,7.909082687240838
1684252653629372400,1.522372314453125,-2.4333342316269873,6.472146096083521,9.756777423328161
1684252653639398400,1.5323984375,-1.8073276543855665,6.728407506784796,10.915336049044132
1684252653649424400,1.54242431640625,-0.5296925673902034,7.0831082489281885,11.991572949904203
1684252653659450600,1.55245068359375,0.39474166063070293,8.090425342819094,13.28397189078927
1684252653669476600,1.5624765625,1.9917396344065665,8.157904303330183,13.3899994854033
1684252653679502600,1.572502685546875,4.550349766474962,7.516393867486715,12.188453950875997
1684252653689528600,1.582528564453125,7.252569912576675,5.557205672594905,9.695423667699098
1684252653699554600,1.592554443359375,10.483485431724786,2.3711317502141,3.7488735173419117
1684252653709580500,1.60258056640625,11.831253793132305,0.19503683440983294,-2.867672574108839
1684252653719606300,1.612606201171875,8.269971178108452,-0.8283084342181682,-3.903871479091048
1684252653729632300,1.62263232421875,4.10219215747714,-2.115955796661973,-1.0668969717152417
1684252653739658200,1.632658203125,0.9598901568055153,-3.8482629891157147,1.228940321931243
1684252653749683500,1.642683349609375,-0.40589346150308847,-5.681683116135001,2.2611403665356336
1684252653759709400,1.65270947265625,-1.582232804711908,-6.224668295818567,2.775447879397869
1684252653769735400,1.6627353515625,-2.5123031389236448,-6.230629834571481,3.1267078334376213
1684252653779761400,1.672761474609375,-3.199906632900238,-5.964841301590204,3.241329945656657
1684252653789787600,1.68278759765625,-3.8108234852984544,-5.228372362157702,3.230539671573043
1684252653799813600,1.692813720703125,-4.573431659115851,-4.288082393357158,3.3348440956562757
1684252653809839400,1.70283935546875,-5.495265641510486,-2.9509377172946927,3.199274180215597
1684252653819865300,1.712865234375,-5.994461363828182,-1.329174720096588,3.192408386099338
1684252653829891300,1.722891357421875,-6.017370530250668,0.5606915167659521,2.9602842223107815
1684252653839917300,1.732917236328125,-5.862020978584885,2.6770786905825137,2.085643368245661
1684252653849943300,1.742943359375,-5.174063848865032,4.918849901390075,1.31161188313812
1684252653859969300,1.75296923828125,-3.2060636942252514,7.6851313085138795,0.21691958039402962
1684252653869995300,1.762995361328125,-0.8497218091249465,10.23347372906804,-0.8492088911667466
1684252653880020500,1.7730205078125,-1.197201367843151,11.128125397765636,-0.8518547295004129
1684252653890046500,1.78304638671875,-2.9669919032558796,10.295063631540536,0.4408540079861879
1684252653900072400,1.793072509765625,-1.9004528050675986,7.852135642138123,2.0388100131392477
1684252653910098400,1.803098388671875,1.7396841509625314,4.525388343697786,3.2372534899979826
1684252653920124400,1.81312451171875,3.7303155318662524,1.3216601066827773,3.9756665492355823
1684252653930150400,1.823150390625,2.746752530789375,-1.1884551668077707,2.8539509227484463
1684252653940176400,1.83317626953125,1.1359034340545535,-2.5308441732645033,1.3662252245962618
1684252653950202400,1.843202392578125,0.5482514296486973,-2.255603336805105,-0.6860176860898732
1684252653960228400,1.853228271484375,-0.5711667335510253,-1.2122095518827438,-2.433696050676703
1684252653970254300,1.86325439453125,-1.9189014849498867,-0.5360831452101469,-3.375049849316478
1684252653980280300,1.8732802734375,-2.609936414679885,-0.22913901049792765,-3.964358973279595
1684252653990306300,1.883306396484375,-3.694002401730418,-0.3373316741913557,-4.255050476849079
1684252654000332300,1.893332275390625,-5.1584419168412685,-0.9716770407110452,-4.274472385677695
1684252654010358300,1.903358154296875,-5.831489646720886,-1.7674878114283084,-4.204629034122824
1684252654020383200,1.91338330078125,-5.354889202570915,-2.3204881891697644,-4.317907038256526
1684252654030409200,1.9234091796875,-4.87995581485033,-2.550944127485156,-4.683744091442227
1684252654040435200,1.933435302734375,-5.625983440744877,-2.487542791676521,-5.003346632197499
1684252654050461400,1.94346142578125,-6.627196957063674,-2.291566630589962,-4.950504099804163
1684252654060487400,1.9534873046875,-6.008070202463865,-2.1039047088623044,-4.841121934065223
1684252654070513400,1.963513427734375,-3.819011175668239,-1.9226228435605763,-5.042812381145358
1684252654080539400,1.973539306640625,-2.007959970714897,-2.0164450365960596,-5.3767415534168475
1684252654090565400,1.9835654296875,-2.314928801476955,-2.667286779886484,-5.555821524760127
1684252654100591400,1.99359130859375,-3.1432442499578,-3.3313013084828853,-5.508988461914658
1684252654110617300,2.003617431640625,-3.2265000407934186,-3.721270932406187,-5.4738528511255975
1684252654120643300,2.013643310546875,-2.867045966643095,-4.013600266310572,-5.417396219888329
1684252654130669300,2.02366943359375,-2.770765859061479,-4.279402827817202,-5.076742707797885
1684252654140695300,2.0336953125,-3.0026936234951016,-4.5057823104739185,-4.5931443675845856
1684252654150720300,2.04372021484375,-3.1771149553775784,-4.79929471668303,-3.8959666973158713
1684252654160746200,2.053746337890625,-3.1053146245360375,-5.097575067946314,-3.3109795282050967
1684252654170772200,2.063772216796875,-2.9526982972264286,-4.690523376318812,-2.5506656028047203
1684252654180798500,2.073798583984375,-2.762452788746357,-2.5693466301381584,-0.9928408247709274
1684252654190824400,2.083824462890625,8.807308122771978,5.990308920323848,5.1902176958084105
1684252654200850400,2.093850341796875,23.438528150486945,24.617258626616,18.289450274318455
1684252654210876400,2.10387646484375,-13.222732701450585,25.607922691869735,7.186765607279539
1684252654220902400,2.11390234375,3.119312170228362,25.03435240430832,2.0413661273628474
1684252654230928400,2.123928466796875,39.020181939876075,15.675407593363522,-0.8343325168132781
1684252654240954400,2.133954345703125,8.982735416826605,2.0124165117323396,-2.0374615211397407
1684252654250980400,2.14398046875,-9.217385884222388,-1.2340899597793817,-2.359426114851236
1684252654261006300,2.15400634765625,-5.006645089221,-1.190946399101615,-4.402237764847278
1684252654271032300,2.1640322265625,-0.9586551351178437,-0.3901666078001261,-4.407757697312533
1684252654281057300,2.174057373046875,8.607764040070771,1.3137035947203635,-4.186282937832177
1684252654291083300,2.184083251953125,8.054297213861346,3.536912728399038,-1.1637512259230016
1684252654301109200,2.194109130859375,-1.725598634725809,3.0283979735940694,1.6874606272503732
1684252654311135500,2.204135498046875,-3.74860609857738,2.6138965504825116,1.9371718856558202
1684252654321161500,2.214161376953125,-3.0658968063831327,2.5685920123785735,1.1947726793915032
1684252654331187500,2.2241875,-1.860186553391814,2.0074258638381957,-0.0953057095915079
1684252654341213400,2.23421337890625,-1.4822434673488138,1.0953127727299927,-0.8879054093077778
1684252654351239400,2.244239501953125,-2.2141958061397076,0.4169078997313976,-0.886657455073297
1684252654361265400,2.254265380859375,-2.480090137583017,0.10396657043099403,-0.8510589029476046
1684252654371291400,2.26429150390625,-1.9651614240825175,0.4267857351452112,-0.8938575957104563
1684252654381317400,2.2743173828125,-0.960535030580312,1.2401976290047168,-0.7058595738962292
1684252654391343400,2.28434326171875,0.1383129305385053,2.040517986100912,-0.12880612039417028
1684252654401369300,2.294369384765625,1.9849078886903821,2.5005226847589013,0.5048424960330128
1684252654411395300,2.304395263671875,3.9568765085697173,2.2184593088030815,0.78790920381248
1684252654421420300,2.314420166015625,4.81514636580944,1.2568027268469333,0.18291969563663005
1684252654431446300,2.3244462890625,4.913544196197391,0.3658294544011354,-0.7106684354826808
1684252654441472300,2.33447216796875,5.104751243185997,-0.3297235372751951,-1.231396482911706
1684252654451498200,2.344498291015625,4.996550980708003,-0.8948650191873312,-1.3244748718425632
1684252654461524200,2.354524169921875,4.353001732513309,-1.1290092906266451,-0.9318655470654368
1684252654471550200,2.36455029296875,3.6047611067444083,-1.0980319685608149,-0.5100502938091754
1684252654481576200,2.374576171875,2.240949957552552,-0.9235878403246403,-0.10075929882228374
1684252654491602200,2.384602294921875,1.2585196137674153,-1.060772789746523,-0.05113134456127882
1684252654501628400,2.39462841796875,1.1860190257020293,-1.249233168375492,0.07153145077228545
1684252654511654400,2.404654296875,1.0586223337143659,-1.3602525799274443,0.26196108364760873
1684252654521680400,2.414680419921875,1.0409133662834762,-1.3698106818675995,0.48597851334810255
1684252654531706400,2.424706298828125,1.0633411789298057,-1.1190379317104815,0.9563168283633887
1684252654541732400,2.434732421875,1.004739936879277,-0.7518366044342517,1.6439136003382504
1684252654551757300,2.44475732421875,1.0414014420613646,-0.3700578857511282,2.169192735200375
1684252654561783300,2.454783203125,0.9503367310404777,-0.04136602961122989,2.775488795930147
1684252654571809300,2.464809326171875,1.0250926968172192,0.024931612160801885,3.3102509216696023
1684252654581835300,2.474835205078125,1.3006173186540604,-0.16061141771674156,3.666726272270083
1684252654591861200,2.484861328125,1.6004988215036688,-0.4696908108919859,3.8025621451705693
1684252654601887200,2.49488720703125,1.992162974385172,-0.8176081765055656,3.7578579110473393
1684252654611913200,2.504913330078125,2.2949008895792065,-1.2330255454182624,3.81302391795218
1684252654621939200,2.514939208984375,2.4132328161016106,-1.7431044808000324,3.7713895927935837
1684252654631965400,2.52496533203125,1.8847513780668377,-2.345347320616245,3.0020033031433817
1684252654641991400,2.534991455078125,2.046291601066291,-2.9643302828311917,2.6236241637706756
1684252654652017400,2.545017333984375,2.764020768715441,-3.3943191979318854,2.6758441803514956
1684252654662043400,2.55504345703125,3.1482220383703705,-3.8639012877523897,2.4807836728051305
1684252654672069400,2.5650693359375,3.573715395617485,-4.068619558221101,2.27888776628077
1684252654682094300,2.57509423828125,4.186900192947686,-4.023313266551495,2.2763426118426024
1684252654692120300,2.585120361328125,4.769530569799244,-3.6291847693830728,2.4101591077446938
1684252654702146300,2.595146240234375,5.2265702811717984,-2.849167780125141,2.546823832684755
1684252654712172300,2.60517236328125,5.579343270123005,-1.8423364239245652,2.37805073582232
1684252654722198300,2.6151982421875,6.3081970583766696,-0.991784009194374,1.7130477807104587
1684252654732224300,2.625224365234375,7.2540896694898604,-0.6567337239384651,0.6002667174376547
1684252654742250200,2.635250244140625,10.9040933550179,-0.2945809122234583,-0.9649366265401244
1684252654752276200,2.645276123046875,21.209776580250264,-0.2716062793493271,-3.645411097040772
1684252654762302500,2.655302490234375,21.13633725003004,-0.8612368903517723,-3.7249382227420806
1684252654772328400,2.665328369140625,1.8185829156324267,0.7226134325593709,0.5511482470687479
1684252654782354400,2.6753544921875,-4.347676153576374,3.620204175069928,2.352412875088304
1684252654792380400,2.68538037109375,-5.069169642195106,7.4394532511472695,3.7530174852788445
1684252654802406400,2.695406494140625,-6.142410283848643,10.632336269021033,4.483514949086309
1684252654812431400,2.705431396484375,-6.605152883037924,13.566528603219986,3.5256764641135927
1684252654822457300,2.715457275390625,-6.4132712977886195,15.576893443119525,1.6572727019965647
1684252654832483300,2.7254833984375,-3.7953158273041248,16.266683048963547,-0.3917679055169225
1684252654842509300,2.73550927734375,-0.2148187356572598,14.537923319858312,-1.5279337898999452
1684252654852535300,2.745535400390625,1.4642355169713497,11.113901642102002,-1.2603189182743428
1684252654862561300,2.755561279296875,2.682211961817741,8.295717613783479,0.7800915157988667
1684252654872587300,2.765587158203125,-0.36384960569553076,6.591833967259526,2.3436723731413482
1684252654882613200,2.77561328125,-4.578429029011726,6.255182676547765,4.611875956061482
1684252654892639500,2.785639404296875,-7.462474061250687,6.980097956308722,8.888883997696638
1684252654902665500,2.79566552734375,-8.137036871868371,7.978255592188239,12.980131567311286
1684252654912691500,2.80569140625,-8.680461027491091,7.939531601518392,15.203518395644425
1684252654922717400,2.815717529296875,-9.033664224553108,6.419335127872229,13.185475276201963
1684252654932742400,2.825742431640625,-8.773041111510992,3.952900590676069,9.087960462886095
1684252654942768400,2.835768310546875,-7.747837647795676,1.6961422386169434,5.1046296626329415
1684252654952794400,2.84579443359375,-6.531495526152849,-0.20996143181920052,2.1367869877666235
1684252654962820400,2.8558203125,-5.2423313294053075,-1.6331050599455832,-0.4749824875593185
1684252654972846300,2.865846435546875,-3.795104230380058,-2.434861002802849,-2.7858517845124005
1684252654982872300,2.875872314453125,-2.879918015436828,-2.7221692936748263,-5.039632582065463
1684252654992898300,2.885898193359375,-1.8004300038263201,-2.640096575143933,-7.1551394659161565
1684252655002924300,2.89592431640625,-1.0112943269588053,-2.5003975970745085,-8.478051618486642
1684252655012950300,2.9059501953125,-0.5135656084537505,-2.2613860118597744,-8.8658076580137
1684252655022976500,2.9159765625,-0.0005238777436316014,-2.1314777754426,-8.111983679154514
1684252655033002500,2.92600244140625,0.4812707740485668,-2.076867064332962,-6.221735749498009
1684252655043028500,2.936028564453125,0.5389747749984264,-1.952732150620222,-4.471117824327945
1684252655053054200,2.94605419921875,-0.6463219277784228,-1.776983369526267,-3.6923622333079575
1684252655063079400,2.956079345703125,-2.9681317209407685,-1.8116075236618518,-3.956099678978324
1684252655073105400,2.96610546875,-4.305215606726706,-1.9954455031871794,-5.145414677485824
1684252655083131400,2.97613134765625,-4.218274405376613,-2.3140777376055714,-6.030269759312271
1684252655093157400,2.986157470703125,-3.5932150458574292,-2.627507727205753,-6.291624109238386
1684252655103183400,2.996183349609375,-2.940592556630075,-2.7243156580537558,-5.9951879245370625
1684252655113209300,3.006209228515625,-2.5292361535459755,-2.641670692592859,-5.569774062266945
1684252655123235300,3.0162353515625,-2.647658827091753,-2.3954104514241217,-5.2404123440414665
1684252655133261300,3.02626123046875,-3.091288729532063,-2.050225141122937,-5.177900650548935
1684252655143287300,3.036287353515625,-3.573897474186122,-1.733963142967224,-5.15619969087243
1684252655153313300,3.046313232421875,-4.013908017085492,-1.4720891530811786,-5.042142519059777
1684252655163339300,3.05633935546875,-4.1692695514500135,-1.2405097636938094,-4.853896659964323
1684252655173365200,3.066365234375,-4.0790097270712256,-1.1244430056244135,-4.707559851315617
1684252655183391200,3.07639111328125,-3.983122710460424,-1.1660755772173403,-4.624156760963797
1684252655193416400,3.08641650390625,-3.9561265669852492,-1.38036539362967,-4.722413721576332
1684252655203442400,3.0964423828125,-3.935496743671596,-1.6209873366504908,-4.922060680130124
1684252655213468400,3.106468505859375,-3.8666336353257296,-1.8033032211750746,-5.124302915874123
1684252655223494400,3.116494384765625,-3.6193022577941414,-1.8287942207843064,-5.291718752908706
1684252655233520400,3.126520263671875,-3.2585169350400567,-1.6986626970052718,-5.360827944970131
1684252655243546400,3.13654638671875,-2.9646166985571383,-1.4033949715614318,-5.280037667465209
1684252655253572400,3.146572265625,-2.8180151014924046,-0.955599181613326,-5.038935247451066
1684252655263598000,3.15659814453125,-2.680016497600078,-0.39914135689437386,-4.630088781361281
1684252655273624000,3.1666240234375,-2.5015631337225437,0.19105974747240542,-4.006977633300424
1684252655283650300,3.176650390625,-2.371431317682564,0.8092460063517093,-3.176632724818587
1684252655293676300,3.18667626953125,-2.2016472902119157,1.2400585127949715,-2.1754124864980575
1684252655303702300,3.196702392578125,-1.121311941057071,1.0087000726819038,-1.2021852937355637
1684252655313728300,3.206728271484375,-0.03237206435985863,1.0462474207878112,-0.19047727140933274
1684252655323753500,3.21675341796875,2.3419126699924466,1.8718769911855457,1.1390429011240601
1684252655333779500,3.226779541015625,8.362096504098176,2.9987662209182977,1.8739124425359068
1684252655343805400,3.236805419921875,26.520791569781302,8.922193562102317,1.038810256524384
1684252655353831200,3.2468310546875,22.97346383035183,18.686435329961775,5.083548880681395
1684252655363857200,3.256857177734375,5.6810313742280005,26.31545604419708,8.951028611442446
1684252655373883100,3.266883056640625,-1.7733938206017017,25.620574083650112,8.81071413182318
1684252655383909000,3.2769091796875,-4.057508966141939,17.193477576375006,6.065077453321218
1684252655393935000,3.28693505859375,-3.1461352952241897,9.268459653377532,3.409946975174546
1684252655403961000,3.296961181640625,-2.135625542771816,2.895264929911494,1.5726831783391535
1684252655413987300,3.3069873046875,-1.5352293537355959,-1.708895337206125,0.33053310009241105
1684252655424013800,3.317013916015625,-1.2708965725205839,-5.005108381173014,-0.2314717642944306
1684252655434039800,3.327039794921875,-0.9589278876446187,-7.7844602822721,-0.8942309590674936
1684252655444064800,3.337064697265625,-0.9476268875598907,-9.523755433917046,-1.3373406370259822
1684252655454090800,3.3470908203125,-1.8071698334753512,-10.210848055762051,-1.0266062431853265
1684252655464116700,3.35711669921875,-2.950633765912056,-10.56162314889431,-0.5474555300306528
1684252655474142700,3.367142822265625,-3.35684257697463,-10.37150155905485,0.14316161267869174
1684252655484168700,3.377168701171875,-3.457137180894613,-9.847435599374771,1.2693493430785834
1684252655494194700,3.387194580078125,-4.129173687905073,-8.274651444879174,1.9250211368739605
1684252655504220700,3.397220703125,-7.0168836723923675,-6.081571492004394,1.9989722160086034
1684252655514247000,3.407246826171875,-7.395049461275339,-4.038491546460986,2.4764547036901114
1684252655524273000,3.41727294921875,-5.895376720219851,-2.1603590020120143,2.964346649444103
1684252655534299000,3.427298828125,-4.872348846977949,-0.6876788973003626,3.2772657669126986
1684252655544324900,3.437324951171875,-4.237638738799095,0.7396773800849914,3.102560357391834
1684252655554350800,3.447350830078125,-3.6188603592455384,2.1617536712408065,2.5979250743687152
1684252655564376800,3.457376953125,-2.840837174153328,3.167179252296686,2.022694598510116
1684252655574401800,3.46740185546875,-2.520805594331026,4.035407608970999,1.3384244867399333
1684252655584427800,3.477427734375,-2.4483681346297264,4.758478137648106,0.6200469381846487
1684252655594453800,3.487453857421875,-2.3924504325747487,5.240953026789427,0.07161576805487274
1684252655604479700,3.497479736328125,-2.4109926359593867,5.29275686378479,-0.176642222802341
1684252655614505700,3.507505615234375,-3.47611076143384,4.515782310962677,-0.01580057652629912
1684252655624531700,3.51753173828125,-2.342714634025097,2.8534879814118144,0.32231209197491406
1684252655634557700,3.5275576171875,1.7251614123523233,2.1102695677191017,0.46468306573256846
1684252655644584000,3.537583984375,3.6557355071783064,1.85569976336658,0.4265149188471958
1684252655654610000,3.54760986328125,7.68981215980649,0.7773527384847402,0.8134117477290331
1684252655664636000,3.557635986328125,23.84945639128685,-1.8949661903500556,2.7096704621076584
1684252655674662000,3.567661865234375,17.440828535389898,-2.4334528895705936,3.229945797333121
1684252655684688000,3.57768798828125,6.002808336412906,-1.8780548030376434,2.679840556511283
1684252655694713900,3.5877138671875,2.7487095100760457,-1.0401087719023228,2.021197930211574
1684252655704738800,3.59773876953125,2.5806454382658,-0.4705646711170673,1.703409745401889
1684252655714764800,3.607764892578125,2.138886005872488,-0.18026538173556328,1.219657091409713
1684252655724790800,3.617790771484375,1.9631939234018325,-0.15113397979736326,1.074636772187054
1684252655734816800,3.627816650390625,1.820975071465969,-0.23501754714250564,1.2497175908915699
1684252655744842800,3.6378427734375,1.5568050795972346,-0.3304512670278549,1.5479443122714758
1684252655754868700,3.64786865234375,1.5066601157248019,-0.5688339066892862,2.1594607379980384
1684252655764894700,3.657894775390625,1.7035574833095073,-0.8775865521281957,2.986577770474553
1684252655774921000,3.6679208984375,1.9622610264658926,-1.0662456681996584,3.7320723124057054
1684252655784947000,3.677947021484375,2.0889923864126203,-0.973930372595787,4.58208550569266
1684252655794973000,3.687972900390625,2.149044411793351,-0.8068611570417881,5.355823268550634
1684252655804999000,3.6979990234375,2.1728338681817054,-0.7603770537644624,5.746211410146952
1684252655815025000,3.70802490234375,2.193181659683585,-0.9521855737775564,5.7696109904348845
1684252655825049900,3.7180498046875,2.3517846601873633,-1.4883844543218612,5.286325953954458
1684252655835075800,3.728075927734375,3.725501701843738,-1.8506535858929156,3.499808740146458
1684252655845101800,3.738101806640625,17.05807308062911,-1.425600958150625,-0.7602562038637697
1684252655855127800,3.7481279296875,26.64181799608469,-0.11235445954799651,-4.855749009832739
1684252655865153800,3.75815380859375,12.591063276141881,1.9147230302214622,-2.6941753713339565
1684252655875179800,3.7681796875,0.6516124354019761,3.392559202522039,-0.039131037100777026
1684252655885205800,3.778205810546875,-4.355018917554617,5.008987852954864,1.711726761239767
1684252655895231700,3.788231689453125,-6.562572801461815,8.948945375427604,2.852977986063063
1684252655905258000,3.798258056640625,-6.030166883459687,14.768262353795766,4.35013552942723
1684252655915284000,3.808283935546875,-5.616862561178207,20.13033766847849,5.561747992199659
1684252655925310000,3.81831005859375,-9.135332454913854,23.551806154620646,5.478391079077125
1684252655935336000,3.8283359375,-13.506674730759858,24.011553663647174,4.977821145796775
1684252655945361000,3.83836083984375,-15.168815331053732,21.96023955824375,4.554478244581818
1684252655955387000,3.848386962890625,-14.810753588044642,17.825193763434886,4.4671994818404315
1684252655965412900,3.858412841796875,-12.428895861154794,12.58170274260044,5.083246098342538
1684252655975438800,3.86843896484375,-9.29528570098281,7.265405428752302,6.550380843886733
1684252655985464800,3.87846484375,-7.925094495365023,2.9586855549424884,8.751416139680147
1684252655995490800,3.88849072265625,-7.380870713797211,-0.42515784168243403,10.04074517160058
1684252656005516800,3.898516845703125,-8.488283089643716,-2.091184343498945,10.909736329340934
1684252656015542800,3.908542724609375,-9.53269744978547,-2.4612995123952626,10.176977350342273
1684252656025568800,3.91856884765625,-8.905742778038977,-2.2392495833754538,6.498611493682861
1684252656035595000,3.928594970703125,-5.072510184794664,-2.215265481197834,0.7668807365700602
1684252656045621000,3.93862109375,-0.233785959520936,-1.9552859267562626,-3.6333024338349698
1684252656055647000,3.94864697265625,1.5686469085603951,-1.2124848616927861,-5.878167226743698
1684252656065673000,3.9586728515625,-1.904943394485116,-0.5748696797221898,-5.80208936471343
1684252656075698000,3.968697998046875,-6.131119659027457,-0.23797405886054038,-5.662733500993252
1684252656085724000,3.978723876953125,-7.208540216714144,-0.37890813168287274,-5.283721908935904
1684252656095750000,3.98875,-5.671178088733553,-0.8573650173544883,-4.902244803547859
1684252656105775900,3.99877587890625,-4.314990858548879,-1.6033154863595962,-4.045659830655158
1684252656115801900,4.0088017578125,-3.5224002189218995,-2.353001050239801,-3.423640569484234
1684252656125827800,4.018827880859375,-3.476178565973043,-2.892926257830858,-3.349231517449021
1684252656135853800,4.028853759765625,-4.1722938677072525,-3.1165631637811657,-3.498889579474926
1684252656145879800,4.0388798828125,-5.510615770855546,-2.909692683714628,-4.009061161576211
1684252656155905800,4.04890576171875,-7.261435356077551,-2.4326024102211,-4.507539967796206
1684252656165932000,4.05893212890625,-8.854605880519747,-2.10109725022614,-4.803247838222981
1684252656175958000,4.0689580078125,-9.54502443191707,-2.224471116438508,-4.8487119508028025
1684252656185984000,4.07898388671875,-9.422061484593153,-2.684129778137803,-4.559174293443561
1684252656196009000,4.089009033203125,-9.28342166018784,-3.2169752566009757,-3.754022278407216
1684252656206035000,4.099034912109375,-8.775724651506543,-3.698116266790032,-3.146836136969924
1684252656216061000,4.10906103515625,-7.373038120475411,-4.131704083165526,-2.946627452880144
1684252656226087000,4.1190869140625,-6.369695190912485,-4.586778924205899,-2.6800369558662176
1684252656236113000,4.12911279296875,-6.636617696359753,-5.074833659306169,-2.268848895086348
1684252656246139000,4.139138916015625,-7.172734743839502,-5.491210228639841,-2.0721192852839825
1684252656256164900,4.149164794921875,-7.028193586435914,-5.8836307528465985,-2.2021251368567345
1684252656266190800,4.15919091796875,-6.131479724511504,-6.194992119479179,-2.3520889038309454
1684252656276216800,4.169216796875,-4.602379521180689,-6.56838236452341,-2.1357022612698375
1684252656286242800,4.179242919921875,-2.1370085215628145,-7.107177691301703,-1.5950751890197394
1684252656296269000,4.18926904296875,2.448683776450157,-7.5981614655911915,-0.14172989937514066
1684252656306295000,4.199294921875,32.573663037002085,-4.040785794878006,8.984175094240904
1684252656316321000,4.209321044921875,55.610589577960965,21.947553095149992,24.65323945605755
1684252656326346000,4.219345947265625,-28.30670468021631,32.59324218221903,7.649199578911065
1684252656336372000,4.2293720703125,-32.11806329530477,39.12558292702436,-11.22610529500246
1684252656346398000,4.23939794921875,28.04082905347347,38.29165723744631,-21.502334462213515
1684252656356424000,4.249423828125,48.03126725287437,18.521090453982353,-19.883211165869234
1684252656366450000,4.259449951171875,0.5343862781643867,7.020394895383715,-5.468521426969766
1684252656376476000,4.269475830078125,-8.640807062494755,6.47119917062223,-3.0910569666028023
1684252656386502000,4.279501953125,-6.89705317787528,2.249095854607224,-3.6342733246937393
1684252656396527900,4.28952783203125,-6.51625587144494,-0.43818508103787895,-4.779857318024337
1684252656406553900,4.299553955078125,-5.230873531323671,-2.083500218737125,-5.929933069816231
1684252656416579800,4.309579833984375,-4.22213926411122,-2.3983301382631064,-5.7805164153307675
1684252656426605800,4.319605712890625,-4.602045466920734,-0.9912778132379054,-4.643972637546062
1684252656436631600,4.329631591796875,-5.160668945240974,0.9151952750325203,-3.603616905145347
1684252656446656800,4.33965673828125,-5.246434673070907,2.5919173583865165,-2.903519255776703
1684252656456682800,4.349682861328125,-5.344757100135087,3.349147346296906,-2.2245118868403138
1684252656466708700,4.359708740234375,-4.887925186294317,3.108533586582541,-1.9238976858019827
1684252656476734700,4.369734619140625,-3.9312183357000348,2.770786901849508,-1.7590153127677737
1684252656486760700,4.3797607421875,-3.1919571352005005,2.5849182932794093,-1.5158737881414592
1684252656496786700,4.38978662109375,-2.7575720309674736,2.4575118105500935,-1.3260830376915633
1684252656506812700,4.399812744140625,-2.561648476850986,2.4343390247553587,-1.0845852616842835
1684252656516838700,4.409838623046875,-2.452320671647787,2.3896382977634665,-0.596885331371054
1684252656526864600,4.41986474609375,-2.2427990925505754,2.3170488623708487,0.2176005483955145
1684252656536890600,4.429890625,-1.7462556383073329,2.1723709268450735,1.3510484059914947
1684252656546916600,4.43991650390625,-1.1071955182254314,1.8434481845587491,2.5741958237349984
1684252656556942600,4.449942626953125,-0.47204464400913565,1.382412973809242,3.4994992358058687
1684252656566968600,4.459968505859375,0.128853156139981,0.8470505440890789,4.181069879359007
1684252656576993800,4.469993896484375,0.5843371807694435,0.24014906481206416,4.565876421430707
1684252656587019800,4.480019775390625,0.9474386715114116,-0.47013037135303015,4.816240590786934
1684252656597045800,4.490045654296875,1.102436925521493,-1.2630617872416972,4.960288996237516
1684252656607071700,4.50007177734375,0.9602876316905021,-2.087883548387885,5.1267082234501835
1684252656617097700,4.51009765625,1.1606523831248283,-2.878303273716569,5.017006324237585
1684252656627123700,4.520123779296875,1.177424654227495,-3.434246134650707,4.7279707711815835
1684252656637149700,4.530149658203125,1.2744839294880628,-3.7116958793312307,4.455001094524562
1684252656647175400,4.540175537109375,1.4925918428838252,-3.7509687360554933,4.293887864765525
1684252656657201700,4.55020166015625,1.6144887684114277,-3.53123935893774,4.23977399726212
1684252656667227600,4.5602275390625,1.8270811332561074,-3.171446846613288,3.986098219139874
1684252656677253600,4.570253662109375,2.303587907773256,-2.610452547508478,3.482676695820689
1684252656687279600,4.580279541015625,3.2230724044322967,-1.6269693336695432,3.1744273237287994
1684252656697304800,4.590304931640625,4.400342160359025,-0.5447615417063236,2.691376680526137
1684252656707330800,4.600330810546875,5.4666427736163135,0.3544236787676811,1.9029650801494717
1684252656717356800,4.610356689453125,6.07264642727077,1.0493395415842532,1.2266735460430382
1684252656727382800,4.6203828125,6.063854049006104,1.376148652717471,0.7658901180975138
1684252656737408500,4.630408447265625,5.288892005050182,1.2744728235721587,0.500407143934071
1684252656747434500,4.6404345703125,4.202278087082505,0.8914788838803768,0.4034237103886902
1684252656757460500,4.65046044921875,3.282318958649039,0.49403790116310115,0.570602377666533
1684252656767486500,4.660486572265625,2.6320015314936636,0.24725509742498397,0.897158244691044
1684252656777512400,4.670512451171875,2.2343261554986236,0.29033494521677494,1.3152880874328314
1684252656787538700,4.68053857421875,1.8721638453029095,0.5029653039842844,1.7036951382145284
1684252656797564700,4.690564697265625,1.6374432352803647,0.5403828882306814,2.002217627670616
1684252656807590700,4.700590576171875,1.5670365507543087,0.27643501468002796,2.2489336497828365
1684252656817616000,4.710615966796875,1.7152976054638622,-0.014754501539468765,2.5365128665506838
1684252656827641600,4.7206416015625,1.7894364622555672,-0.19009528635442255,2.77715205296725
1684252656837667600,4.73066748046875,1.8342928182005882,-0.3414414475977421,2.893459341794252
1684252656847693600,4.740693603515625,2.0568499660901725,-0.6100584820032119,2.9514176097661253
1684252656857719600,4.750719482421875,2.228798770379275,-0.9279998115479946,2.8969892694860695
1684252656867745500,4.76074560546875,2.189324545864016,-1.2210954536497591,2.6670874579221007
1684252656877771500,4.770771484375,1.7889257362544535,-1.264497957524657,2.5794009911626574
1684252656887797500,4.780797607421875,1.1625801363170147,-1.094624205943942,2.891665444114804
1684252656897823500,4.790823486328125,0.48971653083264827,-0.8175076387405396,3.442598075671494
1684252656907849500,4.800849365234375,-0.1628103890657425,0.14567980604469774,3.482262269800901
1684252656917875700,4.810875732421875,-0.8701603476502001,2.315626720613241,3.3742788649439808
1684252656927901700,4.820901611328125,-1.4700135158509016,4.78333025483191,3.205931592278182
1684252656937926700,4.8309267578125,-1.5793863292396069,6.924203050607442,2.4897014310151335
1684252656947952600,4.84095263671875,-1.133323062172532,8.319386074140667,1.1403046646881847
1684252656957978600,4.850978515625,-0.16070662171952427,8.354819206571579,-0.26030326997060327
1684252656968004600,4.861004638671875,1.1116800432283431,7.321165894418955,-1.860319239860773
1684252656978030600,4.871030517578125,8.668502878671884,6.436427716970443,-6.227070680785179
1684252656988056600,4.881056640625,13.54284962146878,5.412885464465618,-10.72492102921605
1684252656998082600,4.89108251953125,6.513229217100143,3.948606108352542,-9.135952048116922
1684252657008108500,4.901108642578125,-0.5308265398561954,2.611714530268311,-6.657542410966753
1684252657018134500,4.911134521484375,-4.360595256382227,1.2243553322285412,-5.955929680860042
1684252657028160500,4.921160400390625,-4.814451953804492,0.13281681734025477,-4.892528880697489
1684252657038186500,4.9311865234375,-4.78582908591032,-0.40664427987039087,-4.439382961893082
1684252657048212700,4.941212646484375,-4.6550677397951485,-0.8364788811922073,-4.797378653928638
1684252657058237400,4.951237548828125,-3.763902451908588,-1.0178899258315564,-5.825442767772079
1684252657068263700,4.961263671875,-3.099647100293636,-1.3445651814520359,-8.140921604347229
1684252657078289700,4.97128955078125,-4.106619618530571,-1.3531874638468027,-10.474306099969148
1684252657088315600,4.981315673828125,-4.866633391940593,-1.107996313214302,-11.917867077702283
1684252657098341600,4.991341552734375,-3.920556364171207,-0.8048556624382733,-12.048453944033383
1684252657108367600,5.00136767578125,-2.3019231894314287,-0.6083177758157253,-11.003486626183985
1684252657118393600,5.0113935546875,0.4362716486319899,-0.5796013844192027,-8.52859873341918
1684252657128419600,5.021419677734375,2.041664818048477,-0.6954582991302013,-5.584429779607057
1684252657138445600,5.031445556640625,1.0055866168364882,-0.9413573057711124,-3.775273740750551
1684252657148471600,5.041471435546875,-1.628793626487255,-1.0736948151618242,-2.3840461768448353
1684252657158497500,5.05149755859375,-3.9710836053594947,-0.8924813389211893,-0.8348797754324973
1684252657168523500,5.0615234375,-5.627684399443864,0.13606442095935345,1.1424801820963622
1684252657178548500,5.071548583984375,-5.606455148932337,1.5595657764822244,3.844631354615092
1684252657188574500,5.081574462890625,-3.6173780117332934,2.365698619249463,5.424580578434467
1684252657198600700,5.0916005859375,-1.7739724972724913,2.855889197334647,5.520970576131344
1684252657208626700,5.101626708984375,-2.416109540581703,2.4973802950799464,3.58922276135087
1684252657218652700,5.111652587890625,-3.581624561306834,1.384216808360815,1.8201792449131606
1684252657228678700,5.1216787109375,-3.9521085635155435,-0.3892839797466993,0.9139585728444158
1684252657238704600,5.13170458984375,-4.148602610996365,-2.29574771566689,0.16132570346593855
1684252657248730600,5.141730712890625,-4.606463867884874,-3.7044711887747046,-0.18245105521157381
1684252657258756600,5.151756591796875,-5.173896091082692,-4.741230065727233,-0.23850334343165158
1684252657268782600,5.161782470703125,-5.676230111426115,-5.49636045100987,-0.2742582551628351
1684252657278808600,5.17180859375,-5.933472934380173,-6.036045420104265,-0.2280713812664151
1684252657288834600,5.18183447265625,-5.879003677567839,-6.407098162111639,-0.014541589441150426
1684252657298860500,5.191860595703125,-5.765192589470744,-6.660635116285086,0.30449849512577054
1684252657308885500,5.201885498046875,-5.760653776997327,-6.713942928102612,0.5964439442791044
1684252657318911500,5.211911376953125,-5.6927890320390455,-6.660330580380559,0.7916248633347451
1684252657328937700,5.221937744140625,-5.568707309818268,-6.541263471451401,0.9944447528362274
1684252657338963700,5.231963623046875,-5.547964966040849,-6.385861312815547,1.2424464308448135
1684252657348989700,5.24198974609375,-5.533219232329726,-6.209120598074794,1.5223388925023376
1684252657359015700,5.252015625,-5.1509822484850885,-6.0122097864866255,1.7116940280139445
1684252657369041700,5.262041748046875,-4.442299726122617,-5.5289615748852485,1.8618536098212002
1684252657379067600,5.272067626953125,-2.620160287052393,-4.237189825987816,2.116146789189428
1684252657389093600,5.28209375,4.819650691491365,-1.3643851496875286,2.563357326595485
1684252657399119600,5.29211962890625,12.145949857145547,2.605090728214383,3.3926977342098947
1684252657409145600,5.3021455078125,11.93286590939164,6.73218585627973,2.2354310480006037
1684252657419171600,5.312171630859375,15.533043779999018,12.282136443179844,-0.9307311362080275
1684252657429196500,5.322196533203125,15.148385121965408,19.17248398593664,-6.587941635996103
1684252657439222500,5.332222412109375,8.168304116791486,24.86431498659849,-11.069654504096507
1684252657449248500,5.34224853515625,6.735214264190197,29.197857400882242,-12.430334954047202
1684252657459274500,5.3522744140625,5.835799911135434,28.118140256690978,-8.974442804777622
1684252657469300500,5.362300537109375,-1.499892959677428,17.93842734390497,-4.570740812596679
1684252657479326500,5.372326416015625,-6.401641650271415,7.124202475860715,-2.0338608662992717
1684252657489352400,5.3823525390625,-5.393401011794805,-0.5720207200318574,-0.029946517713367937
1684252657499378400,5.39237841796875,-4.278704031898081,-5.209978042811155,0.9408230527639388
1684252657509404700,5.40240478515625,-3.7877071058660743,-7.817916561672091,1.185514291050285
1684252657519430700,5.4124306640625,-3.87664766433984,-9.9235099542737,1.6477232217542825
1684252657529456600,5.42245654296875,-3.5251667610257864,-11.738651497280596,2.597958392116427
1684252657539481600,5.432481689453125,-3.3873137030839917,-10.853591832792759,1.5383698437184095
1684252657549507600,5.442507568359375,-3.400508700221777,-9.82621511669159,0.44734132417887446
1684252657559533600,5.452533447265625,-3.537377423301339,-9.33025180042386,-0.03223199830204248
1684252657569559600,5.4625595703125,-3.7678631722331044,-9.04533478860259,-0.30636092799678444
1684252657579585500,5.47258544921875,-3.8199756367862223,-8.418052200075984,-0.6773861974753439
1684252657589611500,5.482611572265625,-3.6262779420256614,-7.48656279284656,-1.026824781306833
1684252657599637500,5.492637451171875,-3.3336744673550127,-6.035552668151259,-1.5764442844383417
1684252657609663500,5.50266357421875,-2.8024703263580797,-3.876365632528066,-2.3440225017532703
1684252657619689500,5.512689453125,-2.3302841915190218,-1.1864666233390568,-3.0808237418800593
1684252657629715500,5.522715576171875,-2.124551191049814,1.6769950550764798,-3.7824890789568424
1684252657639741700,5.53274169921875,-2.099671601337194,4.035357340088487,-4.1589281901776785
1684252657649767700,5.542767578125,-2.497735684388876,5.754880454292893,-4.238547085815668
1684252657659792600,5.552792724609375,-3.0853616775706407,6.796710058638453,-4.2155464417174455
1684252657669818600,5.562818603515625,-3.7306782276988026,7.208612697428465,-4.223714258342981
1684252657679844600,5.5728447265625,-4.073365875965356,6.892542422452569,-3.6598102092713116
1684252657689870600,5.58287060546875,-5.070753111994266,5.684076148751378,-2.3892726793214676
1684252657699896600,5.592896484375,-4.550119464850425,3.6398546319574114,-0.6700599462404847
1684252657709922600,5.602922607421875,-2.329818912094831,2.4248498963981864,0.5196411289751529
1684252657719948500,5.612948486328125,-0.552502365091443,1.5362567970871925,1.4856073908239602
1684252657729974500,5.622974609375,2.13873286113739,0.15651041213870048,2.167018167640269
1684252657740000500,5.63300048828125,10.083969396299123,-1.681808008316159,4.114382069225609
1684252657750026500,5.643026611328125,10.51059321888089,-2.6825749499112366,4.714755900299549
1684252657760052500,5.653052490234375,4.3951954451203346,-2.611234053274989,2.730234234447777
1684252657770078700,5.66307861328125,1.3506091377913951,-2.4176456641077992,1.2146905550435185
1684252657780103400,5.673103515625,0.5211848512858152,-2.04274150736928,0.6094334819726646
1684252657790129700,5.683129638671875,0.03190788091421127,-1.332800509378314,0.3551547695212066
1684252657800155600,5.69315576171875,-0.4874614453822374,-0.37819735306501384,0.05529810885190963
1684252657810181600,5.703181640625,-0.9290402605116367,0.6525719280838966,-0.36675241446495055
1684252657820207600,5.71320751953125,-1.2609154228627681,1.4858897148966788,-0.762996296352148
1684252657830233600,5.723233642578125,-1.6967220843315123,1.856065089547634,-0.8259250462129711
1684252657840259600,5.733259521484375,-1.7760113096237182,1.6743571077883244,-0.6470739151895046
1684252657850285600,5.74328564453125,-1.3893874889969824,1.4249252508461474,-0.8271586796611547
1684252657860311600,5.7533115234375,-0.9883049349069595,1.170041558238864,-1.0354872495815157
1684252657870337500,5.763337646484375,-0.8442132748365402,0.7403916658341885,-1.1629422476276754
1684252657880363500,5.773363525390625,-0.8468015377640724,0.18531565086245536,-1.1938467967182398
1684252657890389500,5.783389404296875,-0.9572036942005157,-0.3319856369882822,-1.2103338211387396
1684252657900414500,5.79341455078125,-1.0529039560675622,-0.7770300824016332,-1.2736512780562042
1684252657910440400,5.8034404296875,-1.1176350791752339,-1.1635551188290119,-1.2504782000005243
1684252657920466700,5.813466796875,-1.2509200985491276,-1.4747650942921637,-1.2115075410932301
1684252657930492700,5.82349267578125,-1.264673898613453,-1.561470733320713,-1.2028797057405114
1684252657940518700,5.8335185546875,-1.305754097020626,-1.3413982418537138,-1.3734756341159342
1684252657950544600,5.843544677734375,-1.3533458692789078,-0.8345347613871097,-1.6707976617410778
1684252657960570600,5.853570556640625,-1.3791840748906135,-0.262311212259531,-1.9053718490302562
1684252657970596600,5.8635966796875,-1.4231938970088958,0.23411095369160173,-1.949223119585961
1684252657980622600,5.87362255859375,-1.4719254869520664,0.6310884105503559,-1.826762422695756
1684252657990648600,5.883648681640625,-1.5618927581250666,0.870131559947133,-1.678005693423748
1684252658000674600,5.893674560546875,-1.6435469589829443,0.8442407473653555,-1.4459788525298236
1684252658010699500,5.903699462890625,-1.6117057135641575,0.5760691186398268,-0.9927657137081026
1684252658020725500,5.9137255859375,-1.545700332736969,0.11428571987152099,-0.6742731800213456
1684252658030751500,5.92375146484375,-1.4698784912943839,-0.45476445991694925,-0.4415408212065696
1684252658040777500,5.933777587890625,-1.437755506324768,-0.8574521111160516,-0.2411667174220085
1684252658050803700,5.9438037109375,-1.4444085344731807,-1.1447861209511756,-0.01925064391493797
1684252658060829700,5.95382958984375,-1.387650289940834,-1.349693776512146,0.2665723768353462
1684252658070855700,5.963855712890625,-1.35513216817379,-1.3449755158185959,0.5921744502663612
1684252658080881700,5.973881591796875,-1.324036772686243,-1.114199259507656,0.7917495126277208
1684252658090907600,5.98390771484375,-1.2699895406782626,-0.7176110942274332,0.8961790243953466
1684252658100933600,5.99393359375,-1.1920926465272903,-0.22380758634209633,0.916698957593739
1684252658110959600,6.003959716796875,-1.17750882537961,0.2619938168734312,0.8131997124135494
1684252658120985600,6.013985595703125,-1.229982524460554,0.6202642341971397,0.7114668923839926
1684252658131010600,6.024010498046875,-1.2708873663008213,0.8486965577304363,0.8109159853905439
1684252658141036500,6.03403662109375,-1.3469757497251034,0.9530056579887867,1.0677031735315918
1684252658151062500,6.0440625,-1.4817325952172278,1.0063689993858336,1.4891767737433312
1684252658161088500,6.054088623046875,-1.5569430267632007,1.090828905314207,1.98083216368407
1684252658171114500,6.064114501953125,-1.3998749807417392,1.2441256161034107,2.500027886979282
1684252658181140700,6.074140625,-1.089935755866766,1.407604113689065,2.9829376604065296
1684252658191166700,6.084166748046875,-0.7154232287943363,1.5793080033063887,3.2115003323212266
1684252658201192700,6.094192626953125,-0.3631728024125099,1.7511112616449593,3.336271790371835
1684252658211218700,6.10421875,-0.12702831533299758,1.9360276840567587,3.467236257843673
1684252658221244700,6.11424462890625,0.13879472270607948,2.1002754124492404,3.6322517557382583
1684252658231270700,6.124270751953125,0.5531412475168704,2.142272725701332,3.752617380045354
1684252658241296600,6.134296630859375,1.0300912357568741,2.0024761324763296,3.8201054006457325
1684252658251321600,6.144321533203125,1.5258908858954905,1.6181933220177889,3.7089395663604137
1684252658261347600,6.15434765625,1.9078280100107192,1.146469543993473,3.325181072036922
1684252658271373600,6.16437353515625,2.279023959881067,0.8315057689547538,2.7682065299674865
1684252658281399600,6.174399658203125,3.6533296150803563,0.8775099797606468,1.8743591633901
1684252658291425500,6.184425537109375,5.439198886373639,1.167501226106286,0.6950675462469458
1684252658301451500,6.194451416015625,5.1671419406473635,1.1322247455418109,-0.1046320486024022
1684252658311477800,6.204477783203125,3.378630045890808,0.7369628604292869,-0.39910336297154425
1684252658321503700,6.214503662109375,1.4421686465919017,0.34082243891656394,-0.5333975593879818
1684252658331529700,6.22452978515625,-0.18058569973111152,-0.1058498999595642,-0.8934767796993255
1684252658341555700,6.2345556640625,-1.2620492491982878,-0.54586862616539,-1.5529422666892407
1684252658351581700,6.244581787109375,-1.5406826507054268,-0.9130033179461956,-1.9779364422425627
1684252658361606700,6.254606689453125,-1.2102291917204857,-1.3098276300698517,-2.408314356660843
1684252658371632600,6.264632568359375,-0.7893126408696174,-1.8048761695802211,-2.9263872134059667
1684252658381658600,6.27465869140625,-0.6717793173789978,-2.043078776499629,-3.164167210999131
1684252658391684600,6.2846845703125,-1.1093044732034205,-2.0319132393628356,-3.175942988988757
1684252658401710600,6.294710693359375,-2.0596777368620036,-1.648592551934719,-3.6024917005077004
1684252658411736600,6.304736572265625,-2.3226661177307366,-1.2670172468692062,-3.9361885253280398
1684252658421762800,6.3147626953125,-2.4579534168377517,-0.713642775118351,-4.292516868673265
1684252658431788800,6.324788818359375,-2.610938869720697,-0.15850363178253174,-4.59711882417351
1684252658441814800,6.334814697265625,-2.6361247489035127,-0.0107183778911829,-4.769003331054747
1684252658451840800,6.3448408203125,-2.9433436089038847,-0.30130817465186116,-4.494463920862972
1684252658461866800,6.35486669921875,-2.88768251195848,-0.958398456943035,-3.572593990372121
1684252658471892700,6.364892822265625,-2.9606536401450634,-1.498101546216011,-2.2675722992792724
1684252658481918000,6.37491796875,-3.2786253648281094,-1.6114116990536451,-0.757571056433022
1684252658491944000,6.38494384765625,-3.595662146748602,-1.3814835840046404,0.40316403653919697
1684252658501970000,6.394969970703125,-3.5880259527817366,-0.894574511808157,1.0494567382231355
1684252658511996000,6.404995849609375,-3.2264196690335867,-0.5448924746096134,1.239104280810058
1684252658522022000,6.41502197265625,-2.764996335749328,-0.4426350461840629,1.3007026588499546
1684252658532048000,6.4250478515625,-2.580427703861892,-0.46623277939260005,1.5620739599108695
1684252658542073600,6.435073486328125,-2.4802830298066136,-0.59793958966434,1.7992799570083617
1684252658552099600,6.445099609375,-2.5381568343654273,-0.7683096003293991,1.9325559162929653
1684252658562125600,6.45512548828125,-2.5425205825328825,-0.8807306953728199,1.9780422407045959
1684252658572151800,6.46515185546875,-2.3824501398250457,-0.9001397447198629,2.028628518603742
1684252658582177800,6.475177734375,-2.1741279996454717,-0.7955793000489473,2.134664588785171
1684252658592203000,6.485203125,-1.889985040936619,-0.5728910731256008,2.133721754977107
1684252658602229000,6.49522900390625,-1.5457074931301176,-0.27135844206809995,2.0346791969448326
1684252658612255000,6.5052548828125,-1.1115477220855652,0.15119944624900816,1.8514353839203714
1684252658622281000,6.515281005859375,-0.6246027017928659,0.6884604030668735,1.8406392646178602
1684252658632306700,6.525306640625,-0.1982290545798838,1.1555272951960562,1.988049547716975
1684252658642332700,6.535332763671875,0.06943652431964874,1.5168763893127442,2.1238237535580993
1684252658652358700,6.545358642578125,0.3273287145605311,1.7916870176613329,2.1864017902851103
1684252658662384600,6.555384521484375,0.7873135760068893,2.1086901895731684,2.143018283371627
1684252658672410600,6.56541064453125,1.4301520455837249,2.4669804806411264,1.9855834498643874
1684252658682436600,6.5754365234375,2.1006202803641556,2.7757436474740502,1.742456538285315
1684252658692462600,6.585462646484375,3.430105381584167,3.1722733605653044,1.7097198053315281
1684252658702487800,6.59548779296875,5.334810875660181,4.023849273124337,2.028140442825854
1684252658712513800,6.605513671875,5.823231521463394,4.493699073970317,2.276735848943889
1684252658722539800,6.615539794921875,4.862061261719465,4.310912064802646,2.270798860110342
1684252658732565800,6.625565673828125,4.213834669363498,3.87445658403635,1.8762845784947275
1684252658742591700,6.635591796875,4.247487932640314,3.589586333966255,0.9040949120864271
1684252658752617700,6.64561767578125,4.911054717469215,3.359662895092368,-0.5290376106128096
1684252658762643700,6.655643798828125,5.765095558837055,2.6706033570885657,-1.7334654225781558
1684252658772669700,6.665669677734375,5.903239708679914,1.4601193138241768,-2.315791263525188
1684252658782695700,6.67569580078125,4.845035308116674,0.21143150437176225,-2.045989695510268
1684252658792721700,6.6857216796875,3.0978467728734014,-0.49142742640376086,-1.1802815049633384
1684252658802747600,6.69574755859375,1.6838631872802972,-1.113902906909585,-0.3967833955913782
1684252658812773600,6.705773681640625,1.1174170525103806,-1.815723142287135,0.09880874927639961
1684252658822798800,6.715798828125,1.0933096162140368,-2.536014853900671,0.43895255827903745
1684252658832824800,6.725824951171875,0.9524024313986301,-3.125665923169255,0.658550417971611
1684252658842850600,6.7358505859375,0.7295768418312072,-3.545913196456432,0.7282710199296474
1684252658852876800,6.745876708984375,0.45242761446721846,-3.7253240071892737,0.49140492231100796
1684252658862902800,6.75590283203125,0.061226329857110975,-3.6389223195433615,0.04232902942448854
1684252658872928800,6.7659287109375,-0.32820787201523777,-3.187974203044176,-0.5652919962987304
1684252658882954800,6.775954833984375,-0.6007633783807977,-2.3882190786153075,-1.0760825870811939
1684252658892980700,6.785980712890625,-0.7127578089773654,-1.2006868718713521,-1.3426377205207942
1684252658903006700,6.7960068359375,-0.7568465415507555,0.1010837084710598,-1.5156450939521193
1684252658913032700,6.80603271484375,-0.8542927703022957,1.3542986399590968,-1.5244190597772598
1684252658923058700,6.81605859375,-0.8949106118947266,2.3743331766039133,-1.210853461098671
1684252658933084700,6.826084716796875,-0.9382610933214426,3.017034868058562,-0.48108957226276394
1684252658943109600,6.836109619140625,-0.9757125798374414,3.28850962998271,0.505908956220746
1684252658953135600,6.846135498046875,-0.9523077388525009,3.2543244517862795,1.2889096374645828
1684252658963161600,6.85616162109375,-0.9933224708080292,2.9642244843691588,1.7787328435420988
1684252658973187600,6.8661875,-0.8539888189196586,2.42376151663959,2.2451760508149863
1684252658983213800,6.8762138671875,-0.5159773092379794,1.706098399963975,2.5492706413149833
1684252658993239800,6.88623974609375,-0.1257487421175465,0.9915811800986528,2.706957403756678
1684252659003265800,6.896265869140625,0.1961766520947218,0.34716450141966343,2.659147897094488
1684252659013291800,6.906291748046875,0.4651760368812829,-0.1988286279082298,2.670289468833804
1684252659023317800,6.91631787109375,0.7746879031896591,-0.7731161238282919,2.5830463619276878
1684252659033343700,6.92634375,0.9885926658071577,-1.305871585920453,2.304028345017135
1684252659043369700,6.93636962890625,1.1185692182201892,-1.680627858620882,1.9876348294362425
1684252659053394700,6.946394775390625,1.1992758360296487,-1.8235767783969639,1.5541308919519186
1684252659063420700,6.956420654296875,1.2428010895013808,-1.7411077540248632,1.0346049137890339
1684252659073446700,6.96644677734375,1.2401584660381078,-1.3253969551235436,0.6722872669011354
1684252659083472600,6.97647265625,1.2266859671331942,-0.6481377450287341,0.4658607312098145
1684252659093498600,6.98649853515625,1.182564939725399,0.1678817009806633,0.39990532700419423
1684252659103524600,6.996524658203125,1.2295904564030469,0.9423036467105149,0.2845148607611656
1684252659113550800,7.00655078125,1.3794075083829462,1.524526611804962,0.24063041858822107
1684252659123576800,7.016576904296875,1.6555165059790014,1.7625205444097518,0.39770810922086236
1684252659133602800,7.026602783203125,2.018483702816814,1.4811498268932104,0.6886565101608634
1684252659143628800,7.03662890625,2.3899071778327223,0.8416670974850654,1.0425023890405893
1684252659153654800,7.04665478515625,2.6554069570004937,0.28791970076858997,1.2215613175958395
1684252659163679700,7.0566796875,2.841793451964855,-0.09941314491033554,1.0998919172137975
1684252659173705700,7.066705810546875,2.984578121089935,-0.35614860286414624,0.8188117070764303
1684252659183731700,7.076731689453125,3.1226644032657145,-0.4420125303715467,0.4662430085256695
1684252659193757700,7.0867578125,3.2594659063279625,-0.3344751157164573,0.11835282317996024
1684252659203783700,7.09678369140625,3.429335858516395,-0.05753098247051239,-0.15759031632989645
1684252659213809700,7.1068095703125,3.659279171134531,0.2716448577940464,-0.28197423636764285
1684252659223835600,7.116835693359375,4.0390655469566585,0.6138374160200357,-0.27207535816580053
1684252659233861600,7.126861572265625,4.705360879966617,0.9774112004488706,-0.13288754448890686
1684252659243887900,7.136887939453125,6.275975289207697,1.3755378273427485,0.13094079433530567
1684252659253913900,7.146913818359375,7.976008690044283,1.5954986751288174,0.4705278462380171
1684252659263939800,7.15693994140625,8.416143736106157,1.3917413586467504,0.8181731169119477
1684252659273964800,7.16696484375,7.46386580787003,0.8870856173574924,1.0732222292140126
1684252659283990800,7.17699072265625,5.872321423324943,0.41350715137720107,1.1401356647968293
1684252659294016800,7.187016845703125,4.522749519626796,0.13695406327545642,0.8886623651549219
1684252659304042800,7.197042724609375,3.4596763439834115,-0.1254132630854845,0.6505097348570823
1684252659314068700,7.20706884765625,2.6457003865003585,-0.3843044377684593,0.6446198000356554
1684252659324094700,7.2170947265625,2.0274977610081435,-0.39927228979766366,0.7149328149288893
1684252659334120700,7.22712060546875,1.4377240882731974,0.22834990594685076,0.8900880140438675
1684252659344146700,7.237146728515625,1.0324164638340472,1.4455916067779064,1.0512614495575427
1684252659354172700,7.247172607421875,0.6687300128109753,2.541017776754498,1.0417229291006922
1684252659364198700,7.25719873046875,0.818805715727061,3.6732968828320502,1.3000669912949203
1684252659374225000,7.267224853515625,2.021457896322012,5.344073209524154,1.581770886288583
1684252659384251000,7.2772509765625,3.039726007816195,7.067301023465395,1.6842276366785167
1684252659394275800,7.28727587890625,3.4126796150088308,8.322541907823085,1.5304752910763024
1684252659404301800,7.2973017578125,3.5912346856951713,8.918155684888362,0.9326362391769886
1684252659414327800,7.307327880859375,3.4808348673462866,8.65677970765233,-0.0684621263295412
1684252659424353500,7.317353515625,3.0136008019566534,7.476390942922234,-1.0102116462886332
1684252659434379500,7.327379638671875,1.5665079968355595,5.965375554597378,-1.5874226284399628
1684252659444405500,7.337405517578125,-0.30913506888523695,4.4665416024535896,-1.5299290553703904
1684252659454431700,7.347431640625,-2.64884979044199,3.035134588372707,-0.7881266459554434
1684252659464457700,7.357457763671875,-4.936883570730686,1.85206286816895,0.6479059820994735
1684252659474483700,7.367483642578125,-6.828721984449029,1.1478396633028984,2.4263211379945275
1684252659484509700,7.377509765625,-8.463159754303097,0.9140215550780296,3.7945816678106783
1684252659494535700,7.38753564453125,-8.886829403254389,0.8970680821895599,3.6298677832111714
1684252659504560600,7.397560546875,-9.085997638380526,1.3133236554920673,3.1359915023505684
1684252659514586600,7.407586669921875,-10.276959819573163,1.994776810145378,2.6863231965288517
1684252659524612600,7.417612548828125,-12.333612947916984,2.6094004081070423,2.666768601231277
1684252659534638600,7.427638671875,-13.500306949293613,2.7982582616209983,2.2069676084518433
1684252659544664600,7.43766455078125,-10.969673203909396,2.659616683650017,1.6562272845968604
1684252659554690600,7.447690673828125,9.498093753916024,5.5621279314279555,5.806686044853925
1684252659564716500,7.457716552734375,8.461322602003813,7.365713476675748,7.735237109419703
1684252659574742500,7.467742431640625,1.1573308374866842,6.806214384564757,4.339785692587495
1684252659584768800,7.477768798828125,-1.0185013357281685,4.832636429792642,-0.21980039652734992
1684252659594794800,7.487794677734375,-3.0714085555419324,2.388209141743183,-2.921771828565001
1684252659604820700,7.49782080078125,-4.16459512989819,0.9060358170211315,-2.8019822505801915
1684252659614845700,7.507845703125,-3.8738545264899726,0.036973932132124895,-1.8802847540467977
1684252659624871700,7.51787158203125,-3.739200849111378,-0.6931804173260927,-1.0621550378851592
1684252659634897700,7.527897705078125,-4.8531031714990736,-1.3530267203271389,-0.4173525747589767
1684252659644923600,7.537923583984375,-5.767241923215985,-2.026747234901786,-0.3302960764661431
1684252659654949600,7.54794970703125,-5.649588188216089,-2.587790633845329,-0.7232777416869998
1684252659664975600,7.5579755859375,-5.158709043344855,-2.7805934255927798,-0.8097083631664515
1684252659675001600,7.568001708984375,-4.269693919229507,-2.813382765516639,-0.5780290205359458
1684252659685027600,7.578027587890625,-3.276061651819944,-2.7310359062194824,-0.3878467865504324
1684252659695053600,7.588053466796875,-3.161583039724827,-2.645576467859745,-0.57593716282323
1684252659705079600,7.59807958984375,-3.547500757908821,-2.7400322826236483,-1.304152945434302
1684252659715105800,7.608105712890625,-3.7815526748895643,-2.991111322250962,-2.140567675349116
1684252659725130500,7.618130615234375,-3.775132286453247,-3.2503479493707417,-2.4061186001822352
1684252659735156700,7.62815673828125,-3.5219209109723564,-3.5341070233285423,-2.4993624088078734
1684252659745182700,7.6381826171875,-3.38121889334023,-3.6724557558327913,-2.665326293468475
1684252659755208700,7.648208740234375,-3.83488152949512,-3.635519233101606,-2.8594577034711834
1684252659765234700,7.658234619140625,-4.755580662640929,-3.4410148981332775,-3.140606302669644
1684252659775260700,7.6682607421875,-5.861265191781521,-3.2723031760692596,-3.4506033952116963
1684252659785286700,7.67828662109375,-7.062804296568036,-3.3915760367035865,-3.6314457000523803
1684252659795312600,7.688312744140625,-7.7524992098659276,-4.043506744274497,-3.7569361200273033
1684252659805338600,7.698338623046875,-8.054189661833643,-5.071992882922292,-3.411736781200766
1684252659815364600,7.708364501953125,-8.316836974179743,-6.147952135884761,-2.8868250183463093
1684252659825390600,7.718390625,-8.434607029035687,-6.944542658802867,-2.1995830511584877
1684252659835415600,7.72841552734375,-8.328286004433036,-7.501843364086747,-1.3912347242988645
1684252659845441500,7.738441650390625,-7.600147670972347,-8.084623963063954,-0.5293424387782811
1684252659855467500,7.748467529296875,-6.479373709249496,-8.678997384679317,0.21564707624018192
1684252659865493800,7.75849365234375,-5.102298589336872,-9.216182353651522,0.9781425834633409
1684252659875519700,7.768519775390625,5.009534965443611,-10.626626659202575,2.7524884440928696
1684252659885545700,7.778545654296875,63.76632062890529,2.045532599392533,10.37071713067889
1684252659895571700,7.78857177734375,33.155842162954805,31.331100432431697,11.279399662816523
1684252659905597700,7.79859765625,-21.34079833086729,31.29763538520336,2.5476731429904698
1684252659915623700,7.808623779296875,-18.5109256183207,29.937350072050094,-12.641920187675952
1684252659925649700,7.818649658203125,-5.32218637188673,20.160632268977164,-16.98018670787215
1684252659935675600,7.828675537109375,12.936869933211803,3.9381887592345475,-11.724268751662969
1684252659945700600,7.83870068359375,25.18925304316282,-5.959649578166007,-0.9232467718020081
1684252659955726600,7.8487265625,4.609667340101302,-9.811168354207277,6.436271065104007
1684252659965752600,7.858752685546875,-8.154329951974749,-8.183451417040825,0.8686737623542546
1684252659975778600,7.868778564453125,-6.560914512860775,-6.614120033347606,-2.5868615363016723
1684252659985804500,7.878804443359375,0.4180953559502959,-7.163306990280747,-5.336805264347792
1684252659995830800,7.888830810546875,-0.0709174105271697,-5.0050043362766505,-5.275304793724417
1684252660005856800,7.898856689453125,-1.8932485727772115,-0.2707312500804663,-1.9950275700360536
1684252660015882800,7.9088828125,-3.834905494892597,2.93813025816977,-0.03208382200300693
1684252660025908700,7.91890869140625,-6.5276821053445335,3.1141444122016426,1.3429413796424865
1684252660035934700,7.928934814453125,-6.701089291748404,1.639535969775915,2.0765262880712747
1684252660045960700,7.938960693359375,-4.694088083063066,0.398206706392765,2.245489939069748
1684252660055985700,7.948985595703125,-0.7440687469117343,0.39911972958445546,3.255737241193652
1684252660066011600,7.95901171875,3.809330616392195,1.025191773277521,4.240665100882947
1684252660076037600,7.96903759765625,3.6856606898427007,1.9614029483318327,3.581261280952394
1684252660086063600,7.979063720703125,0.46846740657687186,3.0960137122273443,1.8629045801788569
1684252660096089600,7.989089599609375,-1.071221556916088,4.445473679983616,0.2153007470205426
1684252660106115600,7.999115478515625,-0.0030525194384157656,5.689399389600753,-0.4238201633378863
1684252660116141600,8.0091416015625,1.901547760697454,6.33337358520925,0.41913580491393804
1684252660126167800,8.019167724609375,2.818469859522581,5.93685556255579,1.7452429541334509
1684252660136193800,8.02919384765625,2.222515744587034,4.510306509900093,2.4242346871092915
1684252660146219800,8.0392197265625,0.8829787665605544,2.9220272646307945,2.1323446214050055
1684252660156245800,8.049245849609376,-0.1641058357037604,1.8248843538641928,1.597084775276482
1684252660166271700,8.059271728515625,-0.7873240974009037,1.0809288580685854,1.0848585987329482
1684252660176296700,8.069296630859375,-0.9129062873125076,0.337165085452795,0.7152651156231761
1684252660186322700,8.07932275390625,-0.7544506593901663,-0.4305763595998287,0.524779076385498
1684252660196348700,8.0893486328125,-0.6404010863620787,-0.9621703766971826,0.2561097272709012
1684252660206374700,8.099374755859374,-0.362518174428679,-1.3194979602128267,-0.0711482966735959
1684252660216400600,8.109400634765626,0.2183317487468943,-1.6456939078837631,-0.3814063782393932
1684252660226426600,8.119426513671876,0.8213046929359435,-1.8526620031058787,-0.4688789099872112
1684252660236452600,8.12945263671875,1.3854238460630177,-1.8388111724078655,-0.48554859749823803
1684252660246478600,8.139478515625,1.7338018149256704,-1.6917162388682365,-0.4339876293480396
1684252660256504800,8.1495048828125,1.8002356502979993,-1.4952771364450455,-0.22891280052661894
1684252660266530800,8.15953076171875,1.5978227341622113,-1.2467372599065303,0.059741059735417365
1684252660276555800,8.1695556640625,1.3426707460075615,-1.0542945336431264,0.2340884495988488
1684252660286581800,8.179581787109376,1.116176112538576,-0.8932435554653405,0.4714151504665613
1684252660296607700,8.189607666015625,0.981323405456543,-0.7129167989313602,0.7607496864691377
1684252660306633700,8.1996337890625,0.9359454367902129,-0.45056350109577176,1.0216621378466486
1684252660316659700,8.20965966796875,1.053220328540355,-0.42043958098888395,1.3136416354000569
1684252660326685700,8.219685791015625,1.2390519661009312,-0.5246604184418916,1.5892022053331136
1684252660336711700,8.229711669921874,1.405450881177932,-0.6547399197727441,1.9487661695986984
1684252660346737700,8.239737548828124,1.4599283212967216,-0.8209434584081172,2.256681195169687
1684252660356763600,8.249763671875,1.4715772580362856,-0.9854279181659221,2.3792113040342926
1684252660366789600,8.25978955078125,1.619586968333274,-1.1615344266563654,2.3565631266355513
1684252660376815600,8.269815673828125,1.8134598735302685,-1.210999007049203,2.086404708006978
1684252660386841900,8.279841796875,1.949247377244383,-1.16411801340878,1.8096613580301404
1684252660396866600,8.289866455078124,2.19999776943922,-1.051156820139289,1.60427819391191
1684252660406892800,8.299892822265624,2.3638464155115186,-0.7804466128468514,1.3463389131262897
1684252660416918800,8.309918701171876,2.383716068107635,-0.44537470028102394,1.0370321409359573
1684252660426944500,8.319944580078126,2.3248761949956416,-0.030961539974808692,0.6608192396864294
1684252660436970500,8.329970458984375,2.2895525142885744,0.34492812066972256,0.3446571947738528
1684252660446996500,8.33999658203125,2.2870310329869388,0.6321785438746214,0.1762096766039729
1684252660457022500,8.3500224609375,2.184533366064727,0.7561427771955728,0.20918518674969672
1684252660467048700,8.360048583984375,2.161471054907143,0.5845084456831217,0.41269349690675733
1684252660477074700,8.37007470703125,2.255169037041068,0.11257131716907023,0.6192091721862554
1684252660487100700,8.3801005859375,2.3383964785650373,-0.6594435674190521,0.6401172279193997
1684252660497125600,8.390125732421875,2.5495623177379367,-1.3382120130330324,0.3257078718930483
1684252660507151600,8.400151611328125,3.4550253033071754,-1.7594120570003986,-0.32639643867909907
1684252660517177600,8.410177490234375,4.642380692179501,-1.4973597879379987,-0.835468535105884
1684252660527203600,8.42020361328125,4.719697156094014,0.00010930559337139129,-0.47028205478340385
1684252660537229600,8.4302294921875,4.44512998111248,1.804973200213909,0.9301613734960555
1684252660547255600,8.440255615234374,4.67307130625844,3.631186756855249,2.1412293541282414
1684252660557281500,8.450281494140626,4.057861140580475,5.722327261212468,1.9732579290375112
1684252660567307500,8.4603076171875,2.4362904510840773,7.689714544650911,1.303079617114365
1684252660577333500,8.47033349609375,0.2264059322722256,9.082810240516066,0.48013826288729905
1684252660587359500,8.480359375,-1.7944781096845863,9.184172181406616,-0.6097445937484502
1684252660597385700,8.4903857421875,-2.8296272133529183,8.53312936258614,-1.3435782162413
1684252660607410400,8.500410400390624,-3.148469875651598,6.998077849635481,-1.455792098274827
1684252660617436700,8.510436767578126,-4.1584442060530185,3.8054970295786856,-0.5891929502375424
1684252660627462700,8.520462646484376,-2.6091549089133736,0.9433072707951068,-0.5479885409288108
1684252660637488600,8.530488525390625,-1.2701391782820224,-0.6215829155802727,-1.6102061226561664
1684252660647514600,8.5405146484375,-0.5759316829305142,-2.359544188272953,-1.7995342240303753
1684252660657540600,8.55054052734375,-0.34256899032294746,-4.038207468822598,-1.6817152154661714
1684252660667566600,8.560566650390625,-0.23087957055494188,-5.261801169028878,-1.6223178546018897
1684252660677592600,8.570592529296874,-0.10861344638876616,-5.914839545580745,-1.6534129578284917
1684252660687618600,8.58061865234375,-0.10132803862094879,-5.893482869297266,-1.948792034692317
1684252660697644500,8.59064453125,-0.008858429238200188,-5.435923225703835,-2.40143321884498
1684252660707670500,8.60067041015625,0.18478490498661995,-4.774149169510602,-3.276792888703942
1684252660717695500,8.610695556640625,0.34911505096554757,-4.110272003558278,-4.6405157750904555
1684252660727721500,8.620721435546875,0.5067068286001682,-3.6671260852426286,-6.164748956906795
1684252660737747500,8.63074755859375,1.101824931102991,-2.9814369004547596,-7.473678761354089
1684252660747773700,8.640773681640624,4.6066795564621685,-1.2771762373119593,-8.884306606778502
1684252660757799700,8.650799560546876,4.230398266151547,0.10114683683514594,-8.523491765668988
1684252660767825700,8.66082568359375,0.3022270795950666,1.0602946508407591,-6.908489348646998
1684252660777851600,8.6708515625,-2.1607728435099123,2.1196581583112475,-6.047781450605392
1684252660787877600,8.680877685546875,-3.38142289147973,3.476132388743758,-5.770897523114085
1684252660797903600,8.690903564453125,-3.956130658638477,4.49751717095375,-5.967382802766561
1684252660807929600,8.7009296875,-4.411611157870293,4.699342642590404,-5.794859997981787
1684252660817955600,8.71095556640625,-4.571554759328067,4.388398040065169,-5.12792753611207
1684252660827980500,8.72098046875,-3.9702684895843263,3.556456802302599,-3.6251658891305327
1684252660838006500,8.731006591796875,-0.1205519406594336,3.102674339160323,-1.2950512089595199
1684252660848032500,8.741032470703125,6.987943993633985,3.5633114905029535,1.8876757410809397
1684252660858058500,8.75105859375,6.895009689348936,3.2822581683725116,2.626182323820889
1684252660868084500,8.76108447265625,1.703639900895953,2.6065070247530935,1.347125679589808
1684252660878110700,8.77111083984375,-2.1646242582410573,2.210686921235919,0.26668022112399337
1684252660888136700,8.78113671875,-4.667773492111265,2.1236264774203297,-0.07906213853806257
1684252660898162700,8.79116259765625,-5.654926626634597,2.0055092165619133,-0.1252566112190485
1684252660908188700,8.801188720703125,-5.06235353243947,1.8126175774872302,-0.052853053787350654
1684252660918214700,8.811214599609375,-3.536724804611504,1.5383563997149468,-0.3902428879067302
1684252660928240600,8.82124072265625,-2.5285890878140926,0.9921154331058263,-1.061466324968636
1684252660938265600,8.831265625,-2.710866393893957,0.19559914446771143,-1.3770412176430225
1684252660948291600,8.84129150390625,-3.8452608846902847,-0.7015478481769561,-1.2888713512808083
1684252660958317600,8.851317626953126,-5.268397498553991,-1.6968769826322794,-0.8166150738149881
1684252660968343600,8.861343505859375,-6.815699421268701,-2.269721878528595,-0.16365458480492234
1684252660978369500,8.87136962890625,-8.326960893309115,-2.6910382423520085,0.5379604833893478
1684252660988395500,8.8813955078125,-9.066271193647385,-3.358271732994914,1.229994653289765
1684252660998421500,8.89142138671875,-8.265175760525464,-4.347575615811348,1.833459289985895
1684252661008447700,8.90144775390625,-6.5663178332090375,-5.493402770248055,2.179258494401723
1684252661018473700,8.9114736328125,-5.139269014337659,-6.588520897188782,2.1093004304260012
1684252661028499700,8.921499755859376,-4.5664565594062205,-7.529542687395215,1.5778762169376015
1684252661038525700,8.931525634765626,-3.791346339151263,-8.319851938086748,1.1194631713852286
1684252661048550700,8.941550537109375,-3.0486887742117044,-8.865476818624138,0.9508316749505699
1684252661058576600,8.95157666015625,-2.2072855883598326,-9.193793996232747,0.895941050921008
1684252661068602600,8.9616025390625,-0.49142859544754025,-9.300977775144576,1.038119863107428
1684252661078628600,8.971628662109374,29.524060362815856,-5.585790546566248,1.6025563385553656
1684252661088654600,8.981654541015626,39.260156232643126,2.0802362485051153,-8.026137871825695
1684252661098680600,8.9916806640625,2.729988442993164,0.9910568639636039,-9.180093972182274
1684252661108706600,9.00170654296875,-13.451304141193628,-0.19321078802645206,-10.959079329180717
1684252661118732500,9.011732666015625,-12.493849102580546,5.350995702263712,-14.492282681667804
1684252661128758500,9.021758544921875,-11.974808862107992,10.499212577688693,-14.503981302767992
1684252661138784800,9.03178466796875,-8.12771374772787,11.667461407291889,-9.985157139891385
1684252661148809500,9.0418095703125,-4.571176281404495,11.394952626144885,-5.349522122579812
1684252661158835700,9.051835693359376,-4.522615371853113,10.936675774192809,-4.881952541625499
1684252661168861700,9.06186181640625,-5.016708218073845,10.1290336959064,-8.538064480900763
1684252661178887700,9.0718876953125,-4.902928694158792,8.057225084006786,-10.768354512751102
1684252661188913700,9.08191357421875,-3.3386452415049073,5.194920758932828,-8.924447478508949
1684252661198939600,9.091939697265625,-1.919469932487607,2.465927756717801,-6.152464060351252
1684252661208965600,9.101965576171875,-0.8157575802028179,0.1096755957275629,-3.7072546820133923
1684252661218991600,9.11199169921875,-0.03666238196492195,-1.892805797445774,-1.3825433221906422
1684252661229017600,9.122017578125,0.5512715081222355,-3.3423400043696163,0.9240306156560778
1684252661239043600,9.132043701171876,1.175958673328161,-4.227453444871307,2.854203436204791
1684252661249069600,9.142069580078125,1.7309987402036786,-4.122514230015874,4.018029480929672
1684252661259094500,9.152094482421875,2.2307613026238977,-3.533654603385925,4.786801438073813
1684252661269120500,9.16212060546875,2.698257087689638,-2.975965775567293,5.521186849230528
1684252661279146500,9.172146484375,2.8110329875200986,-2.460845338886976,6.2222320085823535
1684252661289172700,9.1821728515625,1.9323489955440163,-1.468885973125696,7.244037062031031
1684252661299198700,9.19219873046875,0.1276777008861303,0.3492787170946598,8.232458316794038
1684252661309224700,9.202224609375,0.477163630990684,3.634740065422654,9.749171624499558
1684252661319250700,9.212250732421875,0.8426508478254079,9.836483997249603,14.126224679207802
1684252661329276700,9.222276611328125,1.5635909403450785,9.693482470503449,13.977414758443832
1684252661339302700,9.232302734375,1.2095526076331733,9.04964213040769,13.411999720287323
1684252661349328600,9.24232861328125,1.3484279943600297,8.379053484117984,12.62862815990448
1684252661359354600,9.252354736328124,1.377567141213268,7.221781391081214,11.342249794483184
1684252661369379600,9.262379638671876,0.9505458437465131,4.8131069689363235,9.649221888494491
1684252661379405600,9.272405517578125,-2.2008312976539135,1.2271557766020298,7.778301759642362
1684252661389431600,9.282431640625,-2.7780560160696504,-0.9794868376791477,7.6052850338608025
1684252661399457500,9.29245751953125,1.7202831387914717,0.4797440028727054,8.336032088515163
1684252661409483500,9.3024833984375,3.5955031567946074,1.0449918677687644,8.398033494397998
1684252661419509800,9.312509765625,4.204126053036749,0.06098901396989822,7.516046661484241
1684252661429536000,9.322535888671876,7.5487424779057495,-0.6578899082362651,5.647880799776315
1684252661439562000,9.33256201171875,11.401307548129559,-0.6927402723431587,3.9509284138202663
1684252661449588000,9.342587890625,11.558409496420621,-0.5737246013402939,3.5906565935462713
1684252661459614000,9.352614013671875,11.00075807800293,-0.7170826864391565,3.46807124736309
1684252661469640000,9.362639892578125,9.8536116576612,-1.0889508364826441,3.0356641652047633
1684252661479665200,9.3726650390625,7.459536254233122,0.9226292244255542,3.2719948407724497
1684252661489691100,9.382691162109374,5.919103632766008,4.475170314589143,3.26068346542418
1684252661499717000,9.392717041015626,4.246200230917334,7.992227418917417,2.1889739788606764
1684252661509742800,9.402742919921875,1.28042457158342,12.671146282160281,0.5810638581871986
1684252661519768800,9.412768798828125,-2.358932193854451,18.71507690255642,-1.7281263996377587
1684252661529794800,9.422794921875,-5.2776867204248905,21.388067447042463,-3.74100585270673
1684252661539821000,9.432821044921875,-2.8545208315908908,16.770184359520673,-3.639999885646999
1684252661549847000,9.442846923828125,-1.7875521098136902,11.454340050137043,-4.001027492724359
1684252661559873000,9.452873046875,-1.271512804722786,7.217765141177177,-3.450403488725424
1684252661569899000,9.46289892578125,-1.4021756588995455,4.291211923554539,-2.527443132649362
1684252661579925000,9.472925048828126,-1.8556909955382346,3.0714322286784648,-1.2445517325609923
1684252661589950200,9.4829501953125,-3.260218770521879,3.8812744473576544,-0.05433978521376848
1684252661599976000,9.492975830078125,-5.515160428547859,5.244492306831479,0.6262827638342976
1684252661610002000,9.503001953125,-8.163479473114013,6.226069394788146,0.8231687332421541
1684252661620028000,9.51302783203125,-10.519967780947685,7.0586179507941,0.8636854525476694
1684252661630054000,9.523053955078124,-11.679882497447728,7.451400294050574,0.6979708664730191
1684252661640080000,9.533079833984376,-11.36566340329647,6.878904942244291,-0.3657733402997255
1684252661650105900,9.54310595703125,-10.283444505417346,5.595290196317434,-1.0357418088644743
1684252661660131800,9.5531318359375,-3.0079809162482616,4.84336416003406,-1.1982204817578195
1684252661670158000,9.563157958984375,9.251243145638703,4.770563712239265,1.8162682089492677
1684252661680184000,9.57318408203125,6.790084503018855,3.783255387154221,3.727033441455662
1684252661690209000,9.583208984375,2.4168691267773506,2.302889404115081,3.356667512668669
1684252661700235000,9.593235107421876,-1.4593451145812868,0.9062819007366895,2.5184397419825193
1684252661710261000,9.603260986328126,-5.332985998320579,-0.08481763332486152,1.7058799349077045
1684252661720287000,9.613286865234375,-7.867531364190578,-1.0458961231321096,0.9700490011177957
1684252661730313000,9.62331298828125,-8.502612643769384,-2.192737423047423,0.7343615918897092
1684252661740339000,9.6333388671875,-8.108331586387752,-2.9039994405090805,0.9191957428455352
1684252661750365000,9.643364990234375,-6.853539614841342,-3.1537948700666427,1.419696410281956
1684252661760391000,9.653390869140624,-5.679587605160474,-3.1722306904673574,1.6842478026837109
1684252661770417000,9.6634169921875,-4.703448908865451,-3.0168086580872533,1.4041560190618037
1684252661780443000,9.67344287109375,-3.482139812465012,-2.824005281817913,0.262389538192749
1684252661790468900,9.68346875,-2.5213714115202426,-2.705020005953312,-0.8412573476403952
1684252661800494000,9.693494140625,-2.248943002133071,-2.7483132042348384,-1.3502214536480606
1684252661810519800,9.703519775390625,-2.664526667523384,-2.8530794006109237,-1.4675924261838196
1684252661820546000,9.713546142578124,-3.5235175325140355,-2.907776036438346,-1.5283096374750136
1684252661830572000,9.723572021484374,-4.492708893889189,-2.9483640674144027,-1.639959455884993
1684252661840598000,9.733597900390626,-5.462028557819128,-3.04432385700047,-1.9092638880327344
1684252661850624000,9.7436240234375,-6.1209717745006085,-3.194259566923976,-2.1457012388452887
1684252661860650000,9.75364990234375,-6.336811158442497,-3.5060517261892556,-2.4458099745795128
1684252661870676000,9.763676025390625,-6.131067052057385,-4.01276498453021,-2.652733938398957
1684252661880702000,9.773701904296875,-5.79140313552618,-4.520612215337157,-2.5746006051436066
1684252661890728000,9.78372802734375,-5.344544918689132,-4.880932550927996,-2.431365269641578
1684252661900753000,9.7937529296875,-5.052098680406808,-4.90845242601633,-2.219934203661233
1684252661910779000,9.80377880859375,-5.134717926904559,-4.573224446105956,-1.7084040465578436
1684252661920804900,9.813804931640625,-5.526325965684652,-4.227591976559162,-1.0085717701271175
1684252661930830800,9.823830810546875,-5.983771627509594,-4.01895799395144,-0.6400994000017642
1684252661940856800,9.83385693359375,-6.400024862724543,-3.9046488932043313,-0.6495913048379123
1684252661950883000,9.843883056640625,-6.651438248872757,-3.846606454080343,-0.9462159978486597
1684252661960909000,9.853908935546874,-6.525002657002211,-3.805567172205448,-1.2798580237418413
1684252661970935000,9.86393505859375,-6.208975052124262,-3.7381513400584456,-1.5408281966559587
1684252661980961000,9.8739609375,-5.815900447922945,-3.5518484317243098,-1.8805615251615642
1684252661990987000,9.883987060546875,-5.134926601219177,-3.09538768928349,-2.146856838621199
1684252662001013000,9.894012939453125,-4.140453791332245,-2.1508529225200412,-2.1880057183504102
1684252662011038000,9.904037841796875,-3.0293747096717354,-0.8414940790057182,-1.9810706486150622
1684252662021064000,9.91406396484375,-2.0624447173573075,0.5435322921723127,-1.836689357948303
1684252662031090000,9.92408984375,-1.3786848931968212,1.6101538079470394,-1.5102278912089764
1684252662041116000,9.934115966796876,-0.5978363484855741,2.3831541964411733,-1.0699144198402761
1684252662051142000,9.944141845703125,1.05020346493721,3.671950728920102,-0.9645268766954541
1684252662061167900,9.95416796875,15.028656334257125,8.62708658017814,-4.4817330341055985
1684252662071193900,9.96419384765625,54.12896219668388,27.044125708055496,-12.585778029215335
1684252662081220000,9.97422021484375,11.714451122003792,35.15276767556667,-13.401239841341972
1684252662091246000,9.98424609375,-6.639243953210115,27.627539344239235,-6.599578297775984
1684252662101272000,9.99427197265625,-6.188776313704252,18.3735945384264,-0.32652707932144404
1684252662111298000,10.004298095703126,-4.698748183828592,9.539553307029605,1.616005456584692
1684252662121323000,10.014322998046875,-3.002948475039005,1.4820891535699368,1.9193679334178566
1684252662131349000,10.024348876953125,-2.132290406999737,-3.955419880020618,2.5898390908077356
1684252662141375000,10.034375,-1.9035889111362396,-7.232558221161365,3.551692948901653
1684252662151401000,10.04440087890625,-2.1396493914604187,-10.664853221744298,3.885802153915167
1684252662161427000,10.054427001953124,-1.4200376249350606,-11.503042413985728,4.064522059774399
1684252662171453000,10.064452880859376,-1.054456592337042,-10.030949753773212,4.018248092116416
1684252662181479000,10.07447900390625,-1.2919921136498451,-9.503464341038464,4.20291200107187
1684252662191505000,10.0845048828125,-1.5032850863337517,-9.389512383165956,4.477895355638862
1684252662201531000,10.09453076171875,-1.7444728465437889,-8.902806140065193,4.59395743753314
1684252662211557000,10.10455712890625,-2.2986545430243015,-7.987589822244644,4.687606612089276
1684252662221581800,10.114581787109374,-3.2168449082195756,-6.6513546622425315,4.695452064892649
1684252662231608000,10.124608154296874,-3.641875324130058,-4.256009092748165,4.429629337380827
1684252662241634000,10.134634033203126,-3.860484172785282,-0.7613222256600857,4.306059364074469
1684252662251660000,10.144659912109375,-4.356390205907822,3.3276416169315572,4.46330481248945
1684252662261686000,10.15468603515625,-4.940418759119511,6.687958007496595,3.8226755433946846
1684252662271712000,10.1647119140625,-5.171687182861566,9.137004187518357,3.0453190055176615
1684252662281738000,10.174738037109375,-4.430227011013031,10.728194351798296,2.3977365562841295
1684252662291764000,10.184763916015624,-4.051563209480047,11.010519593560694,1.519343948470056
1684252662301790000,10.1947900390625,-3.7944565801262855,9.608241058808565,0.8223106551080942
1684252662311816000,10.20481591796875,-2.969088291013241,6.654707479801774,0.6667959760084747
1684252662321842000,10.214842041015626,-1.8858593393087386,3.5824680263936517,0.5695189663439989
1684252662331867000,10.224866943359375,-0.6387544151335954,1.3046692243933677,0.5097442965999245
1684252662341892900,10.234892822265625,0.47931971304602916,-0.515927661409974,0.3688227909982204
1684252662351918800,10.2449189453125,1.5610184595085679,-2.0722411580979823,0.20451777946054933
1684252662361945000,10.254945068359374,4.825038229748606,-3.4457606313556433,-0.7155752044856548
1684252662371971000,10.26497119140625,14.289846384656428,-5.128215705403686,-3.9578608434319493
1684252662381997000,10.2749970703125,13.525090677416324,-4.762957913410664,-4.994548993235826
1684252662392023000,10.28502294921875,7.606756275457143,-2.9075726228207346,-2.723594942563772
1684252662402049000,10.295049072265625,3.748436587229371,-1.4921546205103398,-0.8474547409757971
1684252662412075000,10.305074951171875,2.1953449751973153,-0.36627369103729723,-0.7832008799910545
1684252662422100500,10.3151005859375,1.5603456748135387,0.4312964905679226,-0.9964698289230466
1684252662432125700,10.325125732421874,0.5688531959116458,0.693377401202917,-0.7841963207691908
1684252662442151400,10.3351513671875,-0.17857026825547218,0.5849912607640028,-0.35681671138405796
1684252662452177400,10.345177490234375,-1.0480201295487581,0.18288813145458696,0.3929430867761373
1684252662462203400,10.355203369140625,-1.3797745881296692,-0.21147242090404034,0.9397025243014097
1684252662472229400,10.3652294921875,-0.7577658483527601,-0.459541172799468,1.7623039790496229
1684252662482255400,10.37525537109375,0.8225544007360934,-0.63106210706532,2.602637489843368
1684252662492281300,10.38528125,2.465022040049732,-0.6502443619191646,3.250901491600275
1684252662502307300,10.395307373046874,3.6765988469868898,-0.43777533119320866,3.607365736284852
1684252662512333300,10.405333251953126,4.997306767511367,0.1990904937148094,3.6795769860148426
1684252662522359300,10.415359375,9.351759867876767,1.5913532458871602,3.923882878245413
1684252662532385300,10.42538525390625,14.408919338804482,3.3387668220579623,4.645436572618782
1684252662542410500,10.435410400390625,14.036779970604181,4.328350690859556,5.0621150475084775
1684252662552436200,10.445436279296874,10.046724830532073,4.138295151993632,4.716578731812536
1684252662562462500,10.45546240234375,6.130053491100669,3.0513989099532366,4.1292572745352984
1684252662572488400,10.465488525390626,3.114870972910523,1.8120260413348674,3.490315520136058
1684252662582514400,10.475514404296876,1.5877746567480264,0.8304524605095386,2.84113177318573
1684252662592540400,10.48554052734375,0.8515158529348671,0.19839140553474424,2.093058612938225
1684252662602566400,10.49556640625,0.34689401391521096,-0.4630068030834198,1.371065065842867
1684252662612592400,10.50559228515625,0.1200597732283175,-0.24693711751699446,1.1923323005020618
1684252662622618400,10.515618408203125,0.146114142341353,1.579704893669486,1.4514862177744507
1684252662632644400,10.525644287109374,-0.09594282931811175,4.695550849092006,1.3176838965281843
1684252662642669300,10.53566943359375,-1.083044242787361,8.595008018872141,0.7868079645723104
1684252662652695300,10.5456953125,-2.6526795778632164,12.29568682962656,-0.1796405278354883
1684252662662721300,10.55572119140625,-3.4743595338523385,14.92618497081995,-2.2579557451501486
1684252662672747300,10.565747314453125,-1.415522923989594,16.268959177201985,-5.392622428637742
1684252662682773200,10.575773193359375,-1.5230255595922468,12.215043851637839,-4.833425242082774
1684252662692799500,10.585799560546874,6.853306390607357,8.94725493812263,-3.234313637153804
1684252662702825500,10.595825439453124,8.80970875417292,6.883323343208432,-2.0227344921290875
1684252662712851500,10.6058515625,-2.309852813386917,4.217902357193827,-1.842137101960182
1684252662722877400,10.61587744140625,-7.804995705300569,1.971016579851508,-0.6789683521002531
1684252662732903400,10.6259033203125,-10.279044224631786,0.1461480080783367,2.2080706012576816
1684252662742928400,10.635928466796875,-11.341892067086697,-0.7480220145821571,4.586008232094347
1684252662752954400,10.645954345703124,-12.88047526129484,0.5358943446397781,6.573199993938207
1684252662762980400,10.65598046875,-15.228125598156451,2.405187749072909,8.704349268078804
1684252662773006300,10.66600634765625,-18.72844608721733,4.869916066873073,11.285209810400008
1684252662783032300,10.6760322265625,-9.484168104416131,8.046336025723814,14.122247592270373
1684252662793058300,10.686058349609375,7.315323598131537,13.132429914712905,17.289304094970227
1684252662803084300,10.696084228515625,2.6317811667412516,13.832592446011304,12.520201687455177
1684252662813110300,10.7061103515625,0.7496656901359557,12.944359996706247,4.445379571959376
1684252662823136500,10.716136474609375,-0.056581134399771686,10.100383940005301,-3.6544501435428858
1684252662833162500,10.72616259765625,-0.013377367967367172,6.734267923250794,-8.451470485553145
1684252662843188500,10.7361884765625,-0.9200959065556525,4.24801809399426,-9.472926579433679
1684252662853213400,10.74621337890625,-3.998177071729302,2.9199738392323256,-7.850390844297409
1684252662863239400,10.756239501953125,-6.1381286610066885,1.7834873445928097,-6.315447467896342
1684252662873265400,10.766265380859375,-7.115870700845122,0.38548224937617775,-5.412887218031287
1684252662883291400,10.77629150390625,-8.225296170079707,-1.2434680289775133,-4.8129783741205925
1684252662893317400,10.7863173828125,-8.997950521615147,-3.1461230202645063,-4.544994084660709
1684252662903343400,10.79634326171875,-9.66914064092934,-5.046444015645981,-4.64927249751985
1684252662913369300,10.806369384765626,-10.889362234354019,-6.090512923350929,-4.744312541912496
1684252662923395300,10.816395263671875,-11.157114176362752,-6.621980683720111,-4.836353696750104
1684252662933421300,10.82642138671875,-10.688920326030253,-7.224937809285521,-5.090343947649002
1684252662943447300,10.836447265625,-10.34625021342039,-7.986819422394037,-5.018107563477754
1684252662953472300,10.84647216796875,-9.542859362837671,-8.84837253908813,-4.398060186901688
1684252662963498200,10.856498291015624,-8.359488951948284,-9.570461655512451,-3.0245760772183536
1684252662973524500,10.8665244140625,-7.4156708090215915,-9.894027839201689,-1.3330255503058432
1684252662983550500,10.876550537109376,-7.0246209886461495,-9.864721080696583,0.53590954220891
1684252662993576400,10.886576416015625,-7.055648579594492,-9.728874101880193,2.2031287609413264
1684252663003602400,10.8966025390625,-7.0873512933254235,-9.43670726506114,3.220881616389751
1684252663013628400,10.90662841796875,-6.592707242962717,-9.387306982076167,3.8606010771632193
1684252663023654400,10.916654296875,-5.790170963382721,-9.400646356120705,4.368596776530146
1684252663033680400,10.926680419921874,-5.027268190532922,-9.020079935836792,4.441849936528504
1684252663043706400,10.936706298828126,2.9741391446620224,-8.481292792364954,5.5585062337994575
1684252663053732400,10.946732421875,65.86368804495335,7.184442132768035,11.04324229798913
1684252663063757300,10.95675732421875,53.07341853976249,26.213810025668142,-9.291649974828958
1684252663073783300,10.966783203125,-22.814230715250968,11.763587201094627,-10.58318031618595
1684252663083809300,10.976809326171875,-39.2744512999773,13.75516316937208,-15.994017615950106
1684252663093835300,10.986835205078124,-40.24537489197254,24.69291680192947,-16.871082190030812
1684252663103861500,10.996861572265624,-26.63784324723482,19.084483046400546,-11.51061080341339
1684252663113887500,11.006887451171876,-3.719784200979769,7.899863023474812,-5.285830279392004
1684252663123913500,11.01691357421875,27.783531869983673,-5.044435598433018,-3.111605249112844
1684252663133939500,11.026939453125,0.7374047589778899,-5.411393180081248,-0.8433101885169744
1684252663143965400,11.03696533203125,-7.587556484946608,-5.3249207652866835,-5.156911638534069
1684252663153991400,11.046991455078125,-3.397978889483213,-3.828305658236146,-13.588842141836881
1684252663164016400,11.057016357421874,3.2286452361285685,1.0855904201388358,-20.61342630560398
1684252663174042400,11.06704248046875,-2.356368188585341,2.3621827200829983,-13.863435328042506
1684252663184068400,11.077068359375,-4.582423651605844,1.3874866238117218,-6.1852580764502285
1684252663194094300,11.08709423828125,-3.5765658166125416,0.43540158779919147,-1.3307017835333943
1684252663204120300,11.097120361328125,-0.9046268270060419,-0.6819558434784412,2.4396307014226912
1684252663214146300,11.107146240234375,13.001482982897757,-0.4822609541296959,8.24077197163105
1684252663224172300,11.11717236328125,15.163264711189269,-0.6694482440829277,10.300636463236808
1684252663234198500,11.127198486328124,0.4913149059399962,-2.395648936355114,5.224131071326136
1684252663244224500,11.137224609375,-4.705341590744257,-2.428403789487481,1.5535364331901071
1684252663254250500,11.14725048828125,-4.724996139284968,-1.224542379233241,0.9122487001866102
1684252663264275500,11.157275390625,-4.614040732879936,-0.09253624487817287,1.0597869935795665
1684252663274301400,11.167301513671875,-4.361141199827194,0.7928799779623746,1.1046382349580526
1684252663284327400,11.177327392578125,-3.449315108966827,1.5461930846899747,0.8544348091214895
1684252663294353400,11.187353515625,-2.721465237058699,2.604661689147353,0.3952241834506392
1684252663304379400,11.19737939453125,-2.2613410036742687,3.2654169236868618,-0.36283144162893294
1684252663314405400,11.2074052734375,-1.718832209330797,3.5550527807235714,-0.9067372432887554
1684252663324431400,11.217431396484375,-1.2604209173440932,3.3495009820401664,-0.8213055697187781
1684252663334457300,11.227457275390625,-0.4372352329671383,2.8430665406405926,-0.3443628880023956
1684252663344483300,11.2374833984375,2.7131740863144396,1.8214643162876367,1.3958406106591223
1684252663354509300,11.24750927734375,4.862857380533218,0.7225397828012704,3.0705805802851915
1684252663364535600,11.25753564453125,4.994139243391156,0.42543198244869707,3.675119714345038
1684252663374560300,11.267560302734376,4.504170199102163,0.6113292325913906,3.6923625255689023
1684252663384586500,11.27758642578125,3.8315363107204434,1.0633733276337385,3.488490350535512
1684252663394612500,11.287612548828125,3.1009324639290567,1.3417512930750846,3.252361335019767
1684252663404638500,11.297638427734375,2.0999211921840906,1.1758873616576193,3.0665204912394284
1684252663414664400,11.30766455078125,1.4681389541506766,0.7916536510378122,2.7730013630285857
1684252663424690400,11.3176904296875,1.6537975732319057,0.35254794802367684,2.761230845735967
1684252663434716700,11.327716552734374,1.6116012302763758,-0.34483225907981396,2.8723806056693193
1684252663444742700,11.33774267578125,1.4296230532735585,-1.116961709958315,3.0085543322220443
1684252663454768600,11.3477685546875,1.3089853340268134,-1.6185001960098742,3.176069245716929
1684252663464793600,11.357793701171875,1.1226081914126873,-2.007039494869113,3.2959166913688183
1684252663474819600,11.367819580078125,1.2309060690462588,-2.189551778748631,3.105428606304526
1684252663484845600,11.377845458984375,1.420907247376442,-2.019251910710335,2.6164064874768256
1684252663494871600,11.38787158203125,1.8165065477497875,-1.6476409502983091,1.8953136886134743
1684252663504897500,11.3978974609375,2.971509965202212,-1.2403729855716228,0.8848883995741605
1684252663514923500,11.407923583984376,5.1846401879370205,-0.7488175488740205,-0.555907789620757
1684252663524949500,11.417949462890626,7.636914097833633,-0.3052338236629963,-2.0269863043546676
1684252663534975500,11.4279755859375,8.669825067186355,0.06940262205004692,-3.040804742963612
1684252663545001500,11.43800146484375,7.666828174582124,0.3837409586668014,-3.0770947844848036
1684252663555027500,11.44802734375,6.069461952015757,0.6004185469985008,-2.672134219917655
1684252663565053700,11.4580537109375,4.758275308552384,0.7283364863812923,-2.221269105526805
1684252663575078400,11.468078369140626,3.899245865117013,0.8176543537348508,-1.728341795954108
1684252663585104600,11.478104736328126,3.396614030870795,0.9114274469316005,-1.2501561284393072
1684252663595130600,11.488130615234375,3.565169977851212,0.8748995050013065,-0.7962319187387824
1684252663605156600,11.498156494140625,4.248524874472618,0.6992711354166269,-0.3291033595502376
1684252663615182600,11.5081826171875,5.366494300168752,0.21140052471160886,0.19224603464752435
1684252663625208600,11.51820849609375,6.508600388255715,-0.45106618992090225,0.8848784627020359
1684252663635234600,11.528234619140624,6.418023460751772,-0.6943143897920847,1.6080357928797602
1684252663645260500,11.538260498046874,4.2939793424412604,-0.12715689188241958,2.174841408611834
1684252663655286500,11.54828662109375,1.6537009809896348,0.8031973738372326,2.7963424911275503
1684252663665312500,11.5583125,0.5688644479580223,1.8824328719913959,3.3322388815939425
1684252663675337500,11.56833740234375,-0.0853494751792401,3.6175475230813023,3.157583448694646
1684252663685363500,11.578363525390625,-1.3812486062049865,5.802032081568241,1.7154653632462025
1684252663695389400,11.588389404296874,-2.4385727168023585,8.012039788368345,-0.6670169252827763
1684252663705415400,11.59841552734375,-3.0130864226937293,9.703197808831929,-3.939914852374792
1684252663715441700,11.608441650390626,-3.3317467141628265,10.240309128046036,-6.3142357540190215
1684252663725467600,11.618467529296876,-3.8330899699032304,9.123526866307854,-7.268341482204199
1684252663735493600,11.62849365234375,-4.345424575257301,6.534694614455104,-7.299640875831246
1684252663745519600,11.63851953125,-3.27832608962059,4.2988978018820285,-7.412400409048796
1684252663755545600,11.648545654296875,-2.7623618955925107,2.1469225973337887,-6.919579482460022
1684252663765571600,11.658571533203125,-2.2201801412463187,0.015813070681691167,-5.750905120921135
1684252663775597600,11.66859765625,-1.7035130596458912,-1.8599936611682175,-5.355800472196936
1684252663785622500,11.67862255859375,-0.9608291181560605,-3.4222008920699354,-5.232634111255407
1684252663795648500,11.6886484375,1.8638778091251849,-4.3275346983015535,-5.686968947583437
1684252663805674500,11.698674560546875,4.046707001620531,-4.4876042642265555,-6.790458597028255
1684252663815700500,11.708700439453125,1.3117455925203858,-3.9014971511751413,-6.729408208259939
1684252663825726500,11.7187265625,-1.0684089837133883,-3.656463821452856,-5.505420540300011
1684252663835752400,11.72875244140625,-2.946765692307055,-3.824108791068196,-4.666309264777601
1684252663845778700,11.73877880859375,-3.8816824436366555,-3.710892161732912,-3.975946535220742
1684252663855804700,11.7488046875,-3.7511060986995695,-3.3889608857691287,-3.277508928018808
1684252663865830700,11.75883056640625,-3.012266923004389,-2.7062328888744114,-3.4891616739258167
1684252663875856600,11.768856689453125,-2.561915895615518,-1.7778233274817465,-3.9108708364591
1684252663885881600,11.778881591796875,-3.8845065611466763,-1.3633143055856227,-3.4499563294798135
1684252663895907600,11.788907470703125,-4.560888403885066,-1.542909825235605,-2.2355942757382987
1684252663905933600,11.79893359375,-3.7029967323079704,-1.766186665701866,-0.7759808656096457
1684252663915959600,11.80895947265625,-2.1393398871198297,-1.5354975031524896,0.3824742997318506
1684252663925985500,11.818985595703126,-1.3196516894698143,-1.1823457440167664,0.908847367310524
1684252663936011500,11.829011474609375,-1.8900544529110193,-0.9526333175450563,1.2173916306957602
1684252663946037500,11.83903759765625,-3.065802698358893,-0.9651678049474954,1.3644360030919314
1684252663956063500,11.8490634765625,-4.108068940556049,-1.0636316863089799,1.6862661567687987
1684252663966089500,11.85908935546875,-4.805901859863102,-1.2232996856957674,2.02263629245162
1684252663976114400,11.869114501953124,-5.0239288169771426,-1.2910323287069796,1.9129902150794862
1684252663986140400,11.879140380859376,-5.056707635506987,-1.1983978841513394,1.4985034050151704
1684252663996166400,11.88916650390625,-4.889069972415268,-1.2547194908320902,1.4475325117126105
1684252664006192600,11.899192626953125,-4.590099008539319,-1.3152139992833136,1.629935197737813
1684252664016218600,11.909218505859375,-4.214374475328624,-1.5055273123025894,2.044583920365572
1684252664026244600,11.91924462890625,-3.843166835020482,-1.7811527641654012,2.403125555846095
1684252664036270600,11.9292705078125,-3.54599152238965,-1.9370880067646503,2.3472581226736304
1684252664046296600,11.939296630859374,-3.2620228973343965,-1.9479712198287247,2.1539953121989965
1684252664056322600,11.949322509765626,-3.0091432380259033,-1.677352782472968,1.810626111409068
1684252664066348500,11.9593486328125,-2.67492238933146,-1.0128232900917529,1.3482920930206774
1684252664076373500,11.96937353515625,-1.8095093823388217,-0.5737631797850131,0.9238649037003517
1684252664086399500,11.9793994140625,-0.6149541450902819,-0.7361322548240423,0.6443918364986777
1684252664096425500,11.989425537109375,0.46707186056524513,-0.9191361216127872,0.4033177657961845
1684252664106451500,11.999451416015624,1.3108572653785346,-1.0888555594146252,0.18111878369450568
1684252664116477400,12.0094775390625,1.7645912132039665,-1.4586813899755477,0.36901860583126544
1684252664126503400,12.01950341796875,2.2524378585115072,-1.5249971519261598,1.0012772292047738
1684252664136529700,12.02952978515625,3.3046997172832486,-0.36631753017902374,1.5629621409222483
1684252664146555600,12.0395556640625,5.433477001595497,2.2048639141708612,1.7720850760906934
1684252664156581600,12.04958154296875,19.79512137900591,6.362026848241687,3.7287756089478727
1684252664166607600,12.059607666015625,29.27458875838518,9.226655816870927,5.416953736817836
1684252664176633600,12.069633544921874,13.84343415802121,7.934997465220094,1.9400524095281957
1684252664186658600,12.079658447265626,7.522087110692262,7.211978958991169,-0.1761468405008316
1684252664196684500,12.0896845703125,5.091421806013583,8.19882434273958,-1.7953306348606943
1684252664206710500,12.09971044921875,2.2567700424969197,9.002714959537983,-3.3150419553384185
1684252664216736500,12.109736572265625,0.2597803786076605,9.503684705790876,-4.7904807111084455
1684252664226762500,12.119762451171875,-0.6117839906215667,8.743402344572544,-6.06807721965909
1684252664236788500,12.12978857421875,-1.615875838855654,6.208901402366161,-5.771918682855367
1684252664246814500,12.139814453125,-2.129343539892882,3.355044587641954,-4.623958315782248
1684252664256840400,12.14984033203125,-1.8486425383314489,0.98134737085402,-3.743813311342895
1684252664266866700,12.15986669921875,-1.4727309581160544,-0.9931593892008066,-2.9441017337948083
1684252664276892700,12.169892578125,-1.1115633580461144,-2.619958042478561,-1.9094705165207384
1684252664286917600,12.179917724609375,-1.3378718212932348,-3.8458950909405942,-1.1767314112663267
1684252664296943600,12.189943603515625,-2.512323889450729,-4.5535675594776865,-0.8660746857717633
1684252664306969600,12.199969482421874,-5.207870256876945,-7.039212993100285,4.7186818415716285
1684252664316995600,12.20999560546875,-11.249067652916908,-9.515468667086958,8.337790914881229
1684252664327021600,12.220021484375,-13.14299573239088,-6.683721392840146,5.949038167780637
1684252664337047600,12.230047607421875,-14.163933355355262,-3.18214710432589,3.222276577879488
1684252664347073500,12.240073486328125,-13.963677324992418,-1.071374847781658,0.9991852253615856
1684252664357099500,12.250099609375,-13.718586127603054,-0.8004805160939693,-1.7844167343974113
1684252664367125500,12.26012548828125,-14.197173946177958,-1.7258891421049831,-4.021708169442415
1684252664377150500,12.270150390625,-14.111126478797196,-1.9862924749165771,-4.7711628471761935
1684252664387176400,12.280176513671876,-12.39029988077879,-1.7863351352393626,-5.866566805320978
1684252664397202400,12.290202392578125,-9.003701632487774,-1.3860136286497116,-7.714098459801077
1684252664407228400,12.300228515625,-7.697631893646717,-1.8278449572354554,-7.5660484174937
1684252664417254700,12.310254638671875,-7.16818716353774,-1.84807175270617,-6.7003130466789
1684252664427281200,12.32028125,-5.825186162662506,-1.0071522587180137,-5.880427572891116
1684252664437307100,12.33030712890625,-5.04642706451118,1.0052022936940193,-3.7400878610789774
1684252664447333000,12.3403330078125,-5.080240486785769,3.558401506629586,-2.145999052748084
1684252664457359400,12.350359375,-3.620655425968766,5.598606773519515,-0.9087041594475507
1684252664467385300,12.36038525390625,32.503108906829354,6.606507220256328,-2.1947359033882616
1684252664477411300,12.370411376953125,21.83422365309,8.48219470964074,-2.978964957383275
1684252664487436300,12.380436279296875,9.246180601552128,9.091060766988992,-1.4105951121985911
1684252664497462300,12.390462158203125,10.677890397971868,0.18711831637024878,1.0780214461892843
1684252664507488300,12.40048828125,9.295497297906875,2.892776620227098,4.31444783771336
1684252664517514200,12.41051416015625,7.503730785268544,4.464891497159004,-0.26390812606215475
1684252664527540200,12.420540283203126,2.9512609578996893,3.9993087061077355,-5.344458409449458
1684252664537566200,12.430566162109375,-1.511589388820529,2.7553216216921803,-5.657663942644
1684252664547592200,12.44059228515625,-4.441863672792911,1.3345675190508366,-3.60921516354382
1684252664557618200,12.4506181640625,-5.348084783253073,0.7446779648512601,-1.9837369452148674
1684252664567644200,12.46064404296875,-4.362445268163085,-0.5589174928307533,-0.27253450011014935
1684252664577669000,12.470669189453124,-3.0720389623999593,-1.200966857856512,0.6555448064148426
1684252664587695000,12.480695068359376,-1.984474611839652,-1.5125877522081135,1.930907856824994
1684252664597721000,12.49072119140625,-0.7515045960009098,-2.837837407815456,2.540656542226672
1684252664607747300,12.500747314453125,0.280437236058712,-3.352178092294931,2.594724817022681
1684252664617773300,12.510773193359375,1.3376695767194031,-3.435722052422166,3.2041262964218853
1684252664627799300,12.52079931640625,1.1771125195384025,-2.723223186641931,3.0735061123430727
1684252664637825300,12.5308251953125,0.4506880407908931,-1.6644401094079018,2.1919845588535067
1684252664647851300,12.540851318359374,0.2861725648403168,-0.5901525890499353,1.7191180405348538
1684252664657877200,12.550877197265624,0.18126491416692733,0.9064186788588762,0.9272025236904621
1684252664667903200,12.5609033203125,1.4018880741298199,3.2305121990442274,-1.0737868773594499
1684252664677928200,12.57092822265625,3.691281452333927,4.590091409754753,-2.9425761316627264
1684252664687954200,12.5809541015625,3.777469204968214,4.40413687646687,-2.0362331483885643
1684252664697980200,12.590980224609375,2.4579952101528644,3.880864697512984,-0.1588262878656387
1684252664708006100,12.601006103515624,0.8008405815780162,3.170986827886104,0.38847880084365605
1684252664718032100,12.6110322265625,0.019811784929037093,2.556099026030302,0.4164952272772789
1684252664728058000,12.62105810546875,-0.7228628772757947,2.307145307993889,0.235512929444015
1684252664738084400,12.63108447265625,-1.8894694926299154,2.051623902004957,-0.2609799636557698
1684252664748110300,12.6411103515625,-2.8533868591248988,1.5052970106780528,-0.6571005114242434
1684252664758136300,12.65113623046875,-3.803856861156225,1.1948387303650378,-0.5664277223303914
1684252664768162300,12.661162353515625,-4.079896154516935,0.8299772442132234,-0.523400043117255
1684252664778187300,12.671187255859374,-3.8329672203063962,0.3935509895414114,-0.6025574587233364
1684252664788213200,12.681213134765626,-3.007594255018234,1.1500924106657504,-0.6097076958041637
1684252664798239200,12.6912392578125,-1.8889537981927393,1.5639444299578666,-0.8281315432813018
1684252664808265200,12.70126513671875,-1.0800199265301227,0.32891105184853076,-0.577659310440719
1684252664818291200,12.711291259765625,-0.8994201982736587,-1.397566119277477,0.6614245121032
1684252664828317200,12.721317138671875,-1.4735516268491744,-2.4497458527237175,1.513239786376059
1684252664838343200,12.73134326171875,-0.9520552253961563,-1.576609265741706,0.4721630462244153
1684252664848369200,12.741369140625,-1.244223815780878,-2.315378883332014,-0.2538870827853679
