time,seconds_elapsed,z,y,x
1684252812871647500,0.0186474609375,-2.8112212035685777,1.5981494818985462,0.4260870122913271
1684252812881673500,0.028673583984375,-1.8695728058964014,1.082712526614964,-0.21135580878704785
1684252812891699500,0.038699462890625,-0.7279512864559888,1.6228148443385957,-0.30125059924572706
1684252812901725400,0.048725341796875,-0.06536532935798167,1.405229785773158,-0.24677995419390497
1684252812911750700,0.058750732421875,0.013944938722252845,1.455667302851379,-0.45369098546653985
1684252812921776600,0.068776611328125,-0.48006548991203307,1.753150073996186,-0.7510887086763978
1684252812931802600,0.078802734375,-1.351840140891075,1.5555986264169215,-0.8224203990928828
1684252812941828600,0.08882861328125,-0.3145797441571951,0.26321955927610396,-0.13915975662618874
1684252812951854600,0.0988544921875,1.040557684713602,0.5128358328744769,0.5456339406266808
1684252812961879600,0.108879638671875,1.6865981652021407,0.8081807152077555,0.5748286170594394
1684252812971905500,0.118905517578125,1.7503204035282134,0.9889382643744349,0.10019450454637407
1684252812981931500,0.128931640625,1.1117758317530155,1.0767793371737002,0.013496025910973548
1684252812991957500,0.13895751953125,-0.011732523369789123,0.392865345364809,-0.16009981493279338
1684252813001983700,0.148983642578125,-4.2029584705621,-5.213450687357783,-5.607404997003078
1684252813012009700,0.159009765625,-5.2806309571832415,-8.637005332124232,-10.707406415313482
1684252813022034700,0.16903466796875,1.267148764294386,-1.853179889500141,-4.701888819941878
1684252813032060700,0.179060791015625,2.1889701794683933,3.222389098343253,-0.5877111872471869
1684252813042086700,0.189086669921875,2.255316336557269,5.876218430763482,0.9401623968981205
1684252813052112600,0.199112548828125,3.9820203021764753,7.256676763373613,2.0676739963129163
1684252813062138600,0.209138671875,4.610314698094129,7.768409895703196,0.4722995320856571
1684252813072163600,0.21916357421875,4.847817632311583,7.561632939139008,-0.9079211923763155
1684252813082189600,0.229189453125,5.082279299136996,7.182756371638178,-1.2898746831044554
1684252813092215600,0.239215576171875,5.171322441202402,7.442295781096815,-1.0200605478689073
1684252813102241500,0.249241455078125,5.572065972596406,8.41376765462458,-0.7933987411394715
1684252813112267500,0.259267578125,5.905083290719985,9.297654768201708,-1.0980880826622248
1684252813122293500,0.26929345703125,6.059026482719182,9.943984587025643,-1.3989566968530416
1684252813132318500,0.279318359375,6.168873343360423,10.542628525567054,-2.1677368373036385
1684252813142344400,0.289344482421875,5.872295119839906,10.884802963614463,-2.6750901471137998
1684252813152370400,0.299370361328125,5.2341725728690625,11.323984654474257,-3.713534200674295
1684252813162396400,0.309396484375,4.410778798699378,11.43121987131238,-4.571914532551169
1684252813172422700,0.319422607421875,3.8946646748065947,11.452621555781365,-4.347095138818025
1684252813182447400,0.329447265625,3.589918342399597,11.63896245803833,-3.412366311275959
1684252813192473600,0.3394736328125,3.4773920334160326,11.396835955673456,-2.473419573777914
1684252813202499600,0.34949951171875,3.526503562587499,10.514420668214559,-1.7974422201871871
1684252813212525600,0.359525634765625,3.043708063189685,9.92692122402191,-1.1480483376175163
1684252813222551600,0.369551513671875,2.429328064725548,9.411888465625047,-0.4193097001761198
1684252813232576500,0.379576416015625,1.5115288908049462,8.829885865283012,1.0103180292725562
1684252813242602500,0.3896025390625,0.4356079240262508,8.320453995633125,2.6501842539161444
1684252813252628500,0.39962841796875,-0.810908386605978,8.25951583506763,4.189235650157928
1684252813262654500,0.409654541015625,-2.521279057061672,7.896200993835926,5.055110137182474
1684252813272680400,0.419680419921875,-3.6515780952379107,6.838782775214314,6.313560046714544
1684252813282706400,0.42970654296875,-3.3829254049971698,5.850167459183931,8.690764979362488
1684252813292731600,0.439731689453125,-2.5545316305831074,4.753789979831874,11.149026731497049
1684252813302757400,0.44975732421875,-1.4008373960331082,3.508835219427943,13.800751200592517
1684252813312783400,0.459783447265625,-0.3345173474229872,2.1430101000651716,15.678050801348686
1684252813322809300,0.469809326171875,0.45336920616626736,0.4350561353623867,16.206506520420312
1684252813332835300,0.47983544921875,1.3254349490463733,-0.5749637877464294,16.611898169881105
1684252813342860500,0.489860595703125,1.6422326615139842,-0.9967875165700912,16.880439216440916
1684252813352886500,0.499886474609375,1.6510428676962852,-1.509910641953349,16.928163090646265
1684252813362912800,0.509912841796875,2.0207596849247813,-2.1967186016380786,17.434069124257565
1684252813372938800,0.519938720703125,2.6890914921984077,-3.4765959146022793,18.442609037941693
1684252813382964700,0.52996484375,3.0165339327991005,-5.221953142765164,19.15396633247137
1684252813392990500,0.539990478515625,4.6568882332205765,-7.127056111726165,18.534684095048902
1684252813403015700,0.550015625,5.462595544052124,-8.049473739227652,17.687868528759477
1684252813413041700,0.560041748046875,4.796546879279613,-8.28139156678915,15.610836629253624
1684252813423067600,0.570067626953125,5.237120901280641,-8.849254582619666,13.108366317558287
1684252813433093600,0.58009375,5.254720855379104,-8.714320042473076,10.817564241600037
1684252813443119600,0.59011962890625,5.3494379514276975,-8.283176112118364,8.564257491299509
1684252813453144600,0.60014453125,5.1905158019721505,-7.676148960635065,6.456030827584862
1684252813463170600,0.610170654296875,4.856871291860938,-7.230504211241007,4.126476703906059
1684252813473196500,0.620196533203125,4.541003845980764,-6.494280771002173,2.787406028217077
1684252813483222500,0.630222412109375,3.934811391755938,-5.853840594738721,1.5028519556134938
1684252813493248500,0.64024853515625,3.2787218109399077,-5.58671818280518,0.4430453805506229
1684252813503274500,0.6502744140625,2.867153518670797,-5.507575087985396,-0.11769055987894535
1684252813513299500,0.660299560546875,2.316475446397066,-5.457945672419667,-0.6395435196846723
1684252813523325400,0.670325439453125,1.946161540058255,-4.866293200200796,-1.472826819705963
1684252813533351400,0.680351318359375,6.442506160101294,-2.681481309455633,-4.133467001184821
1684252813543377700,0.690377685546875,9.312880394384264,-0.551307017827034,-5.878078379416466
1684252813553403600,0.700403564453125,5.7227475324511525,-0.35506080762743947,-6.938544879692793
1684252813563428900,0.710428955078125,3.977959044086933,1.527680399660766,-6.647018094342947
1684252813573454800,0.720454833984375,3.5752176168739793,-0.1812275047659874,-5.670352159303427
1684252813583480800,0.730480712890625,2.2716297579765317,0.6067036186173558,-5.158619611495733
1684252813593506800,0.7405068359375,5.339450810420513,-2.802102662089467,-4.580169150677323
1684252813603532800,0.75053271484375,4.528679201936722,-3.9128354145303366,-1.0264286215960978
1684252813613557800,0.760557861328125,3.2343618602097033,-6.710840870434045,2.6113451124340292
1684252813623583700,0.770583740234375,2.613269943016767,-6.364249784988164,4.148683859539032
1684252813633609700,0.780609619140625,1.3677952503919601,-4.012598980313539,5.313237926277518
1684252813643636000,0.790635986328125,0.7795676380552351,0.14541852476000786,5.449668842461705
1684252813653662000,0.800661865234375,-0.4275765932619571,3.672079323735833,3.6134780816853045
1684252813663688000,0.81068798828125,-1.5800445008873938,6.413182450461387,1.546554319217801
1684252813673713000,0.820712890625,-4.651419446420669,7.89365481648445,-0.16697686109542845
1684252813683739000,0.83073876953125,-7.849256871831416,8.535207337903977,1.2401748326510191
1684252813693764900,0.840764892578125,-8.43971048965454,7.508872239810228,0.0715074853748083
1684252813703790800,0.850790771484375,-5.2775288995146745,6.245490134572982,-1.2129974873900413
1684252813713816800,0.86081689453125,-1.751374881017208,5.022383925622702,-2.182340532195568
1684252813723841800,0.870841796875,0.33920499378256497,4.943264211678505,-2.705886267393827
1684252813733867800,0.88086767578125,0.6232195038061589,5.82702565304935,-3.453903021278977
1684252813743893800,0.890893798828125,1.3252489249549806,5.831651559284329,-1.5788403857946396
1684252813753919700,0.900919677734375,2.1533656359933318,4.02147552973032,-0.3455307627379894
1684252813763945700,0.91094580078125,1.8292437181174754,2.4572338703915477,-0.9736258366912602
1684252813773971700,0.9209716796875,1.1038859552860258,0.16090835483670235,-1.754864476698637
1684252813783997000,0.930996826171875,0.5490063396692275,-2.059825036378205,-2.2760896599948404
1684252813794023000,0.94102294921875,0.44316579205989837,-2.476526599882543,-2.4588100336670875
1684252813804049000,0.951048828125,0.6903297040700912,-1.7920938448965549,-2.3252736698806284
1684252813814075000,0.961074951171875,1.2276806772589683,-0.6963748294532298,-3.026719811248779
1684252813824100900,0.971100830078125,1.417912157213688,0.36814533012807366,-4.034028137311339
1684252813834125800,0.981125732421875,1.5622348495610057,1.5381529860973358,-4.64332381824851
1684252813844152000,0.991152099609375,1.8179677063435316,2.730458398592472,-4.507076441937684
1684252813854178000,1.001177978515625,2.058794816547632,3.256074510324001,-3.7044641745120286
1684252813864204000,1.0112041015625,1.9103120819114148,2.681924961569905,-2.7935990376383066
1684252813874230000,1.02122998046875,1.405489751883596,1.7957757482796906,-2.5092268002182245
1684252813884255000,1.0312548828125,0.771817900711298,0.9423509929835796,-2.4968273373723027
1684252813894281000,1.041281005859375,-0.06859013662338256,0.5147802449405193,-2.063690187373757
1684252813904307000,1.051306884765625,-1.3930362207628786,0.5743319195836782,-1.221405250251293
1684252813914333000,1.0613330078125,-2.8380945974469185,0.5513432581841945,-0.44235096854567524
1684252813924359000,1.07135888671875,-3.6111703892648217,0.566853546527028,-0.01172434006333351
1684252813934385000,1.081385009765625,-3.816152863627672,0.905786810696125,-0.21607553078532218
1684252813944409900,1.091409912109375,-3.4450656348288056,0.39428514903485773,0.03174830643832684
1684252813954435800,1.101435791015625,-2.6101322295129297,-0.31112638883292676,0.15014613780379293
1684252813964461800,1.1114619140625,-1.6394705033242702,-0.9006482787638902,0.13219605509340762
1684252813974487800,1.12148779296875,-0.7422527835309505,-1.6780922026634215,0.33655426007807254
1684252813984513800,1.131513671875,-0.15204521289076656,-2.568252989682555,0.8396008126050233
1684252813994538800,1.141538818359375,0.4181938478887081,-3.160994426181912,1.2628513593614101
1684252814004564700,1.151564697265625,0.8106728242844343,-3.6447424039989706,1.4975170243263243
1684252814014591000,1.161591064453125,0.9759493842680007,-3.8508646960467097,1.7144897962123156
1684252814024617000,1.171616943359375,1.0771745470363645,-4.895596451574564,1.383891375798732
1684252814034643000,1.181642822265625,1.1283177281659096,-5.424904403561353,1.9856410252705214
1684252814044668000,1.19166796875,0.629762130382657,-3.758320852383971,4.57137151171565
1684252814054694000,1.20169384765625,0.45858840211927887,-2.195572938734293,6.187133807194233
1684252814064720000,1.211719970703125,0.18397008147239685,-0.6893962226122617,7.586430111265182
1684252814074745900,1.221745849609375,-0.1895183632493019,1.2133435243487358,9.364712288430333
1684252814084771800,1.231771728515625,-0.19803367813825606,3.0144793383568524,10.011842902243137
1684252814094797800,1.2417978515625,0.06608063802048564,5.632750450661778,8.394657880485058
1684252814104822800,1.25182275390625,1.0829982116885484,7.373731363436579,5.321331800884008
1684252814114848800,1.261848876953125,1.9319227329559623,7.215210195997357,2.5255922440856695
1684252814124874800,1.271874755859375,2.20022222584486,5.9659717669248575,0.561281007091701
1684252814134900700,1.281900634765625,2.0482553023546934,3.6955887941390273,-0.4327715315565467
1684252814144926700,1.2919267578125,1.391232824602723,1.659288133472204,-0.7733801815919578
1684252814154952000,1.301951904296875,0.8115778103001415,0.7834925564140081,-1.0781740064024925
1684252814164977700,1.311977783203125,0.7150590716570615,0.3433335449546575,-1.661341558870673
1684252814175003600,1.322003662109375,0.5531184511631727,-0.43514965886473655,-2.017509450957179
1684252814185030000,1.33202978515625,0.31187165424227714,-0.9636936407417058,-1.8558087766990063
1684252814195055900,1.342055908203125,-0.09218498375508934,-1.4477227735877036,-1.71808051418066
1684252814205081900,1.352081787109375,-0.22981530232429503,-2.1227631385892627,-1.7484975720152258
1684252814215107000,1.362107177734375,-0.6292986045241356,-3.1630507741898297,-1.4723881360277533
1684252814225133000,1.372133056640625,-1.2907120107114314,-3.8042572586506602,-0.7981628868013619
1684252814235159000,1.382158935546875,-1.6191864247083663,-4.248322629898786,-0.1177908053830266
1684252814245185000,1.39218505859375,-1.8049813835203647,-4.1933588675677775,0.5510001438349486
1684252814255210800,1.402210693359375,-2.123674408215284,-4.081308359402418,0.5185173856422305
1684252814265236000,1.412236083984375,-2.3330746990203854,-2.9158932919204235,0.9206067786872386
1684252814275262000,1.422261962890625,-2.3753427920378742,-0.4847726446896791,1.2161027599290013
1684252814285288000,1.432287841796875,-2.623817055994272,1.6388409732490776,1.6285601099923253
1684252814295314000,1.44231396484375,-3.0011072310864924,3.2259184415131807,3.0255221258968112
1684252814305340000,1.45233984375,-2.7319360699295996,5.332547606903314,3.3042095956787465
1684252814315364900,1.46236474609375,-2.6592531110346314,6.9562775202602145,3.4455987187922
1684252814325390800,1.472390869140625,-2.679297535675764,7.62503953564465,3.6580928839594122
1684252814335416800,1.482416748046875,-2.9356489627480506,6.999370812055468,3.495197739219665
1684252814345442800,1.49244287109375,-1.8527578646957874,4.735037640827894,2.5195067866921423
1684252814355469000,1.502468994140625,-0.5988415069401264,2.9078602075904607,2.048949422098696
1684252814365495000,1.5124951171875,1.0492460180819034,0.7826730567246675,1.7648761676251887
1684252814375519700,1.522519775390625,14.16029762920141,-2.0173691657036543,3.996676604038477
1684252814385546000,1.5325458984375,32.40388514701128,-4.672675000417232,8.937216943711041
1684252814395572000,1.542572021484375,14.65784733787775,-4.066615817183256,3.2532106453254817
1684252814405598000,1.552597900390625,3.702424777638912,-1.7283166615128516,-1.7196318352758884
1684252814415624000,1.5626240234375,2.1547575287431475,-0.405465299218893,-1.0106059063032269
1684252814425649000,1.57264892578125,0.4060451449334621,0.40259763482809063,-0.27963702559173104
1684252814435675000,1.5826748046875,-0.640922406822443,0.6373427947700023,-0.2223202703937888
1684252814445700900,1.592700927734375,-0.9688064537107944,1.0223153410583734,-0.3986372067645192
1684252814455726800,1.602726806640625,10.884123749178647,3.2447108202666044,2.8479247943267225
1684252814465752800,1.6127529296875,25.07469142895937,8.381452361953258,5.980509995365143
1684252814475777800,1.62277783203125,17.97386106085777,10.715083525812625,2.3517864137530324
1684252814485803800,1.6328037109375,11.05077444705963,11.261941163015365,0.4893187636867165
1684252814495829800,1.642829833984375,3.9632399061217902,10.100881952655314,-0.06623948184400796
1684252814505855700,1.652855712890625,-4.2760844970494505,8.941021012169122,0.6160305421501397
1684252814515881700,1.6628818359375,-15.636002634692192,8.572472361937164,3.7898037858843803
1684252814525907700,1.67290771484375,-26.10508661609888,7.959753720813989,7.841999448049068
1684252814535932700,1.6829326171875,-28.94295675714016,6.416092200428247,8.238778751987219
1684252814545958700,1.692958740234375,-22.752056290888785,5.504153881365061,7.602748793381452
1684252814555985000,1.70298486328125,-17.6344502423048,4.564214625698328,9.623425768458842
1684252814566011000,1.713010986328125,-14.73416251579523,2.323108600801229,16.917903562438486
1684252814576036900,1.723036865234375,-7.537972077566385,-1.2794400905907153,23.865245496571063
1684252814586062000,1.73306201171875,-1.2108294957011938,-4.331633950313925,22.465179961693284
1684252814596087800,1.743087890625,-2.5692460923731324,-6.187823543024063,17.522654585683345
1684252814606113800,1.75311376953125,-4.177935672986507,-7.912901953268051,10.156942278051377
1684252814616139800,1.763139892578125,-5.236120199805498,-9.354753788995742,1.8281717049717903
1684252814626165800,1.773165771484375,-7.104863569140434,-7.032783836835622,-4.057838051965833
1684252814636191000,1.78319091796875,-6.218139770832657,0.2417418869614601,-8.478645492726564
1684252814646217000,1.793217041015625,-3.978995401397347,4.507857947704196,-11.733844389259815
1684252814656243000,1.803242919921875,-3.6870173651486633,5.261680172997713,-11.075049641138314
1684252814666269000,1.81326904296875,-4.4577626681923865,5.98381546665132,-10.142752424657344
1684252814676295000,1.823294921875,-5.173474066278338,6.073948742040991,-9.395782549476623
1684252814686319900,1.83331982421875,-6.144158588820695,4.5714948458343745,-9.012858752411603
1684252814696345900,1.843345947265625,-5.694360811400413,2.5731594664245843,-8.717800285804271
1684252814706371800,1.853371826171875,-4.63782346726656,1.182536882674694,-8.024199597239495
1684252814716397800,1.863397705078125,-4.363211576360464,0.6553799712419509,-6.155391930496692
1684252814726424000,1.873424072265625,-4.716722816458344,0.4021539827138185,-4.245364072354137
1684252814736450000,1.883449951171875,-5.138541284584999,0.20837679297626016,-3.490785767996311
1684252814746475000,1.89347509765625,-3.606712240812182,-0.3006710457921028,-3.8446196641772983
1684252814756501000,1.9035009765625,-2.8052479743778704,-1.3924299254328012,-4.6037730213657015
1684252814766527000,1.91352685546875,-4.189768149599432,-3.273109816277027,-4.876690383313596
1684252814776553000,1.923552978515625,-5.6538779943645,-4.730615148210525,-4.7882528059259055
1684252814786579000,1.933578857421875,-6.608944092014432,-5.4734109525769945,-5.277789011755585
1684252814796604000,1.94360400390625,-7.307434306186437,-5.960231761968135,-5.790914475226402
1684252814806630000,1.9536298828125,-7.625909304216504,-6.376040760546922,-5.982563420763611
1684252814816656000,1.96365576171875,-7.428661223497986,-6.806780201753973,-5.883100591492653
1684252814826681900,1.973681884765625,-6.553509205040335,-7.264110712766647,-5.540369688606262
1684252814836707800,1.983707763671875,-4.897261754438281,-7.576328403967619,-5.104273104280233
1684252814846733800,1.99373388671875,-2.0954116058051584,-8.094540376922488,-4.858422905217111
1684252814856758800,2.0037587890625,3.200140733917057,-9.115230747127532,-5.392403817451
1684252814866784800,2.01378466796875,12.132066293221712,-8.584517019996046,-5.187712434989214
1684252814876810800,2.023810791015625,34.20610408008098,-2.0034838482141493,2.5568720562294125
1684252814886836700,2.033836669921875,42.128568811464305,14.157905765628813,11.442528031790255
1684252814896863000,2.043863037109375,-0.5087812967866658,21.297288859486578,13.998251794767379
1684252814906887700,2.0538876953125,-28.851039520943164,25.111981587433814,4.776897299174964
1684252814916914000,2.063913818359375,-29.879103634786603,27.012084556150434,-5.595826202890277
1684252814926940000,2.07393994140625,31.664640313124654,22.231121030449867,-10.1536140104115
1684252814936966000,2.0839658203125,2.7631305418774486,9.57813116722703,-4.754266072911024
1684252814946991900,2.093991943359375,-19.874139386141298,2.745425081577897,0.2919093549266457
1684252814957016800,2.104016845703125,-3.722611533360183,-3.3890257676988838,2.189955098852515
1684252814967042800,2.114042724609375,13.678060055947302,-7.675355764430761,1.6065727345898746
1684252814977068800,2.12406884765625,2.439198155224323,-0.49021863513588904,-1.2142834355473517
1684252814987094800,2.1340947265625,-7.516099268454313,5.982587970682978,-3.4518303066581484
1684252814997120800,2.144120849609375,-4.306308370399475,7.072061954256892,-3.7902667272210118
1684252815007146000,2.15414599609375,1.4651473711192606,6.4445274367958305,-1.9142555588401853
1684252815017172000,2.164171875,5.341036033785342,4.787626490721106,0.21613865914940833
1684252815027198000,2.174197998046875,4.632844509810209,2.294377011835575,0.555987138467282
1684252815037224000,2.184223876953125,1.3834683280810713,-0.12563655044734479,-0.6944793710954487
1684252815047250000,2.19425,-1.102250463038683,-1.2911515711724757,-1.4146782898589967
1684252815057275600,2.204275634765625,-2.17467160500288,-1.995653592979908,-1.3159399754703045
1684252815067300900,2.21430078125,-2.938257099419832,-2.1607962243855,-0.9163974904291331
1684252815077326800,2.224326904296875,-3.4543338139116764,-1.3646031763523816,-0.19783041065111756
1684252815087352800,2.234352783203125,-3.7498821098625656,-0.06658931819498538,0.6851198604673147
1684252815097379000,2.244379150390625,-3.5296015286028384,1.2110498604536055,1.4538378954671323
1684252815107405000,2.254405029296875,-2.880680524241924,2.313284541401267,2.255172836433351
1684252815117430000,2.264429931640625,-1.8215445419169962,2.7845652518332003,2.7135329827547072
1684252815127456000,2.2744560546875,-0.6239033944170922,2.5988889509648083,3.1025983513146635
1684252815137482000,2.28448193359375,0.0028057050704956054,1.989278797250986,3.1320149999350306
1684252815147508000,2.294508056640625,0.1515081468719989,1.131488247960806,2.8177713558644055
1684252815157534000,2.304533935546875,0.22828853114843367,0.3690285427033901,2.287090361958742
1684252815167559000,2.314558837890625,0.2568062033687718,-0.3793722420632839,1.7323682749912142
1684252815177585000,2.3245849609375,0.4353519034385681,-1.1942366728186606,1.2087739514108746
1684252815187611000,2.33461083984375,0.8785644572496414,-1.998771432739496,0.724107543574646
1684252815197636900,2.344636962890625,1.1661737768948077,-2.5963392664819955,0.32973369334302843
1684252815207662800,2.354662841796875,1.1190472840607166,-2.9710955391824245,0.06642514060921967
1684252815217688800,2.364688720703125,0.9146377142149954,-3.176787623119354,-0.10130319644063711
1684252815227713800,2.3747138671875,0.8869016390927136,-3.2958886343181133,-0.4394227330740541
1684252815237739800,2.38473974609375,1.0324158062469213,-3.170301183709502,-0.7431419874556362
1684252815247765800,2.394765869140625,1.1369365764945745,-2.7214526698380705,-0.9384649453304708
1684252815257791700,2.404791748046875,1.1460773298054934,-2.0614497149705886,-1.0148109567776322
1684252815267818000,2.41481787109375,1.0820113926082848,-1.3448188639521599,-0.9463215040497481
1684252815277842700,2.4248427734375,1.0912029993236065,-0.6452846936851739,-0.8199763669416308
1684252815287869000,2.434868896484375,1.1067683788545428,0.005983166062831878,-0.5955288752608001
1684252815297895000,2.44489501953125,1.1330015751332043,0.5302794273674488,-0.256246213132143
1684252815307921000,2.4549208984375,1.1490222241509704,0.6431096877336502,0.22619959604516623
1684252815317947000,2.46494677734375,1.2247107215374708,0.36762744373381134,0.7885984281856566
1684252815327971800,2.474971923828125,1.3000297280244528,-0.11900222699940204,1.278008596482873
1684252815337997800,2.484997802734375,1.3771570991076527,-0.5731868412017822,1.7793287636086343
1684252815348023800,2.49502392578125,1.652080832441896,-0.789112149861455,2.1872861719042063
1684252815358049800,2.5050498046875,2.118985519746691,-0.7898392950922251,2.328895805900544
1684252815368075800,2.51507568359375,2.6446932552844284,-0.8349690611511469,2.284384317870438
1684252815378101000,2.52510107421875,3.335191886180639,-0.8769991076290607,2.0619611716240644
1684252815388127000,2.535126953125,4.516028979200125,-0.9076005821198224,1.741493100080639
1684252815398152700,2.545152587890625,6.1315755861014125,-0.8393395313203335,1.3477493644461036
1684252815408178700,2.5551787109375,7.437887901526689,-0.5846399631083011,1.1290374207425862
1684252815418204700,2.56520458984375,7.614860671457648,-0.2356862401843071,1.2435764577880501
1684252815428230700,2.575230712890625,6.879343333661556,0.2615478266716003,1.6816969491571188
1684252815438255900,2.585255859375,5.927696104544401,0.6833651257544755,2.244082994881272
1684252815448281900,2.59528173828125,5.141071679845452,1.0290993021100758,2.864716062390804
1684252815458308000,2.60530810546875,4.61380137116611,1.335633102455735,3.3759050048410892
1684252815468334000,2.615333984375,4.274989395289123,1.5098276398450134,3.6892543304204937
1684252815478360000,2.625360107421875,4.068290764658153,1.6958447169750928,3.990241894815862
1684252815488385000,2.635385009765625,3.9271833810955283,1.3711866463959217,4.206324732124806
1684252815498411000,2.645410888671875,3.782356392487883,0.4301093266099691,4.051676314465701
1684252815508437000,2.65543701171875,3.634892625635862,-0.6564899783104657,3.793277014952898
1684252815518463000,2.665462890625,3.2191321423739194,-1.4204501512587069,3.6165608501315116
1684252815528489000,2.675489013671875,2.2845320557780564,-1.7476614134520292,3.7011037581682205
1684252815538514000,2.685513916015625,1.361801562935114,-1.8282716582149265,4.172888910990953
1684252815548540000,2.695539794921875,0.6331305839024484,-1.822767215579748,4.583419092383981
1684252815558566000,2.70556591796875,-0.27346447443664074,-1.3053542840480803,4.7082919649824495
1684252815568592600,2.715592529296875,-1.0849275723159313,-0.11872282553613185,4.673833815063536
1684252815578618600,2.72561865234375,-1.2364905911803246,1.4993968467235563,4.344210523292422
1684252815588643600,2.7356435546875,-1.4988760377198458,3.4579332997083663,3.3128099585026503
1684252815598669600,2.745669677734375,-2.2272937726438045,5.281376222592592,2.0796666319236157
1684252815608695600,2.755695556640625,-3.0995699434041977,6.7065130703628055,0.6501347640648484
1684252815618721800,2.7657216796875,-3.366954805666208,7.789941344031691,-0.7539142874911428
1684252815628747800,2.775747802734375,-3.6648213154315945,8.096454101589321,-2.490384152582288
1684252815638773800,2.785773681640625,-3.871718683505058,7.295860772770642,-3.6378494296148416
1684252815648798700,2.795798828125,-4.00899832547307,6.186084005880356,-4.721038049308955
1684252815658824700,2.80582470703125,-4.241143532049656,5.258001192224025,-5.781628760486841
1684252815668850700,2.8158505859375,-4.047325425779819,4.400087893337011,-5.984461363339424
1684252815678876700,2.825876708984375,-3.59445452452451,3.962756798779964,-6.370960680803656
1684252815688902700,2.835902587890625,-2.6447359253823755,3.756054661017656,-6.937553530567884
1684252815698927600,2.845927734375,6.886389160519838,4.833836453232169,-9.182580528301001
1684252815708953600,2.85595361328125,8.397739479887486,4.869801500582695,-8.12211870419979
1684252815718979600,2.8659794921875,3.3973440987110135,3.3006846364229916,-6.574445025563239
1684252815729005600,2.876005615234375,0.6380125107251108,2.2497248001605272,-6.811050134158134
1684252815739031600,2.886031494140625,-0.18605214844346046,1.7381261078655719,-6.301271058505773
1684252815749056500,2.896056396484375,-0.21090485014915464,1.4635311680942773,-5.7650482125639915
1684252815759082500,2.90608251953125,-0.4916264561071992,1.210581073898077,-5.2475002564758055
1684252815769108500,2.9161083984375,-0.6935793535158038,0.9189730400055647,-4.336332337263226
1684252815779134500,2.926134521484375,-1.5402797689929604,0.49842999864220616,-3.1941549375057217
1684252815789160700,2.93616064453125,-2.9720462640359995,-0.09769581959843635,-2.124130627550185
1684252815799185400,2.946185302734375,-4.460350638858974,-0.8948515751838684,-1.076729360552132
1684252815809211600,2.956211669921875,-5.337276388990879,-1.483660932931304,-0.7626179645590484
1684252815819237600,2.966237548828125,-5.890259815597534,-1.7265666029751299,-1.02273634294942
1684252815829263600,2.976263671875,-6.248605636245012,-1.7300608748316764,-1.2062069504670798
1684252815839289600,2.98628955078125,-6.384360845124721,-1.6562573874741793,-1.2411107983268796
1684252815849315600,2.996315673828125,-5.99308539929986,-1.9243033439934252,-1.2693733084760606
1684252815859340500,3.006340576171875,-5.50956304693222,-2.574129772761464,-0.8703751594446599
1684252815869366500,3.016366455078125,-4.911259300130605,-3.6389340099811553,-0.7884573392145335
1684252815879392500,3.026392578125,-4.419443751192093,-4.769795650476217,-1.0734066458702087
1684252815889418500,3.03641845703125,-4.066700280596316,-5.7780970792293544,-1.8017913553074
1684252815899444500,3.046444580078125,-3.6422348050922153,-6.6692895473837845,-2.4534181114956737
1684252815909469700,3.0564697265625,-3.104164285457134,-7.432242004594206,-2.858466938868165
1684252815919495700,3.06649560546875,-2.5901047560065984,-7.940861973339318,-3.1783143942952155
1684252815929521700,3.076521728515625,-2.0523827575482425,-8.336716563647984,-3.145058898164332
1684252815939547600,3.086547607421875,-1.6071851673997937,-8.53518103441894,-2.9774606903001666
1684252815949573600,3.09657373046875,-1.476607507288456,-8.492375327393413,-2.785953491321206
1684252815959598600,3.1065986328125,-1.085080717051029,-8.257784481230377,-2.2752415187329054
1684252815969624600,3.11662451171875,1.7036625511191785,-7.398887432003021,-0.7325859605193138
1684252815979650800,3.12665087890625,11.222248619574307,-4.323689713311195,3.7649759263589977
1684252815989676800,3.1366767578125,21.45126127758026,3.374477602386474,8.803746630898118
1684252815999702800,3.146702880859375,4.505007234448194,9.663989834037423,6.959540905970335
1684252816009727700,3.156727783203125,-13.471613938772677,11.816765833574532,1.1600433113157749
1684252816019753700,3.166753662109375,-14.901898086303472,15.999675787842273,-2.8222280430123208
1684252816029779700,3.17677978515625,-8.38922533404231,19.83663646169901,-3.244731863054633
1684252816039805700,3.1868056640625,-2.5756746641159056,16.425881092751027,-2.765264631296694
1684252816049831700,3.196831787109375,-4.189596884685755,13.06800625011921,-1.2628916913717985
1684252816059857700,3.206857666015625,-1.701659540733695,9.904031346821784,-0.14849690929204223
1684252816069882600,3.216882568359375,3.1723551936298606,5.949290681236982,0.526705660533905
1684252816079908600,3.22690869140625,11.996101825505495,2.957871900472045,2.813859443117678
1684252816089934600,3.2369345703125,11.125223831105231,2.3200521358400583,3.9356390747517347
1684252816099960600,3.246960693359375,5.515739105218649,1.6123773292154073,3.0202029767006633
1684252816109986600,3.256986572265625,2.9718747068613767,0.4588146120905876,1.940765087842196
1684252816120011500,3.267011474609375,1.3115379411190748,0.046535541203618046,1.1387841040574014
1684252816130037500,3.27703759765625,-0.28031974715888497,0.2464122168600559,0.2956155159682035
1684252816140063500,3.2870634765625,-1.0041840565621851,-0.14784721321165561,-0.24410598574429748
1684252816150089500,3.29708935546875,-0.9835808289945125,-1.114790795660019,-0.9935917892687022
1684252816160115700,3.30711572265625,-0.3805997380316257,-1.7971786008149384,-1.6214685442961752
1684252816170140400,3.317140380859375,0.21538057079110293,-1.6973130359619855,-1.3700072273530066
1684252816180166700,3.327166748046875,0.36342827501092106,-1.4827566775679588,-0.24722397163435816
1684252816190192600,3.337192626953125,0.315161964491941,-1.8195254571795463,0.6694703828494996
1684252816200218600,3.347218505859375,0.20926004208419471,-2.5928052471369503,1.3803843905910849
1684252816210244600,3.35724462890625,0.2146890083303675,-3.803237267953157,1.8435276795357465
1684252816220269600,3.36726953125,0.23947335750758647,-5.155541519224643,2.071472804073989
1684252816230295600,3.377295654296875,0.20012630303595214,-6.306837460461258,2.2920719497635957
1684252816240321500,3.387321533203125,-0.13692659074664115,-7.030797631454467,2.6307000935062765
1684252816250347500,3.397347412109375,-0.8121084100455045,-6.8416118611603975,3.351696738518774
1684252816260373500,3.40737353515625,-0.35427692724075166,-4.726078673824667,4.558406523941457
1684252816270399500,3.4173994140625,2.0865753883987663,-0.6811164700448512,7.080826275470852
1684252816280424700,3.4274248046875,1.9748218173533676,0.636218759176135,7.5500488843291995
1684252816290450700,3.43745068359375,1.3367027775138616,1.5181529851198194,6.93882837280929
1684252816300476700,3.4474765625,1.2240179169677197,3.5978210783481597,6.944023603364825
1684252816310502700,3.457502685546875,0.9684891313899308,5.2772512516170735,6.797137928661703
1684252816320528400,3.4675283203125,0.7165127045314759,5.429059769675136,5.78327126699686
1684252816330553600,3.4775537109375,0.41031449281573296,4.446615835756063,4.5069405405983325
1684252816340579600,3.48757958984375,0.08134791138768195,3.0061902334392068,3.6669478060662746
1684252816350605800,3.497605712890625,0.06256663855016231,0.9014297845304011,2.6182693587392567
1684252816360631800,3.5076318359375,0.2969365719715133,-2.57368962777853,0.38668515889253463
1684252816370657800,3.51765771484375,-0.06814235632326454,-4.234990270116925,0.10450049464460462
1684252816380682800,3.527682861328125,-0.22704642213284967,-3.9309816043347117,1.087486901409924
1684252816390708700,3.537708740234375,0.14906652587354183,-4.066994587367772,1.2590788550853729
1684252816400734700,3.547734619140625,0.6545770573612302,-4.13063323906362,1.3205980304092169
1684252816410760700,3.5577607421875,1.042436484197527,-3.789126909536123,1.3766907967701554
1684252816420786700,3.56778662109375,2.877775450450182,-2.2551158455491063,1.1405857466518878
1684252816430811600,3.577811767578125,6.752493315771222,-0.06451543453037738,0.6770125418573617
1684252816440837600,3.587837646484375,10.757421615326404,2.112093276014924,0.01710282279786188
1684252816450863600,3.597863525390625,20.57097832597494,3.8856992780625816,-2.0304665476858617
1684252816460889600,3.6078896484375,20.36793412619829,3.1919021901428697,-2.9464716777965423
1684252816470915600,3.61791552734375,8.81366479832232,1.6142045446425675,-1.4914350740641356
1684252816480941600,3.627941650390625,5.188429058825969,0.5251829810112715,-0.6703536684900522
1684252816490966500,3.637966552734375,2.6417086865156887,-0.10541267758607864,0.10160159486532211
1684252816500992500,3.647992431640625,0.827294288739562,0.7099345682501792,1.7530071583941578
1684252816511018500,3.6580185546875,-0.0933573520027101,2.490712069362402,3.227249105595052
1684252816521044700,3.668044677734375,-0.8092239406503736,5.045758955991268,5.067042567038536
1684252816531070700,3.67807080078125,-1.9089391861230134,7.676343606424331,6.442589746731519
1684252816541095700,3.688095703125,-3.3691602067559954,10.483184987473487,7.547684493285417
1684252816551121700,3.69812158203125,-3.7351755391180514,12.082933721262215,7.94738757571578
1684252816561147600,3.708147705078125,-3.9086096135288475,11.572352681577206,7.08821638572216
1684252816571172400,3.71817236328125,-3.936986397707462,8.574157538545132,5.6056853336036205
1684252816581198300,3.7281982421875,-3.3438428101480007,4.222172874119877,3.7085207564264535
1684252816591223600,3.7382236328125,-2.6540461900413033,0.6128694477707147,1.9709623654462396
1684252816601249500,3.74824951171875,-2.165142729157209,-2.372300793993473,0.6475633061416447
1684252816611275500,3.758275634765625,-1.9604490086078643,-4.537949134585261,0.02118577669598162
1684252816621301500,3.768301513671875,-1.5882862595319747,-6.020079789209365,-0.2445725803427398
1684252816631327500,3.778327392578125,-1.649002886301279,-6.961131390032172,-0.06906418387591838
1684252816641352400,3.7883525390625,-1.9082360062897203,-7.215213703128695,-0.02337068298701197
1684252816651378400,3.79837841796875,-2.0370798283457754,-6.6207695543646805,0.1673281587511301
1684252816661404700,3.80840478515625,-2.4314836353242395,-5.2716673140048975,0.5964014203116297
1684252816671430700,3.8184306640625,-3.3110125536918638,-3.3271588018506764,1.462082722851634
1684252816681456600,3.82845654296875,-4.175408200335502,-0.8065899388849734,2.3874083467543126
1684252816691482600,3.838482666015625,-4.6220288090243935,2.067165170007944,3.3166178263530135
1684252816701507600,3.848507568359375,-0.2219558209955692,6.554288372719287,4.442757114501298
1684252816711533600,3.858533447265625,2.949469690568745,9.837248551881313,4.10265860594511
1684252816721559600,3.8685595703125,-0.20461451783329246,10.40872625107765,2.8564228658199307
1684252816731585500,3.87858544921875,0.40322774942517275,10.90813941553831,2.365631691493094
1684252816741611500,3.888611572265625,0.5750923825621604,9.715946231245994,3.0182407367169857
1684252816751636500,3.898636474609375,-0.3397846203014254,6.708166682788729,4.065221147954464
1684252816761662500,3.908662353515625,-1.5316650853827596,3.322758521065116,3.891910992184281
1684252816771688400,3.9186884765625,-3.401459132814407,0.8941437191754579,3.3071447723478076
1684252816781714400,3.92871435546875,-4.936080437654256,-0.7210778935551643,2.319981700952351
1684252816791740400,3.938740478515625,-6.1631082039624445,-1.8456161762475967,1.1044310219481588
1684252816801765400,3.948765380859375,-6.943178969234228,-2.4830372969508168,0.002068038445711136
1684252816811791400,3.958791259765625,-6.451142471021414,-2.8611791204363106,-0.8106535350620746
1684252816821817300,3.9688173828125,-4.539337374073266,-3.097528792965412,-0.8675769070282578
1684252816831843300,3.97884326171875,-2.379262157438695,-3.2490970725268125,-0.21171441296637056
1684252816841869600,3.98886962890625,-1.5754399297013877,-3.2295980068087577,0.10546499229520559
1684252816851894300,3.998894287109375,-2.5425369491457936,-3.121825614354014,-0.09951631302386521
1684252816861920500,4.00892041015625,-3.557245614592731,-2.8968694424986836,-0.29751258176118134
1684252816871946500,4.018946533203125,-3.998354181861877,-2.5345792681396007,-0.42393414510637517
1684252816881972500,4.028972412109375,-4.169487285853922,-1.871006053569913,-0.8332146186992525
1684252816891998500,4.03899853515625,-3.9654192959874868,-1.2496096004724502,-1.5984505106717348
1684252816902023700,4.049023681640625,-3.368898340949416,-0.7210247020632028,-2.348370467829704
1684252816912049400,4.05904931640625,-2.7676465579971667,-0.18846914645731447,-2.930343842077255
1684252816922075400,4.069075439453125,-2.3775030388116836,0.18322540058493614,-3.427877768662572
1684252816932101400,4.079101318359375,-2.1701848149776457,0.4132733426213264,-3.924629312698543
1684252816942127400,4.08912744140625,-2.1770842191025612,0.4943582191586494,-4.344251732085645
1684252816952153300,4.0991533203125,-2.235593983477354,0.4358399792164564,-4.733208087313175
1684252816962178600,4.109178466796875,-2.4264196299329397,0.26665304085612296,-4.858345456066727
1684252816972204500,4.11920458984375,-2.6591525732696053,-0.012395955714583396,-4.998095872062445
1684252816982230500,4.12923046875,-2.6148180492416024,-0.3924304610788822,-5.156791227024794
1684252816992256500,4.139256591796875,-2.6056840179324148,-0.7518097164273262,-5.18596588358283
1684252817002282500,4.149282470703125,-2.7117665576040744,-1.0695680906206368,-4.991268071869015
1684252817012307500,4.159307373046875,-2.919650598627329,-1.3531471318364143,-4.676568792985379
1684252817022333400,4.16933349609375,-3.1896497350409625,-1.6064356642067432,-4.490921133689582
1684252817032359700,4.179359619140625,-3.4705791385307907,-1.8803098884880542,-4.558069254811108
1684252817042385700,4.1893857421875,-3.5597362623646855,-2.1969255223870277,-4.729377130848169
1684252817052411600,4.19941162109375,-3.473107195703685,-2.5485522639125584,-5.0516602889895434
1684252817062436600,4.2094365234375,-3.405013902686536,-2.8309757053524254,-5.177085827034712
1684252817072462600,4.219462646484375,-3.3168568958058953,-2.9091251129597424,-5.065757787925005
1684252817082488600,4.229488525390625,-2.948288371829688,-2.8225287795245646,-4.941026661884784
1684252817092514600,4.2395146484375,-2.473195117372274,-2.600105341017246,-4.671741226698458
1684252817102540500,4.24954052734375,-2.018400846838951,-2.264438385167718,-4.195764759665727
1684252817112565500,4.2595654296875,-1.679109270751476,-1.7290233484774826,-3.5503029558479784
1684252817122591500,4.269591552734375,-1.6063327883541583,-0.9211392781287431,-2.642397837823629
1684252817132617500,4.279617431640625,-1.8514460514448583,0.01980067901313305,-1.390672414240986
1684252817142643500,4.2896435546875,-2.2021431109048426,0.9101718939125537,-0.07502557649835943
1684252817152669400,4.29966943359375,-2.3601976837456227,1.9606243651747703,1.2756392370030283
1684252817162695400,4.3096953125,-2.5587504173219204,4.239893239727616,2.982190933692455
1684252817172720400,4.319720458984375,-3.091874128204584,9.952564199322461,5.0336196053862565
1684252817182746400,4.329746337890625,-3.9933775624930856,21.300089888381958,7.558854122075438
1684252817192772400,4.3397724609375,3.3386335510671135,33.16214330892563,8.83938259242475
1684252817202798600,4.349798583984375,2.624453600332141,29.34059297016859,8.305130754294991
1684252817212824600,4.359824462890625,-0.5498106417894363,18.193718448269365,7.155975332218408
1684252817222849500,4.369849609375,6.93489395596981,7.5547835116356605,5.153800813037157
1684252817232875500,4.37987548828125,16.66358510249853,-2.046007231166959,0.39063159496337174
1684252817242901500,4.389901611328125,18.58405632098317,-6.219920224508643,-3.3109888805553314
1684252817252927500,4.399927490234375,18.95994948875904,-10.475193404197693,-5.2408185867547985
1684252817262953500,4.409953369140625,9.797912566792965,-13.433372178661822,-3.5939649874418973
1684252817272978400,4.419978515625,2.049126824492216,-11.914131982827186,-1.0085347260523587
1684252817283004400,4.43000439453125,-1.5569289982378482,-9.364282080319523,0.4771048865407705
1684252817293030400,4.440030517578125,-3.1170413026869297,-7.6415762444257735,1.0835822951868175
1684252817303056400,4.450056396484375,-2.9074457815706727,-6.4178925278484815,1.6396064046636223
1684252817313082400,4.460082275390625,-3.4502994438290595,-4.044890892109275,2.958056317128241
1684252817323107600,4.470107666015625,-3.673305066138506,-0.04392214383482933,5.201173974108696
1684252817333133600,4.480133544921875,-3.6289550522804257,3.7111370764046905,7.291574473753571
1684252817343159600,4.49015966796875,-3.4811879185676573,5.630553232878446,7.944884068462252
1684252817353185500,4.500185546875,-3.1131483869016168,5.411847938111424,7.404715115243196
1684252817363211500,4.51021142578125,-2.485035192769766,3.772470958289504,6.122373457992077
1684252817373236500,4.520236572265625,-1.7908019053898752,1.6672785477042198,4.436546861684322
1684252817383262500,4.530262451171875,-1.2404419591546059,-0.06844634423851967,3.0557474605515598
1684252817393288700,4.540288818359375,-0.8105974940259009,-0.8665724061608314,2.2218556732431054
1684252817403314700,4.550314697265625,-0.4860720368504524,-0.9740420162767172,1.6354779265567658
1684252817413340700,4.560340576171875,-0.2888332354169339,-0.7564104882210493,1.480166514944285
1684252817423365600,4.57036572265625,-0.250303890536353,-0.8172896120756864,1.5569303134121
1684252817433391600,4.5803916015625,-0.404547563319467,-1.2719810067564248,1.6108135870300233
1684252817443417600,4.59041748046875,-0.6310100846171379,-2.038753314515948,1.596146617643535
1684252817453443600,4.600443603515625,-0.7663748328745364,-2.845600443032384,1.4770258788309991
1684252817463469600,4.610469482421875,-0.974497358828783,-3.353649918413162,1.3494102833956478
1684252817473494500,4.62049462890625,-1.1744681425094603,-3.3260505483478306,1.2737614604324101
1684252817483520500,4.6305205078125,-1.7888813125908374,-2.7086253369688986,1.129585336948931
1684252817493546500,4.64054638671875,-2.4687843151926994,-1.452460908025503,1.0711105708222837
1684252817503572500,4.650572509765625,-2.660397604894638,0.021215806508064268,0.9900472485296428
1684252817513598500,4.660598388671875,-2.8392075271248816,1.3777064035534858,0.8510477970317005
1684252817523623400,4.67062353515625,-2.867247042173147,2.4168320096373557,0.694448318370059
1684252817533649400,4.6806494140625,-2.7957833959400653,3.018547610709071,0.4695606817062944
1684252817543675400,4.69067529296875,-2.5471067412793635,3.087314272943139,0.12199139887802302
1684252817553701400,4.700701416015625,-2.3700889631628987,2.6132366252690553,-0.45019021080397065
1684252817563727400,4.710727294921875,-2.2951357212483883,1.8955612336337566,-1.042127637444064
1684252817573753900,4.72075390625,-1.9602818353474138,0.9727174896746873,-1.7073817177727817
1684252817583778800,4.73077880859375,-0.6676923403263092,0.018729250389337537,-2.272963052406907
1684252817593804800,4.7408046875,0.7541407897233963,-0.5759276643425226,-2.5875813750088215
1684252817603830800,4.750830810546875,1.804251315680146,-1.019831707549095,-2.670663855104148
1684252817613856800,4.760856689453125,2.756063379970193,-1.4180612102955579,-2.6621400646477937
1684252817623882800,4.7708828125,4.892602530455589,-2.002669024699926,-2.4783511849611997
1684252817633907700,4.78090771484375,7.215398412045836,-2.6321938391953705,-1.8917302771687508
1684252817643933700,4.79093359375,6.287881415578722,-2.553702486282587,-1.4094897813051939
1684252817653959700,4.800959716796875,4.571294354826212,-2.181315865322947,-1.2784583860769867
1684252817663986000,4.81098583984375,3.5814854450970888,-1.7871452825784682,-1.0235665101632476
1684252817674012000,4.821011962890625,3.3294460360050198,-1.2795733615815639,-0.5464478873580694
1684252817684036900,4.831036865234375,3.474864560765028,-0.5473001202732324,0.0482256862476468
1684252817694062800,4.841062744140625,3.8668390947699542,0.2593839266359806,0.6363958693087101
1684252817704088800,4.8510888671875,4.521294936904311,1.0510562823742629,0.9750764008257538
1684252817714114800,4.86111474609375,5.412724720945954,1.562097340786457,1.056012297346443
1684252817724140800,4.871140869140625,5.89962794792354,1.3272832072615623,1.1290974803667515
1684252817734166000,4.881166015625,5.501096831881999,0.5844739588916301,1.0780062486201525
1684252817744192000,4.89119189453125,4.457372207570076,0.1710275977909565,0.7664316045630722
1684252817754218000,4.901218017578125,3.564348724596202,-0.054824646121263504,0.6796467628184706
1684252817764244000,4.911243896484375,3.2208383617699146,-0.40885143452584743,0.8138916402004659
1684252817774269700,4.921269775390625,2.9194693968415257,-0.8222025185585021,0.8088958046745508
1684252817784295700,4.931295654296875,2.66447756768465,-1.3690239154040813,0.4947711108084768
1684252817794321000,4.94132080078125,2.585834239080548,-2.0564128898471594,-0.022604703583195804
1684252817804347000,4.951346923828125,2.422649025353044,-2.711230551031232,-0.39894882999695835
1684252817814372900,4.961372802734375,1.5281426103450357,-2.2637223458528517,-0.20384148763418197
1684252817824398800,4.97139892578125,0.6397089393794536,-0.3717734574973583,0.6610542905513197
1684252817834425000,4.981425048828125,0.04780760696604847,2.170094798606634,2.0710288596987723
1684252817844449800,4.99144970703125,-0.5450444503009318,5.293115175703168,3.4280198074817654
1684252817854476000,5.00147607421875,-1.7395722150206565,8.410518297439813,4.7081136858060955
1684252817864502000,5.011501953125,-3.608123861175775,10.968721602272987,6.237145500075817
1684252817874528000,5.021528076171875,-5.178476404610276,11.886872219979763,6.789535052442551
1684252817884553000,5.031552978515625,-6.092357089912891,10.31175173149109,5.512295686766505
1684252817894579000,5.041578857421875,-5.289951158714294,7.146504908561706,2.876176490820944
1684252817904605000,5.05160498046875,-3.310749518841505,4.0908863350868225,1.1270395249236373
1684252817914631000,5.061630859375,4.14061161224246,1.770584608399868,-2.1055548141568896
1684252817924657000,5.071656982421875,14.344721299660206,0.8594576057195663,-6.584405863085388
1684252817934683000,5.081682861328125,10.231623132765293,0.6044739598691463,-7.129459081214666
1684252817944707800,5.091707763671875,1.9304092596530913,0.11033902807235717,-5.240640892100334
1684252817954733800,5.10173388671875,-3.4116578707456586,-0.4071002069443464,-3.119149965403974
1684252817964759800,5.111759765625,-5.593715494346618,0.261440274643898,-2.0562387023240327
1684252817974785800,5.121785888671875,-6.349419295603036,1.7296657380342482,-0.9366345150329172
1684252817984811800,5.131811767578125,-6.986033776098489,3.083197485274076,0.6374103070482612
1684252817994836700,5.141836669921875,-8.018060948354005,4.337875475051999,2.38898860168308
1684252818004862700,5.15186279296875,-10.146588057297468,4.952723529419303,3.6769735255181786
1684252818014888700,5.161888671875,-10.017238039284944,4.19810927696526,4.2047178814500565
1684252818024915000,5.1719150390625,-8.536695530635118,2.6982956661343573,4.360106303821504
1684252818034941000,5.18194091796875,-7.391880183589458,0.9353928444087505,3.984891181437671
1684252818044966000,5.1919658203125,-6.271375101935863,-0.7045616430401802,4.0039024636387825
1684252818054992000,5.201991943359375,0.875924171873927,-2.573941556712985,6.287787307554483
1684252818065017900,5.212017822265625,2.9777661029875278,-3.845160346925258,7.091466911950707
1684252818075043800,5.2220439453125,0.047600540086627,-4.146414745563268,5.388720745024084
1684252818085069800,5.23206982421875,-2.3953137130513786,-3.8328976622015234,3.569923017597198
1684252818095095000,5.242094970703125,-4.8910342582255595,-3.0152210966348645,1.561554612211883
1684252818105121000,5.25212109375,-6.495979391613602,-2.0735259372115133,0.31771190470308064
1684252818115146800,5.262146728515625,-7.284412911561131,-1.467101427796483,-0.6677487466886639
1684252818125172700,5.2721728515625,-7.479799290060996,-0.6716922236174344,-1.1267653110921383
1684252818135198700,5.28219873046875,-7.153885081940889,0.2115221052646637,-1.055175700391829
1684252818145224000,5.292223876953125,-5.499130500245094,1.139561664301157,-0.5521230103850364
1684252818155250000,5.30225,-3.609851123359799,2.015332691439986,-0.14865005402714013
1684252818165276000,5.31227587890625,-3.271134132289886,2.2895769180774685,-0.6325872708059846
1684252818175302000,5.322302001953125,-3.209454505707323,1.97037886646986,-1.0052676140151917
1684252818185327900,5.332327880859375,-2.6723478626683352,1.4810843604415653,-1.1403060529276727
1684252818195354000,5.34235400390625,-1.2863307268872857,1.082259229889512,-1.0884113227784633
1684252818205378800,5.35237890625,-0.018701485599577426,0.797469059318304,-0.4481082168981433
1684252818215405000,5.362405029296875,0.0018801146581768988,0.4989548992991447,0.36073885326385496
1684252818225431000,5.37243115234375,-0.9797849438428878,0.11364099222719669,0.6248612065985798
1684252818235457000,5.38245703125,-2.4132462601050735,-0.10799918694794178,-0.07349106040745973
1684252818245483000,5.39248291015625,-3.6482606412529943,-0.12737550306916237,-1.2786433872550724
1684252818255508000,5.402508056640625,-4.47980937256664,-0.20132862803041934,-2.229050845444202
1684252818265534000,5.412533935546875,-4.809509528966248,-0.61056584700346,-2.7991517033293842
1684252818275560000,5.422559814453125,-4.677450544255971,-1.213400807493925,-3.1814941933751104
1684252818285586000,5.4325859375,-4.295129973781108,-1.720028141117096,-3.2350258770763873
1684252818295612000,5.44261181640625,-3.6491757102712987,-2.163435340717435,-2.965351734833419
1684252818305636900,5.452636962890625,-2.130935631389916,-2.4543331805139776,-2.821141124558449
1684252818315662800,5.462662841796875,-0.38852000963687894,-2.219676283377409,-3.0669997991889715
1684252818325688800,5.472688720703125,0.04573737656325102,-1.9026766185969113,-3.0857819488093257
1684252818335714800,5.48271484375,-0.3199427324950695,-1.5627590195655823,-2.9859906182363627
1684252818345740800,5.49274072265625,-0.7014867656394839,-1.179196340075135,-2.833812682344019
1684252818355765800,5.502765869140625,-1.12084088947922,-0.8342717265367507,-2.5188907006204126
1684252818365791700,5.512791748046875,-1.7897499121189115,-0.5575000272482633,-2.0987544864922762
1684252818375817700,5.522817626953125,-2.5272294898986813,-0.2833656907260418,-1.6525804525271057
1684252818385843700,5.53284375,-3.1943253256365653,0.041807343637943264,-1.2848923646472394
1684252818395870000,5.542869873046875,-3.5975282328814266,0.33362405184507365,-1.0317698364935814
1684252818405894700,5.552894775390625,-3.6729508458733555,0.6308113471746445,-0.8427610302016139
1684252818415921000,5.5629208984375,-3.7004564001753923,0.8759493063151836,-0.6611733138211071
1684252818425947000,5.57294677734375,-3.471262736880779,1.0802128187537192,-0.5912523669853806
1684252818435972900,5.582972900390625,-2.9980875910043716,1.2773989401519297,-0.5995385492935776
1684252818445998800,5.592998779296875,-2.3773675758637487,1.5577134266138075,-0.684995211174339
1684252818456023800,5.60302392578125,-1.7741735728025436,2.0093302361547947,-0.8172861049443483
1684252818466049800,5.6130498046875,-1.4555296479463578,2.517500707566738,-0.8117237946420908
1684252818476075800,5.62307568359375,-1.4790579691804944,2.7354519690960646,-0.6669782007075846
1684252818486101800,5.633101806640625,-1.9202547992549837,2.6184540676563977,-0.5092578282572329
1684252818496127700,5.643127685546875,-2.5219009883522987,2.358918749850988,-0.4176943739339709
1684252818506153000,5.653153076171875,-2.842574373209476,2.1375024425595996,-0.7593627621553838
1684252818516179000,5.663178955078125,-2.770529712218046,1.9459873525351286,-1.3178873101457953
1684252818526205000,5.673204833984375,-2.4828853212594986,1.7831354624152183,-2.1397866079740226
1684252818536231000,5.68323095703125,-2.2214146514773367,1.7961153554975986,-3.1137422611415384
1684252818546257000,5.6932568359375,-2.0490788936972617,1.8433809645414352,-3.990540000979602
1684252818556283000,5.703282958984375,-1.7905670737206936,1.8928361925840376,-4.714323061840236
1684252818566307800,5.713307861328125,-1.4017325913071632,1.8013351359724998,-4.903022217661142
1684252818576333800,5.723333740234375,-0.9425257650285959,1.4943407323777675,-4.096627216826379
1684252818586360000,5.733360107421875,-0.4014396969646215,1.2832272079139948,-2.6837989387482404
1684252818596386000,5.743385986328125,0.5980828340599313,1.140990235799551,-1.4462841190867126
1684252818606411000,5.753410888671875,1.7305319994747637,0.4370955322355032,-0.09011113662309944
1684252818616437000,5.76343701171875,1.8786346487522123,-0.6880500687003135,0.7231491468712687
1684252818626463000,5.773462890625,1.4890753591954706,-1.6934487617492675,0.8005953746452927
1684252818636489000,5.783489013671875,1.6536919209003447,-2.3723294355660673,0.8042480519339442
1684252818646515000,5.793514892578125,2.640452548974752,-2.4188018484055993,1.0001534128066152
1684252818656541000,5.803541015625,2.6274586273670195,-1.4194313296049832,0.8837074461612849
1684252818666566000,5.81356591796875,2.346498244217038,0.34685412029623985,0.7846429685581475
1684252818676591900,5.823591796875,2.400945873719454,1.7005805133253336,1.0157928804870695
1684252818686617900,5.833617919921875,2.864651180461049,2.7653040865242478,1.5519956334888934
1684252818696643800,5.843643798828125,4.819139819359779,3.695932493010163,2.321696980437636
1684252818706669800,5.853669921875,8.309563183784485,4.366377346915006,3.330095147563517
1684252818716694800,5.86369482421875,9.268936038717627,4.0065690524995325,4.0414407516554
1684252818726720800,5.873720703125,7.45776866003871,2.8282570940434932,4.034954019984602
1684252818736746800,5.883746826171875,4.999211139827967,1.6478431948721408,3.89877620177865
1684252818746772700,5.893772705078125,2.518358785700798,0.6109224053561687,3.5808591298922896
1684252818756799000,5.903799072265625,0.7798901480078697,0.05556991153061389,3.060985361205041
1684252818766823700,5.91382373046875,-0.2995509557209909,-0.21501813068687914,2.6207404250279067
1684252818776850000,5.923849853515625,-0.5185655721655115,-0.760901954421401,2.295546055614948
1684252818786876000,5.9338759765625,-0.6948959890723228,-1.185869826489687,2.0034911547377705
1684252818796902000,5.94390185546875,-0.9953092607110738,-1.618743357115984,1.8362787313207982
1684252818806928000,5.953927978515625,-1.123749762663245,-1.9676070636689662,1.7137942151635883
1684252818816952800,5.963952880859375,-1.4124690893769263,-2.074330823853612,1.5627660338282585
1684252818826978800,5.973978759765625,-1.7653543065309523,-1.8521826951563358,1.3896581226319074
1684252818837004800,5.9840048828125,-2.099244900357723,-1.3882196142613887,1.3473241247713565
1684252818847030800,5.99403076171875,-2.4343092141389846,-0.7753431522279978,1.3574679176449775
1684252818857056800,6.004056884765625,-2.7504303425192833,-0.18808160844445226,1.4084817733064292
1684252818867082000,6.01408203125,-3.0222505568802354,0.29011574950814245,1.4823594949439167
1684252818877108000,6.02410791015625,-3.2592028714776036,0.5617793120026588,1.507146730197966
1684252818887134000,6.034134033203125,-3.516530450105667,0.6125654963880777,1.5513701950669287
1684252818897160000,6.044159912109375,-3.6334628850936888,0.4713835862845182,1.6116818942971527
1684252818907186000,6.05418603515625,-3.5037001946270463,0.24413082792460916,1.502873875184357
1684252818917211000,6.0642109375,-3.300204743951559,-0.06303425606191158,1.331446464420855
1684252818927236900,6.07423681640625,-3.027740386468172,-0.37740181877315043,1.1093631445880978
1684252818937262800,6.084262939453125,-2.6494939335644245,-0.6257575709164143,0.8789245227336883
1684252818947288800,6.094288818359375,-2.2754607144415377,-0.8534592420876026,0.6726853263080119
1684252818957315000,6.104315185546875,-1.9642823031604288,-0.9424375022232532,0.5278028081208467
1684252818967339800,6.11433984375,-1.7362112141549586,-0.7430430571258068,0.4767287467047572
1684252818977366000,6.124365966796875,-1.6215514002740383,-0.30774902135431764,0.5502858580857515
1684252818987392000,6.13439208984375,-1.6092062979638575,0.20497546010017395,0.7592851668745279
1684252818997418000,6.14441796875,-1.62072722440958,0.6435036554872989,1.1167159185037017
1684252819007444000,6.15444384765625,-1.5928478683590888,0.810634245839715,1.4529799634635447
1684252819017469000,6.164468994140625,-1.5534043312430381,0.6780705264776945,1.6562115025058388
1684252819027495000,6.174494873046875,-1.4550339733839035,0.38426702836751936,1.7029188931450248
1684252819037521000,6.18452099609375,-1.2785843505442143,0.09925123234689236,1.6004386157490311
1684252819047547000,6.194546875,-1.0836322718083857,-0.10752689326107501,1.421647252088785
1684252819057572900,6.20457275390625,-0.8696949220955371,-0.20350363398194313,1.180939530480653
1684252819067598800,6.214598876953125,-0.5753086556613445,-0.09149404234886169,0.9149988756775855
1684252819077623800,6.224623779296875,-0.026390597063768652,0.21589315995573996,0.5471393767535686
1684252819087649800,6.23464990234375,1.185722526973486,0.4778472293406725,0.06995229182206093
1684252819097675800,6.24467578125,6.530887623387574,0.7513999665826558,-0.5592675483774393
1684252819107701800,6.25470166015625,14.682777196472882,0.7196230185717344,-0.9223127788875252
1684252819117727700,6.264727783203125,14.088893604201077,-0.11106266617178916,-1.276762688075006
1684252819127752700,6.274752685546875,10.86713052880168,-0.9734247611612081,-1.5938837872780858
1684252819137778700,6.28477880859375,8.967810819417238,-1.4755769951969384,-1.8173747088864445
1684252819147805000,6.294804931640625,7.219922026950121,-1.5992764401018618,-1.9451140768319368
1684252819157831000,6.304830810546875,5.193106402987241,-1.504697875741124,-2.486373163375258
1684252819167857000,6.31485693359375,3.184838827627897,-1.1439748045682907,-2.394787058828771
1684252819177881900,6.3248818359375,1.5338601112090051,-0.3253320243179798,-1.522040640208125
1684252819187907800,6.334907958984375,0.17441548666357992,0.9519161091864109,-0.359026788648963
1684252819197933800,6.344933837890625,-1.8923092461004851,2.9890824467718597,1.4122323580116032
1684252819207959800,6.354959716796875,-5.19562686137557,5.54583730636239,2.6192864268273115
1684252819217985800,6.36498583984375,-8.808983362507819,8.142982628530264,3.694793259847164
1684252819228011000,6.375010986328125,-8.054343391090631,10.15594391466379,3.6060812494322656
1684252819238037000,6.385037109375,-1.3349161863580346,10.979352886402607,2.8989684606045483
1684252819248063000,6.39506298828125,4.229920419506729,9.722655373495817,3.266388399067521
1684252819258088700,6.405088623046875,2.889442215107381,7.453050399345159,4.249264002402127
1684252819268114700,6.41511474609375,0.16215777037590742,4.829931847009062,4.4363755967706435
1684252819278140000,6.425139892578125,-2.302698557718098,2.23666424305737,3.3427082531601187
1684252819288166000,6.435165771484375,-3.792679925842583,-0.13293605980575085,2.045907570184767
1684252819298192000,6.44519189453125,-4.330480688625574,-1.9804075085312127,0.41844891862832007
1684252819308217900,6.4552177734375,-4.388939891856909,-3.1693805617332456,-1.1097535321451724
1684252819318244000,6.465244140625,-4.511981749635934,-3.8867075783222913,-2.076612358919531
1684252819328268800,6.475268798828125,-4.388362384229898,-4.100026503875851,-2.57443489318788
1684252819338295000,6.485294921875,-3.9442718785405155,-3.71628554520905,-2.757228916618228
1684252819348321000,6.495321044921875,-3.425210595279932,-3.0360850209653374,-2.425830139607191
1684252819358347000,6.505346923828125,-3.0333786846160886,-2.1432681664794684,-1.9948902073919772
1684252819368373000,6.515373046875,-2.858736695720255,-1.312494218930602,-1.4246002566754816
1684252819378398000,6.52539794921875,-2.541508775141835,-0.6593892068833113,-1.08370102619566
1684252819388424000,6.535423828125,-1.918703039768338,-0.4771615851640701,-1.185188493162021
1684252819398450000,6.545449951171875,-1.5315964040607213,-1.0152473023682833,-1.9181220250099895
1684252819408476000,6.555475830078125,-1.8987603219360112,-1.963724669277668,-2.9461697722405193
1684252819418502000,6.565501953125,-2.588611302578449,-2.7202275119572876,-3.647934770299494
1684252819428526800,6.57552685546875,-3.205644592030346,-3.1611949171900746,-4.074726642924547
1684252819438552800,6.585552734375,-3.515894490289688,-3.3338322882652283,-4.4143186632633205
1684252819448578800,6.595578857421875,-3.594674012494087,-3.402253498062491,-4.458925282230973
1684252819458604800,6.605604736328125,-3.3255057739466425,-3.397915761119127,-4.1926790686100714
1684252819468630800,6.615630859375,-2.6887217821031806,-3.419503323549032,-3.8008492037728425
1684252819478655700,6.62565576171875,-1.9511051339402794,-3.513523669505119,-3.12465908421427
1684252819488681700,6.635681640625,-1.2414257094949483,-3.4598365029811857,-2.3904173193119465
1684252819498707700,6.645707763671875,-0.6035203124061227,-3.1871915282338854,-1.9084119473785162
1684252819508734000,6.65573388671875,-0.21765432440936563,-2.771304203721881,-1.5848114230282604
1684252819518760000,6.665760009765625,-0.34543723923563957,-2.31169405733943,-1.1922913839697837
1684252819528784600,6.67578466796875,-1.1889783138990402,-1.7732973744899034,-1.055190605700016
1684252819538811000,6.685810791015625,-2.0639844941452146,-1.1663345204144715,-0.92467461264804
1684252819548836900,6.6958369140625,-2.9413220399484037,-0.4285539138615131,-0.7749335485137998
1684252819558862800,6.70586279296875,-3.4291409204661845,0.21848434549272058,-0.4577564813397825
1684252819568888800,6.715888916015625,-3.3897873997211456,0.9475029689192771,0.053457011029869314
1684252819578914000,6.7259140625,-2.81755800537467,1.7022586756706237,0.4787732581444084
1684252819588940000,6.73593994140625,-1.6912883688449858,2.6859499793022867,0.6253928292572498
1684252819598966000,6.745966064453125,-0.013128288577124475,4.312167617821693,0.7157371170490979
1684252819608992000,6.755991943359375,2.874761655586958,7.262773326683044,1.213361352266371
1684252819619018000,6.76601806640625,5.599407568508386,11.754190427196026,1.5952622360244393
1684252819629043200,6.776043212890625,8.66272780240178,16.132668546271322,1.8649495300099252
1684252819639069200,6.786069091796875,9.366443642267583,17.633525528675317,2.7168185802966356
1684252819649095200,6.79609521484375,5.660960061579942,12.445251952672004,3.8484313314199445
1684252819659121200,6.80612109375,2.56906430606544,4.657670908030867,2.1581188218697904
1684252819669147100,6.816147216796875,2.2279811703860757,-0.2700467749476433,-1.3455579918816685
1684252819679173000,6.826173095703125,2.712149419441819,-2.9513667563617227,-3.12254223819077
1684252819689198000,6.836197998046875,2.6437849082678553,-4.86078349686861,-3.6218501887112855
1684252819699224300,6.846224365234375,2.1297867536157367,-6.148127492451668,-3.931559111961722
1684252819709250300,6.856250244140625,1.239678573566675,-6.709521604529023,-4.018119789561629
1684252819719276300,6.8662763671875,0.555949363740161,-6.953101812833547,-3.8551159237504002
1684252819729302300,6.87630224609375,0.19067045589387416,-7.089678859490156,-3.5251825431168076
1684252819739327200,6.8863271484375,-0.14923081305716185,-7.042638291373849,-3.1512197588816284
1684252819749353200,6.896353271484375,-0.504602001808025,-6.533330924886465,-2.876523989084363
1684252819759379200,6.906379150390625,-1.142202534198761,-5.106482597023248,-2.806374640320241
1684252819769405200,6.9164052734375,-1.9679443327993154,-2.917786558321118,-2.6447417706012724
1684252819779431200,6.92643115234375,-3.1148809097826478,-0.320544205519557,-1.8466212616369126
1684252819789456100,6.9364560546875,-3.928741131931543,2.218956152409315,-0.9918363969687372
1684252819799482000,6.946482177734375,-4.013329632675648,4.438160726621747,-0.433588510495238
1684252819809508000,6.956508056640625,-4.491581935685873,6.192495626488328,-0.3614307810507715
1684252819819534000,6.9665341796875,-4.4656502065718175,6.854965848252177,-0.5254323891950771
1684252819829560000,6.97656005859375,-3.6111388250827785,5.993684534236788,-0.824620466420427
1684252819839585000,6.9865849609375,-2.5490987918794152,4.115476586464047,-1.0838844199385493
1684252819849611000,6.996611083984375,-1.7434926033347844,1.9701964956402778,-1.5615648413449525
1684252819859637000,7.006636962890625,-0.6471949112206697,0.30343583433032034,-1.917340226982534
1684252819869663200,7.016663330078125,0.822894592475891,-0.09614859015643597,-1.7973644787758587
1684252819879689200,7.026689208984375,2.5321704534322023,-0.06495441046953201,-1.3594582146793603
1684252819889714000,7.0367138671875,5.607067727872729,-0.24421616812050342,-0.5428557080850005
1684252819899740200,7.046740234375,8.10356422585547,-0.273697114148736,0.5202615258958191
1684252819909766100,7.05676611328125,6.521718228504061,-0.023967735564708707,0.918700068283081
1684252819919792000,7.066792236328125,3.398995957571268,-0.04026479037106037,0.4881272158145904
1684252819929818000,7.076818115234375,2.038521405456215,-0.4917518360525369,0.22167026378614826
1684252819939843000,7.086843017578125,1.253338996259123,-0.9461825339704751,-0.034182273853290826
1684252819949869000,7.096869140625,0.5089062383405863,-1.051885718935728,0.02756974211204797
1684252819959895000,7.10689501953125,0.08367781563997269,-0.9497048628777265,0.2936285799346864
1684252819969921000,7.116921142578125,-0.17994170273914933,-0.8096236074924469,0.43415454688016325
1684252819979947000,7.126947021484375,-0.7575980905704199,-0.7104770045638084,0.5177770521363243
1684252819989972200,7.13697216796875,-0.8934009379841387,-0.24215748202502727,0.7250621408857405
1684252819999998200,7.146998291015625,-0.5039724352002144,0.3533838143259287,1.0377373665958642
1684252820010024200,7.157024169921875,-0.1443102712571621,0.6169418117761611,1.3117002920739351
1684252820020050200,7.16705029296875,0.07857735069580375,0.5532891315549612,1.4348174070462583
1684252820030076000,7.177075927734375,0.2302297283440828,0.2400081950366497,1.4744278251618146
1684252820040101000,7.18710107421875,0.24319164737835525,-0.3560498186647892,1.486730549634993
1684252820050127000,7.197127197265625,0.2794927948154509,-1.0725152499884367,1.6639084867492318
1684252820060153000,7.207153076171875,0.7067167752474546,-1.6350900962829589,1.934042939980328
1684252820070179300,7.217179443359375,1.593427714073658,-1.6642799504101276,2.3567659557312726
1684252820080205300,7.227205322265625,2.650855869567394,-1.2649632369488477,2.7850241015166044
1684252820090230300,7.237230224609375,3.644071080608666,-0.7698398786365985,3.0870556220069525
1684252820100256300,7.24725634765625,4.654683416652679,-0.3058119158118963,3.2976173578068613
1684252820110282200,7.2572822265625,5.735423474150895,0.14445289459824562,3.4048709870845077
1684252820120308200,7.26730810546875,6.7694292530030005,0.6593266630411148,3.098942459155619
1684252820130334200,7.277334228515625,8.113851226592063,0.9788853646546601,2.1874495457723735
1684252820140359200,7.287359130859375,13.417808698827027,0.6508738919943571,0.7344929631844163
1684252820150385200,7.29738525390625,19.07703156135082,-0.6505167491197585,-0.20251666877120733
1684252820160411100,7.3074111328125,14.05944188426733,-2.1836685659289357,-0.16529168448746204
1684252820170437000,7.31743701171875,5.531148855796456,-2.7824399302422997,-0.2805722606152296
1684252820180463000,7.327463134765625,1.7690807797081767,-2.981260959365964,-1.570579045666754
1684252820190488000,7.337488037109375,2.1584512686945496,-3.177136582687497,-2.3618404825165866
1684252820200514000,7.34751416015625,1.6514005950927733,-2.4953403136849404,-3.1674159836620093
1684252820210540000,7.3575400390625,-2.2793606444895267,-1.027631567645073,-3.180295631240308
1684252820220566000,7.36756591796875,-3.963880249851942,1.4032523482203483,-2.2621005898699162
1684252820230592000,7.377592041015625,-4.232801235640049,3.6137931389838456,-0.8936404458284377
1684252820240617000,7.387616943359375,12.669944505155085,9.548436870709061,-3.4557392967954277
1684252820250643000,7.397642822265625,18.26055735731125,18.83461981230378,-3.756493052434921
1684252820260669200,7.407669189453125,5.572265879082679,21.811495103931424,-0.6305085648357868
1684252820270695200,7.417695068359375,-3.3708991593778133,19.328418059492112,-0.059280456486344335
1684252820280721200,7.42772119140625,-8.406411446642876,15.95206531088352,1.8189117091953753
1684252820290747100,7.4377470703125,-11.374564502632618,13.450594531619547,4.7955806645959616
1684252820300772000,7.447772216796875,-13.502411228096484,13.018913425648211,9.874760828673839
1684252820310798000,7.457798095703125,-14.961532178533076,12.812469646561144,16.597105089896917
1684252820320824000,7.467823974609375,-13.30771283186078,10.668831477725504,20.167936454510688
1684252820330850000,7.47785009765625,-8.29213157199025,6.7549833790212865,19.130419452667237
1684252820340876000,7.4878759765625,-6.318240313485265,2.6964269496530293,15.05561565285325
1684252820350901200,7.4979013671875,-6.407026850441098,-0.8353425706386566,8.905529427549242
1684252820360927200,7.50792724609375,-5.696190364915132,-2.198951475256681,4.697457559496164
1684252820370953000,7.517952880859375,-4.861738605636358,-2.347922724062204,2.5665359566316006
1684252820380979000,7.52797900390625,-3.8849014056831597,-1.995821350762248,0.5507283411562442
1684252820391005000,7.5380048828125,-2.792561511284113,-0.8888736698180436,-1.5439379992395639
1684252820401030100,7.548030029296875,-1.9518863474458454,1.1099328342348336,-3.7221716806381937
1684252820411056000,7.55805615234375,-2.587367439997196,2.8000708640009164,-5.746573813718557
1684252820421082000,7.56808203125,-3.4626772793650624,3.2419553840786217,-6.207593826898932
1684252820431108400,7.5781083984375,-4.548297510120272,2.5171885728776453,-4.943319156736135
1684252820441134300,7.58813427734375,-5.102677359521389,1.6132815845787525,-3.0275819810360667
1684252820451159300,7.5981591796875,-4.52097023499459,0.9106021020233631,-0.7941559892475605
1684252820461185300,7.608185302734375,-3.808495626872778,0.22419278626739977,1.0600316159904002
1684252820471211300,7.618211181640625,-3.268022137749195,-0.6564741962194443,1.5546920329660177
1684252820481237200,7.6282373046875,-3.270933933542669,-1.2750848179906606,0.3403741106271744
1684252820491263200,7.63826318359375,-3.052017334112525,-1.2577280249983072,-1.6052157670229672
1684252820501288200,7.6482880859375,-2.184494495359063,-1.0501222163945436,-2.7953873823598028
1684252820511314200,7.658314208984375,-1.1061036313354968,-0.8870125521212816,-2.992550707404315
1684252820521340200,7.668340087890625,-0.4667874906659126,-0.9087696258991956,-2.8354969821691514
1684252820531366100,7.6783662109375,-0.25085049156844613,-1.0066939935564994,-2.7326921489939093
1684252820541392100,7.68839208984375,-0.2108458134382963,-1.0732049858182668,-2.6660066769480704
1684252820551417000,7.6984169921875,-0.4202636399000883,-1.1415724196016788,-2.896748154206574
1684252820561443000,7.708443115234375,-0.9289028978675603,-1.311966395664215,-3.330160321754217
1684252820571468800,7.71846875,-1.5558061316877603,-1.5408429558336734,-3.664229194757342
1684252820581494800,7.728494873046875,-2.1775094587773083,-1.8096762633383272,-3.7554461737304923
1684252820591520800,7.738520751953125,-2.9421108522385357,-2.061155700460076,-3.5836060905128715
1684252820601545700,7.748545654296875,-3.632315176363289,-2.365184239986539,-3.515258238212764
1684252820611571700,7.75857177734375,-4.163768031424284,-2.685222249549627,-3.547838319300115
1684252820621597700,7.76859765625,-4.376999570955336,-3.0007541798651216,-3.527263441044092
1684252820631623700,7.778623779296875,-4.254333853012323,-3.3877211148411033,-3.5921880408972497
1684252820641649700,7.788649658203125,-4.044745930680632,-3.753397424507141,-3.5186645395249125
1684252820651674600,7.798674560546875,-3.8343954995438456,-4.303901893779635,-3.6932702880635855
1684252820661700600,7.80870068359375,-3.8779318589314817,-4.89284276895225,-3.8832793574392794
1684252820671726600,7.8187265625,-4.044301694044471,-5.355282001280784,-4.135142533181607
1684252820681752600,7.828752685546875,-4.259954615503549,-5.648977947363257,-4.233545916527509
1684252820691778600,7.838778564453125,-4.55673274551034,-5.658324452379346,-4.292467476573586
1684252820701803800,7.8488037109375,-5.192976639127731,-5.366470919293165,-4.139176903264224
1684252820711829800,7.858829833984375,-5.508315677219629,-5.000121240410208,-4.0606642153024675
1684252820721855700,7.868855712890625,-5.4568169606506824,-4.646001513025165,-4.001805783620476
1684252820731882000,7.878882080078125,-5.01774282181859,-4.508582754847407,-3.682172847726941
1684252820741907700,7.88890771484375,-3.8673496746405958,-4.697244209006429,-3.19680691331923
1684252820751933000,7.898932861328125,-2.0099007295191287,-4.98491957962513,-2.475875150236487
1684252820761959000,7.908958984375,-1.2371917251870035,-4.883552962559461,-0.39433497952595353
1684252820771985000,7.91898486328125,1.5328702233888207,-2.90985634984374,3.1537095298707483
1684252820782011000,7.929010986328125,32.55130156759024,9.534393732309342,14.763475119519233
1684252820792036900,7.939036865234375,36.61164546489715,29.750118358433244,13.846225834566354
1684252820802061800,7.949061767578125,-5.498417383539676,30.92183690997362,0.08104702874496579
1684252820812087800,7.959087890625,-5.427960284000635,29.009155030190943,-9.324868938341735
1684252820822113800,7.96911376953125,7.846737582486868,20.7625565443635,-11.365710165047645
1684252820832139800,7.979139892578125,0.30230785321369763,6.69134297375977,-7.471562207591533
1684252820842165800,7.989165771484375,-3.144883249336481,-0.808433520925045,-4.79709282272458
1684252820852190700,7.999190673828125,-1.446944190430641,-5.2335664236694575,-3.8483094586059448
1684252820862216700,8.009216796875,4.110191924059391,-9.328972282007337,-2.301201012636721
1684252820872242700,8.01924267578125,6.528296437850594,-11.774502562862635,-2.169040905639529
1684252820882268700,8.0292685546875,-0.8300982402443885,-8.202745900097488,-2.6335782792910933
1684252820892294700,8.039294677734375,-4.481015825746953,-4.502210297206044,-1.787466769617796
1684252820902319600,8.049319580078125,-4.959809103766084,-1.470339094543457,-0.6653576868336647
1684252820912345600,8.059345703125,-4.827957624326646,2.0757915440559387,0.6088735100023448
1684252820922371800,8.069371826171874,-4.277664751978218,5.308168952450156,1.7368023119159042
1684252820932397800,8.079397705078126,-3.6585379973784087,7.127590364733338,2.145957843954861
1684252820942423800,8.089423828125,-2.5061527996003625,7.043603337013721,2.1857862887352706
1684252820952448800,8.09944873046875,-1.0072980969294905,6.119069740271568,2.2651570548310875
1684252820962474800,8.109474853515625,-0.25819968528747556,5.374357288628817,2.547904029136896
1684252820972500700,8.119500732421875,-0.5323559413805604,4.851884151098131,2.636491536389291
1684252820982526700,8.129526611328124,-1.1416814329341054,4.493837021136284,2.5922061122000217
1684252820992552700,8.139552734375,-1.377363727595657,3.9898604942828415,2.525518302066624
1684252821002577700,8.14957763671875,-1.2473356641910969,3.1654777090758084,2.4244762407802045
1684252821012603600,8.159603759765625,-1.0207340632162987,2.0420576167583464,2.2436329130262136
1684252821022629600,8.169629638671875,-0.6279600493967533,0.8626105167925358,2.006027249086648
1684252821032655600,8.179655517578125,-0.2433458150267601,-0.21575988896489143,1.7020117151722312
1684252821042681600,8.189681640625,0.06454772936478256,-0.9973784682005643,1.4684154330044985
1684252821052706800,8.199706787109376,0.2407062603034079,-1.2982166872531176,1.3885674047857521
1684252821062732800,8.20973291015625,0.4724106643099338,-1.2607803983062504,1.3914550890512765
1684252821072758800,8.2197587890625,0.86508998558335,-1.2948182769864798,1.348272511537373
1684252821082784800,8.22978466796875,1.199194514421746,-1.3965899677217006,1.2316563028916716
1684252821092810800,8.239810791015625,1.3060323294401168,-1.5548761573612688,1.084142851679027
1684252821102835700,8.249835693359374,1.2727940767049788,-1.70469028673172,0.9677011228173971
1684252821112861700,8.25986181640625,1.1633879455685614,-2.0156132619470357,0.7083826626330614
1684252821122888000,8.269887939453126,0.9590414310216903,-2.2386755828797815,0.45295390336364505
1684252821132914000,8.279913818359375,0.69588967628479,-2.3383938482165334,0.3283589709237218
1684252821142940000,8.28993994140625,0.4482499634563923,-2.428631168502569,0.20964754356443882
1684252821152964900,8.29996484375,0.2727577874720096,-2.413600772631168,0.15494447799623012
1684252821162990800,8.309990966796875,0.17379589346051216,-2.2933295486092566,0.19269713941588998
1684252821173016800,8.320016845703124,0.014559280361467971,-2.046261498188972,0.37886882258579135
1684252821183042800,8.330042724609376,-0.01900395741118118,-1.7853975621283054,0.6794698718816041
1684252821193068800,8.34006884765625,0.03140521035538986,-1.684243711030483,1.0232450231239199
1684252821203093800,8.35009375,-0.00772794563723728,-1.7172540002286434,1.1767714510157703
1684252821213119700,8.36011962890625,-0.0631791992242448,-1.8673405167996882,1.3556390947826207
1684252821223145700,8.370145751953125,-0.06995324167013169,-1.9955495480835437,1.529528657875955
1684252821233171700,8.380171630859374,-0.0066308163166046135,-2.016243376544118,1.66283004386276
1684252821243197700,8.39019775390625,0.15334931775927543,-1.8835183291405437,1.6987373696766792
1684252821253222700,8.40022265625,0.3803466035207733,-1.6763690321326254,1.7161796489953993
1684252821263248600,8.41024853515625,0.7856886051535605,-1.4191805697143076,1.7870250171996651
1684252821273274600,8.420274658203125,1.3772650895267724,-1.1049959623545407,1.9276172908470033
1684252821283300600,8.430300537109375,2.3497727358430622,-0.7349070969432592,2.173703636753559
1684252821293326800,8.440326904296874,6.5776271627306935,-0.25702012011408804,2.5489380483597515
1684252821303351600,8.4503515625,13.796720337641238,0.2326625084489584,3.367360171596706
1684252821313377800,8.460377685546876,15.98229678301811,0.6238157891988754,4.765371404293179
1684252821323403800,8.47040380859375,13.37194126614332,1.1405606122106313,5.928638938352465
1684252821333429800,8.4804296875,9.747277189055085,1.722991667097807,6.261313142126799
1684252821343455700,8.490455810546875,5.991307283711433,2.1299305460005997,5.6689440460711715
1684252821353480700,8.500480712890624,2.803818233835697,2.3040537717193366,4.954072605940699
1684252821363506700,8.510506591796876,1.1324117925465107,2.319157232826948,4.398440126129985
1684252821373532700,8.52053271484375,0.039084065287048,2.499606154435873,4.104622891755402
1684252821383558700,8.53055859375,-0.8766425492763519,3.1883424518346786,4.12970092664957
1684252821393584600,8.540584716796875,-1.4619208102881907,4.131829755371808,4.168087648189068
1684252821403609900,8.55060986328125,-0.633709552834183,5.242075893339514,4.192383008272945
1684252821413635800,8.5606357421875,1.8756395585894583,6.424519252511859,3.519092994070053
1684252821423661800,8.570661865234374,4.18404743386507,6.69891545484066,1.820273645198345
1684252821433687800,8.580687744140626,5.301043046092987,6.201192727684974,-0.2946857608374208
1684252821443713800,8.5907138671875,4.580677392460405,5.110864173108339,-1.780491085386276
1684252821453738800,8.60073876953125,1.856820584090054,3.6210406258940693,-2.225789943952113
1684252821463764700,8.6107646484375,-1.721549359335005,2.4539310294538734,-2.1661422615885733
1684252821473790700,8.620790771484375,-4.865638827945292,2.2032851205468176,-2.110000687649846
1684252821483817000,8.63081689453125,-7.712669303780793,2.8403566971600056,-2.2898624570205808
1684252821493843000,8.640843017578124,-9.728361476182936,3.884809051224589,-2.4653952572762963
1684252821503867600,8.65086767578125,-11.43962880321741,5.299640193557739,-2.22886423683092
1684252821513894000,8.660893798828125,-12.00077098636031,5.673387581476569,-1.9930537857450543
1684252821523920000,8.670919921875,-12.491263177740572,4.894005967512727,-1.6270096656799315
1684252821533945900,8.68094580078125,-11.452680007970333,3.4195120913773773,-0.611752572569996
1684252821543971800,8.690971923828124,-2.9887285187676547,1.8691081109941006,1.317842155829817
1684252821553996800,8.700996826171876,6.59799891963005,0.9637631988465786,4.117195665341615
1684252821564022800,8.711022705078125,4.951296711486577,0.7092050849318504,5.008199332925677
1684252821574049000,8.721049072265625,-0.15280278979241846,0.7567676310956478,3.4836461253747344
1684252821584075000,8.731074951171875,-3.112008569216728,0.5709691651523113,1.3146458440065383
1684252821594101000,8.74110107421875,-4.380931065185368,0.05595043528079986,-0.6662392189085483
1684252821604126000,8.7511259765625,-4.778633621448278,-0.5327443561762572,-2.2429776639878747
1684252821614152000,8.76115185546875,-4.950462014228105,-1.0022241546660662,-3.430898870049417
1684252821624178000,8.771177978515626,-4.946811675027012,-1.3615870434015989,-4.518455621825158
1684252821634204000,8.781203857421875,-4.943904847669601,-1.535353126245737,-5.425907443124055
1684252821644230000,8.79122998046875,-5.044480022096634,-1.709921173122525,-5.8965586234807965
1684252821654254800,8.8012548828125,-5.1671419406473635,-1.8215069863855837,-6.057065996301174
1684252821664280800,8.81128076171875,-5.25138966512978,-2.062793530794978,-6.023382337886095
1684252821674307000,8.82130712890625,-5.374564793899655,-2.5982114900946613,-5.935483105158806
1684252821684333000,8.8313330078125,-5.315120086762309,-3.241359756273031,-5.875628063654899
1684252821694359000,8.841359130859376,-5.011646843031048,-3.7533015629172324,-5.816697151258587
1684252821704384000,8.851384033203125,-4.575339830824732,-4.096730969461799,-5.723821883684397
1684252821714410000,8.861409912109375,-4.067262882915139,-4.234061464834213,-5.620089706531167
1684252821724436000,8.87143603515625,-3.747802380979061,-4.238105187267065,-5.494993254309892
1684252821734462000,8.8814619140625,-3.7272201961994167,-4.269498104396463,-5.254260252130031
1684252821744488000,8.891488037109376,-3.8547465059161183,-4.365917912709713,-4.73079342738688
1684252821754513200,8.90151318359375,-4.014646560493111,-4.518883199587464,-4.094632535877824
1684252821764539000,8.911538818359375,-3.849356045049429,-4.789700374385714,-3.774735103829205
1684252821774564900,8.92156494140625,-3.3189904007032514,-5.083026902633905,-3.687486443965137
1684252821784590800,8.9315908203125,-2.8079338524609803,-5.385787029659748,-3.6744618349581954
1684252821794616800,8.941616943359374,-2.375773438540101,-5.678513253927231,-3.7650451922029253
1684252821804642000,8.95164208984375,-2.2391870395332574,-5.885030682772397,-4.035996222513914
1684252821814668000,8.96166796875,-2.2467080826878547,-6.033377662199736,-4.278347765806317
1684252821824694000,8.971694091796875,-1.9978581172868608,-6.187993054372072,-4.215980449220538
1684252821834720000,8.981719970703125,-1.9238512163117527,-6.278831263160705,-3.943680342388153
1684252821844746200,8.991746337890625,1.0462193637371062,-6.145902217617631,-2.91910757779181
1684252821854771000,9.00177099609375,35.88765431424379,2.976335193401575,4.817934535223245
1684252821864797000,9.011796875,37.735400488257405,28.235339233660696,16.636381453752517
1684252821874823200,9.0218232421875,-15.845959390336274,32.555753286302085,9.602642508149147
1684252821884849200,9.03184912109375,-25.451560748291016,32.99478533955812,-5.579772309190035
1684252821894875100,9.041875244140625,2.2892355572938916,24.17056933660507,-15.55836409921646
1684252821904900000,9.051900146484375,31.965372149193286,7.266256492623686,-16.290120038652418
1684252821914926000,9.061926025390624,8.38214092873931,-0.29605858356058595,-3.4416844679579137
1684252821924952000,9.0719521484375,-8.120508930915594,-5.14448821029067,0.6867515533223748
1684252821934978000,9.08197802734375,-13.605122245508431,-3.054020490628481,-1.5389707322210073
1684252821945004000,9.092004150390625,-9.16508812623024,-3.5845758123278615,-5.700308906149864
1684252821955029000,9.102029052734375,-4.3994902197048065,-3.0912136184692383,-7.785904635861516
1684252821965055000,9.112054931640625,-2.567467392262816,-0.4258756345629692,-5.005460847872495
1684252821975081000,9.1220810546875,-4.057290354955196,1.8814508752167223,1.6455853329427539
1684252821985107000,9.13210693359375,-5.1440077332973475,3.8835248566329477,5.3839095453500745
1684252821995133000,9.1421328125,-1.9421127030588685,6.117770932632684,7.56129391644299
1684252822005158000,9.152157958984375,-0.21037878044843672,6.489926667445897,7.243927171915769
1684252822015184000,9.162183837890625,-0.9496072477221489,4.58026793487668,4.451973563396931
1684252822025209900,9.1722099609375,-0.2704185308694839,2.378402617999911,2.5333020878106356
1684252822035235800,9.18223583984375,0.8452046239614486,0.7088456039696931,1.8341753293007612
1684252822045262000,9.192261962890624,0.7312286276262253,-0.2146668330311775,1.661803185033053
1684252822055286800,9.202286865234376,0.4986193837344646,-0.40963001768290996,1.7931904079616068
1684252822065313000,9.21231298828125,0.9967968689203262,-0.17657178791463374,2.2153873540118334
1684252822075339000,9.222339111328125,1.8534101911246776,0.41238311578333375,2.811395098830759
1684252822085365000,9.232364990234375,2.3560089998841285,1.0575246016055344,3.373973159995675
1684252822095391000,9.242390869140625,2.904705542951822,1.3997832108050583,3.817120247355103
1684252822105416000,9.252416015625,3.662802376824617,1.3432254572808742,3.9602863170132037
1684252822115442000,9.26244189453125,4.45781235255301,0.9797481189638375,3.8139661672383545
1684252822125468000,9.272468017578126,4.822753918203711,0.6805261029362678,3.3086385180369016
1684252822135494000,9.282493896484375,4.6678562019586565,0.4034019369482994,2.4704934571981427
1684252822145519900,9.292519775390625,3.9498733518093823,0.1485837107926607,1.5860539704352616
1684252822155545000,9.302545166015625,2.964607930728793,-0.22007716764211654,0.8186746366932988
1684252822165571000,9.312571044921874,1.8995529336184263,-0.6744231098860501,0.354449982252717
1684252822175597000,9.32259716796875,0.959562240025401,-1.2093477327108382,0.23582564865499733
1684252822185623000,9.332623046875,0.32712767556309696,-1.7807213870108127,0.29520108994841576
1684252822195649000,9.34264892578125,-0.03985152426189743,-2.276961182132363,0.42234716817587614
1684252822205674000,9.352674072265625,-0.2726268363024108,-2.6612638663351533,0.5468798490345478
1684252822215700000,9.362699951171875,-0.41105332848429676,-2.917579637572169,0.7835887102648615
1684252822225726000,9.372725830078124,-0.40354748289883136,-2.9254952330023047,1.1584440594255923
1684252822235752200,9.382752197265624,-0.42406829288005826,-2.7840041108191014,1.5092577310025692
1684252822245778200,9.392778076171876,-0.5742559317380189,-2.5810686321139333,1.637920935794711
1684252822255803100,9.40280322265625,-0.7553396441191434,-2.4071178403526545,1.7176318936303256
1684252822265829000,9.4128291015625,-0.5736772550672292,-2.243836911165714,2.018714150571823
1684252822275855000,9.422855224609375,-0.48236503555867816,-1.9627461796343326,2.1935963779643175
1684252822285881000,9.432881103515625,-0.3772241241186857,-1.6397510738313197,2.1967507503420114
1684252822295907000,9.442906982421874,-0.22493805167675018,-1.2568617635577917,2.177745605620742
1684252822305932000,9.45293212890625,-0.06573401653990149,-0.8854986404269933,2.191136125330627
1684252822315958000,9.4629580078125,0.041256797083094716,-0.5885398931562901,2.2557988593772054
1684252822325984000,9.47298388671875,-0.008312412727996706,-0.3585930734068155,2.210356666368246
1684252822336010000,9.483010009765625,-0.2445773295830935,-0.2158569195985794,2.0511752814546225
1684252822346036000,9.493035888671875,-0.5169586118929088,-0.2672778947561979,1.832780660071969
1684252822356061000,9.50306103515625,-0.8375953180015087,-0.5949164424508809,1.6962822316095232
1684252822366087000,9.5130869140625,-0.9213917915850878,-1.0229355187833309,1.60877258272171
1684252822376113000,9.52311279296875,-0.5702561945773661,-1.3392436941683292,1.5784034556820987
1684252822386139000,9.533138916015625,-0.029331308424472808,-1.6140876402646303,1.575932097132504
1684252822396164900,9.543164794921875,0.46641456570029255,-1.8289958808362483,1.527816593261063
1684252822406189800,9.55318994140625,0.7529507031559943,-1.9751842209249735,1.3394856862306594
1684252822416215800,9.5632158203125,1.1345302460052071,-1.667300175014138,0.9843538591936231
1684252822426242000,9.573241943359376,2.2211522011488674,-0.37141105392575263,0.4286962449416518
1684252822436268000,9.58326806640625,4.11959220508933,1.7702105143904685,-0.09330372211933136
1684252822446294000,9.5932939453125,6.292227920350432,3.4691882686942814,-0.33156185861825943
1684252822456319000,9.603319091796875,10.935567520689963,3.894848214679956,0.5807148986190557
1684252822466345000,9.613344970703125,17.652275821852683,2.0946043810755013,2.4076041625648736
1684252822476371000,9.623370849609374,14.496573072338103,0.13867840285003186,2.239448613078892
1684252822486397000,9.63339697265625,6.617151363867521,-0.26559914788901806,0.795862354774028
1684252822496423000,9.6434228515625,4.199018500764668,-1.0113111319631338,0.9750083770908414
1684252822506448100,9.6534482421875,3.610605156597495,-1.2317717459648847,2.0381500879257914
1684252822516474000,9.66347412109375,2.279833230437338,-0.5964584111958742,3.380752152611315
1684252822526500000,9.6735,1.046323554763943,0.36065175950229167,4.7108019019767635
1684252822536526000,9.683526123046875,-0.25969956845641134,1.4534545952379703,5.475848408856987
1684252822546552000,9.693552001953124,-1.8884218832731245,2.64446646079123,5.269146855616569
1684252822556577000,9.703576904296876,-3.5007249782085417,3.751213066205382,4.179641307860613
1684252822566603000,9.71360302734375,-4.441197317838669,4.644724917218089,3.1730925679937
1684252822576628700,9.723628662109375,-3.3189877703547475,4.87525742790103,2.429268151231855
1684252822586654700,9.73365478515625,-1.9991215613514184,4.61818470081687,0.7530844125382602
1684252822596680700,9.7436806640625,-1.524552915289998,4.020328697782754,-0.7823032004989683
1684252822606705700,9.75370556640625,-1.764070111939311,3.423507298493385,-2.048873434253037
1684252822616731600,9.763731689453126,-2.1822645443499087,3.1136317865043877,-3.2806191689938307
1684252822626758000,9.7737578125,-2.419227380341291,2.6550679343044754,-4.368835261461139
1684252822636783900,9.783783935546875,-2.6051304757028815,2.349346034863591,-5.020748433375358
1684252822646809900,9.793809814453125,-2.85597746013999,2.4279046077936886,-5.718951647299527
1684252822656834800,9.803834716796874,-3.050018269249797,2.9614503434807062,-5.751012088426947
1684252822666860800,9.81386083984375,-2.79775148114264,3.612280980855226,-5.575228820541501
1684252822676886800,9.82388671875,4.352595489799976,5.319919011476635,-6.7313014746606346
1684252822686912800,9.833912841796876,11.490391022205353,7.164176174330711,-6.854092572548985
1684252822696938800,9.843938720703125,6.0594321409106255,5.439716772767901,-5.85863718136549
1684252822706963700,9.853963623046875,2.1582665597774087,3.6768718187093734,-5.780666052934527
1684252822716989700,9.86398974609375,0.41659576504230494,2.455936524057388,-5.6251867374092335
1684252822727015700,9.874015625,0.8906265048347413,2.0035183350056407,-4.986961899107694
1684252822737041700,9.884041748046876,2.327367135028541,2.223594333603978,-3.7371430397987364
1684252822747067600,9.894067626953126,2.580052733069658,2.593470433047414,-2.332322419348359
1684252822757092600,9.904092529296875,0.7487243176326155,2.8073013997763394,-1.179716856817901
1684252822767118600,9.91411865234375,-1.7190706942617893,2.838919942355156,-0.34277503428906203
1684252822777144600,9.92414453125,-3.5503365658566355,2.5258307290166613,0.000723857295140624
1684252822787170600,9.934170654296874,-4.550873790349066,2.287189146158099,0.34867921683154995
1684252822797196500,9.944196533203124,-4.470165638169646,2.3229683155477048,0.9381165702842176
1684252822807221800,9.9542216796875,-4.4752156150355935,2.3279273992598055,1.4232599479824304
1684252822817247700,9.964247802734375,-4.302542880386114,2.446827919450402,1.943434745442867
1684252822827273700,9.974273681640625,-4.158547081905603,2.0619997500687837,1.56480996074602
1684252822837299700,9.9842998046875,-4.884790395399928,1.218326573458314,0.5788245548278093
1684252822847325700,9.99432568359375,-5.363251957246661,0.08915887739956378,-0.45087943517714735
1684252822857351000,10.004350830078126,-5.52673980718255,-1.4222709369450808,-1.2574522767968475
1684252822867377000,10.014376953125,-5.6008361400067805,-2.8824101245135068,-1.8180680979780852
1684252822877403000,10.02440283203125,-5.727337782850861,-4.142262886580824,-2.0877150599531826
1684252822887428900,10.034428955078125,-5.7814002124279735,-5.266209633120894,-2.0217282376959917
1684252822897454800,10.044454833984375,-5.744708019846677,-6.256726983380317,-2.0146008700340987
1684252822907479800,10.054479736328124,-5.729084918779135,-6.97122432950139,-2.0458559861280023
1684252822917505800,10.064505859375,-5.6892158497273915,-7.506244229394197,-2.0579152572341264
1684252822927531800,10.07453173828125,-5.67739564807415,-7.9727675161659715,-2.1588151335708794
1684252822937557800,10.084557861328125,-5.857544125431776,-8.193618006268142,-2.374185877087712
1684252822947583700,10.094583740234375,-5.949915535137057,-8.29306739153564,-2.483751582700014
1684252822957608700,10.104608642578125,-5.781098599132895,-8.361374619564414,-2.532196756917238
1684252822967634700,10.114634765625,-5.3817000526070595,-8.302223926937579,-2.634770411685109
1684252822977660700,10.12466064453125,-4.854196519693732,-8.0838108931154,-2.793115345774591
1684252822987686700,10.134686767578126,-4.232088703456521,-7.770891775646805,-2.952241201108694
1684252822997713000,10.144712890625,-3.4002681694641708,-7.322917706522345,-3.0613240916401145
1684252823007737600,10.154737548828125,-2.148824047040939,-6.317795492327213,-3.176017807790637
1684252823017763800,10.164763916015625,0.5926651563927531,-4.134169596496224,-2.5910779849529266
1684252823027789800,10.174789794921875,8.13922181469202,-0.04729834226965904,0.033300613914243875
1684252823037815800,10.18481591796875,17.790706971943376,5.576622320726513,4.2897979651033875
1684252823047841800,10.194841796875,20.33068839138746,11.466362496364116,6.217212134593725
1684252823057866800,10.20486669921875,11.709691944777965,16.30378849852085,4.067762356869876
1684252823067892700,10.214892822265625,2.88689866810441,19.01446083114743,2.1503708380915225
1684252823077918700,10.224918701171875,1.1612626239776611,19.892385821449757,0.9741678346134721
1684252823087944700,10.23494482421875,-1.1830090302310883,20.461156015253067,-1.2945000048175452
1684252823097970700,10.244970703125,-3.6818507761657235,20.495217274808883,-4.746128359162808
1684252823107995600,10.25499560546875,-1.1314284805975854,15.487174009227752,-6.830245833015441
1684252823118021600,10.265021728515626,5.485209526920318,7.359472536459565,-7.094535067349672
1684252823128047600,10.275047607421875,7.036738711941242,0.808168732509017,-4.175889554111659
1684252823138073600,10.285073486328125,0.8478861181303858,-3.5289351736485957,-0.15615516896024345
1684252823148099600,10.295099609375,-3.8206127656459805,-5.796379754894971,1.5666783849664032
1684252823158124800,10.305124755859374,-4.094015865284204,-6.914581235781312,1.8168935012407599
1684252823168150800,10.31515087890625,-3.8045430898547172,-7.5422121993541715,1.8126406661018728
1684252823178176800,10.3251767578125,-3.6723841519013045,-7.26662240332663,1.8122839616186917
1684252823188202800,10.33520263671875,-3.5332962914675474,-6.5129410478085275,1.619601873641461
1684252823198228700,10.345228759765625,-3.8485131644845008,-5.5145221306443215,1.6579880106590688
1684252823208254000,10.35525390625,-4.030375460022688,-3.938467576175928,2.0489578976660967
1684252823218280000,10.365280029296875,-4.030809175264835,-2.142839711934328,2.5856015993684527
1684252823228306000,10.375305908203124,-3.8821523992359634,-0.3405512207597494,3.097282709249854
1684252823238332000,10.385331787109376,-3.470723807698488,1.6023136158406734,4.089053274440765
1684252823248358000,10.39535791015625,-2.9212919360935685,2.932951394227147,5.493644177788496
1684252823258382800,10.4053828125,-2.4828271613314747,3.3185721752911803,6.578829524257778
1684252823268408800,10.415408935546875,-1.7101088046491144,1.8175848445057867,7.3155159058332435
1684252823278434800,10.425434814453125,-0.9314823929667472,-1.4754548301219939,8.539207805716991
1684252823288460800,10.435460693359374,-0.18394436250925064,-2.593823484268784,7.691464018666744
1684252823298486800,10.44548681640625,0.6213643043935299,-3.301189663335681,6.118222183531523
1684252823308511700,10.45551171875,1.5722294432222843,-2.2115601969391108,4.305051648336649
1684252823318537700,10.465537841796875,2.5453636970043183,0.888804111713171,2.26197228731513
1684252823328563700,10.475563720703125,2.908881367331743,1.8920231226354836,1.4121221756353974
1684252823338589700,10.485589599609375,3.4714334172725674,2.730332726386189,0.9461601760081946
1684252823348615700,10.49561572265625,3.0708523829638956,0.6251455764979124,1.21110202903226
1684252823358640600,10.505640625,2.0425264033138752,-3.475479477792978,0.7855773998640477
1684252823368666600,10.51566650390625,0.11378306757900863,-7.46263363572657,-0.32175591939687725
1684252823378692600,10.525692626953125,-2.312976498365402,-6.786791306692361,-1.9736459054417907
1684252823388718800,10.53571875,-2.607479669177532,-1.4375444939225912,-4.8518011489897965
1684252823398744800,10.545744873046875,-2.706060454916954,2.0513748956799507,-4.673449491921067
1684252823408769800,10.555769775390624,-3.1677216886103152,3.8258576805621383,-3.5149195077776905
1684252823418795800,10.565795654296876,-3.7660184211492536,3.1320991710871455,-1.9659619268104433
1684252823428821800,10.57582177734375,-5.827512559783458,2.2884768478810784,-0.5213682450287044
1684252823438847700,10.58584765625,-5.654812060344219,2.8345255067884922,0.4986697987474501
1684252823448873700,10.595873779296875,-4.476883548247814,2.9641204394727945,0.6742809249363839
1684252823458898700,10.605898681640625,-3.012418898695707,2.840942972615361,0.20037293474078177
1684252823468924700,10.615924560546874,-1.398385034444928,2.678866158521175,0.12361381244808435
1684252823478950700,10.62595068359375,0.6199136671938001,2.949055556809902,0.7828380380280315
1684252823488976600,10.6359765625,3.114453916542232,2.907370962768793,1.3279223819479347
1684252823499002600,10.646002685546875,5.65781416476965,1.9758780484080314,1.011426575036347
1684252823509027800,10.65602783203125,6.8753270837575196,0.6885673705726861,0.08838643172234296
1684252823519053800,10.6660537109375,6.3836208404123775,-0.23662615138292312,-1.3551035266011953
1684252823529079600,10.67607958984375,3.7730496349602936,-0.6555564968526363,-2.699879428194463
1684252823539105500,10.68610546875,0.19755904636383056,-1.307447456935048,-2.8529364850088954
1684252823549131500,10.696131591796876,-2.373949145722389,-1.2585592151254414,-2.18017312502861
1684252823559156700,10.70615673828125,-3.9685418119221922,-1.1440391019761562,-0.9105430653125047
1684252823569182700,10.7161826171875,-4.8335269488915795,-1.1758271559029816,0.36137627438455816
1684252823579209200,10.726209228515625,-4.29681485812813,-0.9105798901915549,1.616379112202674
1684252823589235000,10.73623486328125,-2.4924881391242146,-1.028162898042798,2.7099896110594273
1684252823599260200,10.74626025390625,-0.6786652775004506,-1.4437491937816143,3.31663390070498
1684252823609286100,10.7562861328125,0.7736620672732591,-1.7430220632135867,3.2663392992287874
1684252823619312000,10.76631201171875,1.6033526034995913,-0.95165658146739,2.816832029187679
1684252823629338400,10.77633837890625,2.4588334145426747,0.22879940328001974,2.5045605619728564
1684252823639364400,10.7863642578125,2.851544153867662,0.29131811103522776,2.6002353971377015
1684252823649389300,10.796389404296875,3.071726827710867,0.9902724355876446,1.5192328893110154
1684252823659415300,10.806415283203124,3.075784578669071,1.6555764194726943,0.2549900755912065
1684252823669441300,10.816441162109374,2.5096438565865156,1.3443518309623002,-0.37898397339805956
1684252823679467300,10.82646728515625,1.785890606342256,1.6736492517799137,-1.332440443894267
1684252823689493200,10.8364931640625,0.37797143535465,1.6948299869745969,-1.9256059510245918
1684252823699518200,10.846518310546875,-0.906754778945446,1.0824030222743748,-1.7497152772419153
1684252823709544200,10.856544189453125,-1.584523692128062,0.8057417976230382,-1.1858381161771714
1684252823719570200,10.866570068359374,-2.0902479394316673,0.5059884511977434,-0.1730050353437662
1684252823729596200,10.87659619140625,-1.902598584924638,0.02835048069357872,0.8161854502260685
1684252823739622100,10.8866220703125,-1.117511452795565,-0.2941442743718624,1.5142435565911232
1684252823749647000,10.896647216796875,-0.6472896037667989,-0.8306196337699889,2.009198718729615
1684252823759673000,10.906673095703125,-0.5990683014333248,-1.6313865655899047,1.9311818514607846
1684252823769699000,10.916698974609375,-0.4402072345152497,-1.657464425176382,0.9591906302340328
1684252823779725000,10.92672509765625,-0.7021303242400289,-2.0160703580647708,0.22446517346799372
1684252823789751000,10.9367509765625,-1.7181389663696287,-2.511579500824213,0.006578939998894929
1684252823799776000,10.94677587890625,-2.679545372956991,-1.9694383707493544,-0.33460005727037784
1684252823809802000,10.956802001953125,-3.3046661072745915,-1.3301678227871656,-0.532097290444374
1684252823819828200,10.966828125,-3.7016292433470483,-1.2829074744403361,-0.044875352906435725
1684252823829854200,10.976854248046875,-3.468344511346519,-0.6192834064662456,0.2605835116840899
1684252823839880200,10.986880126953125,-2.93640562633425,0.11284545793533325,0.0836705091163516
1684252823849905200,10.9969052734375,-2.3674603682249784,0.18059271399378776,0.03595701017454266
1684252823859931100,11.00693115234375,-1.2761343270435928,0.11712883434295654,-0.3075108286842704
1684252823869957000,11.01695703125,-0.43236850371360774,0.006404021823406219,-0.8626293676234781
1684252823879983000,11.026983154296875,-0.5475935502618551,0.08169102573692798,-1.101079081171751
1684252823890009000,11.037009033203125,-0.763662066784501,0.7081359943956136,-0.9709951959267258
1684252823900034300,11.047034423828125,-1.1856804413974285,0.7451905905485153,-0.43197190561145543
1684252823910060300,11.057060302734374,-1.604440106475353,0.5658996068030595,0.073985712056607
1684252823920086300,11.067086181640626,-1.6764306991919875,0.611224018651247,0.13677271535918115
1684252823930112000,11.077112060546876,-1.970218122950196,0.5726935047268867,0.0630851094663143
1684252823940138000,11.087137939453125,-1.9888354373976587,0.8368331014573573,-0.37750074910297987
1684252823950163200,11.0971630859375,-2.089821238452196,1.108038983312249,-0.6325405090548097
1684252823960189200,11.107189208984375,-2.5850088941723106,0.9383855964839458,-0.588319820664823
1684252823970215200,11.117215087890624,-2.4644828186064958,0.7011661553829908,-0.751952778159827
1684252823980241200,11.1272412109375,-1.9663754760473966,0.3549035712391138,-0.6562829114310443
1684252823990267400,11.137267333984376,-1.4071721520125866,-0.15193360574245451,0.23213863070532678
1684252824000292000,11.1472919921875,-0.44540451089739796,-0.14656068053245544,0.8909045911237597
1684252824010318300,11.157318359375,0.613944968047738,-0.18249767083227633,1.2562599982723592
1684252824020344300,11.16734423828125,1.7688029856801033,-0.6382166549950837,1.4622472657635808
1684252824030370300,11.177370361328125,3.042987055438757,-1.0427069717019797,1.083007417908311
1684252824040396300,11.187396240234374,3.731381407532096,-1.4838409656733274,0.3747878734150901
1684252824050421200,11.197421142578126,4.190957651644945,-1.5641922672390938,-0.08834317710250615
1684252824060447200,11.207447265625,4.6027065611779685,-1.1987386604130268,0.12196604524105786
1684252824070473200,11.21747314453125,3.913567528197169,-0.7496867329239845,0.4547574091216549
1684252824080499200,11.227499267578125,1.8297259486764668,-0.38439679222702977,-0.5128469387903809
1684252824090525200,11.237525146484375,-0.009127893829345703,0.22071838815510272,-1.388461606323719
1684252824100550100,11.247550048828124,-1.5018834028422832,0.6989695221215486,-1.4689172450467942
1684252824110576000,11.257576171875,-2.7616286128818985,0.7836439475834369,-1.1856561837390065
1684252824120602000,11.26760205078125,-3.0970015542209146,1.1380477526068686,-0.455848455761373
1684252824130628000,11.277628173828125,-2.7995190753370522,1.107692361831665,-0.022239012075960636
1684252824140654000,11.287654052734375,-1.9838602793335913,0.7699217117011546,0.14382336452305317
1684252824150679000,11.297678955078124,-1.1102712724089623,0.49941608707010743,0.41532092280089855
1684252824160705000,11.307705078125,-0.7473387084931135,0.24913901147544382,0.9753446233078836
1684252824170731000,11.31773095703125,-0.5169961674243212,0.6304512816905975,0.8956921176612377
1684252824180757000,11.327757080078126,-0.9440899456053972,0.38042145885527134,0.4350976364165544
1684252824190783200,11.337783203125,-1.3054694348603486,-0.36346389431357384,0.5074404035717248
1684252824200808000,11.347807861328125,-1.1164847400963305,-0.45586336106956005,0.35995091775655746
1684252824210834200,11.357834228515625,-1.1103805780023335,-0.5197451738715172,-0.17410276745259762
1684252824220860200,11.367860107421874,-1.4737503642916678,-1.0161720159977674,-0.7575429993823171
1684252824230886100,11.37788623046875,-1.471905613207817,-1.1322159777134657,-1.011976317873597
1684252824240911400,11.387911376953125,-1.0107897384375333,-1.2239017432421444,-0.6323980318441986
1684252824250937300,11.397937255859375,-0.17672960882484912,-1.3184107494980095,0.10815086124516092
1684252824260963300,11.40796337890625,0.6213444306492805,-1.0310486826121807,0.8462541330143809
1684252824270989000,11.417989013671875,0.7346598441839217,-0.8214578376710414,2.3238187948971984
1684252824281015000,11.42801513671875,1.1288064615309237,0.08649228853881359,3.6082480720773336
1684252824291040300,11.438040283203126,0.9970984822154044,0.5283154338181019,2.7307152959629892
1684252824301066200,11.448066162109376,-0.612024229118228,-0.29962825874090193,1.0960764505788683
1684252824311092200,11.45809228515625,-2.387047696748376,-0.48858781906366344,0.03234598007053137
1684252824321118200,11.4681181640625,-3.5083570805221793,0.33549685997962947,-0.39822285380996764
1684252824331144200,11.478144287109375,-3.598314999344945,0.9566583352774382,0.2919239679738879
1684252824341169200,11.488169189453124,-3.031443917161226,1.2013871290951967,1.1479217886283992
1684252824351195100,11.498195068359376,-1.053372158101201,1.278086922416091,2.013642838656902
1684252824361221000,11.50822119140625,1.8680629858553408,1.1053250481784342,1.7871759699776768
1684252824371247000,11.5182470703125,4.126028960138559,0.7671095768898725,0.5136068172469734
1684252824381273300,11.5282734375,4.325944798761606,0.0691290658056736,-0.8854746750295162
1684252824391298000,11.538298095703125,3.8237797052443026,0.22586744148135185,-2.293510896525532
1684252824401324300,11.54832421875,4.089111726629734,0.15175649560987947,-3.528695519673824
1684252824411350300,11.558350341796874,4.487493789589405,-0.41991292676627634,-4.1396147101595995
1684252824421376300,11.568376220703126,4.966524675756693,-1.1578297269195317,-3.957425082363188
1684252824431402200,11.57840234375,4.647935695958137,-1.129343052625656,-3.1801047848433255
1684252824441427200,11.58842724609375,3.5767525713562964,-0.5775228245794772,-2.2828198450326918
1684252824451453200,11.598453125,2.5317782392442223,0.2386053425014019,-1.6141664045892654
1684252824461479200,11.608479248046875,1.4406336921095848,0.9013216479808092,-1.1869137825846672
1684252824471505200,11.618505126953124,0.41923721946179865,1.017612862455845,-0.7639483363799751
1684252824481531100,11.62853125,-0.29939211189746856,1.138218432998657,-0.5699614494144917
1684252824491556000,11.63855615234375,-0.5306178655415773,1.1750801369279622,-0.3182834209807217
1684252824501582000,11.64858203125,-0.4272779025763273,0.8617992004096507,0.15225202404186128
1684252824511608000,11.658608154296875,-0.391515099799633,0.6804466079592705,0.5089550459183753
1684252824521634000,11.668634033203125,-0.515504467561841,0.8131763315379619,0.8771370547950267
1684252824531660000,11.678659912109374,-0.6255617560833692,0.6948357833176851,0.8808028838261961
1684252824541685000,11.68868505859375,-0.795777452969551,0.5561000973224639,0.6641986529916525
1684252824551711000,11.6987109375,-0.7046142500102519,0.8894687131017446,0.8657952843084931
1684252824561737000,11.708737060546875,-0.45234103216230864,0.9619745618641375,0.8371776771113276
1684252824571763200,11.71876318359375,-0.23398469696342944,0.6230085644692183,0.19818828417807816
1684252824581789000,11.728788818359375,0.18165771287679672,0.6176777248352766,-0.6492299241796136
1684252824591814100,11.738814208984374,1.2679942752078175,0.46764381523430343,-1.5280951179414988
1684252824601840000,11.748840087890626,2.7163962632313368,0.5458516750305891,-3.2323268472507594
1684252824611866000,11.7588662109375,3.996023108565807,1.8518050940155981,-4.551192354778945
1684252824621892000,11.76889208984375,4.346320062792301,0.6463175438642501,-2.41147194390893
1684252824631917300,11.778917236328125,2.487375033894181,-1.897492493957281,1.3084519578024745
1684252824641943300,11.788943359375,0.6990086850881576,-1.345586925715208,5.125031814670562
1684252824651969300,11.79896923828125,-1.2090271224543452,0.9197112911522388,7.116537640321254
1684252824661995300,11.808995361328124,-2.7514097089454532,2.696432794871926,7.011274015817046
1684252824672021200,11.819021240234376,-3.7700878625452514,2.855420995301008,6.010804595863819
1684252824682046200,11.829046142578125,-4.172941517961025,2.5531343310058117,4.89526795027256
1684252824692072200,11.839072265625,-4.108314147488772,3.2335505438268184,3.888399476931989
1684252824702098200,11.84909814453125,-3.525125844493508,4.010158016902208,2.863500256860256
1684252824712124200,11.859124267578125,-2.5753043694987894,4.3734377868205305,1.8359946536824105
1684252824722150100,11.869150146484374,-1.25758277130872,4.4955642833203076,1.2112848382532595
1684252824732175000,11.879175048828126,0.3032151773169637,5.225042925474047,0.5894473633900285
1684252824742201000,11.889201171875,1.2739037915125488,6.135584237220883,-1.1792571303516626
1684252824752227000,11.89922705078125,1.1536755298495291,6.716523007723689,-4.010737862616777
1684252824762253000,11.909253173828125,0.9276543591111898,7.477378784915804,-3.553509058412909
1684252824772279000,11.919279052734375,1.2465095886304973,7.350517076587677,-1.1593777600791304
1684252824782304000,11.929303955078124,1.9172090018182992,7.210660277608037,1.6727826980784535
1684252824792330000,11.939330078125,3.3661841135546564,7.54715608549714,5.500341629600524
1684252824802356000,11.94935595703125,4.8509085840642445,5.894281910720467,5.595398917388915
1684252824812382200,11.95938232421875,-0.09902063846141099,2.4853882439911366,0.3686338442973792
1684252824822408200,11.969408203125,-6.732872669500112,-1.8392478102594614,-2.6554882055431603
1684252824832433200,11.97943310546875,-7.949471980774402,-3.5671699194967745,-2.8194235069856046
1684252824842459100,11.989459228515624,-8.007406283348798,-3.9166415288150307,-1.9438985635623334
1684252824852485000,11.999485107421876,-7.370734519708156,-4.102749791359901,-0.8128536754548549
1684252824862511000,12.009510986328126,-5.110826763707399,-2.804886739850044,2.4548019670695065
1684252824872537000,12.019537109375,-4.649322181880474,-4.490676511278748,3.343910614687204
1684252824882562000,12.02956201171875,-3.2348961132168768,-3.11439224948287,2.134065161587298
1684252824892588000,12.039588134765625,-2.535638421803713,1.097643846026063,-4.876725746887922
1684252824902614000,12.049614013671874,-5.06104887958169,4.774156183773279,-16.95647148576379
1684252824912640000,12.059639892578126,-3.1774200758039948,0.3010077304005623,-12.345338457024097
1684252824922666000,12.069666015625,6.674428663837909,-5.22334021320939,-7.451466929545998
1684252824932691200,12.079691162109375,14.44652397005558,-8.716747561880945,-7.426816472414136
1684252824942717200,12.08971728515625,18.47008975006342,-7.897020493525266,-3.079804335704446
1684252824952743200,12.0997431640625,11.758319489824771,-5.264807949629426,-1.9075037464924156
1684252824962769200,12.10976904296875,-2.3575641203716398,-5.874245084863901,-3.352370399996638
1684252824972795100,12.119795166015624,-13.482214827764034,-7.2563079300612205,-2.004263892675936
1684252824982820000,12.129820068359376,-14.751249259674548,-4.58233714236617,3.5214795969456434
1684252824992846000,12.13984619140625,-12.05095920485258,-1.045983216893673,7.8223747101247305
1684252825002872300,12.149872314453125,-11.786381216704845,-2.1081962685763833,7.355274500247836
1684252825012898300,12.159898193359375,-11.512067431962489,-3.4155893649756908,4.179104424504936
1684252825022924300,12.16992431640625,-7.926295687848329,-3.2837498682349917,0.1956522994270548
1684252825032949200,12.17994921875,-2.8821389063566922,-2.9447815327525135,-3.2913872312456367
1684252825042975200,12.189975341796876,0.4270855948746204,-2.798724710088968,-3.6971284247964618
1684252825053001200,12.200001220703125,1.8774521609693764,-2.986952449005842,-0.87850856234394
1684252825063027200,12.210027099609375,2.277625783520937,-2.3993571432232854,1.9738408434920012
1684252825073053200,12.22005322265625,1.4084239056393504,-1.9734137041211126,4.0687192192032935
1684252825083078100,12.230078125,0.002913257098197937,-0.9671212771028279,2.759035673779249
1684252825093104000,12.240104248046874,-0.6911848595947027,1.1428992842912673,-0.9174988027345389
1684252825103130000,12.250130126953126,-0.2654144389718771,2.1094816322118044,-2.919034220294654
1684252825113156000,12.260156005859375,1.0320487995654344,1.2583943799525499,-1.4187275652498006
1684252825123181000,12.27018115234375,1.2073235334068535,-1.396398829063773,-0.0385199194651097
1684252825133207000,12.28020703125,0.13042144663631916,-4.325961165374517,0.49161980717070397
1684252825143233000,12.29023291015625,0.017430442750453946,-6.057742872649431,-0.7265697689697146
1684252825153259000,12.300259033203124,0.37427638022899623,-5.619653068679571,0.5665376124456525
1684252825163285000,12.310284912109376,-0.28583763379752636,-6.847953339141607,0.7735463319391012
1684252825173310000,12.32031005859375,-0.0385860435038805,-7.817887335577606,1.2788564454838633
1684252825183336000,12.3303359375,2.0787363653361797,-1.9605571451574564,0.4407973093628883
1684252825193362200,12.340362060546875,4.04939346422553,2.1683114223212003,0.7819611090630293
1684252825203388200,12.35038818359375,3.862226048016548,6.076085169547796,2.9089661230057478
1684252825213414100,12.3604140625,1.1644663884550333,7.926951521408557,2.6400176646888256
1684252825223439000,12.370439208984376,-1.5103835201621054,5.999707447788119,2.3658032486677167
1684252825233465000,12.380465087890625,0.17930267418324947,8.007634246885775,1.2297984000653028
1684252825243491000,12.390490966796875,1.8204840730786322,6.602210984367132,0.11754501392841338
1684252825253517000,12.40051708984375,1.392471134226024,3.630549627995491,3.4542677629381418
1684252825263543000,12.41054296875,3.1689518149271607,1.6569211120799183,6.446294446468353
1684252825273568300,12.420568359375,5.999842472344636,0.9707944126576185,3.305314049789309
1684252825283594200,12.43059423828125,9.432986198711395,1.8250512348636985,1.3023837438046932
1684252825293620200,12.4406201171875,9.446465273487567,2.6955554275155067,0.8656167128711938
1684252825303646200,12.450646240234375,1.59639854657799,1.5210904998764394,-0.16429682823121547
1684252825313672200,12.460672119140625,-2.2813012571632862,2.0490958448320624,-3.430244497793913
1684252825323697200,12.470697265625,-2.199262587032467,-0.6242737620994449,-2.9151024338036775
1684252825333723100,12.48072314453125,0.2316167987883091,-2.139275881972909,0.48658992324471473
1684252825343749000,12.4907490234375,1.8755727769635617,0.7662623124107718,-0.022227613899111747
1684252825353775000,12.500775146484376,2.010727389601618,3.0597093499198555,-0.3677133684515953
1684252825363801000,12.510801025390625,1.1844622977793215,3.4063813916474577,0.20991993076503276
1684252825373826000,12.520825927734375,-0.3842097452223301,3.247745657917857,0.5888777468085289
1684252825383852000,12.53085205078125,-1.3465443725705146,3.1545521181747316,0.372810983851552
1684252825393878300,12.540878173828125,-1.2226935364961624,4.004138025960326,0.6723275989115238
1684252825403904300,12.550904296875,-0.02751329921707511,6.012649931469559,1.2353361604481934
1684252825413930200,12.56093017578125,0.7065957792162895,8.61929198077917,1.191432721313834
1684252825423955200,12.570955078125,1.185707329404354,8.460095106035471,2.07476337005198
1684252825433981200,12.580981201171875,1.6826292615711689,6.763371852660179,4.235693449950218
1684252825444007200,12.591007080078125,2.3138410062402484,6.8679732138633725,6.848948779919743
1684252825454033200,12.601033203125,1.9578490552425383,8.260265192130207,8.073688143029809
1684252825464059100,12.61105908203125,0.6407781029809266,8.671414382204413,8.75351749587357
1684252825474084000,12.621083984375,0.7127383736245334,7.485175722402333,8.905451101616025
1684252825484110000,12.631110107421875,1.0899608903080225,5.024291805070638,9.199054693239926
1684252825494136000,12.641135986328125,1.3200779520578683,3.071593556720018,9.811091197317838
1684252825504162000,12.651162109375,1.9960902308315038,0.9562035772472619,9.181673350328207
1684252825514188000,12.66118798828125,2.3121827176392076,-0.531039890345931,9.291077727898955
1684252825524213000,12.671212890625,2.477664371740818,-1.2940747651427984,9.587598083752393
1684252825534239000,12.681239013671876,2.748558118906617,-2.017084503543377,9.061134999802707
1684252825544265000,12.691264892578126,2.5774784986674786,-3.327360461902618,7.558292396539449
1684252825554291000,12.701291015625,1.7389046910226345,-3.9244279449075457,5.0483472189188
