time,seconds_elapsed,z,y,x
1684252669279839500,0.022839599609375,1.7952613690167665,1.0450181712538003,2.804451855564117
1684252669289865500,0.032865478515625,2.9944337446719405,0.7009332234099507,1.4265142736032603
1684252669299891500,0.042891357421875,3.1677234421759843,0.3927510713353753,-0.02703749839887023
1684252669309916400,0.05291650390625,2.4321564200192687,0.4365644940987229,-1.1191994058825074
1684252669319942400,0.0629423828125,1.435994926393032,0.6656383304059506,-1.6306924458459018
1684252669329968600,0.07296875,1.3472697642356157,0.23846476498693225,-1.5729244397491216
1684252669339994600,0.08299462890625,1.2290700857907533,0.9192562408611178,-1.0772247428536414
1684252669350020600,0.0930205078125,0.38146950660347934,1.619158659918606,0.07979922064095735
1684252669360046600,0.103046630859375,-0.4063461737066507,0.7125660857975482,0.9884314838960766
1684252669370072600,0.113072509765625,-1.1313859566301108,-0.4737295648887753,1.151495190135762
1684252669380098600,0.1230986328125,-1.960429134863615,-2.0437658819809554,-0.6536674682356417
1684252669390124500,0.13312451171875,-2.488089319643378,-3.5845275892719624,-3.918338395860791
1684252669400149500,0.1431494140625,-0.18058569973111152,-1.429491535848379,-2.4552687077984214
1684252669410175500,0.153175537109375,1.7618395764082668,0.8795786027282476,-0.5775101112283766
1684252669420201500,0.163201416015625,1.7056664382874964,1.3642901648804544,-0.5035014566875994
1684252669430227700,0.173227783203125,1.4016308844983576,0.9833905671194195,-0.22946225110292434
1684252669440253700,0.183253662109375,1.5780390062838792,1.191925181005895,-0.3184421186737716
1684252669450279700,0.19327978515625,1.4870342087566852,2.1740549344092606,-0.13428338276147841
1684252669460305700,0.2033056640625,1.1077052213132381,3.1936130857139826,1.1752695220202207
1684252669470331600,0.21333154296875,2.681305952888727,4.56058328345865,2.1480314353585244
1684252669480357600,0.223357666015625,5.228422046518325,5.572647571876645,2.60691472877115
1684252669490382600,0.233382568359375,5.015014273637533,5.392537672963738,2.050589005999267
1684252669500408600,0.24340869140625,3.9703520762145517,4.892648123162984,0.9748775903180241
1684252669510434600,0.2534345703125,3.8279274725735184,5.264927776616812,0.5443219812452793
1684252669520460500,0.26346044921875,4.448059604823589,5.438467649489641,0.15586159284114837
1684252669530486500,0.273486572265625,5.383388151824474,5.859012444418668,-0.34795185240507126
1684252669540512500,0.283512451171875,5.079780468058586,7.159353868740797,-1.7611498405784367
1684252669550538800,0.293538818359375,4.697637007716298,7.72921945656538,-1.6261118400573729
1684252669560564700,0.303564697265625,5.735131797727942,8.030674930733442,0.8015379161924123
1684252669570590700,0.3135908203125,5.790193175214529,7.3795602157205336,-0.5800602341026068
1684252669580615700,0.32361572265625,5.517199825420976,6.997882619324326,-2.3000533039063216
1684252669590641700,0.3336416015625,5.229805609831214,8.290987078130245,-4.076842027643322
1684252669600667600,0.343667724609375,4.617911729094386,9.599942017018794,-5.479374244895577
1684252669610693600,0.353693603515625,3.4051679242044686,10.846458327651023,-6.04133242059648
1684252669620719600,0.3637197265625,1.8945359822392462,11.572871737015246,-5.5780941468447445
1684252669630745600,0.37374560546875,0.6913835970371961,11.17735500035882,-4.767680265757441
1684252669640771600,0.383771484375,-0.38706396560966966,11.601104144287108,-3.6874849826604126
1684252669650797600,0.393797607421875,-1.1634066502690315,11.286638381898403,-2.1130676740050314
1684252669660823600,0.403823486328125,-1.1340600712101905,9.91232103626132,-0.45614451609849926
1684252669670848500,0.4138486328125,-0.9047130439847707,8.55248814305067,1.3768231909781694
1684252669680874500,0.42387451171875,-0.764346541917324,7.120445753675699,3.0764030028283593
1684252669690900500,0.433900390625,-0.7362098501048981,5.890456214952469,5.938212822383642
1684252669700926700,0.4439267578125,-0.5498772772848606,4.499595438532531,9.312288273710012
1684252669710952700,0.45395263671875,0.6148433781921864,2.920019139678776,12.486217584788799
1684252669720978700,0.463978759765625,1.272957742834091,2.069867414703965,15.530684649652242
1684252669731004700,0.474004638671875,1.1065971139408648,1.6965516962006688,16.948740599250794
1684252669741030700,0.48403076171875,0.9798656078636646,1.8682666917338966,19.920496648168562
1684252669751056600,0.494056640625,1.921185504233837,-0.9539531679719686,22.01906116504669
1684252669761081600,0.50408154296875,2.709942849308252,-4.724987955978513,22.67231347661018
1684252669771107600,0.514107666015625,4.026147028672695,-7.021060081294179,21.85763258572817
1684252669781133600,0.524133544921875,5.61010665717721,-8.411556992837786,20.147431426620482
1684252669791159600,0.53415966796875,7.181912906551361,-8.964219516927002,17.227181108534335
1684252669801185500,0.544185546875,8.196641738003493,-9.07506474095583,14.194125080001353
1684252669811211500,0.55421142578125,8.232132738101482,-9.241773891025781,11.406252603316306
1684252669821237500,0.564237548828125,6.490720448172092,-9.624268064501882,8.95592398226857
1684252669831263700,0.574263671875,4.932533558827639,-9.702286539205907,7.17003366818726
1684252669841289700,0.584289794921875,4.930699329137802,-9.087176034510135,5.885975270146131
1684252669851314700,0.594314697265625,5.376925677812099,-8.367539571934937,5.120141120019555
1684252669861340700,0.604340576171875,5.753169558721781,-7.930504245454072,4.268076547160744
1684252669871366700,0.61436669921875,5.186599505311251,-7.555919237667322,3.6664065387964246
1684252669881392600,0.624392578125,4.949847097200155,-6.594259148579836,2.423629999214411
1684252669891418600,0.634418701171875,4.00066070523858,-5.516487877759337,0.5980553249984979
1684252669901444600,0.644444580078125,2.439354807090759,-4.584838019271195,-1.3609902465522288
1684252669911470600,0.654470703125,3.7515702090799805,-3.4467765303999185,-3.021418197709322
1684252669921496600,0.66449658203125,3.908159531673789,-2.978448532293737,-4.779552489858865
1684252669931522600,0.6745224609375,-0.003005611556768417,-3.1709581863135097,-6.337997737878561
1684252669941547500,0.684547607421875,-1.9467963308304548,-1.793781651853025,-5.055892227470874
1684252669951573500,0.694573486328125,-2.2140274638354778,-0.12125234401375054,-4.707738130491972
1684252669961599500,0.704599609375,-2.4961083754479882,0.30288842958062884,-4.916106155639887
1684252669971625500,0.71462548828125,-2.4095570501983166,1.0759504851341246,-6.212332545858621
1684252669981651700,0.724651611328125,-1.8003297583222388,2.6453254157081245,-7.052611988377571
1684252669991677700,0.734677734375,-2.648499077308178,4.137851792140305,-8.32978764116764
1684252670001703700,0.74470361328125,-4.062311397987604,5.941304943180084,-8.230755020007491
1684252670011729700,0.754729736328125,-5.206736284410953,6.596756226092577,-7.445134803915024
1684252670021755600,0.764755615234375,-5.254398199295998,7.441426597046852,-6.485647967213392
1684252670031780600,0.774780517578125,-4.56156323440671,8.575361653637886,-5.727384544602036
1684252670041806600,0.784806640625,-1.8902549439191818,8.32868874001503,-5.497082335543632
1684252670051832600,0.79483251953125,2.63579390951395,7.865323040491342,-5.04049708994031
1684252670061858600,0.804858642578125,4.826567923533916,6.481148902228474,-1.5212755010545254
1684252670071884500,0.814884521484375,7.210450434249639,5.384941811007261,-0.6745797617524862
1684252670081910500,0.82491064453125,8.030204975134135,4.9950475904077285,0.2469751114398241
1684252670091936500,0.8349365234375,7.928179017376899,6.535743246725201,3.124662299084663
1684252670101962500,0.84496240234375,6.0942591241419315,8.373102466759086,2.686904503548145
1684252670111988700,0.85498876953125,5.76866874114871,3.713578624337911,-2.1603414663553235
1684252670122013700,0.865013671875,4.919888012266159,2.6667244698286057,-3.5583085676491257
1684252670132039700,0.875039794921875,3.4031986699581145,4.921232412612438,-2.0000275702804324
1684252670142065700,0.885065673828125,1.6479951705634592,5.733914823153615,0.6758253778994083
1684252670152091600,0.895091552734375,0.5361879207588732,4.490143427315354,3.238025058892369
1684252670162117600,0.90511767578125,0.2916039422392845,3.5803438738465307,3.3747312848865985
1684252670172143600,0.9151435546875,-2.516965285515785,2.66134511487782,2.41667477324903
1684252670182169600,0.925169677734375,-6.061788933169842,1.1123802273869514,1.265847034046054
1684252670192195600,0.935195556640625,-7.568356694436073,-0.9111918846100568,1.015135658687353
1684252670202221600,0.9452216796875,-8.460237729376553,-2.4604326664328573,1.134374617052078
1684252670212246800,0.955246826171875,-8.514260411465168,-2.187629870775342,1.621124699294567
1684252670222272500,0.9652724609375,-7.842291708993911,-0.7704086184352635,2.599704651261866
1684252670232298500,0.975298583984375,-6.510964779299497,1.1794938617169857,3.501077444908023
1684252670242324500,0.985324462890625,-5.164150357615948,2.1295751566916703,4.029479095704853
1684252670252350500,0.9953505859375,-2.9818232694238422,2.5047604684591294,4.215157734660804
1684252670262376700,1.005376708984375,-1.2597275282524525,2.099911255311966,3.2063655997812748
1684252670272402700,1.015402587890625,-0.3729553607583046,0.6111106214046478,0.8345309619948268
1684252670282428700,1.0254287109375,0.6080383743524551,-0.9431424356222152,0.036540509150922294
1684252670292454700,1.03545458984375,2.2199077540457246,-1.2518383824378252,-0.0218397836253047
1684252670302479600,1.045479736328125,3.8138416640758512,-0.2036100169658661,-0.470432861430943
1684252670312505600,1.055505615234375,4.393434280666709,0.7589011359930038,-1.5491051727443932
1684252670322531600,1.065531494140625,3.880194835427403,0.7873077307879924,-1.97243959839195
1684252670332557600,1.0755576171875,3.6032577164441344,1.1269476819217203,-1.6635905068412422
1684252670342583600,1.08558349609375,2.6710025855392217,0.007970540487766265,-1.0322235716104506
1684252670352609500,1.095609619140625,1.353755619123578,-1.9178519758969543,-0.20540961373373864
1684252670362635500,1.105635498046875,0.7851193538982421,-2.089516702547669,0.9254249926239252
1684252670372661500,1.11566162109375,-0.09684000648669898,-2.4545856939703223,0.4145668895632028
1684252670382687500,1.1256875,-0.6444166056137531,-1.9114140518039464,0.8415227205783128
1684252670392712700,1.135712646484375,-0.6934802039902657,-1.4980945319533348,1.3376108322694897
1684252670402738700,1.14573876953125,-0.51056408855021,-1.8273960444241761,1.1287936020493508
1684252670412764700,1.1557646484375,-0.33623916624691336,-0.8835708872348069,-0.21027795042246578
1684252670422790700,1.165790771484375,-0.18415248883459717,0.5504635527402162,-1.3110213698990643
1684252670432816600,1.175816650390625,0.044732291173934936,1.2334791344046592,-0.9082757049024105
1684252670442842600,1.185842529296875,0.3481540969789028,0.061330374753475185,-0.28271891725510356
1684252670452868600,1.19586865234375,0.33518530981242656,-0.299443549823761,0.5292243653565645
1684252670462894600,1.20589453125,0.2995861731648445,-0.5024591080278158,0.7587415615171194
1684252670472919800,1.215919921875,0.112916769605875,-0.596539075216651,0.6941583224475384
1684252670482945800,1.22594580078125,-0.35807701364345845,-0.08182897290289401,0.2511322311192751
1684252670492971800,1.2359716796875,-1.009822354710102,0.6346650999933481,-0.4515541195683181
1684252670502997800,1.245997802734375,-1.4590122293651102,0.8733101899832486,-0.07371960846632719
1684252670513023700,1.256023681640625,-1.0663501514874398,0.06125672499537468,0.9083622141420841
1684252670523049700,1.2660498046875,-0.35202465480193496,-0.2709633052706718,1.4565069685459135
1684252670533075700,1.27607568359375,0.1058545761346817,-0.2575081958919763,1.5620342124223707
1684252670543101700,1.286101806640625,0.14601824421882628,-0.432649658742547,1.4565588448636233
1684252670553127700,1.296127685546875,-0.002472527593374252,-0.9789853178977965,1.3769088234350084
1684252670563153000,1.30615283203125,-0.23447394178509712,-1.8353145624637603,1.3610042750775813
1684252670573179000,1.316178955078125,-0.9235178438283502,-3.128550538694858,1.4555517136476932
1684252670583204900,1.326204833984375,-1.6213516399182377,-3.7268051856577395,1.2130104930020869
1684252670593230800,1.33623095703125,-1.7055262991644442,-4.303352443203329,0.4875185823969543
1684252670603256600,1.346256591796875,-1.3469453545868395,-4.906470896810293,-0.15644363051280377
1684252670613282600,1.356282470703125,-1.3202351884461938,-6.001297931849956,-0.19821197558091952
1684252670623308800,1.366308837890625,-1.3143734568059444,-6.974502912780642,0.16387054737685247
1684252670633334800,1.376334716796875,-1.3405296423256396,-6.647601447188854,0.21257822672147303
1684252670643360800,1.38636083984375,-1.4049708425760268,-6.856129631334543,0.5943930396312848
1684252670653386000,1.396385986328125,-1.1987643793761729,-4.813727146661281,1.4235416875332594
1684252670663412000,1.406411865234375,-1.00114213158302,-3.0393846470326182,2.3586260505147276
1684252670673438000,1.41643798828125,-1.1215922193031758,-0.5210603481233119,4.108223838856816
1684252670683464000,1.4264638671875,-1.354289287608862,3.8513627086967226,6.521904106464982
1684252670693489700,1.43648974609375,-1.9473802681982517,9.093235188418626,7.707923570558428
1684252670703515600,1.446515625,-2.158326034879684,13.69971776100397,7.167886719286441
1684252670713541600,1.456541748046875,-2.179927625834942,16.706188564950228,5.796051253592967
1684252670723567600,1.466567626953125,-1.9119757773399353,17.181034274387358,3.6717213040784
1684252670733593600,1.476593505859375,-1.796155687507987,15.226305396991966,1.7011010300680993
1684252670743618800,1.486618896484375,-1.3747253419160843,11.346806727135181,0.3849368904531002
1684252670753644800,1.496644775390625,-0.8189362102389335,7.270382048121094,-0.7993129336193203
1684252670763670800,1.5066708984375,-0.3405728480696678,3.590315232762694,-1.8916767934158443
1684252670773697000,1.516697021484375,0.44153022674731907,0.5323620788604021,-2.916512592862546
1684252670783722800,1.52672265625,1.885985596036911,-1.7839146300941704,-4.041998093277216
1684252670793748700,1.536748779296875,3.6176737798094747,-3.400842462220788,-4.877512805612385
1684252670803774700,1.546774658203125,5.467826430442929,-3.9180408742189403,-5.431721682360768
1684252670813800700,1.55680078125,9.39136531755626,-3.908127382969856,-6.8271420217812055
1684252670823826000,1.566825927734375,7.9954738534927365,-3.223053115209937,-7.546488561499118
1684252670833852000,1.576851806640625,4.335886931583285,-2.0899527558773756,-6.847282892534136
1684252670843878000,1.5868779296875,3.0346006276264785,-1.3710977990686892,-6.044328679803013
1684252670853904000,1.59690380859375,2.2148523703522978,-0.634566315793991,-5.261240612536668
1684252670863929900,1.606929931640625,1.6545371395528317,0.10951192959845066,-4.810865327489376
1684252670873955800,1.616955810546875,1.0348515820264816,0.7962690358787775,-4.263945438705385
1684252670883981800,1.62698193359375,0.6709650783866643,1.398127844813466,-3.6113986450627444
1684252670894007800,1.6370078125,0.4689807629264891,1.8620821578800677,-2.885639607954025
1684252670904033800,1.64703369140625,0.5894254438191652,2.0932243248939515,-2.3370053164675832
1684252670914058800,1.657058837890625,0.949210795750469,2.1752491126298903,-1.8562949527807533
1684252670924085000,1.6670849609375,1.2133517807204275,1.8982693235486745,-1.0963665195666252
1684252670934111000,1.677111083984375,1.3675667023330926,1.2848632846832275,-0.46840720082223414
1684252670944137000,1.687136962890625,1.5652767014749347,0.8809878850042819,0.00017886369824409484
1684252670954163000,1.697162841796875,1.5880680867366492,0.669731152677536,0.3404560898222029
1684252670964189000,1.70718896484375,1.5675176122695207,0.5248281762242317,0.539236640805006
1684252670974215000,1.71721484375,1.5383328727088867,0.41193829462528225,0.6751565387271344
1684252670984241000,1.727240966796875,1.5466490117639302,0.28460429261028763,0.7927512370161711
1684252670994266600,1.7372666015625,1.5804950211338697,0.19700667317807674,0.9393563412122428
1684252671004291800,1.747291748046875,1.6413754601627588,0.11047054549753665,1.1381906682088971
1684252671014317800,1.75731787109375,1.7795336385309695,-0.039485038170218464,1.304926852416247
1684252671024343800,1.76734375,1.963492175696045,-0.3080506346493959,1.4785479738317429
1684252671034369800,1.777369873046875,2.1030974841326473,-0.6084779348134994,1.6026184440061448
1684252671044395800,1.787395751953125,2.2115601969391108,-0.848434107401967,1.6825161565855145
1684252671054422000,1.797422119140625,2.246727371910214,-0.9532342060476541,1.5209652660615742
1684252671064448000,1.807447998046875,2.409768647122383,-1.16846334913671,1.2310462081693112
1684252671074474000,1.817473876953125,5.329702738866209,-1.3603010952442884,1.5004574616923927
1684252671084499700,1.827499755859375,12.643887688356637,-0.294562792044878,0.9741755064632743
1684252671094525000,1.83752490234375,10.015957936346531,1.2266823138713836,-0.7126829171102493
1684252671104551000,1.847551025390625,3.9282244145810603,1.8184727332562207,-1.036042837637663
1684252671114577000,1.857576904296875,2.700948226469755,3.808198105230927,-0.82661712013036
1684252671124603000,1.867602783203125,4.522845673477649,6.933422714373469,-0.874069630048424
1684252671134628900,1.87762890625,5.9361482910692684,10.018561396843195,-0.367847735420987
1684252671144654800,1.88765478515625,3.645618602311611,11.803325337243079,1.5905239554561674
1684252671154680800,1.897680908203125,-0.6496893583849072,11.553937903964519,4.056680990885198
1684252671164706800,1.907706787109375,-4.683416759184003,9.453545587137341,6.027932256275415
1684252671174732800,1.91773291015625,-7.663000140726566,6.856987124946713,6.631030251616239
1684252671184757800,1.9277578125,-9.214577256542444,4.785587093847989,6.685749683797359
1684252671194783700,1.93778369140625,-9.960274043047427,3.453424297851324,7.090780683252215
1684252671204810000,1.94781005859375,-9.680995329374074,2.3012597570866347,8.291725913798809
1684252671214836000,1.9578359375,-8.181611342132092,1.2425631890922784,10.593571946340798
1684252671224862000,1.967862060546875,-5.580248110008239,0.45281975558996196,13.606070340013503
1684252671234888000,1.977887939453125,-4.795374620629847,-0.26596856572329997,15.614192953944205
1684252671244914000,1.987913818359375,-6.439511654460429,-1.1437649612098932,16.163850450998545
1684252671254940000,1.99793994140625,-7.81159612647891,-2.1482471239358185,14.671324074566364
1684252671264964900,2.00796484375,-7.8404089639872305,-2.836554966789484,12.534990091264246
1684252671274990800,2.017990966796875,-7.399682966294884,-3.146501790449023,10.04193759625554
1684252671285016800,2.028016845703125,-6.060152856400609,-3.2031536519974466,7.46925568421483
1684252671295042800,2.038042724609375,-4.911335287976264,-2.9282448239713905,4.538646761460602
1684252671305068800,2.04806884765625,-4.802341829293966,-2.0370997020900248,2.2940514331430197
1684252671315094800,2.0580947265625,-6.051089259979128,-0.5561030199319124,0.7711383940145373
1684252671325120800,2.068120849609375,-6.2674079518705605,1.2720616707772017,-0.7174015431299805
1684252671335147000,2.07814697265625,-5.997708382925391,2.630221077817678,-1.4673036723703146
1684252671345173000,2.088173095703125,-5.2944502236992115,2.9869273145645856,-1.2589859161049126
1684252671355198000,2.098197998046875,-4.520077962329983,2.687396670979261,-1.1686410437911747
1684252671365224000,2.108223876953125,-3.105620914006233,2.361709257352352,-1.4683540582060812
1684252671375250000,2.11825,-1.4394517888486384,2.158940951907635,-1.6875220020487904
1684252671385276000,2.12827587890625,-1.06254973629117,2.3885697917491195,-1.9512074252709746
1684252671395302000,2.138302001953125,-1.5198013368487358,2.848149542993307,-2.1375494965717197
1684252671405328000,2.148327880859375,-2.0982406917512417,3.1870383834987877,-2.3174390307322144
1684252671415353900,2.158353759765625,-2.6495827808916568,3.135501673007011,-2.7921985231906175
1684252671425379800,2.1683798828125,-3.149842333048582,2.7318226726830006,-3.5367864716708657
1684252671435404000,2.178404052734375,-3.671624565705657,2.115639570319652,-4.06190749336183
1684252671445430000,2.188429931640625,-4.187569762772322,1.3549018665492534,-4.1377293348044155
1684252671455456000,2.1984560546875,-4.347715316542983,0.5683937617063523,-3.9665567755848166
1684252671465482000,2.20848193359375,-4.5346547692149874,-0.14173252972364425,-3.954963660685718
1684252671475508000,2.218508056640625,-4.830780572792888,-0.8099719825387001,-4.086215712927282
1684252671485534000,2.228533935546875,-5.076346986478566,-1.6422411370813845,-4.429397282190621
1684252671495560000,2.238559814453125,-5.171748557659983,-2.6057711116939783,-4.847585577121377
1684252671505586200,2.248586181640625,-5.352565143537521,-3.517884202802181,-5.263564671570062
1684252671515612200,2.258612060546875,-5.346147093188763,-4.407051302608847,-5.717130277091265
1684252671525637000,2.26863720703125,-5.860952472570538,-5.2087014470040796,-5.63522706990838
1684252671535663000,2.2786630859375,-6.153092421382666,-5.8517164421916,-5.482691406619549
1684252671545689000,2.288689208984375,-5.817858011731505,-6.328289998334646,-5.727392143386602
1684252671555715000,2.298715087890625,-5.255837876710295,-6.677991324755549,-5.750320599031448
1684252671565741000,2.308740966796875,-4.111657320436835,-7.155937922817468,-5.355630376327038
1684252671575767000,2.31876708984375,-2.675604818637669,-7.945491386705637,-4.21841059897691
1684252671585793000,2.32879296875,-0.824722392424941,-8.918435086351632,-3.1478307009652253
1684252671595819000,2.338819091796875,6.221871943098306,-10.075518378818035,-1.192483107149601
1684252671605845000,2.348844970703125,45.66718016047477,-7.88075091124773,11.652899797976016
1684252671615870000,2.358869873046875,40.71962789621353,12.142504685127735,20.068422771835326
1684252671625896000,2.36889599609375,-27.830985695075988,18.074218793141842,5.061630478861928
1684252671635922000,2.378921875,-26.984756988763806,20.48716490125656,-7.2621975726217025
1684252671645948000,2.388947998046875,21.156168908703325,32.22754658333063,-11.164303795605898
1684252671655974100,2.39897412109375,14.306632684284448,23.998696520161626,-9.868664265364409
1684252671666000100,2.409000244140625,-10.34690253984928,8.716388665440679,-2.9189550175786017
1684252671676026000,2.419026123046875,-9.560994154465197,1.099937509921193,-0.3624897885844111
1684252671686052000,2.429052001953125,0.6016445816621184,-4.14695367474556,-0.3251552064463496
1684252671696077000,2.4390771484375,7.03239688334465,-6.209933083501458,-1.314253045296669
1684252671706103000,2.44910302734375,0.6408768141150474,-2.9495079767525194,-3.7650671117737886
1684252671716129000,2.45912890625,-3.740327222792804,0.2604763980478048,-4.681762854497134
1684252671726155000,2.469155029296875,-3.8817093316435813,2.450230421370268,-4.879638127203285
1684252671736181000,2.479180908203125,-3.167341749382019,4.678184119227528,-4.592875779776275
1684252671746207000,2.48920703125,-3.085017978699505,6.3896835014522075,-3.9231343979656694
1684252671756233000,2.49923291015625,-3.6594761550113555,6.883171367517114,-3.011917378914356
1684252671766259000,2.509259033203125,-3.777040165901184,6.519877569073438,-2.230324080250412
1684252671776285000,2.519284912109375,-3.3277105905145405,5.907661032253503,-1.7622192233756184
1684252671786310000,2.529309814453125,-2.4621222269549965,5.14848107931912,-1.5482430029571055
1684252671796335900,2.5393359375,-1.3391688753664492,4.387255299770832,-1.441656167025119
1684252671806362000,2.549362060546875,-0.4989968387447297,3.8059219769924875,-1.3906857121139764
1684252671816388000,2.55938818359375,-0.5445685033522546,3.5397283703416584,-1.3031824929669498
1684252671826414000,2.5694140625,-1.1166392000056802,3.189209297797084,-1.1919458584677427
1684252671836440000,2.579440185546875,-1.6684255257822571,2.430056232869625,-1.012466658673808
1684252671846466000,2.589466064453125,-1.9327121297679841,1.4960264935076235,-0.5893604888241738
1684252671856492000,2.599491943359375,-1.8440157553136347,0.6603513299137354,0.04287614191323519
1684252671866518000,2.60951806640625,-1.6483729178346693,-0.07605097402334213,0.6872578954093158
1684252671876543000,2.61954296875,-1.4596680629253387,-0.4994792154341936,1.3601143405005336
1684252671886569000,2.62956884765625,-1.259790802747011,-0.7009919678598642,1.9030260165564714
1684252671896595000,2.639594970703125,-1.0149826600827276,-0.8282821307331323,2.2049337645366784
1684252671906621000,2.649620849609375,-0.8395395108718424,-1.1045201615363358,2.34492763389945
1684252671916647000,2.65964697265625,-0.6028524961471557,-1.5799854641765354,2.427251112321019
1684252671926673000,2.6696728515625,-0.2474736903454177,-2.1395751571804285,2.4285223013006147
1684252671936699100,2.67969921875,0.13785130437612533,-2.633364052018523,2.400510697172582
1684252671946725000,2.68972509765625,0.3896563201904297,-3.028046091416478,2.5102950139716267
1684252671956750000,2.69975,0.5605179137647152,-3.2250755609482527,2.5878666216909885
1684252671966776000,2.709776123046875,0.6543588115006684,-3.2687755864650008,2.6635607451006766
1684252671976802000,2.719802001953125,0.7101964340567588,-3.203139623472094,2.7928490960538386
1684252671986828000,2.729828125,0.7556359967172145,-3.1318893277287483,2.8223867407053707
1684252671996854000,2.73985400390625,0.7753004821300506,-3.1309669521868226,2.8265403532534834
1684252672006880000,2.7498798828125,0.8414233518570661,-3.1184774729698894,2.786481606848538
1684252672016906000,2.759906005859375,1.0053566074728966,-3.0867297510534524,2.5717940232902765
1684252672026932000,2.769931884765625,1.1622574071686713,-2.9476158793956038,2.31643102273345
1684252672036958000,2.7799580078125,1.2300614349156618,-2.604501530149579,2.1028715664222837
1684252672046983000,2.78998291015625,1.3376339208841324,-2.1806962721198797,1.8527514349550007
1684252672057009000,2.8000087890625,1.558973071286082,-1.6428449481934309,1.5480021799385546
1684252672067035000,2.810034912109375,1.974578656247258,-1.0076210452735423,1.3399831143587826
1684252672077060900,2.820060791015625,2.5523136622726916,-0.4055097228825092,1.1633391379907727
1684252672087087000,2.830087158203125,3.2274510579079387,0.13022621632516385,1.0114091855101286
1684252672097113000,2.840113037109375,4.143444205319881,0.40620355036556716,0.8528268624681979
1684252672107139000,2.85013916015625,5.393738865447044,0.20007365953326225,0.6700231944266706
1684252672117165000,2.8601650390625,6.218062029421329,-0.3028624183565378,0.7769994680676608
1684252672127190000,2.87018994140625,6.0076955239325756,-0.625446605271101,1.3461775850847362
1684252672137216000,2.880216064453125,5.239010660549998,-0.8229232340484857,1.9984020149052142
1684252672147242000,2.890241943359375,4.746556813707947,-1.006821419328451,2.5441657193914056
1684252672157268000,2.90026806640625,4.511404242008925,-1.0567927801996468,3.0297213311523197
1684252672167294000,2.9102939453125,4.2225037135094405,-0.7197837620913982,3.4909450502112507
1684252672177320000,2.92031982421875,3.701361532321572,-0.06136953772008419,4.057122597172856
1684252672187346000,2.930345947265625,2.9482103381574154,0.5522136112779379,4.750424595052004
1684252672197372000,2.940371826171875,2.195872360072285,0.9813321732848882,5.2537745144397014
1684252672207396900,2.95039697265625,1.6996676362641154,1.4759943438261747,5.545069829121232
1684252672217422800,2.9604228515625,1.530903891751915,2.1581477557033297,5.546034290239215
1684252672227448800,2.97044873046875,1.5526285245649516,2.9020266791313887,5.096166954714059
1684252672237475000,2.98047509765625,1.5916308937847614,3.4565672720521685,4.25353831872046
1684252672247501000,2.9905009765625,2.0794939057052133,3.5815421437203883,2.820446712553501
1684252672257527000,3.000527099609375,5.6396209209531545,3.39162513654232,0.34106676906645295
1684252672267553000,3.010552978515625,9.594045944717525,3.2964901073426005,-2.3044157368995246
1684252672277579000,3.0205791015625,7.720598927736282,3.272607711973786,-2.521225281047821
1684252672287605000,3.03060498046875,3.4038848986566066,3.2945465720593927,-1.418861128501594
1684252672297630000,3.0406298828125,-0.29711357250623405,3.3718601133644577,-0.7047457674354315
1684252672307656000,3.050656005859375,-2.632034264719486,3.406350996509194,-0.723719347974658
1684252672317682000,3.060681884765625,-3.7066193067193027,3.5545308026760813,-1.5981775389492512
1684252672327708000,3.0707080078125,-4.116055847656726,3.7616561342865227,-2.2971048293642697
1684252672337734000,3.08073388671875,-4.768181201016903,4.082058300986886,-3.2666035031229255
1684252672347759900,3.090759765625,-5.553527860864997,4.331531658983231,-4.751446923837065
1684252672357785900,3.100785888671875,-5.508852268314361,4.213749329167604,-5.556624073314667
1684252672367812000,3.11081201171875,-4.9671863545358175,3.8657928005874154,-5.858465331929922
1684252672377837000,3.120837158203125,-4.774797988808155,3.3796646496355534,-6.2315662386387585
1684252672387863000,3.130863037109375,-3.7492026031658052,2.534100544711947,-6.066335344427824
1684252672397889000,3.140888916015625,-1.934475778439641,1.2309855640232563,-4.803566987174749
1684252672407915000,3.1509150390625,-0.6576277501687408,0.19486790758371353,-3.0172528947234154
1684252672417941000,3.16094091796875,-0.4726993450582027,-0.4851952540159225,-2.558493519951403
1684252672427967000,3.170967041015625,-0.6891743965551257,-0.8550403737992047,-2.9730963576108214
1684252672437993000,3.180992919921875,-0.9288421075910329,-0.9189975899249315,-3.0394220564335583
1684252672448019000,3.19101904296875,-0.579535625706613,-0.3877162920385599,-2.4745722509443757
1684252672458045000,3.201044921875,0.125574591127038,0.5498959819853305,-0.4964199739940464
1684252672468070100,3.211070068359375,0.04970248080193996,1.6930027715474367,2.0475237732097504
1684252672478096100,3.22109619140625,-1.3526026496961712,2.649291688990593,4.009807888290286
1684252672488122000,3.2311220703125,-4.7242441518738865,2.606284906435013,5.540693513733149
1684252672498148000,3.241148193359375,-5.903567040938139,1.8618179539859294,5.569992673453688
1684252672508174000,3.251174072265625,-3.8478105691730975,0.9416641797631978,2.846847812744975
1684252672518200000,3.261199951171875,-2.424985213215649,-0.18019991528391838,-1.5377598951265214
1684252672528226000,3.27122607421875,-2.797430286364257,-0.9772580557137727,-4.518836145575344
1684252672538252000,3.281251953125,-3.9021141140297053,-1.5097738638311624,-5.883090070098638
1684252672548277200,3.29127734375,-5.046635154303908,-2.1183716256320477,-6.356454601067305
1684252672558303200,3.30130322265625,-5.623057324165106,-2.7983056078940627,-6.345762526661157
1684252672568329200,3.3113291015625,-5.466036039894819,-3.552883035469055,-6.031006256893277
1684252672578355200,3.321355224609375,-5.140016033312678,-4.328663994592428,-5.561773711162806
1684252672588381000,3.331380859375,-4.94461562628746,-5.130431043365597,-5.28352492505908
1684252672598407000,3.341406982421875,-4.668619587546587,-5.7877112952709195,-5.249081388187408
1684252672608433000,3.351432861328125,-4.221191461867094,-6.277915317359566,-5.374444966912269
1684252672618459000,3.361458984375,-3.8590930106878276,-6.653790949478745,-5.611380914896726
1684252672628485000,3.371485107421875,-3.921128903362155,-6.775944918507337,-5.678779795908928
1684252672638510000,3.381510009765625,-4.315124129539728,-6.777201640570163,-5.7356613745599985
1684252672648536000,3.3915361328125,-4.234834495033324,-6.689465489450097,-5.704444983041286
1684252672658562300,3.401562255859375,-3.8774320927157997,-6.611878976422548,-5.686562120348214
1684252672668588300,3.41158837890625,-2.128412250392139,-6.459712146446108,-5.943828908699751
1684252672678614000,3.421614013671875,24.099832835602758,-4.629204107481241,-4.6879389127835625
1684252672688640000,3.431639892578125,46.38736724267006,7.065030155923962,-1.662984942163527
1684252672698666000,3.441666015625,3.6809652255028484,13.529642933893204,-7.4819485770493745
1684252672708692000,3.45169189453125,-23.917567219960688,12.653332393050192,-5.776425346624851
1684252672718717200,3.46171728515625,-26.285348490703104,18.08494126268625,-0.6158645379334687
1684252672728743200,3.4717431640625,-20.771406205773353,17.230452093029022,2.750412514601648
1684252672738769200,3.48176904296875,2.2319687787175178,9.87446155346632,5.807176458719373
1684252672748795100,3.491795166015625,29.47578820707798,1.5758698455512523,10.95485908113718
1684252672758821000,3.501821044921875,-0.14514379947185516,-1.1827806283026934,4.280407036423683
1684252672768847000,3.51184716796875,-2.850846234731376,-4.2729543823301785,3.1741186961710453
1684252672778873000,3.521873046875,-8.645949686080217,-3.415864674785733,1.5993948057845233
1684252672788899000,3.531899169921875,-7.8018661751031875,0.22165946839749812,0.20719927362948654
1684252672798925000,3.541925048828125,-4.312353495782613,2.2368273246645924,-0.38360023502185936
1684252672808950300,3.5519501953125,1.6309880677916109,4.05948406560719,-0.07784662526845931
1684252672818976300,3.561976318359375,6.085273853653669,6.240606454184651,-0.10477701003104448
1684252672829002200,3.572002197265625,1.9211049863435328,7.3464014579623935,-1.1407529199123383
1684252672839028200,3.5820283203125,-1.2765876237690448,7.466597278660536,-2.649705238227546
1684252672849054200,3.59205419921875,0.014894786792993544,6.6875377362579105,-3.182398448738456
1684252672859080200,3.602080078125,2.160934171551466,5.238878558602929,-2.836683561605215
1684252672869106200,3.612106201171875,2.414994272816181,4.041289652746916,-2.02169433542639
1684252672879132200,3.622132080078125,1.3229577452778816,3.4519419503390787,-1.3062370582319796
1684252672889157000,3.6321572265625,0.6483493419528007,3.110526221704483,-0.8191575979046523
1684252672899183000,3.64218310546875,0.4356371501207351,2.8851462714791296,-0.21501126255467531
1684252672909209000,3.652208984375,0.5487491500377655,2.6296926700294017,0.31259836108162997
1684252672919235000,3.662235107421875,0.9193804517626761,2.2514883027017114,0.7055262502886355
1684252672929261000,3.672260986328125,1.617301341614127,1.5855892755329608,0.838959884352982
1684252672939287300,3.682287353515625,2.2620476906388998,0.8599608790665865,0.7059813005797565
1684252672949313300,3.692313232421875,2.373930441021919,0.26971125938296314,0.5125083544857799
1684252672959339300,3.70233935546875,2.0143845969349146,-0.15905132879316805,0.47356779845580455
1684252672969364200,3.7123642578125,1.5500708029061554,-0.5920844338953495,0.5246139489516616
1684252672979390200,3.72239013671875,1.331780518680811,-1.0793991642832756,0.6352121394168585
1684252672989416200,3.732416259765625,1.346562492749095,-1.6631857254326343,0.7426560305695981
1684252672999442200,3.742442138671875,1.6166104367405176,-2.1428087322741747,0.828269563512504
1684252673009468200,3.75246826171875,2.2550544707506894,-2.6319097615569826,0.7755824408765882
1684252673019494100,3.762494140625,2.9533798497498034,-3.0484593493700025,0.7516732305660844
1684252673029520100,3.77252001953125,3.6803029622018335,-3.4347324568629265,0.7172405073493718
1684252673039546000,3.782546142578125,4.458108705151081,-3.5331098289847374,0.6291787775367498
1684252673049572000,3.792572021484375,5.1735804492622615,-3.4008395396113396,0.4647627068400383
1684252673059597000,3.80259716796875,5.60646976197958,-3.1173136898875233,0.4251806380361318
1684252673069623000,3.812623046875,5.59481264193356,-2.8215958825886247,0.6096735743388533
1684252673079649000,3.82264892578125,5.203957467347383,-2.8142946196645497,1.0413789379686116
1684252673089675300,3.83267529296875,4.835682373359799,-2.713257088422775,1.197707344603911
1684252673099701200,3.842701171875,4.432738701573014,-2.589676301461458,1.6701143556520341
1684252673109727200,3.852727294921875,3.9653725342363115,-2.4833868410408497,2.121767113289237
1684252673119753200,3.862753173828125,3.447591938436031,-2.2660692012399433,2.4419167665332555
1684252673129779200,3.872779296875,3.0247260070830584,-1.9822411536991595,2.9261884759634733
1684252673139804200,3.88280419921875,2.5696283696889877,-1.7110376099318265,3.3973400070577857
1684252673149830100,3.892830078125,2.2500188146710394,-1.7738240287125109,3.7740541358277198
1684252673159856000,3.902856201171875,2.183879724461585,-2.151737304139137,3.977891824069619
1684252673169882000,3.912882080078125,2.440176498737186,-2.5928280434906483,3.9246132383465766
1684252673179908000,3.922908203125,3.147408383899927,-3.04643164293468,3.296318257907033
1684252673189934000,3.93293408203125,5.451663815671205,-3.4790538291484117,1.9206312313519418
1684252673199960000,3.9429599609375,10.065519547373055,-3.6086125214755533,-0.06889394187554716
1684252673209986000,3.952986083984375,9.377312826806307,-2.5710814911067486,-0.1372651750512421
1684252673220011000,3.963010986328125,3.5842590014636513,-0.4697463404715061,2.471121818229556
1684252673230037000,3.973037109375,0.4641033661484718,1.5325672949194906,4.988410928872227
1684252673240063200,3.983063232421875,-0.307103124666214,4.638244907549024,6.333447234967351
1684252673250089200,3.993089111328125,-2.59707751762867,9.070988285297155,8.263480647045373
1684252673260115200,4.003115234375,-5.2531695342838765,14.277262797415256,10.051861608898639
1684252673270141200,4.01314111328125,-6.936746890360117,19.624349801802634,9.815914671951532
1684252673280167200,4.023167236328125,-6.417417896074056,23.415194036650657,7.316499656173586
1684252673290193200,4.033193115234375,-4.392524180084466,19.769110154914856,3.7178909345790743
1684252673300219100,4.04321923828125,-2.847392002624273,13.290215753614902,0.20736498558521269
1684252673310244000,4.053244140625,-0.24293197352886198,7.618137501171231,-2.0475100369453427
1684252673320270000,4.06327001953125,1.6417758576571941,2.9287784924566744,-2.8824121703401206
1684252673330296000,4.073296142578125,-0.4060977519035339,0.46982641997039315,-1.1303247571393846
1684252673340322000,4.083322021484375,-3.347788332903385,0.07746785508394241,1.9957240278676152
1684252673350348000,4.09334814453125,-5.5929854265064,0.08709668417274952,4.2274543216541405
1684252673360374000,4.1033740234375,-6.551822859388589,0.22617723808288573,6.208692728051543
1684252673370400300,4.113400146484375,-8.477737730231881,0.8317968608558177,8.234076273384689
1684252673380426200,4.12342626953125,-11.78916821707487,1.173340599784255,10.335150142735243
1684252673390451200,4.133451171875,-11.434439417880773,0.7880226010590792,8.7189775128901
1684252673400477200,4.143477294921875,-7.533277197748422,0.2611749017059803,5.412891894206404
1684252673410503200,4.153503173828125,-0.04422054225951433,0.4543073637992143,4.267529434671998
1684252673420529200,4.163529052734375,3.45805721834898,0.6840835031569004,3.4480449429005384
1684252673430555100,4.17355517578125,0.5917474570259451,0.4541600642830133,1.345421944411844
1684252673440581600,4.18358154296875,-1.5230933641314506,0.09357903192937374,-0.8608119429379701
1684252673450607600,4.193607666015625,-1.3136805061057208,-0.43342415024638176,-3.2397815471708773
1684252673460633600,4.203633544921875,-0.9077055037990212,-1.1667863558351992,-4.527268166095018
1684252673470658600,4.213658447265625,-2.4642682990729807,-1.8964403545558453,-4.587530619356036
1684252673480684500,4.2236845703125,-4.60996836887449,-2.390472995021939,-4.050822620245814
1684252673490710500,4.23371044921875,-4.909325701719522,-2.4655256056576964,-3.5188463258326053
1684252673500736500,4.243736572265625,-3.8066324633494015,-2.1422534364789723,-2.9664900912135836
1684252673510762500,4.253762451171875,-2.8841692431405184,-1.4246744909554718,-1.970728556690365
1684252673520788500,4.26378857421875,-2.741086175590753,-0.6168085407853127,-1.0594973629832267
1684252673530814700,4.273814697265625,-3.8783015690267084,-0.06897825915813445,-0.49424350673779843
1684252673540840700,4.2838408203125,-5.662884892162681,0.15151742615699768,-0.039500016543641686
1684252673550866700,4.29386669921875,-6.767832923722267,0.07041092230975628,-0.17982925534062086
1684252673560891600,4.3038916015625,-7.063343225750327,-0.2961690581977367,-1.1995626901470124
1684252673570917600,4.313917724609375,-6.766079358053207,-1.0381336724370718,-2.5368083423659202
1684252673580943600,4.323943603515625,-6.136414258304238,-1.8801339473992584,-3.4764670275256035
1684252673590969600,4.333969482421875,-5.516329472327232,-2.608088156464696,-4.10456064017415
1684252673600995600,4.34399560546875,-5.031553320506215,-3.1345044786632057,-4.577741923530399
1684252673611021600,4.354021484375,-4.8027252756536,-3.556664892095327,-4.8734646992653605
1684252673621047600,4.364047607421875,-4.8481145694315435,-3.898427242210507,-4.93847990001142
1684252673631073500,4.374073486328125,-4.948690912902355,-4.1389568307727576,-4.766965980008244
1684252673641098500,4.384098388671875,-4.969969847774506,-4.229545448714495,-4.417231335839629
1684252673651124500,4.39412451171875,-4.837297699601948,-4.150192510536312,-4.042301167877018
1684252673661150500,4.404150390625,-4.449821646060049,-3.9861528719365595,-3.7297000303164123
1684252673671176400,4.414176513671875,-3.936522579587996,-3.813047298827767,-3.407921899087727
1684252673681202700,4.42420263671875,-3.4342601631760594,-3.4967677650153637,-3.0373025800615547
1684252673691228700,4.434228759765625,-2.905832793416083,-3.1818910837382077,-2.5847651485443115
1684252673701254700,4.444254638671875,-2.106314254222065,-2.929693269214034,-2.0982254941821097
1684252673711280600,4.45428076171875,-0.3518193414881825,-2.900160885259509,-1.5979482602380215
1684252673721305600,4.4643056640625,5.168978508424758,-2.90073722384274,-1.165012843356654
1684252673731331600,4.47433154296875,18.361165264964104,-0.7269026541858911,-0.2357458614170551
1684252673741357600,4.484357666015625,24.863007995653152,3.9460365501254793,0.5733358942836523
1684252673751383600,4.494383544921875,25.095121638047694,10.917600486844778,-0.9105805477786809
1684252673761409500,4.504409423828125,15.346173300909996,18.57088938089609,-3.2060642787471414
1684252673771435500,4.514435546875,2.1326308910004794,20.83708074721098,-4.0127740446195
1684252673781461500,4.52446142578125,-7.531922276008129,18.396907609474656,-4.433617237973213
1684252673791487500,4.534487548828125,-7.490293796068429,14.706439811611174,-3.779543965415656
1684252673801513500,4.544513427734375,-5.589574741280079,8.322469427108764,-2.0793677951075136
1684252673811538400,4.554538330078125,-4.890980774472654,2.7374545410901305,-1.7933219253867863
1684252673821564400,4.564564453125,-4.505054288460314,-1.30858142940104,-1.7051155264064668
1684252673831590700,4.574590576171875,-4.367216720348597,-4.2745168093413115,-1.4914263062357902
1684252673841616600,4.58461669921875,-4.537283364152908,-6.148395203477144,-1.3284674486100674
1684252673851642600,4.594642578125,-4.828324119551479,-6.819305336806178,-1.2890044761411845
1684252673861668600,4.604668701171875,-5.420664866295456,-5.934613921108841,-1.8876320480696855
1684252673871694600,4.614694580078125,-6.357601433014869,-4.029016446629166,-2.3442845136903223
1684252673881720600,4.624720458984375,-7.495810513663291,-1.9545266328215598,-2.524412678912282
1684252673891745500,4.63474560546875,-8.695266966956853,0.36016309920251366,-2.3868825693145395
1684252673901771500,4.644771484375,-8.992418021929264,2.4944664534598586,-2.162331471128762
1684252673911797500,4.654797607421875,-8.53519798555374,3.8197406589865683,-1.2942480758830903
1684252673921823500,4.664823486328125,-7.610310753068328,3.865748961445689,0.10365538558997213
1684252673931849500,4.674849365234375,-6.7371466935575,3.3755572143167254,1.0047496545556933
1684252673941875500,4.68487548828125,-5.620998638069629,2.797581969794631,1.5434174824967979
1684252673951901400,4.6949013671875,-4.531473216569424,2.084236131796241,1.9102223578013477
1684252673961927700,4.704927734375,-4.151454785557091,1.2255378200113773,1.9888931589342653
1684252673971952400,4.714952392578125,-3.651843760436773,0.5569505766719579,2.3176085420802233
1684252673981978600,4.724978515625,-3.017333558744192,0.13478314897716046,2.5570903751552105
1684252673992004600,4.735004638671875,-2.430894583389908,-0.14608955588936806,2.761106050312519
1684252674002030600,4.745030517578125,-1.9366038765095173,-0.2063625305444002,3.164628398770094
1684252674012056600,4.755056640625,-1.3404887257933615,-0.08964929126501082,3.530253562770784
1684252674022082600,4.76508251953125,-0.5279412667434662,-0.0710112262904644,3.5695717199414965
1684252674032108500,4.775108642578125,0.8077402779638767,-0.22057459577023983,3.4275463447511196
1684252674042134500,4.785134521484375,2.1213088481277227,0.44631987217664715,3.6825334977328774
1684252674052159500,4.795159423828125,2.871107809254527,1.2720154935479164,3.9329336151853203
1684252674062185500,4.805185546875,3.8242023145705457,1.6564894426643848,3.9134623142570253
1684252674072211500,4.81521142578125,12.055698508334158,1.4433295070648193,1.8283694195009768
1684252674082237400,4.825237548828125,22.42132445335388,1.0585440077811479,-1.5492619707413018
1684252674092263400,4.835263427734375,18.51204439321756,0.91096216750741,-1.9541732893392443
1684252674102289400,4.845289306640625,10.246996058464049,0.7154302430570125,-0.4763005844205618
1684252674112315600,4.855315673828125,3.486706974250078,0.19931553464233875,1.3354863874614238
1684252674122341600,4.865341552734375,0.9803951846957206,-0.2962000378578901,1.039631655909866
1684252674132366600,4.87536669921875,-0.3957019935628399,-0.5570201347768307,0.043631417259946466
1684252674142392600,4.885392578125,-0.22787817851556463,-0.5270025976538658,0.5353014202479273
1684252674152418600,4.89541845703125,-0.004960252755880356,-0.4375163879960775,1.3099255374863743
1684252674162444500,4.905444580078125,-0.09229659090340137,-0.34255379275381564,1.9820868399202822
1684252674172470500,4.915470458984375,0.10189674188699573,-0.22894261114299297,2.444743222130835
1684252674182496500,4.92549658203125,0.7051590244114398,-0.2094727715194225,2.8367683172792195
1684252674192522500,4.9355224609375,1.6236545100331305,-0.46486324460506434,2.9232524225115775
1684252674202548500,4.945548583984375,2.4493355183571577,-0.8148392963141202,2.854147322103381
1684252674212574500,4.955574462890625,3.029439007079601,-1.1149784271866083,2.7990970505326986
1684252674222599400,4.965599365234375,3.382947324568033,-1.5093383950233459,2.7213410261571407
1684252674232625400,4.97562548828125,3.6916093691140413,-2.0953262656092644,2.797361605042219
1684252674242651400,4.9856513671875,4.5627223413139575,-2.838686133599281,2.7300886884972453
1684252674252677400,4.995677490234375,6.320536315467954,-3.2271570433974266,2.733124987453222
1684252674262703600,5.00570361328125,5.172181688380241,-2.0647639540851115,3.8900750089287754
1684252674272729600,5.0157294921875,2.06719088897109,-0.038649756389856335,5.414360797715187
1684252674282755600,5.025755615234375,0.6999170321047306,1.8694956490069627,6.151281572568416
1684252674292781600,5.035781494140625,1.8301251771271227,3.959297598236799,6.238516203907132
1684252674302806500,5.045806640625,5.647426041746139,5.967441839477419,5.846311952799558
1684252674312832500,5.05583251953125,9.488022441756724,7.231119712790846,4.319225427378714
1684252674322858500,5.0658583984375,10.016061981242894,6.912061946436762,1.9969877641931175
1684252674332884500,5.075884521484375,6.698507458561658,5.476936788615584,0.5758490461483597
1684252674342910500,5.085910400390625,2.1610075290486215,4.228393940591812,0.6597130320101976
1684252674352936400,5.0959365234375,-1.8575512364521622,2.995430939015746,1.3219114510953425
1684252674362962400,5.10596240234375,-5.176766678082942,2.2711551262021064,1.6417901784434914
1684252674372988400,5.115988525390625,-7.046729360079765,2.0287521449834105,1.5411369703441857
1684252674383013400,5.126013427734375,-7.913561293959617,2.2330448835164307,1.2277357684470713
1684252674393039400,5.136039306640625,-9.031081806844472,3.064592153525352,0.9135961692728102
1684252674403065300,5.1460654296875,-10.283313572514057,4.06433325920403,0.6311621333736926
1684252674413091600,5.156091552734375,-10.77296522141695,5.044899124291539,1.0026768668696284
1684252674423117600,5.16611767578125,-10.603549734997749,5.9063563793957226,1.2900477015838026
1684252674433143600,5.1761435546875,-6.428799706310033,7.320418290922046,2.144885538548231
1684252674443169000,5.1861689453125,1.7056018486186861,8.900726995703577,4.817825521890819
1684252674453195000,5.196195068359375,7.127415592688322,9.233243963089585,7.421023860487342
1684252674463220200,5.20622021484375,7.2604147808581585,8.418361996677518,8.261179968887568
1684252674473246200,5.21624609375,2.100419789355993,7.090814585521817,8.223736081156135
1684252674483272200,5.226272216796875,-2.2129218406811355,5.719612157034874,6.388860494631529
1684252674493298200,5.236298095703125,-4.40050173483491,4.660863566592336,3.076025401687622
1684252674503324000,5.246323974609375,-6.278700330257416,3.887951440903544,-0.05395502367988229
1684252674513350000,5.256349853515625,-7.331945062586665,3.520566573753953,-2.541311206743121
1684252674523375900,5.2663759765625,-6.230802268528938,3.0664170308649537,-4.1962782621458175
1684252674533401900,5.27640185546875,-3.4355133781075478,2.8122540537476537,-5.853322708344459
1684252674543428000,5.286427978515625,-1.4987351679444312,2.425680502003431,-7.173063245141506
1684252674553453000,5.296453125,-2.386388940578699,1.5933955653697252,-8.348513968947529
1684252674563479300,5.306479248046875,-3.9579163730114697,0.07220832712054252,-8.352869826069474
1684252674573505300,5.31650537109375,-4.336308371865749,-1.7959364917993546,-7.475085121020674
1684252674583531300,5.32653125,-4.190710398885607,-3.437813471743464,-6.344785790583491
1684252674593557000,5.336556884765625,-4.199876286637783,-4.402907626932859,-5.307929882997274
1684252674603583000,5.3465830078125,-4.461947844922542,-5.346271596351266,-4.694891216139495
1684252674613609000,5.35660888671875,-6.454335714104771,-6.574132890874147,-4.406637168850004
1684252674623635000,5.366635009765625,-7.139310613143444,-7.017488068026304,-4.492569485418498
1684252674633660200,5.37666015625,-6.414398840513825,-7.188875146779417,-4.185087590567767
1684252674643686100,5.38668603515625,-6.077856855395436,-7.582491018250584,-3.433805989667773
1684252674653712100,5.396712158203125,-6.161245332700013,-7.944768333128094,-2.3368404812946912
1684252674663738000,5.406738037109375,-6.418740669110417,-8.04986946054697,-1.2366169940389693
1684252674673764000,5.41676416015625,-6.896238354361057,-7.728123478022217,-0.39768312091007824
1684252674683790000,5.4267900390625,-7.115880053195357,-6.937606722059845,0.14926036794520914
1684252674693816000,5.436816162109375,-6.903336203667521,-6.387717169815302,0.21492584929354488
1684252674703842000,5.446842041015625,-6.40885055873692,-6.232877321237325,-0.021961291113123296
1684252674713867300,5.4568671875,-5.8592269639521835,-6.129816759735346,-0.0854020821493119
1684252674723893200,5.466893310546875,-5.291063503870368,-6.021249417510628,0.051347982986643906
1684252674733919200,5.476919189453125,-4.656710538566112,-5.562394473409652,0.40935331963337956
1684252674743945200,5.4869453125,-4.08965942364037,-4.456441064199805,1.0018610204420983
1684252674753971200,5.49697119140625,-3.7047511747598647,-2.03712717461884,2.1363937506653365
1684252674763997200,5.5069970703125,-2.7281822703540324,1.4008569775164126,3.16733941129446
1684252674774023200,5.517023193359375,2.9080104297161102,5.031325356969237,5.108480492842197
1684252674784049200,5.527049072265625,8.203670029205083,8.386712474438548,7.2528557437807315
1684252674794074000,5.53707421875,6.29722967416048,11.05355677125454,6.4443047339558595
1684252674804100000,5.54710009765625,6.453297018706798,15.774847626280783,4.315444739796221
1684252674814126000,5.5571259765625,10.068564906418324,22.504176924085616,0.33363676519617436
1684252674824152000,5.567152099609375,40.21923039689064,40.493562886333464,-4.8800005307748915
1684252674834178000,5.577177978515625,11.888247015464305,36.87058866202831,-7.191553426077961
1684252674844204300,5.587204345703125,-4.217704204273224,21.27207024707794,-6.6301143058151
1684252674854230300,5.597230224609375,-7.127948676651716,10.357968708264828,-7.2771081415057175
1684252674864256300,5.60725634765625,-5.266060580039024,2.9646733971804378,-4.9002559678182
1684252674874281200,5.61728125,-2.8140076194167136,-4.595658396232128,-3.246643834155798
1684252674884307200,5.62730712890625,-2.8378070126771924,-7.2410969169259065,-3.1878400552704926
1684252674894333200,5.637333251953125,-2.92046892927289,-7.919797558000683,-3.5872692891955373
1684252674904359200,5.647359130859375,-3.0267487450823185,-9.00991685374081,-3.3407898523181676
1684252674914385200,5.65738525390625,-3.3618662503555417,-9.077139793664216,-3.6880785646393894
1684252674924411100,5.6674111328125,-4.20286553158164,-8.452670508992671,-5.074298237255215
1684252674934437000,5.67743701171875,-5.361764349037409,-7.387585116744041,-7.0088178548365825
1684252674944463000,5.687463134765625,-5.554193631297349,-6.195578979456425,-7.718506339371204
1684252674954488000,5.697488037109375,-4.581875370073318,-5.568544228211045,-6.944419909206032
1684252674964514000,5.70751416015625,-3.677356971877813,-5.3311044223576785,-5.778299323803186
1684252674974540000,5.7175400390625,-3.0371745697677133,-5.147321387889981,-4.872431264564395
1684252674984566000,5.72756591796875,-2.446991001057625,-4.806756723126769,-4.198668372152746
1684252674994592300,5.73759228515625,-2.1493840190112588,-4.06306367765963,-3.6272079163521527
1684252675004618200,5.7476181640625,-1.9959131206989287,-2.7994115233093497,-3.3617657125905156
1684252675014644200,5.757644287109375,-1.8800046219311652,-1.2331436188399791,-3.449364208805561
1684252675024670200,5.767670166015625,-1.9202876786112784,0.5136252296864986,-3.49401408239305
1684252675034695200,5.777695068359375,-2.1070377461910246,2.2367641963005065,-3.6489763883069157
1684252675044721200,5.78772119140625,-2.6008792479991913,3.6879829953104255,-3.8937399611771104
1684252675054747100,5.7977470703125,-3.2477053259074684,4.722513674819469,-4.025211209127307
1684252675064773000,5.807773193359375,-3.562368656694889,4.955708682709932,-3.4897581785142417
1684252675074799000,5.817799072265625,-3.552247075653076,4.454769916117191,-2.691177358561754
1684252675084825000,5.8278251953125,-3.423791376131773,3.3728380184859037,-1.8128981479942798
1684252675094851000,5.83785107421875,-3.545286588990688,1.9235797058939932,-0.8389961247101425
1684252675104877000,5.847876953125,-3.5490132082983847,0.5789695162564515,-0.0076903946724021805
1684252675114902000,5.857902099609375,-2.9203742367267607,-0.2662187410920858,0.7219177053801715
1684252675124928000,5.867927978515625,-2.0524048232495784,-0.1257581310003996,1.7208455949798225
1684252675134954000,5.8779541015625,-0.6991875487864017,0.6365630425691604,2.888760370323062
1684252675144980200,5.887980224609375,1.3294856857419013,1.4833891302525997,3.981907489451766
1684252675155006200,5.898006103515625,3.099858112695813,1.989004656484723,4.5594291449874635
1684252675165032200,5.9080322265625,7.532953372621535,1.9107324992805719,5.177471026960015
1684252675175058200,5.91805810546875,13.0228531031847,1.345784494113922,6.470841443225741
1684252675185084200,5.928084228515625,8.633537363752723,0.8419728024333715,5.649667098671197
1684252675195110100,5.938110107421875,3.657843293112516,0.5046206699758767,4.175438887734711
1684252675205135000,5.948135009765625,1.8757658153176306,-0.23787878179252148,2.970712385083735
1684252675215161000,5.9581611328125,1.6333949828028678,-0.9813502934634685,2.278834574788809
1684252675225187000,5.96818701171875,1.4323434181481598,-1.2851187207490204,1.4767895858570932
1684252675235213000,5.978213134765625,1.3805039253175257,-1.2010691491872072,0.595694148825109
1684252675245239000,5.988239013671875,1.1368874766558408,-0.7837579293519258,-0.2884074842855334
1684252675255265000,5.99826513671875,0.7267705522388219,-0.18168576992750166,-1.0843287296399473
1684252675265291000,6.008291015625,0.6615899317979812,0.11868073996007442,-1.4061843100190161
1684252675275317200,6.018317138671875,0.6537380492538213,0.0582885228395462,-1.3958572695329785
1684252675285342000,6.028342041015625,0.5911656020173802,0.002777063497900963,-1.1112401174411177
1684252675295368200,6.0383681640625,0.42276773167550563,-0.26779870375990866,-0.5260875286355614
1684252675305394200,6.048394287109375,0.2534171271860599,-0.5939303540229797,0.13492635684013365
1684252675315420200,6.058420166015625,0.14170332189546897,-0.7915735715389252,0.6969590590819716
1684252675325446100,6.068446044921875,0.10026830043494701,-0.8754331734865903,1.2325921224370597
1684252675335472000,6.07847216796875,0.09620411060280167,-0.7841583268463611,1.6804998483270406
1684252675345498000,6.088498046875,0.08296937510967255,-0.5457265873461962,2.0736977866470814
1684252675355524000,6.098524169921875,0.059088148784637445,-0.12157763044536113,2.4593214903205634
1684252675365549000,6.108549072265625,-0.08272853382481261,0.4533762204289436,2.7341867714658377
1684252675375575000,6.118574951171875,-0.3933411461830139,1.063223105508089,2.8422414879933
1684252675385601000,6.12860107421875,-0.7800187428236007,1.601003117763996,2.7284111106738447
1684252675395627000,6.138626953125,-1.1364753887236119,2.0159335799425837,2.3723224213033913
1684252675405653000,6.148653076171875,-1.507393106174469,2.241843106999993,1.7749775826618075
1684252675415679000,6.158678955078125,-1.6905413498699664,2.271379582607746,0.9583376666665077
1684252675425705200,6.168705322265625,-1.7530150494396686,2.200637820908427,0.08088703414397314
1684252675435732200,6.178732177734375,-1.8789912071049213,2.0234277350902556,-0.8923971677690744
1684252675445757200,6.188757080078125,-2.1529026946567,1.769277032932639,-2.0120885949522256
1684252675455783200,6.198783203125,-1.9440534618631005,1.5119652363955973,-3.13832929764837
1684252675465809200,6.20880908203125,4.882535894471407,1.8769705149322746,-6.601843320098519
1684252675475835100,6.218835205078125,9.156077136778832,1.8242834653615951,-9.790400875988603
1684252675485861000,6.228861083984375,5.3882174716770646,0.7830226008147001,-8.446862699496746
1684252675495887400,6.238887451171875,1.6344516522489487,0.19096388588249683,-7.006160618326067
1684252675505913300,6.248913330078125,-0.6569815612196922,0.11883388469517231,-6.660941405755281
1684252675515939300,6.258939208984375,-2.1125077020347116,0.15884791517555713,-6.5930456811368465
1684252675525964300,6.26896435546875,-3.182463038407266,-0.049665655922889705,-6.788946438899636
1684252675535990300,6.278990234375,-3.9695445592239498,-0.3604658815413713,-7.175583119007944
1684252675546016300,6.289016357421875,-4.556551543724536,-0.7831190469264984,-7.18555097079277
1684252675556042200,6.299042236328125,-4.498750512140989,-1.3390882113456726,-6.4281462108373635
1684252675566068200,6.309068115234375,-4.304503366804123,-1.5948890187978744,-5.573199945062399
1684252675576094200,6.31909423828125,-3.588111000716686,-1.821896277964115,-4.497357596477866
1684252675586120200,6.3291201171875,-3.177667913085222,-1.8227181157410144,-3.2912162585929035
1684252675596146200,6.339146240234375,-3.461124789226055,-1.6914613873243332,-2.481774145147204
1684252675606171100,6.349171142578125,-3.88221494307816,-1.5359405707448721,-1.8666611562334
1684252675616197000,6.359197021484375,-3.991844946098327,-1.3496739027678966,-1.4540110600769518
1684252675626223000,6.36922314453125,-3.732798873114586,-1.0983873578697443,-0.7875570293739438
1684252675636249000,6.3792490234375,-3.3189848477452992,-0.7343091310501099,-0.1207889642857015
1684252675646275300,6.389275390625,-2.7472239476934073,-0.43021687863767144,0.5424279111269861
1684252675656301300,6.39930126953125,-2.312676054114103,-0.11483633949160575,1.437801975814998
1684252675666327300,6.409327392578125,-2.179608184622228,0.0455745872169733,2.157223188204318
1684252675676352300,6.419352294921875,-2.2283900434479116,-0.0024608371555805207,2.6272628125339743
1684252675686378200,6.429378173828125,-2.392961304706335,-0.35910803719162937,2.6625512757971883
1684252675696404200,6.439404296875,-2.4933856724858283,-0.7742471736848354,2.477656480695307
1684252675706430200,6.44943017578125,-2.4225959799915553,-1.1485159551292656,2.069342367916554
1684252675716456200,6.459456298828125,-2.4205288183286786,-1.4144739994585513,1.5075187783807515
1684252675726482200,6.469482177734375,-2.42935714468956,-1.518060630661249,0.9891393399044871
1684252675736508200,6.479508056640625,-2.2597547573961316,-1.3088181607663631,0.46987500835247337
1684252675746534100,6.4895341796875,-1.912817196600139,-0.8938274928331374,0.11401355186663567
1684252675756560100,6.49956005859375,-1.4934671644136308,-0.4016033630937338,0.039614728964492675
1684252675766585000,6.509585205078125,-1.0092404631689191,0.1254214463919401,0.3216899414885789
1684252675776611000,6.519611083984375,-0.37032851938605305,0.601462503093481,0.6295975874707103
1684252675786637000,6.529636962890625,0.6371021178819238,0.8875696014821529,0.8853395043425262
1684252675796663300,6.539663330078125,2.187091672245413,0.9319254605591296,1.1106265155874193
1684252675806689300,6.549689208984375,4.3365912804603575,0.9168518100678921,1.664537286172062
1684252675816715300,6.55971533203125,7.2087073899745935,1.1743413012593984,3.0190573137968775
1684252675826741200,6.5697412109375,8.876490964591502,2.2645231408417223,4.78747042337656
1684252675836767200,6.579767333984375,7.5626763107120984,3.7445243822216985,5.507600806948543
1684252675846792200,6.589792236328125,5.017783738350868,5.093305720064044,5.28803801856935
1684252675856818200,6.599818115234375,2.8674422724843023,6.322692616719007,4.467360225360095
1684252675866844200,6.60984423828125,1.298868429160118,6.935459188637137,3.5764950894638896
1684252675876870100,6.6198701171875,1.1824771883767098,6.194031750014424,3.116687959204614
1684252675886896000,6.629896240234375,1.4944915390253066,3.807363407972455,2.471082947523892
1684252675896922000,6.639922119140625,1.4342121346294878,1.0660609592825174,1.0373708713710308
1684252675906948000,6.649947998046875,1.2178782451689243,-1.1354600742012262,-0.07277385204881429
1684252675916974000,6.65997412109375,-0.2110112331330776,-2.551836692410707,-0.7404992178618908
1684252675926999000,6.6699990234375,-1.140930614566803,-3.115935971793532,-1.0553384897381066
1684252675937025000,6.68002490234375,-0.8004862882476299,-3.459405125826597,-1.3425903742477296
1684252675947051300,6.69005126953125,-0.5004197111546993,-3.614745325142145,-1.3833581457048654
1684252675957077200,6.7000771484375,-0.13260697398185728,-3.4591736551582812,-1.2707707541838287
1684252675967103200,6.710103271484375,-0.7840835080444812,-2.6661124754101038,-1.4852937948301435
1684252675977129200,6.720129150390625,-1.1239245347082614,-1.6102549302339553,-1.8658423871964216
1684252675987155200,6.7301552734375,-1.335073715007305,-0.6639706894546746,-2.2445433058694
1684252675997181200,6.74018115234375,-1.541718569624424,0.1095662901341915,-2.5458570334792134
1684252676007206100,6.7502060546875,-1.6811679568469524,0.6145651457726955,-2.7287363971054552
1684252676017232100,6.760232177734375,-1.8005670742094515,0.7396843943476676,-2.934246110212803
1684252676027258000,6.770258056640625,-1.7828221586823463,0.33007366588711734,-2.977581101809442
1684252676037284000,6.7802841796875,-1.582213077098131,-0.5116057065576315,-2.795980087555945
1684252676047310000,6.79031005859375,-1.4056208309173583,-1.523551629292965,-2.4348972431600093
1684252676057336000,6.800336181640625,-1.2854431303977965,-2.0925883650779724,-2.2697531504496933
1684252676067362000,6.810362060546875,-1.1208429353058338,-1.9722025747656822,-2.2374679606556893
1684252676077388300,6.82038818359375,-0.9008370793342589,-1.2744675628751516,-2.1246657573401926
1684252676087413000,6.8304130859375,-0.6365723949193954,-0.32473288938105105,-1.8774796334981918
1684252676097439000,6.84043896484375,-0.507357949452661,0.6198088916450738,-1.5689304016768932
1684252676107465200,6.85046533203125,-0.5283703788757323,1.4232675467669964,-1.2115294606640934
1684252676117491200,6.8604912109375,-0.6464227578043937,1.9109785829961299,-0.6982575744599103
1684252676127517200,6.87051708984375,-0.8522609722137451,2.0915993540406226,-0.06916881329417228
1684252676137543200,6.880543212890625,-1.0808628070950508,2.0273346794009206,0.5775248704060911
1684252676147569200,6.890569091796875,-1.333792443025112,1.7280337529182432,1.3276488257035612
1684252676157595100,6.90059521484375,-1.4056149856984614,1.3429828806966542,1.958873429854214
1684252676167620000,6.9106201171875,-1.263606561642885,0.9365916988044977,2.4176029940098522
1684252676177646000,6.92064599609375,-0.9935714771330356,0.525031005319953,2.7772446996867655
1684252676187672000,6.930672119140625,-0.7414801186580211,0.1269914721876383,3.0638010031476615
1684252676197698000,6.940697998046875,-0.5273626996705308,-0.2838257094532251,3.092687198153138
1684252676207724000,6.95072412109375,-0.33471948239896443,-0.6974690544307232,3.006882015095651
1684252676217750000,6.96075,-0.22230773970577863,-1.0921031630337237,2.9492621852979064
1684252676227776000,6.97077587890625,-0.16574472548458724,-1.3513438818067312,2.880001602067053
1684252676237802200,6.98080224609375,-0.15785017284248024,-1.4042425283014774,2.897618799561262
1684252676247827000,6.990826904296875,-0.11426701517105102,-1.2154659233301877,3.0835733328491446
1684252676257853200,7.000853271484375,-0.033362171375751495,-0.8053846547484398,3.3154590117067095
1684252676267879200,7.010879150390625,0.01777414162158966,-0.333397841873765,3.603422843877971
1684252676277905200,7.0209052734375,0.0863455552781932,0.02704232070446014,3.8116061601087448
1684252676287931100,7.03093115234375,0.20797403912795706,0.18181787187457082,3.899405439592898
1684252676297957000,7.04095703125,0.3606102584481239,0.14904782117307186,3.7429520183384417
1684252676307983000,7.050983154296875,0.5692050780892371,-0.014461071550846099,3.3723590027973054
1684252676318009000,7.061009033203125,0.8742576999664307,-0.24172552034854888,2.849336999212205
1684252676328034000,7.071033935546875,1.2168068165451287,-0.40631285595893857,2.277201274498552
1684252676338060000,7.08106005859375,1.5333359412044285,-0.4833475803226232,1.7145898955859242
1684252676348086000,7.0910859375,1.763312571570277,-0.5193757560372352,1.2108625211879611
1684252676358112000,7.101112060546875,1.8477075955688953,-0.5301747979491949,0.8299965334355831
1684252676368138000,7.111137939453125,1.8513731323391198,-0.5263379962652921,0.5998607669852674
1684252676378164000,7.1211640625,1.7835095564246177,-0.41169513351917264,0.5977351531334221
1684252676388190200,7.131190185546875,1.6497586731046436,-0.146949387589097,0.9053460811913013
1684252676398215200,7.141215087890625,1.4038690188139675,0.30817104615867136,1.4177889692254364
1684252676408241200,7.1512412109375,1.030332058775425,0.7965688956081867,2.0124279099091886
1684252676418267100,7.16126708984375,0.490159013903141,1.1597580646336079,2.56636936789304
1684252676428293000,7.171293212890625,-0.05148826824016869,1.336498779374361,2.9541911661326883
1684252676438318300,7.181318359375,-0.6116261697113513,1.2493255228340625,3.021805151200294
1684252676448344300,7.19134423828125,-1.158330662178993,0.8887965129286051,2.850726115483045
1684252676458370300,7.201370361328125,-1.5138041422605513,0.2646270879864693,2.6499755796015263
1684252676468396300,7.211396240234375,-1.798445552010834,-0.48074061269462104,2.4273303150370715
1684252676478422500,7.221422607421875,-1.8796224907457828,-1.0310644647032021,2.0877701511412856
1684252676488447200,7.231447265625,-1.7657039967514574,-1.1959493219554425,1.59830540311262
1684252676498473500,7.241473388671875,-1.5987994702398776,-1.1947276712059973,1.0346187231186776
1684252676508499500,7.25149951171875,-1.5483166527152061,-1.2082839028716086,0.43118996145352717
1684252676518525400,7.261525390625,-1.5388171490944922,-1.0468500628560782,-0.22750198388062415
1684252676528551400,7.271551513671875,-1.40095999949947,-0.6680535748541355,-0.799245932797715
1684252676538577400,7.281577392578125,-0.11013093827962875,0.12849661605358123,-1.5362813470065593
1684252676548603400,7.291603271484375,6.285743819028139,1.9831787268102168,-3.331926454643905
1684252676558629400,7.30162939453125,9.517997893303631,2.9039462490171193,-4.610838429707289
1684252676568654300,7.311654296875,7.059206564337015,2.8943460615009067,-4.7648950189530845
1684252676578680300,7.321680419921875,4.270092563158274,3.1725591917693614,-5.007582662332058
1684252676588706300,7.331706298828125,2.2399977713942527,3.377328315642476,-4.826465339942276
1684252676598732300,7.341732177734375,0.2853739618085325,3.091294282490015,-4.389494310869276
1684252676608758300,7.35175830078125,-1.448243436460942,2.3892513442724943,-3.601367372652888
1684252676618784300,7.3617841796875,-1.8491089867994188,1.3834294573754071,-2.772150299157202
1684252676628810500,7.371810546875,-1.6488932884469627,0.18784663064479826,-2.1979593954794105
1684252676638835200,7.381835205078125,-2.258199783039093,-1.0005033222228288,-1.474489638351649
1684252676648861400,7.391861328125,-2.7221412366241213,-1.960039258763194,-0.9186673350572585
1684252676658887400,7.401887451171875,-3.600544950354099,-2.806490667915344,-0.606952515344508
1684252676668913400,7.411913330078125,-4.258796385379135,-3.477787170213461,-0.5355259497188032
1684252676678939400,7.421939453125,-4.430547913530469,-3.8184780917048453,-0.479126966952905
1684252676688965400,7.43196533203125,-3.947363122554123,-3.8623201560407874,-0.47764538662564004
1684252676698991400,7.441991455078125,-3.0351217288911343,-3.5502427500933407,-0.48694140356350685
1684252676709017300,7.452017333984375,-1.8357227048732339,-2.852241780743003,-0.3432835683330893
1684252676719042300,7.462042236328125,-0.7319844874948263,-2.0098323404580354,-0.10448608252676203
1684252676729068300,7.472068359375,-0.1974203685455024,-1.2101309920430183,0.1724594206923619
1684252676739094300,7.48209423828125,-0.18423896154165267,-0.5419955841243267,0.4115810786854476
1684252676749120300,7.492120361328125,-0.281392052565515,0.008937339693307875,0.5922930351447314
1684252676759146200,7.502146240234375,-0.3417209951914847,0.48030397484302517,0.7317319740384817
1684252676769172200,7.512172119140625,-0.4554375368729233,0.7747562922507524,0.8579322958484291
1684252676779198500,7.522198486328125,-0.598185673379898,0.8283025889992713,0.8628777894265949
1684252676789224400,7.532224365234375,-0.7833402884617447,0.7377052032291889,0.5926628548378124
1684252676799249400,7.54224951171875,-0.966187941775471,0.39999709694087504,0.0773361549956724
1684252676809275400,7.552275390625,-1.0426546569928525,-0.17966916940808295,-0.5628884788209572
1684252676819301400,7.56230126953125,-0.9748610775746405,-0.7603121718347072,-1.0631937332831323
1684252676829327400,7.572327392578125,-0.7284989834666251,-1.1931845334172249,-1.3045900216773152
1684252676839353300,7.582353271484375,-0.2567047705546021,-1.4785761770129202,-1.444799871878326
1684252676849379300,7.59237939453125,0.4480557560585439,-1.5283277576535939,-1.5522309035494923
1684252676859405300,7.6024052734375,1.152810437452793,-1.4227163426250218,-1.5513839313313365
1684252676869431300,7.612431396484375,1.6018763934671878,-1.2442103717774151,-1.366767660909891
1684252676879456300,7.622456298828125,1.6266005003571509,-0.9682634328752756,-0.9895818229749799
1684252676889482200,7.632482177734375,1.5239631327033043,-0.6132353584736585,-0.49232463097181167
1684252676899508200,7.64250830078125,1.554374637579918,-0.13917407741248608,-0.010341032478772104
1684252676909534200,7.6525341796875,1.4473849199354647,0.5054337399244309,0.4369353367051109
1684252676919560200,7.662560302734375,1.3079542374134063,1.4224135602861643,0.8906831303928047
1684252676929586400,7.67258642578125,1.3523182797968387,2.545856448957324,1.3706500553011893
1684252676939612400,7.6826123046875,1.4202689494729042,3.8524353063642978,1.7809198321923612
1684252676949638400,7.692638427734375,1.5208178204149008,5.173576942130923,2.1559607670530676
1684252676959663400,7.702663330078125,2.057106717330217,5.888306927964091,2.6186522205770015
1684252676969689300,7.712689453125,4.083706652715802,5.275060463574528,3.1690152355521914
1684252676979715300,7.72271533203125,7.249373162361979,2.7696207806795834,3.0744954156413673
1684252676989741300,7.7327412109375,7.871708357614279,-0.2204664592206478,1.8052435415878891
1684252676999767300,7.742767333984375,5.378129208382964,-1.9640122540473937,0.5985393821883946
1684252677009793300,7.752793212890625,2.520631406807899,-2.5352783563196657,-0.2115401341116987
1684252677019819300,7.7628193359375,0.8913508735865354,-2.588074126961827,-0.705488329431042
1684252677029845200,7.77284521484375,0.5170686846712604,-2.5606694026857615,-1.0489394363507627
1684252677039870200,7.7828701171875,0.43747550799641755,-2.201103684854507,-1.1653406140062956
1684252677049896200,7.792896240234375,0.16604812887795267,-1.6990239315330982,-0.9231044407218694
1684252677059922200,7.802922119140625,-0.1641553374012932,-1.1869406705915928,-0.5182652009794488
1684252677069948200,7.8129482421875,-0.48602056239154184,-0.6470850211054087,-0.2662184305648319
1684252677079974100,7.82297412109375,-0.8207429673999548,-0.142322312310338,-0.19947121839439494
1684252677090000400,7.83300048828125,-1.1421364832252263,0.23078093248605727,-0.25184501903112977
1684252677100026400,7.8430263671875,-1.3766127630978822,0.3132400199860334,-0.3750068133953959
1684252677110052400,7.85305224609375,-1.5458575691252945,0.08952245001494884,-0.5640018834229559
1684252677120077300,7.863077392578125,-1.6069371839880942,-0.3366454454928636,-0.8815775945257395
1684252677130103300,7.873103271484375,-1.480477042198181,-0.688963091892004,-1.2939502619802952
1684252677140129300,7.88312939453125,-1.2290513810902832,-0.8168757705777883,-1.6940500886432825
1684252677150155300,7.8931552734375,-0.939351226645708,-0.7458171980142593,-1.893155195405334
1684252677160181200,7.90318115234375,-0.632177374830842,-0.5268786790132522,-1.9068362224943936
1684252677170207200,7.913207275390625,-0.35199557483792304,-0.11491992612183094,-1.8589593496844172
1684252677180233200,7.923233154296875,-0.13791910891532896,0.45320144838392734,-1.7721107950538395
1684252677190259200,7.93325927734375,0.061223991769552226,0.9982400534659623,-1.5623630059853195
1684252677200284200,7.9432841796875,0.27908414094932377,1.3301760060936212,-1.2535573151849209
1684252677210310100,7.95331005859375,0.4650673158098012,1.3580325657904146,-0.7807716800827532
1684252677220336000,7.963336181640625,0.593842091217637,1.1678384952366352,-0.387739892109856
1684252677230362000,7.973362060546875,0.6530134613063187,0.9091928197473287,-0.26898564852215345
1684252677240388400,7.983388427734375,0.6723552175708115,0.6164566586077213,-0.10090594075135886
1684252677250414300,7.993414306640625,0.6859289848931134,0.42827685048580166,-0.004986126982653513
1684252677260440300,8.0034404296875,0.6839275819428264,0.2910159132182598,0.004247857569670305
1684252677270465300,8.01346533203125,0.6708896750628948,0.1748784280002117,-0.03215118815079331
1684252677280491300,8.0234912109375,0.6231583482034504,0.0282727392822504,-0.15241175378137267
1684252677290517200,8.033517333984374,0.49158590490110216,-0.08293313475251197,-0.2558836634300649
1684252677300543200,8.043543212890626,0.26862814032137394,-0.14099369405508042,-0.2329211593851447
1684252677310569200,8.0535693359375,0.08071487418115139,-0.12966273722350596,-0.2378648993976414
1684252677320595200,8.06359521484375,-0.10690846910178661,-0.12947861282825468,-0.22767127603292464
1684252677330621200,8.07362109375,-0.2874151853125542,-0.08479951314628124,-0.20922288841158151
1684252677340647200,8.083647216796875,-0.3293517082881182,-0.005569909086823463,-0.16606617599129675
1684252677350672100,8.093672119140624,-0.23077158013582227,-0.026555413970351216,-0.2493164138689637
1684252677360698000,8.103697998046876,-0.056132367718964814,-0.19346739313602446,-0.3438479242175817
1684252677370724000,8.11372412109375,0.1955063516177237,-0.4923030401945114,-0.24077640293017027
1684252677380750000,8.12375,0.47754400861039753,-0.79238488792181,0.023934436083305626
1684252677390776300,8.1337763671875,0.8881215362764895,-0.9702776953071355,0.36260406261384487
1684252677400802300,8.14380224609375,1.3510475292086601,-1.0711807865142822,0.6496433272860944
1684252677410828300,8.153828369140625,1.846478930556774,-1.1560995421260594,0.8372444587372243
1684252677420854300,8.163854248046874,2.3960317981928587,-1.2361468923091887,0.8557482298076152
1684252677430879200,8.173879150390626,3.0005814536467192,-1.2712673055291175,0.705068277388066
1684252677440905000,8.183905029296875,3.607896774421632,-1.0898843179404736,0.4116721545023843
1684252677450931200,8.19393115234375,4.200970803876221,-0.39285423944890496,-0.18470807689074425
1684252677460957000,8.20395703125,4.901973585391044,0.7334101363837718,-0.9405117948576808
1684252677470983000,8.21398291015625,6.515683624514937,1.868821695268154,-1.8661117056570946
1684252677481009000,8.2240087890625,14.531649061894417,3.162867234316468,-3.930199806307256
1684252677491035000,8.234034912109376,19.415744460767506,3.230851806262135,-5.653284704646468
1684252677501060900,8.244060791015626,11.939818212747573,2.08321204944551,-5.31135050509572
1684252677511086000,8.254086181640625,4.677039040845632,0.8329571368068456,-3.576578091572225
1684252677521112000,8.264112060546875,2.6159426693573593,-0.20063480054736135,-2.6285791558295486
1684252677531138000,8.274137939453125,3.2694255748063323,-1.132834401872754,-2.80277749261111
1684252677541164000,8.2841640625,5.820984034797549,-0.4054816658318042,-3.5050016326144338
1684252677551190000,8.29418994140625,5.154866980963945,2.6183628822416067,-2.1390927804909645
1684252677561216000,8.304216064453126,3.686222999900579,6.204564834466576,1.1212028546594082
1684252677571241700,8.31424169921875,0.6041641632676125,9.067986180871724,3.681230890701711
1684252677581268000,8.32426806640625,0.058626303426548836,12.070726566118001,5.861622334656119
1684252677591293000,8.33429296875,2.1778221779882907,15.988279949080944,8.095429434716701
1684252677601319200,8.344319091796875,0.09616656420454382,16.74286614448428,8.638250948271155
1684252677611345200,8.35434521484375,-3.2559342250704764,14.55098270791769,8.15697842065692
1684252677621371100,8.36437109375,-5.8592918458819385,11.804316686367988,7.644988098695873
1684252677631397000,8.374397216796876,-7.9734233497261995,9.897211145412921,7.979110163190961
1684252677641423000,8.384423095703125,-9.671350718194246,8.86730111144185,10.457047506654263
1684252677651449000,8.394448974609375,-11.33545063586235,8.263995026308297,13.993760328567028
1684252677661474000,8.40447412109375,-9.39301074667573,7.563880425804853,17.03477871428132
1684252677671500000,8.4145,-5.247532405179738,5.5421109793156385,16.80167021563053
1684252677681526000,8.424526123046874,-6.045736793035268,3.5424382138222454,14.898161822384594
1684252677691552000,8.434552001953126,-7.683743653547763,2.1336609647005793,12.950008816248177
1684252677701578000,8.444577880859375,-8.372169569823145,1.2615133887559176,10.788253975963592
1684252677711604000,8.45460400390625,-7.77949886047244,0.6542156036376953,8.03715026422739
1684252677721630000,8.4646298828125,-6.059947104695439,0.5301157612383365,6.397050815349817
1684252677731656200,8.47465625,-3.698920276649296,1.1823422368854284,4.6921734816133975
1684252677741681000,8.484680908203124,-3.0098011174127457,2.256595854973793,1.8839961757853627
1684252677751707100,8.49470703125,-4.888912151505052,3.230162654954195,-1.0723244035914539
1684252677761733000,8.504733154296876,-7.513830739000439,3.6597453273415566,-2.88840965718925
1684252677771759000,8.514759033203125,-7.620875986224412,3.8036885188519953,-3.4731641865879297
1684252677781785000,8.52478515625,-7.166786649090051,3.7762294340401885,-3.85912632843554
1684252677791811000,8.53481103515625,-6.523862254795432,3.182362792903185,-4.100681460653245
1684252677801837000,8.544837158203125,-5.934674126863479,2.098730521094799,-4.603318555596471
1684252677811863000,8.554863037109374,-4.996059982320666,0.7087380519419908,-4.91356465446353
1684252677821888000,8.564887939453126,-3.5445138510525225,-0.6900304288625717,-5.326171642130613
1684252677831914000,8.5749140625,-2.638233703881502,-1.7574895645052193,-5.353337881475687
1684252677841940000,8.58493994140625,-2.3251468286305665,-2.188001042175293,-5.019837748271226
1684252677851966000,8.594966064453125,-2.9390368516206737,-2.5912165166407823,-4.977787243527174
1684252677861992000,8.604991943359375,-5.747957377031446,-3.056090282639861,-5.540107238277793
1684252677872018000,8.615017822265624,-7.382306299558281,-2.8729233342438936,-6.254722657820582
1684252677882044200,8.625044189453124,-7.92372028440237,-2.675284208381176,-6.547337238407135
1684252677892070100,8.635070068359376,-8.255337672600149,-2.9148166025996205,-6.187070094308257
1684252677902094800,8.6450947265625,-8.714769539806246,-3.4009617046862837,-5.082319631147384
1684252677912121000,8.65512109375,-8.617235632771253,-3.959707932603359,-3.6235432563647625
1684252677922147000,8.66514697265625,-7.811761546173691,-4.447636410975456,-2.420968378789723
1684252677932173000,8.675173095703125,-7.1281643652290105,-4.85117863317728,-1.5662984457381068
1684252677942199000,8.685198974609374,-7.355608262246847,-5.23115468635261,-0.7779121989984065
1684252677952225000,8.69522509765625,-8.04091692328453,-5.802298623549937,-0.1019222051218152
1684252677962251000,8.7052509765625,-8.190042485868931,-6.45521483502686,0.49590194146931166
1684252677972276000,8.71527587890625,-7.773949994173646,-7.113371285244822,0.7754790535673499
1684252677982302000,8.725302001953125,-7.283223409515619,-7.709430467990041,0.7549153542924671
1684252677992328000,8.735327880859375,-7.021730527901649,-8.177813118892908,0.789416466570273
1684252678002354000,8.74535400390625,-6.71467358046472,-8.25968300832808,0.8448801412474364
1684252678012380000,8.7553798828125,-5.528624890276789,-8.286336037454008,0.8722493558187037
1684252678022406000,8.765406005859376,-4.0558442478001115,-8.316438330250978,1.0798532647263257
1684252678032431900,8.775431884765625,-2.7336113096654415,-8.158015362489223,1.4884851382173596
1684252678042458000,8.7854580078125,13.43680682928562,-6.88444504071474,4.967390937197208
1684252678052482800,8.79548291015625,70.66122861144542,10.134534046888351,17.898029867064952
1684252678062509000,8.805509033203125,19.90539727871418,35.4830108528018,7.310486679494381
1684252678072535000,8.81553515625,-22.315607824385165,30.88126875274181,-3.4861335582762956
1684252678082561000,8.82556103515625,-26.503889534819123,28.658317977738378,-15.990138728690146
1684252678092587000,8.8355869140625,-4.380053697828949,24.33705753740072,-17.495401837098598
1684252678102613000,8.845613037109375,19.14761024144292,8.277821891608834,-8.581892516711354
1684252678112639000,8.855638916015625,6.82159607809186,-0.10673428157866001,-2.220768462528288
1684252678122665000,8.8656650390625,3.557161443440616,-6.477821803632378,2.400822247339785
1684252678132690000,8.87568994140625,-6.081898239740729,-7.760694206759333,3.6555922993153334
1684252678142716000,8.8857158203125,-7.5572005096495145,-5.219420993939042,-1.5381798741042614
1684252678152742000,8.895741943359376,-6.532045561251044,-3.296161606040597,-4.575946564546228
1684252678162768000,8.905767822265625,-2.254622509074211,-3.6141269009828565,-5.092784911060333
1684252678172793900,8.9157939453125,4.513007585552335,-2.853285736837983,-4.123207765237987
1684252678182819800,8.92581982421875,5.711292072457074,-1.5566817454785107,-1.5645773210339247
1684252678192846000,8.93584619140625,0.6948539034962654,-0.9817793325304984,-0.7898682289257645
1684252678202872000,8.9458720703125,-3.1942452461376782,0.08158931892812252,-1.0375003429695964
1684252678212897000,8.95589697265625,-4.719467146730422,2.411625673165917,-1.0926515906967222
1684252678222923000,8.965923095703126,-4.85825573195666,4.9055537819653745,-0.9007619682714343
1684252678232949000,8.975948974609375,-3.9908486285373566,7.148786882019042,-0.5371600537266582
1684252678242975000,8.98597509765625,-3.3452512156412,8.72998055294156,0.19635441981442273
1684252678253001000,8.9960009765625,-2.5690137449219823,9.368919092470406,0.7478020151559263
1684252678263027000,9.00602685546875,-2.1904192092329264,9.123010148957372,1.3892400433503092
1684252678273053000,9.016052978515624,-2.0141797220125794,8.024687088495492,1.828781945824623
1684252678283079000,9.026078857421876,-1.74350984673053,6.429753646034002,2.218295642673969
1684252678293103900,9.036103759765625,-1.5864184198334812,4.471043005526066,2.475657708093524
1684252678303129900,9.0461298828125,-1.387483262810856,2.399178864046931,2.5785414517238734
1684252678313155800,9.05615576171875,-1.0844495795406401,0.6828449012726545,2.5932436385542155
1684252678323181800,9.066181884765625,-0.6305870368994773,-0.6235626912206411,2.550582016174495
1684252678333207800,9.076207763671874,0.024455226820707318,-1.6140478927761315,2.45481424202919
1684252678343234000,9.086234130859374,0.8260990876056253,-2.3350755174487827,2.404781944750994
1684252678353260000,9.096260009765626,1.5491094105280936,-2.887637503772974,2.164883785960078
1684252678363285000,9.106284912109375,2.0653915844641624,-3.226279676041007,1.8888136590696871
1684252678373311000,9.11631103515625,2.3448702046237884,-3.346139396652579,1.5636906013272702
1684252678383337000,9.1263369140625,2.35126852735877,-3.347967196601629,1.2785022252187133
1684252678393363000,9.136363037109374,2.1801801392912865,-3.40717926402688,1.1204442913770676
1684252678403389000,9.146388916015624,1.8794097247779369,-3.5034038420289755,1.1222289097715168
1684252678413415000,9.156414794921876,1.5369968017995357,-3.602995266115665,1.1361606236860156
1684252678423441000,9.16644091796875,1.2521417492985725,-3.631813364320993,1.1145692618638277
1684252678433467000,9.176466796875,1.0028092610776425,-3.536131222632527,1.0683287580840288
1684252678443492600,9.18649267578125,0.9003098405897617,-3.4622564236044884,1.0131855475328861
1684252678453518600,9.1965185546875,1.0766589256644248,-3.350001917299628,0.8826837291367351
1684252678463544600,9.206544677734374,1.488809986257553,-3.2600533508270977,0.6840769272856414
1684252678473570600,9.216570556640624,2.052321236619353,-3.037524698379636,0.5200378732077777
1684252678483596500,9.226596435546876,2.6759137384563685,-2.5833248866081235,0.4475647576712072
1684252678493622500,9.23662255859375,3.440715622925758,-2.0089707551926375,0.4966609431430697
1684252678503648500,9.2466484375,4.407918733093142,-1.526294790521264,0.5892847201742232
1684252678513674500,9.256674560546875,5.372499093541503,-1.0634089834690093,0.8500456342518329
1684252678523699500,9.266699462890625,6.150615217614174,-0.5972720656663179,1.259357525896281
1684252678533725400,9.276725341796874,6.13003127926886,-0.190460028013587,2.282062304663658
1684252678543751400,9.28675146484375,5.658811359113455,0.034656302839517594,3.8428365801528095
1684252678553777400,9.29677734375,4.708979070463776,0.4839934770107269,5.685262143665552
1684252678563803400,9.306803466796875,3.5037890419542785,1.0881839437633751,7.284741997385025
1684252678573829600,9.31682958984375,2.246498823851347,1.7893056754827499,8.350430031701922
1684252678583855600,9.326855712890625,1.043043656310439,2.233897116431594,9.167049781692027
1684252678593880600,9.336880615234374,-0.048414760812651364,2.188537633270025,9.860251826328039
1684252678603906600,9.346906494140624,-1.0866741237223148,2.378891278299689,10.84551374027729
1684252678613932500,9.3569326171875,-1.7810346907436847,3.26957871954143,11.522008980262278
1684252678623958500,9.36695849609375,-1.935674632835388,4.6110640551567075,11.118037718993424
1684252678633984500,9.376984619140625,-1.5122165808081627,5.321542813286185,9.127810827237367
1684252678644010500,9.387010498046875,-1.104872701301053,5.208320923253893,6.542979043197631
1684252678654036500,9.397036376953125,-0.8594191003400832,4.936571436041593,4.655170031125843
1684252678664062500,9.4070625,-0.697345281920582,4.6274949654757975,3.052528206244111
1684252678674087400,9.41708740234375,-0.42976862341351807,4.581417104911804,1.3647906617484986
1684252678684113400,9.427113525390626,1.5180162069976328,4.839474166858196,-1.5580235154762863
1684252678694139400,9.437139404296875,6.0779006945371625,5.839887472710013,-7.0162775231927625
1684252678704165400,9.447165283203125,6.728899089694023,6.405581912329793,-11.52222992953658
1684252678714191400,9.45719140625,2.4314250370047987,6.0785629578381775,-10.41990114056468
1684252678724217600,9.467217529296875,-0.6395256917670369,5.705592399510741,-8.140739818039537
1684252678734243600,9.47724365234375,-3.0405519372463226,5.31604889204502,-6.474900947749615
1684252678744269600,9.48726953125,-5.276138906461,4.595907987079024,-6.066297350504994
1684252678754294500,9.49729443359375,-5.631191530781984,3.2705759138852355,-7.001234852361678
1684252678764320500,9.507320556640625,-5.059558348762989,1.5010644876748322,-6.862248406475782
1684252678774346500,9.517346435546875,-4.4335447572588915,-0.17875439265072346,-6.458020540097356
1684252678784372500,9.52737255859375,-3.887325125698745,-1.7652572758972644,-6.913379458776116
1684252678794398500,9.5373984375,-3.0524200696945187,-3.4005788428485393,-8.305680204871296
1684252678804424400,9.547424560546874,-3.1494533337309956,-3.9512528234690425,-10.34397525422573
1684252678814450400,9.557450439453126,-2.6912255816176534,-3.453331943392753,-11.50057806969881
1684252678824476400,9.567476318359375,-2.2946040985897183,-3.1721576252311467,-11.256603309118747
1684252678834501600,9.577501708984375,-2.0116040263056756,-2.7545710955858227,-10.812150399857758
1684252678844527400,9.58752734375,-0.9842337399452924,-2.2300018625587223,-9.699179220840334
1684252678854553300,9.59755322265625,0.43203824884593484,-1.7043103475034236,-8.053850639137625
1684252678864579300,9.607579345703124,2.4852853681385514,-0.8915005111902952,-6.445280885511636
1684252678874605600,9.61760546875,3.8677290293470024,0.02452536944746971,-4.641241166755557
1684252678884631600,9.627631591796876,3.571133270169794,0.8094318843126297,-2.8515327556908128
1684252678894657500,9.637657470703125,1.3329922325581312,1.2156933023452758,-1.1646470057189464
1684252678904682800,9.647682861328125,-1.563643401184678,1.1311270134329796,0.8065192117363214
1684252678914708700,9.657708740234375,-3.2526836988419294,0.3374538392663002,1.9847920072257517
1684252678924734700,9.667734619140624,-5.3932794312417505,-0.22600597316920756,3.314602687138319
1684252678934760400,9.677760498046876,-6.399231666520238,-0.29799452005922794,3.3407845916211603
1684252678944786400,9.687786376953126,-6.514287786242366,-0.42186932153105733,2.398170271526277
1684252678954812400,9.6978125,-6.330012584343552,-0.5826742159932852,1.1185907724648714
1684252678964838400,9.70783837890625,-6.618394057404995,-0.5853910737365484,0.3552922782957554
1684252678974864400,9.717864501953125,-6.923123438677191,-0.5681295578122139,-0.04378711927831173
1684252678984889600,9.7278896484375,-6.997533075234293,-0.7192617840439081,-0.10407660667672752
1684252678994915600,9.73791552734375,-6.829616887462139,-1.0896411568343638,-0.13346534437686206
1684252679004941600,9.747941650390626,-6.468261363604665,-1.8079291274100542,-0.0320093685273081
1684252679014967600,9.757967529296875,-5.867044944226741,-2.836822093293071,-0.03137172821089625
1684252679024993500,9.76799365234375,-5.1486646191924805,-3.8779987866878507,-0.35584384776391087
1684252679035019500,9.77801953125,-4.423424052999914,-4.722226674571633,-0.8168781817305832
1684252679045045500,9.78804541015625,-3.8444770408362148,-5.352702506181598,-1.2524755112975836
1684252679055071500,9.798071533203125,-3.3486838204383846,-5.679392374849319,-1.6435880216456948
1684252679065096700,9.8080966796875,-2.877147966201603,-5.663475259271264,-2.2180992433190343
1684252679075122700,9.818122802734376,-2.086106017321348,-5.903361873754859,-1.63064948348701
1684252679085148700,9.828148681640625,-1.5386445690065622,-6.010718086624145,-0.4530486689750105
1684252679095174700,9.838174560546875,-1.78550526028648,-5.3201224250942465,-0.01282371613997966
1684252679105200600,9.84820068359375,-1.4872960745632648,-3.5066070219844576,0.011895166585594415
1684252679115226600,9.8582265625,-0.563682734471187,-0.584694323644042,0.04275441522970795
1684252679125252600,9.868252685546874,0.38817857578806575,3.554089488649368,0.4060409802149981
1684252679135277600,9.878277587890626,2.831325833964348,8.726199865359067,0.48840895536541934
1684252679145303600,9.888303466796875,9.507246197664736,15.50470966591835,-1.4535066176861524
1684252679155329500,9.89832958984375,12.800520850092171,21.62426105222702,-3.87103450063318
1684252679165355500,9.90835546875,8.898343899959325,24.113655609250067,-5.2268198720186945
1684252679175381800,9.9183818359375,0.35451018800735473,20.300258181810378,-4.820604046693444
1684252679185407700,9.92840771484375,-2.931944263011217,11.824169387829302,-3.7980683408826588
1684252679195433700,9.938433837890624,-1.017858946171403,6.270047068202495,-3.0347499729692933
1684252679205459700,9.948459716796876,0.587758387389779,1.8740970053225754,-2.6911878799557685
1684252679215484700,9.958484619140625,2.3955951603412626,-2.0228385370254514,-2.70201117952615
1684252679225510700,9.9685107421875,12.343287954235077,-7.183140987041592,-4.008526031786203
1684252679235536600,9.97853662109375,7.227872693693637,-8.216841060945391,-3.4498248120546338
1684252679245562600,9.988562744140625,-0.7293699210822582,-7.9640967184543605,-1.7212999146185815
1684252679255588600,9.998588623046874,-1.170388179719448,-8.84055748142302,-0.5294622657656669
1684252679265614600,10.008614501953126,-1.031737833920121,-9.112559482091665,0.051285073818266386
1684252679275640600,10.018640625,-1.3926526282727718,-8.855300877046584,0.287046717326343
1684252679285665500,10.02866552734375,-1.8035247549712656,-7.928390614300966,-0.022137816723808646
1684252679295691500,10.03869140625,-2.409934651339054,-6.052938102716207,-0.8351178219720721
1684252679305717500,10.048717529296875,-3.0305063440501687,-3.6934161262750624,-2.124513050996512
1684252679315743500,10.058743408203124,-3.7286791628360745,-0.8297527878075838,-2.6058149508357045
1684252679325769500,10.06876953125,-4.205034107792377,1.8883885655254125,-2.3615271787837147
1684252679335795700,10.078795654296876,-3.908127382969856,3.9244560019582506,-1.639054177608341
1684252679345821700,10.08882177734375,-3.7252515264749526,4.924318688189983,-0.3348257557850331
1684252679355847700,10.09884765625,-3.398112160474062,4.8683939718723295,1.0296945645894855
1684252679365872600,10.10887255859375,-2.90053205665946,4.378167737951874,1.7708745312571526
1684252679375898600,10.118898681640625,-2.669433144265413,3.545248010545969,2.059855285385996
1684252679385924600,10.128924560546874,-2.6775509842693803,2.3881074349343776,2.065249984036386
1684252679395950600,10.13895068359375,-2.6638603125691414,1.2884656930893659,2.0277105269759894
1684252679405976600,10.1489765625,-2.550792736315727,0.5902642327308655,1.954501790641248
1684252679416002600,10.15900244140625,-2.8499183062314986,0.19582827704846859,1.785832446414232
1684252679426028500,10.169028564453125,-3.0478175443351265,-0.2449918286681175,1.7460669838674365
1684252679436054500,10.179054443359375,-2.6943244244158264,-0.3313800723105669,1.9228962536744771
1684252679446079200,10.189079345703124,-1.911379565012455,0.1081418102890253,2.427827743165195
1684252679456105200,10.199105224609376,-1.135952826154232,0.497837293446064,2.8818758715063333
1684252679466131200,10.209131103515626,-0.4089513877689838,0.654186377543211,3.1779058134943243
1684252679476157200,10.2191572265625,0.19137367225978522,0.5178238504201174,3.3630624744027853
1684252679486183200,10.22918310546875,0.5910867280948907,0.1396042855232954,3.384275066040456
1684252679496209200,10.239209228515625,0.9744289697676897,-0.2171680021971464,3.4389205562025307
1684252679506235100,10.249235107421875,2.156925374301523,-0.2838607807666063,4.060508147957921
1684252679516260000,10.259260009765624,4.475232273909449,0.21466332589983939,5.271847346746921
1684252679526286000,10.2692861328125,6.8027773958534,0.8148562474489212,6.578672872391342
1684252679536312000,10.27931201171875,8.631592659425735,1.002912721452117,7.119291907465458
1684252679546338000,10.289338134765625,10.650858598661422,1.1468845545351505,6.729692870420217
1684252679556364000,10.299364013671875,17.72328003388047,0.9226479291260242,5.290808067804575
1684252679566390300,10.309390380859375,26.701876451206207,-0.14841127683520317,3.626188510176539
1684252679576416300,10.319416259765624,19.612873299020528,-1.1402911476194857,3.280239229765534
1684252679586442200,10.329442138671874,7.92039961554706,-1.2118576697051524,3.5816587558373807
1684252679596467200,10.33946728515625,3.477525304406881,-0.552177955442667,2.9579227538764474
1684252679606493200,10.3494931640625,0.852397165814042,1.582602953198552,2.028792184732854
1684252679616519200,10.359519287109375,-0.7984919726252555,4.345633249571919,3.111932581371069
1684252679626545200,10.369545166015625,-3.348452349770069,8.912985004252194,4.290540600164235
1684252679636571100,10.379571044921875,-7.798091332739591,15.072412473875284,3.8903339521259066
1684252679646597000,10.38959716796875,-7.507678646111488,17.681464506936074,3.7887750273585317
1684252679656623000,10.399623046875,-4.4701513173833485,12.36459845328927,2.7669261347681284
1684252679666648000,10.40964794921875,-2.7652549866855143,5.962447099930047,1.4875184851422905
1684252679676674000,10.419674072265625,-2.2451627529419955,1.59327456933856,0.54577780607678
1684252679686700000,10.429699951171875,0.7247275021038949,-0.9404922133743763,-1.0012546520467847
1684252679696726000,10.43972607421875,6.6070648541390895,-0.5951105037182569,-3.925219095285237
1684252679706752000,10.449751953125,2.4866239232659337,2.144807797136903,-1.5209712574109435
1684252679716778200,10.4597783203125,-0.4072667956829071,6.200699975731968,-0.06093932960927486
1684252679726804200,10.46980419921875,-2.928096647672355,10.60692359534502,0.36597700964566315
1684252679736830200,10.479830322265625,-4.46503908893615,14.004936387097835,-0.5751985463503748
1684252679746855200,10.489855224609375,-5.1379105854660265,14.992903468352555,-1.521432737442851
1684252679756881200,10.499881103515625,-4.220015403825045,13.603741604804991,-2.251748707203567
1684252679766907100,10.5099072265625,-2.4951196566715836,11.193347519260644,-2.177792951893806
1684252679776933000,10.51993310546875,-2.696476634013653,8.539570209288597,0.8098071473658084
1684252679786959000,10.529958984375,-4.903198158749937,5.620249281007051,4.308972913433611
1684252679796985000,10.539985107421876,-8.027673410829902,2.4837878230571744,5.536058255147934
1684252679807011000,10.550010986328125,-9.612418636754155,-0.41012452320158477,5.024340320387482
1684252679817036000,10.5600361328125,-7.893336836576461,-2.7825334537446498,4.049456008067727
1684252679827062000,10.57006201171875,-4.984297063812614,-4.553675111505389,3.8185073177993294
1684252679837088000,10.580087890625,-2.441859483388066,-5.869944757321477,3.5730645304933186
1684252679847114000,10.590114013671876,-0.8187965095072984,-6.531042521688342,2.445618251399696
1684252679857140000,10.600139892578126,-0.6435773052453995,-6.6638704449445,0.6513795034289359
1684252679867166200,10.610166259765625,0.06306172859072685,-6.079727325442433,-1.5441308914631604
1684252679877192200,10.620192138671875,1.61450761924237,-4.877474519428611,-3.4641853458404537
1684252679887218200,10.63021826171875,1.9208166709214447,-3.473584457826614,-4.372823162053526
1684252679897243100,10.6402431640625,1.5670809744179248,-2.4798382086485624,-4.337178724959492
1684252679907269000,10.65026904296875,0.9913304202079772,-1.826383652511239,-3.524941135576367
1684252679917295000,10.660295166015626,-0.6194254452854394,-1.5032652125895023,-2.191504666382074
1684252679927321000,10.670321044921875,-2.684506210234761,-1.4403554596900938,-0.7499006679356097
1684252679937347000,10.68034716796875,-4.14354912699908,-1.5723048465460538,0.22954317085202783
1684252679947373000,10.690373046875,-4.601765188674628,-1.765140371519327,0.5488630952736363
1684252679957399000,10.70039892578125,-4.361034816843271,-2.017645060035586,0.19925702765444292
1684252679967424300,10.71042431640625,-3.9182869579344985,-2.243059497052431,-0.5608110149597749
1684252679977450200,10.7204501953125,-3.17302797832489,-2.3489959062516688,-1.4965785744324325
1684252679987476200,10.730476318359376,-2.6605852364212272,-2.5725357815682885,-2.1349647407755254
1684252679997502200,10.740502197265625,-2.9276725770413874,-2.9343413872808215,-2.2603796112962065
1684252680007528200,10.750528076171875,-3.6278964831382035,-3.263989521232247,-1.8913617361173032
1684252680017554200,10.76055419921875,-4.466380274412035,-3.4712095453888177,-1.450926245804131
1684252680027580200,10.770580078125,-5.331406620174646,-3.6892385483294725,-1.2100547850016503
1684252680037606100,10.780606201171874,-5.940038284245133,-3.9606875912904735,-1.1894827562898396
1684252680047631400,10.79063134765625,-6.098732470163703,-4.199460691574216,-1.319583008147776
1684252680057657300,10.8006572265625,-6.129457863295078,-4.278443042874336,-1.3783699820287525
1684252680067683300,10.810683349609375,-5.991680793198943,-4.319716133505105,-1.4548641697749494
1684252680077709300,10.820709228515625,-5.521244132375717,-4.376197899183631,-1.6228331106476486
1684252680087735300,10.8307353515625,-5.091769012016058,-4.348331987136602,-1.6970520469382404
1684252680097761300,10.84076123046875,-4.770993920350074,-4.19490142083466,-1.5914344944298267
1684252680107787000,10.850787109375,-4.511039792610704,-3.8945460168629884,-1.4362405717171727
1684252680117812200,10.860812255859376,-4.255842211748659,-3.4424966611236334,-1.3789488048300147
1684252680127838200,10.870838134765625,-3.8749092962399123,-2.730421573713422,-1.3496113589257002
1684252680137864200,10.8808642578125,-3.274372091297805,-1.4545780463099478,-1.2404828756868838
1684252680147890200,10.89089013671875,-2.3160566364631054,0.7951701347261667,-0.6831193342998624
1684252680157916200,10.900916259765625,-1.1269871371492743,2.989080693206191,0.5119602190837264
1684252680167942400,10.9109423828125,0.3134761668294668,4.48183269508779,2.095095671723783
1684252680177968400,10.920968505859374,1.897235012064874,5.535875299796461,3.8224668690800665
1684252680187994400,10.930994384765626,3.9137306098043916,6.388993181100488,5.485222970923781
1684252680198019300,10.941019287109375,5.289043980741501,7.2251166729837655,6.854963510164618
1684252680208045300,10.95104541015625,4.944730192577839,8.358319323647022,7.382329095911979
1684252680218071300,10.9610712890625,3.29328283573389,10.110227288627623,7.204670681804418
1684252680228097300,10.97109716796875,1.2045054803114383,13.238681965732574,6.299521584489941
1684252680238123300,10.981123291015624,0.0651811684301123,17.321423572808502,4.730856555750965
1684252680248149200,10.991149169921876,4.085245698851347,19.87190183634758,2.737578459730744
1684252680258175200,11.00117529296875,8.786881420814991,14.931214197158813,1.533144071894139
1684252680268200200,11.0112001953125,4.577112685716152,6.885186798992753,0.9558766833804547
1684252680278226200,11.02122607421875,3.975077351170778,2.232387880912423,-1.100587644392997
1684252680288252200,11.031252197265625,8.616176479107141,-1.8887936391949653,-3.9046465551167726
1684252680298278100,11.041278076171874,11.061281812548637,-4.080883996510505,-6.245100842994451
1684252680308304100,11.05130419921875,8.03795339730382,-4.5446255436092615,-7.261034374061226
1684252680318330000,11.061330078125,3.393216205126047,-4.626778926160931,-5.6614270945698015
1684252680328356400,11.0713564453125,-0.26489713709950446,-5.003907773211598,-3.1745565030664205
1684252680338382300,11.08138232421875,-1.470637200707197,-5.649038153117894,-1.9194860068395734
1684252680348407300,11.0914072265625,-1.7057283976078033,-6.269765328651666,-1.0296088590674102
1684252680358433300,11.101433349609374,-1.9006841296054422,-6.537035624623298,-0.20109101988226175
1684252680368459300,11.111459228515624,-2.104176219280064,-6.070239366129041,0.30500491027794774
1684252680378485200,11.1214853515625,-2.9786767880916596,-4.391335262560844,0.20163784011006355
1684252680388511200,11.13151123046875,-4.371503603887557,-2.063957313877344,0.12910904886350036
1684252680398537200,11.141537109375,-5.565852504909039,0.5253180055677891,0.22361191763952373
1684252680408563200,11.151563232421875,-6.5363248460054395,2.76308114977777,0.30805487243309615
1684252680418588200,11.161588134765625,-7.66545513266325,4.3616064792513844,0.9334547159530222
1684252680428614100,11.1716142578125,-8.20630622292757,4.614660618343949,1.7483020494431256
1684252680438640000,11.18164013671875,-7.450496038687229,3.552528815203905,2.80776667920053
1684252680448667000,11.1916669921875,-6.355730962967872,1.9757424393296241,3.42229470783323
1684252680458692900,11.20169287109375,-5.036987620514631,0.3274702053904533,3.2685099212661384
1684252680468718800,11.21171875,-4.28587699226737,-0.7517582785010337,2.848986578339338
1684252680478744800,11.221744873046875,-3.9929508615136142,-1.2109423084259032,2.4022002576947212
1684252680488770800,11.231770751953125,-3.072409549278021,-1.6287667384803295,1.9799216247104108
1684252680498795800,11.241795654296874,-2.3770202237308022,-1.8069775257736442,1.7281622016035019
1684252680508821800,11.25182177734375,-2.019560538268089,-1.6635656646609305,1.6203901014097033
1684252680518847700,11.26184765625,-1.7111340560436248,-1.2555939355790615,1.5188208013787865
1684252680528873700,11.271873779296875,-1.4846423451840878,-0.7847194678604602,1.6371137110650538
1684252680538900000,11.28189990234375,-1.1859376310288905,-0.28896891756057735,1.6760665420547127
1684252680548926000,11.291926025390625,-0.8815724068939685,0.29561843857765197,1.7569734316766261
1684252680558952000,11.301951904296875,-0.5826134257167578,1.1213117218613624,1.830710283538699
1684252680568977000,11.311976806640626,0.5982324351310729,2.1376386361598967,1.6677672080039978
1684252680579003000,11.3220029296875,5.980446867001056,2.7961814553469417,0.909715528447181
1684252680589028900,11.33202880859375,18.62809420015216,2.652890590265393,-1.2950485786110162
1684252680599054800,11.342054931640625,17.28543689814806,1.1899041965723036,-2.0705925141081214
1684252680609080800,11.352080810546875,8.4865610881567,0.18918226316273212,-0.04878010526001453
1684252680619106800,11.36210693359375,2.7808962079316375,-0.22832301793992518,1.9947994603686034
1684252680629132800,11.3721328125,0.15327398750074206,-0.5196762002885341,2.5744845775485037
1684252680639158800,11.38215869140625,-0.3435223455250263,-0.8824480206847191,2.042114899903536
1684252680649183700,11.392183837890625,-0.3853921599399298,-1.2887199601113795,1.4300861407406626
1684252680659209700,11.402209716796875,-0.6668961484473198,-1.6844851185709238,0.8795772875539958
1684252680669235700,11.412235595703125,-0.8691787892669439,-1.818041356101632,0.5132856224685907
1684252680679261700,11.42226171875,-0.8298673540979623,-1.5089584557950495,0.22617519225627183
1684252680689288000,11.432287841796875,-0.7407306885302066,-1.0504285058647393,0.12323913391679525
1684252680699314000,11.44231396484375,-0.5284375988930463,-0.502649077641964,0.21620354107916354
1684252680709340000,11.45233984375,-0.2143191886372864,-0.036214638197422024,0.6097942781090736
1684252680719364900,11.46236474609375,0.21575404374599455,0.3185463097006082,1.1354368394561112
1684252680729390800,11.472390869140625,0.7402326758801937,0.5596604201525449,1.685730442456901
1684252680739416800,11.482416748046875,1.3339800745517014,0.6817565215140581,2.246183182030916
1684252680749442800,11.49244287109375,2.172257091207057,0.7577075422942638,2.6867455135941505
1684252680759468800,11.50246875,5.009375975489616,0.5591974788159132,3.2908132307499645
1684252680769494800,11.512494873046874,10.417190128040312,0.03656301324367523,3.8121313530266283
1684252680779520800,11.522520751953126,13.432177415919304,-0.5417091683983802,3.720894208048284
1684252680789546800,11.532546630859375,12.107384271907806,-0.9259487242370843,3.5468612909615036
1684252680799571700,11.54257177734375,8.928524518689512,-0.9741454766511917,3.850200971440971
1684252680809597700,11.55259765625,5.530304806187749,-0.9229594792932272,4.367276341581344
1684252680819623700,11.562623779296874,2.719336700597405,-1.2365993122518062,4.940398300853372
1684252680829649700,11.572649658203124,1.0541606781303883,-1.6689216387361288,5.124070860683918
1684252680839676000,11.582676025390626,0.1041303826905787,-1.253655076470971,5.595002027025818
1684252680849702000,11.592701904296876,-0.41900910979434847,0.37496027083992955,6.8347571729600425
1684252680859728000,11.602727783203125,-1.2158528768211603,2.9121704720050094,8.81427854630649
1684252680869752800,11.6127529296875,-2.1653338678151366,5.705007877621054,10.432256764268875
1684252680879778800,11.62277880859375,-3.377680782341957,8.157280033951997,9.967386505401134
1684252680889804800,11.6328046875,-5.044440859130025,10.160201572108269,7.091001632526517
1684252680899830800,11.642830810546876,-6.297841084057092,11.536626703679561,3.5557992151767013
1684252680909856800,11.652856689453126,-6.658025810569525,11.952653144401312,0.817884509228915
1684252680919882800,11.6628828125,-7.0294497239768505,11.094354061067104,-2.1352710302457214
1684252680929908700,11.67290869140625,-6.904751331162452,9.757168468472361,-5.782466964876652
1684252680939933700,11.68293359375,-4.54094393248707,8.003810304683446,-9.798158650508523
1684252680949959700,11.692959716796874,-0.10007613886371254,5.346932106086611,-13.664654630929231
1684252680959985700,11.702985595703124,-0.9719209324695169,3.4361306332230566,-14.03096280875802
1684252680970011600,11.71301171875,-2.4886650737047193,1.9265286188274622,-12.876657164311409
1684252680980037600,11.72303759765625,-1.5355214685499667,0.4845861822068691,-10.779798282307386
1684252680990063900,11.73306396484375,1.6000186367712914,-2.0148679965376854,-7.588409302383661
1684252681000089900,11.74308984375,2.2315910314463077,-3.9668180568695064,-6.3851820983797305
1684252681010115800,11.75311572265625,0.30884149276614187,-4.360871150714159,-7.438225755178928
1684252681020140800,11.763140869140624,-1.5223416689813136,-4.418026870131492,-7.503930107232928
1684252681030166800,11.773166748046876,-2.4783377409577367,-3.196525758290291,-6.307071853739023
1684252681040192800,11.78319287109375,-2.870364881932735,-1.3834551763385534,-4.284699765181541
1684252681050218800,11.79321875,-2.926171817089617,0.3009235592484474,-2.363332620770484
1684252681060244700,11.80324462890625,-2.27324566874057,1.012612277689576,-1.4143909973502158
1684252681070270700,11.813270751953125,-0.48923196218609805,1.0780834055095911,-0.33875936890691516
1684252681080296700,11.823296630859375,1.9470976518645882,1.4803081153720616,0.7409216810576618
1684252681090321700,11.83332177734375,3.7605019958153365,2.641118903928995,0.6065802844986319
1684252681100347600,11.84334765625,3.2981109865427016,3.6568729867756367,-1.2398467697404325
1684252681110373600,11.85337353515625,0.680570526599884,4.2626293876707555,-3.2647751186519858
1684252681120399600,11.863399658203125,-3.15918942258656,4.406112560454011,-4.463168326628208
1684252681130425600,11.873425537109375,-6.213048585173487,3.812877202957868,-4.494838891655206
1684252681140451800,11.883451904296875,-7.524611660733819,2.902814614638686,-2.8543068965792653
1684252681150477800,11.893477783203124,-6.75962039117217,1.992771900063753,-0.6175161045327783
1684252681160502800,11.903502685546876,-4.927572721549868,1.3264081779927015,0.8747387614816426
1684252681170528800,11.91352880859375,-4.136380258283019,0.7103817274957895,1.677666816858202
1684252681180554800,11.9235546875,-4.497807093811035,0.12687573685348033,2.4658149439930916
1684252681190580700,11.933580810546875,-4.632589073744416,-0.5056090964913368,3.1261411394655703
1684252681200606700,11.943606689453125,-4.39161378724128,-1.1406091275274752,3.3347719072028994
1684252681210632700,11.9536328125,-4.2236219038844105,-1.7616852626293897,2.8890076230823993
1684252681220658700,11.96365869140625,-4.257297963514924,-2.407575520992279,1.506975465284288
1684252681230684700,11.9736845703125,-3.9183179375946517,-3.220123491498828,-0.0895288797557354
1684252681240710000,11.9837099609375,-3.4718273850262165,-4.033026851314306,-0.7501710093095898
1684252681250735900,11.99373583984375,-3.3041914755001662,-4.8472068069368595,-0.5374754763513803
1684252681260761900,12.003761962890625,-3.471747890049219,-5.490901601082086,-0.16175079701021314
1684252681270787800,12.013787841796875,-3.755255911855399,-6.000744974142313,0.06777267362750135
1684252681280813600,12.0238134765625,-3.974978566971421,-6.498360149270296,0.13145329216839746
1684252681290839800,12.03383984375,-4.358067199209332,-6.736399674582481,-0.15690659011574462
1684252681300865800,12.04386572265625,-4.844189504942298,-7.0524541674673555,-0.5053993627307937
1684252681310890800,12.053890869140625,-5.549470694428682,-7.112389872992038,-1.0384252027295529
1684252681320917000,12.0639169921875,-5.956821661263704,-6.554424566319584,-1.6873682727918027
1684252681330943000,12.07394287109375,-5.282940403169393,-5.948877424260973,-2.194664299456775
1684252681340969000,12.083968994140625,-4.121945782478154,-5.411242957955599,-2.544363580051064
1684252681350995000,12.093994873046874,-2.5806971684530375,-5.267646972447634,-2.5557100267127155
1684252681361021000,12.10402099609375,-0.9242623785853386,-5.159720266214013,-2.3885462647430598
1684252681371046700,12.114046630859375,0.6738821348771452,-4.229648909088969,-1.7284250903233884
1684252681381072600,12.12407275390625,2.596323484390974,-1.8743892662674186,-0.9199800250910222
1684252681391097900,12.134097900390625,4.869380644822121,1.77119601829648,-0.3233725608132779
1684252681401123800,12.144123779296875,8.332629002073407,6.816346487000584,-0.2540471687179059
1684252681411149800,12.15414990234375,10.830025079244374,11.754029099154472,-0.7152573707081377
1684252681421175800,12.16417578125,11.219693089872598,14.589803144699335,1.1808600355036556
1684252681431201800,12.174201904296876,9.262117590874434,13.26847387740612,3.7442952496409414
1684252681441227000,12.18422705078125,5.59910244808197,9.378922015568614,4.05075598475039
1684252681451253000,12.1942529296875,2.5676854189276694,5.960992809468507,2.573568631747365
1684252681461278000,12.20427783203125,1.8963292953968047,4.211638620623946,1.1955690904662013
1684252681471304000,12.214303955078124,2.2430326090455055,3.2861972613871098,0.16327128457576034
1684252681481330200,12.224330078125,2.307943911025673,2.8035657203793525,-0.7325275083303451
1684252681491356200,12.234356201171876,1.5226093800067901,2.2378566677123306,-1.4030351983383298
1684252681501382100,12.244382080078125,1.2311819633781909,1.653790120577812,-1.9433141878031193
1684252681511408000,12.254408203125,1.5777274561166763,1.9007488654047249,-2.794948698681593
1684252681521434000,12.26443408203125,1.8979916756510733,2.9412960287243126,-3.9917715886011718
1684252681531459000,12.274458984375,2.039511439406872,3.3110335964798927,-4.353514358210563
1684252681541485000,12.284485107421874,1.7795314465738832,2.803057186335325,-3.9617768478319046
1684252681551511000,12.294510986328126,1.6781765199460088,1.7067618323087692,-3.2581083542391656
1684252681561537000,12.304537109375,1.7581835381187498,0.30800621098577974,-2.5946879921436308
1684252681571563000,12.31456298828125,1.6856861649237571,-1.1586784527033567,-1.7620016351021826
1684252681581589000,12.324589111328125,1.635144164557755,-2.10624454998672,-0.8872069056496024
1684252681591615000,12.334614990234375,1.7487429250784217,-2.5521967578947544,-0.30874285469725726
1684252681601641000,12.344640869140624,1.9286963182553647,-2.571472536250949,0.06765080994665622
1684252681611666000,12.354666015625,1.3165762275472284,-2.3333996931910512,0.6671066493928433
1684252681621692000,12.36469189453125,-0.5149173153236508,-2.008224905261397,2.040925982379913
1684252681631718100,12.37471826171875,-2.914877392876148,-3.099039197528362,7.091885429623723
1684252681641744100,12.384744140625,-7.4014809556275605,-1.897168084308505,9.263088481733202
1684252681651770000,12.39477001953125,-11.264781939399242,0.49907531080842016,10.076510896986722
1684252681661796000,12.404796142578125,-15.530914951276777,3.36174730015099,8.796999494725465
1684252681671822000,12.414822021484374,-16.19882122661471,3.3831858094990253,7.140546292418241
1684252681681847000,12.424846923828126,-14.24375800269842,2.364050267520547,4.012387675650418
1684252681691873000,12.434873046875,-9.31285233733356,2.4975503909498453,-0.7273091891601682
1684252681701899000,12.44489892578125,-3.832451087477803,3.93281232689321,-4.8169297420948745
1684252681711925000,12.454925048828125,-0.739901836490631,5.318186488595605,-6.520094426694512
1684252681721951000,12.464950927734375,-0.6298430866643786,3.8383623573482035,-4.6695524844825265
1684252681731977000,12.47497705078125,-7.993990336936712,-1.990399325713515,-4.0444530852139
1684252681742003000,12.4850029296875,-8.554357444053888,-3.6772646174192425,-3.7464232015803454
1684252681752028000,12.49502783203125,-9.424272146379947,-4.8007075060904025,-2.068210002885759
1684252681762054000,12.505053955078125,-5.252936894571781,-6.015368542778492,-0.41246699467450376
1684252681772079900,12.515079833984375,-4.640430142633616,-3.0641555156737565,-3.641858665256202
1684252681782106000,12.525106201171875,-7.180835632708669,0.13349194012284277,-5.486029026609659
1684252681792132000,12.535132080078125,-8.14782013168931,2.5339240191012617,-6.173131000804901
1684252681802158000,12.545157958984374,-7.595928591972589,3.587691313999891,-7.489596461454034
1684252681812184000,12.55518408203125,-5.267297428357601,3.5441777509659524,-5.849226378941536
1684252681822209000,12.565208984375,-1.929195792210102,3.3206460589557882,-3.7617648553580043
1684252681832235000,12.575235107421875,0.7775251724421978,3.5878006195932626,-2.620140997830033
1684252681842261000,12.585260986328125,22.84505839971304,5.137612479302287,0.3132859049543738
1684252681852287000,12.595286865234375,28.7971442646265,6.290709332481026,5.405765987849235
1684252681862313000,12.60531298828125,12.18022154458165,5.531851451107859,6.0402978168517345
1684252681872339000,12.6153388671875,6.376297950178384,3.8770524457484483,1.8638257866770027
1684252681882365000,12.625364990234376,4.631512968945503,2.760260831660032,-4.618948963187635
1684252681892391000,12.635390869140625,1.7880939616054294,2.260939437136054,-8.512886200502514
1684252681902416000,12.645415771484375,-2.0208745434761046,2.4376544329136607,-9.547968084153533
1684252681912441900,12.65544189453125,-3.8139813648074865,1.9788468350857495,-7.147237899011373
1684252681922467800,12.6654677734375,-4.60113711990416,0.6152928755253553,-3.4130326662302015
1684252681932493800,12.675493896484374,-4.9851148099362845,-0.5035924959719181,0.06729980455189943
1684252681942520000,12.68552001953125,-4.060219394144416,-0.6839063930243253,2.462496028703451
1684252681952546000,12.695546142578126,-2.5919524296998975,-1.0350164171993732,3.5498873607844112
1684252681962572000,12.705572021484375,-1.2145844643205403,-1.4441291330099104,3.2218244501978157
1684252681972597200,12.71559716796875,-0.813618230086565,-1.2559943330734968,2.6370275429621337
1684252681982623000,12.725623046875,-0.9457545908819883,-1.6563853977680205,2.417019348903
