time,seconds_elapsed,z,y,x
1684252491990731800,0.022731689453125,2.6947780134022232,2.574355398210883,2.223878557372838
1684252492000757800,0.0327578125,3.3420296232461926,2.1337819607317448,1.0564931396659463
1684252492010783700,0.04278369140625,3.349914823538065,1.4709586877465248,-0.41276411445755506
1684252492020809700,0.052809814453125,2.497110245966911,0.2589794374883175,-1.6985872936815023
1684252492030835700,0.062835693359375,2.3171739500552415,-0.9222019389241933,-2.4392051694869994
1684252492040862000,0.072862060546875,1.867978814703226,-0.5557949768960475,-2.4092104287177323
1684252492050888000,0.082887939453125,-0.3961836761325597,-0.43359424611628056,-2.4621932463645932
1684252492060914000,0.092913818359375,-2.027576671463251,-1.2449758031919598,-3.1232533090695735
1684252492070940000,0.10293994140625,-5.506853787973522,-4.714551025377213,-8.321762740144132
1684252492080965600,0.112965576171875,-2.2626298744410276,-3.4262785167723893,-7.93131205470562
1684252492090992600,0.12299267578125,1.5260697495937348,-0.18468027556836605,-4.262694269600511
1684252492101018600,0.1330185546875,1.523040172639489,0.965008230471611,-2.8144427959635854
1684252492111044600,0.143044677734375,0.8875403753876686,1.6848451840549707,-1.402935098964721
1684252492121070600,0.153070556640625,0.8524567870467901,1.9958760035589336,-0.31498189521729947
1684252492131096800,0.163096923828125,0.6065168638736009,1.7321929184243081,0.09473817536924034
1684252492141122800,0.173122802734375,1.1139818173646927,1.5753049051448702,0.5673348272379487
1684252492151148800,0.183148681640625,1.295621410062909,1.4603215583980083,1.1966259060427547
1684252492161174800,0.1931748046875,1.105292314952612,1.3570526148423552,1.7917033842742442
1684252492171200800,0.20320068359375,1.2772282597601412,1.3804355362564324,1.5267548092484473
1684252492181227800,0.213227783203125,1.7009633751630782,1.6238833503529428,1.4326038226500153
1684252492191253800,0.223253662109375,2.327637476402521,2.0883926669538018,0.9069270667724311
1684252492201279700,0.23327978515625,3.5405373486369847,2.415544307914376,0.7367813663825392
1684252492211306000,0.243305908203125,5.442858577924967,3.2344363867506383,-0.5939626488573849
1684252492221331700,0.253331787109375,5.466428838604688,3.8369907767340536,-3.0819325799047945
1684252492231357700,0.263357666015625,6.011483225777745,5.4868391739487645,-1.9170351065561175
1684252492241383700,0.2733837890625,6.149964060229062,6.4762447635740035,-1.9040005606770514
1684252492251410000,0.283409912109375,6.164903270685673,7.029238127052784,-3.0214596987634894
1684252492261436000,0.293435791015625,6.3607449917376035,8.129182066714764,-2.919486347976327
1684252492271463000,0.303462890625,6.21364129036963,8.465789518284797,-2.6811229975372552
1684252492281489200,0.3134892578125,6.0306643115878105,7.7039868156313895,-2.34709094941318
1684252492291515100,0.32351513671875,5.239290646535157,6.436763232535124,-2.3345219752192494
1684252492301541000,0.333541015625,5.6985296215176575,7.090394314283132,-3.043758624333143
1684252492311567000,0.343567138671875,5.683981456205249,9.015523003184795,-2.383912321332097
1684252492321593000,0.353593017578125,3.9739614988833663,10.276856943720578,-3.3045798902958627
1684252492331619000,0.363619140625,2.205420086748898,11.246486404252051,-3.6902094391882416
1684252492341645000,0.37364501953125,1.0827829615026712,12.141402276843786,-3.471579547744989
1684252492351671000,0.383671142578125,0.565215277800709,12.262411167490482,-2.69476573844254
1684252492361698000,0.393697998046875,-0.03342062356472015,12.424548187339305,-1.6636504203349352
1684252492371724000,0.40372412109375,-1.3117349249958992,12.444566893017292,1.263883040496707
1684252492381750000,0.41375,-1.8609132602311669,11.724521265119314,3.117594260394573
1684252492391776000,0.42377587890625,-1.4866859798409044,11.34289159951806,5.426846769800782
1684252492401802000,0.433802001953125,-1.2453753239035605,10.04285178849101,7.751073560976982
1684252492411828000,0.443827880859375,-1.0989932148084043,8.450410747367144,9.036846361720562
1684252492421854000,0.45385400390625,-0.9830115046739578,7.2511951170921325,10.339970110237598
1684252492431880000,0.4638798828125,-0.8839502419412135,5.940479598271846,11.317850681763886
1684252492441906000,0.473906005859375,0.6626876639068127,4.408523420988023,12.748231859928369
1684252492451933200,0.48393310546875,3.0834768867373463,2.050080179694295,15.306045873183011
1684252492461959200,0.493959228515625,3.7179438338100907,-0.2484583357349038,17.359655980569123
1684252492471985200,0.503985107421875,3.4623347495377064,-1.4595622644633053,19.39277859572172
1684252492482011100,0.51401123046875,3.2338182548522947,-2.6942221330851317,20.910199759435653
1684252492492037000,0.524037109375,3.195091341573,-4.227081104427576,20.88700593085289
1684252492502063000,0.53406298828125,3.229117529815435,-5.564191878220439,19.80214733211994
1684252492512089000,0.544089111328125,3.963517846280336,-6.580560878095031,19.249673608601093
1684252492522115000,0.554114990234375,5.079422740662098,-7.478907894179224,18.09245587610006
1684252492532141000,0.56414111328125,6.099442664259672,-8.063935979822277,15.587237142479418
1684252492542168000,0.57416796875,7.013909625017643,-8.397812545123696,13.147855447381733
1684252492552194000,0.584194091796875,7.84387810140252,-8.758355583554506,10.441564690840243
1684252492562220000,0.594219970703125,8.1711711966604,-8.861051987919211,8.079387815976142
1684252492572246000,0.60424609375,7.529229968184232,-8.508367846295236,6.071250588998198
1684252492582272000,0.61427197265625,6.178849378451704,-7.87142661806345,4.209506284770369
1684252492592298000,0.624298095703125,4.836663785612583,-7.417400409293174,3.0596237174630163
1684252492602324000,0.634323974609375,3.818187584325671,-6.884267346060276,1.6583189961791038
1684252492612350000,0.644349853515625,2.9640993966847655,-6.234802151820063,0.5629179606437683
1684252492622376000,0.6543759765625,2.110602745196223,-5.842735847878456,0.06336626449525357
1684252492632403200,0.6644033203125,1.4529279410153626,-5.5897115194022655,-1.1082710385024548
1684252492642429200,0.67442919921875,5.241031937244534,-2.7408862691044806,-4.261261606448889
1684252492652455200,0.684455078125,12.318649187541007,0.8628262053698301,-7.834345133903622
1684252492662481200,0.694481201171875,7.1350383426517245,-2.2052815550610423,-6.016468028452992
1684252492672507100,0.704507080078125,2.7159996651291847,-3.1007690900608895,-2.0598031168073416
1684252492682533000,0.714533203125,0.23368892888724802,-1.6812556351304053,-0.29140871192812917
1684252492692559000,0.72455908203125,0.1502174494743347,-0.6076271632030605,-1.6460808613747357
1684252492702585000,0.734585205078125,0.33032150316834447,2.1842592252984643,-3.736753748220205
1684252492712611000,0.744611083984375,-2.417446926665306,4.048712203963101,-4.582484441882372
1684252492722638000,0.75463818359375,-1.4417442836999892,-1.5051000268012285,-6.058847619020939
1684252492732664000,0.7646640625,0.9343290145695209,-5.612367587846517,-4.561719886273146
1684252492742690000,0.77468994140625,2.9501567960500714,-1.5817776082903146,-1.163562133091688
1684252492752716000,0.784716064453125,-1.7314426845788955,6.486213784402609,-0.8953454961806535
1684252492762742000,0.794741943359375,1.8695732442878186,-4.128958583849668,-4.944194186004996
1684252492772768000,0.80476806640625,5.527487995201349,-5.386115530961751,-4.075390659791231
1684252492782794000,0.8147939453125,3.8488615395307537,5.275189642912149,1.6197013884931801
1684252492792820000,0.824820068359375,0.3527716737769544,7.105234740540385,4.935936060747504
1684252492802846000,0.834845947265625,-11.203137091869115,4.754205574895441,2.8195763594597576
1684252492812872000,0.844871826171875,-11.958358078044652,4.256423226507008,3.0212808350652454
1684252492822899200,0.854899169921875,-7.137002920722961,5.485246351799368,2.92272518376708
1684252492832925200,0.86492529296875,-3.4279134244978424,4.878037998530268,0.6714210054606199
1684252492842951200,0.874951171875,1.1390834523301572,4.702941251604258,-2.3194506628155707
1684252492852977200,0.88497705078125,2.540009476494789,5.335034747543931,-4.576684815692901
1684252492863003100,0.895003173828125,2.25288998619318,7.064274369120597,-6.173118725845217
1684252492873029000,0.905029052734375,1.7530501207530498,7.835202627515792,-1.342444536036253
1684252492883054800,0.915054931640625,1.7908100886963307,5.003144387623667,0.7021604271173477
1684252492893080800,0.925080810546875,1.878342387807369,2.082656169128418,-0.34298867703974245
1684252492903106800,0.93510693359375,2.1914345237553117,-1.0732657760947941,1.6431787101924418
1684252492913134000,0.945134033203125,2.2075451160788533,-1.6548410909354685,2.7065853555738926
1684252492923160000,0.95516015625,0.6964391268610954,-2.5034669215172527,1.1649205619633196
1684252492933186000,0.96518603515625,0.7843547262012958,-3.137102678462863,0.05941781913042068
1684252492943212000,0.9752119140625,0.7607049705445766,-3.5413632780671116,-1.1889759758114815
1684252492953238000,0.985238037109375,0.34031916556954384,-3.397522377887368,-3.319958661213517
1684252492963264000,0.995263916015625,-0.007834931409358977,-2.063901199775934,-5.552690825518965
1684252492973290000,1.0052900390625,-0.059475175340846176,-1.115575808557868,-6.277064838010072
1684252492983316000,1.01531591796875,0.07307685358338058,-2.929447185498476,-4.555708078637719
1684252492993342000,1.025342041015625,-0.036896336851269,-4.040680580937862,-2.33285170391947
1684252493003368200,1.0353681640625,-0.38688437125906344,-3.346848421704769,-1.0184870149418712
1684252493013395000,1.04539501953125,-1.0413668091394006,-3.191571350753307,-0.04570902725160122
1684252493023421000,1.0554208984375,-1.8512066897310315,-3.4621325049638747,0.3894093596920371
1684252493033447000,1.065447021484375,-2.5098329494178295,-3.8748908838003873,0.2909405098944902
1684252493043473000,1.075472900390625,-3.255710937708616,-3.8283997662603855,-0.0841802122041583
1684252493053499000,1.085498779296875,-3.782021461445093,-2.0169880574315786,-0.6694722094804049
1684252493063524900,1.09552490234375,-2.5503859090805054,0.27381226496100425,-2.4469179358214137
1684252493073550800,1.10555078125,-2.214607309550047,-1.4238193354308604,-1.09263215534389
1684252493083576800,1.115576904296875,-1.9883425393141805,-2.575090142226219,-0.48185631885156033
1684252493093603000,1.12560302734375,-1.810620850712061,-3.3801264219284057,-1.1316194731250404
1684252493103630000,1.135630126953125,-1.4554770409762858,-4.303916506826877,-2.4409298013225196
1684252493113656000,1.145656005859375,-0.7551870839059353,-4.036203727784753,-2.157974444963038
1684252493123682000,1.15568212890625,-0.3585550794839859,-1.3680056782722472,-0.5567134069152176
1684252493133708000,1.1657080078125,1.0582336266577244,0.40712358781993385,1.3099647004529833
1684252493143734000,1.175734130859375,2.1238778218328953,3.598832885739207,4.100734359884262
1684252493153760000,1.185760009765625,2.251616312995553,7.710151768001913,5.572662769445777
1684252493163786000,1.195785888671875,1.8417150771558284,12.762100226283073,7.40371850542128
1684252493173812200,1.205812255859375,1.4166408221036195,15.266458543682097,8.068848886305092
1684252493183838200,1.215838134765625,1.8093220430731771,17.58381661813259,8.988241028505563
1684252493193865000,1.225864990234375,2.2952935421586034,17.410676558232307,7.831064797058701
1684252493203891000,1.235890869140625,2.5088240646362303,12.489243070089817,4.029029890632629
1684252493213917000,1.2459169921875,2.185652433222532,6.370900475049019,0.8660639451820403
1684252493223943000,1.25594287109375,1.6510177332550287,2.081454976645112,0.027006080347299573
1684252493233969000,1.265968994140625,1.4301052838325499,-0.5849509287536144,-0.08785568584650755
1684252493243995000,1.275994873046875,1.4018921657830477,-2.364764553269744,-0.5057317730229348
1684252493254020400,1.286020263671875,1.3108505433768034,-3.6618443454474208,-0.8326397414207458
1684252493264046300,1.29604638671875,1.1324783549766988,-4.614201184138655,-1.080528168313205
1684252493274072300,1.306072265625,1.0521405704796314,-5.304888615605234,-1.2096601596608758
1684252493284098300,1.316098388671875,1.0335329006433487,-5.854245083886385,-1.140412582042068
1684252493294125600,1.32612548828125,0.886741333964467,-5.966261689782142,-0.9496154310286045
1684252493304151600,1.336151611328125,0.6947808382600545,-5.492826431664824,-0.7075432891994714
1684252493314177500,1.346177490234375,0.35931967064831405,-4.552080535790324,-0.5176651527270675
1684252493324203500,1.35620361328125,-0.04341592961205169,-3.16595935511291,-0.2991670709699392
1684252493334229500,1.3662294921875,-0.3718576286494732,-1.4190472987234592,-0.17354469517841933
1684252493344255500,1.37625537109375,-0.6409937184929847,0.1922334674268961,0.19273001877218485
1684252493354281500,1.386281494140625,-0.8448539108276367,2.178962580195069,0.5459811466291546
1684252493364307500,1.396307373046875,-1.1794587904036045,4.449578777214884,0.33140959066599607
1684252493374333400,1.40633349609375,-1.5689222183704374,6.214540869557857,0.062127078089118
1684252493384360400,1.4163603515625,-1.871296560949087,7.164931961134076,-0.4501759630829096
1684252493394386400,1.426386474609375,-2.057894652837515,7.034659567579626,-1.3614977576829492
1684252493404412400,1.436412353515625,-1.8478578176945446,5.4743964564830065,-2.282467378333211
1684252493414438400,1.4464384765625,-1.196377191978693,3.1929490688472986,-2.875266682499647
1684252493424464400,1.45646435546875,-0.5011590948125347,1.1863263380855322,-3.053857993543148
1684252493434490400,1.466490478515625,0.020417970661260186,-0.35684301486909387,-2.9632842809095976
1684252493444516400,1.476516357421875,0.45784854353740806,-1.5215601632148026,-2.7086855427235363
1684252493454542300,1.486542236328125,0.8833546141356229,-2.2720956219226123,-2.4365058474004266
1684252493464568300,1.496568359375,1.1886406063772736,-2.633224935808778,-2.290614590562135
1684252493474594600,1.506594482421875,1.4840243594162166,-2.6227795296400784,-2.067553730934113
1684252493484621600,1.51662158203125,1.695199112547934,-2.179309786197543,-1.8632887571908532
1684252493494647600,1.5266474609375,1.7923850829280912,-1.3756108925789594,-1.7384410190336406
1684252493504673500,1.536673583984375,1.7413574910022318,-0.5955249297380447,-1.5336324399329722
1684252493514699500,1.546699462890625,1.5371183823525905,0.09275134893357753,-1.2125339615315198
1684252493524725500,1.5567255859375,1.290065529501438,0.6150093824088573,-0.7787982611179352
1684252493534751500,1.56675146484375,1.072468561302498,0.9468938971102238,-0.3554538985982537
1684252493544777500,1.576777587890625,0.9482862282514571,1.020675172635913,-0.01573679057508707
1684252493554803700,1.5868037109375,0.9775024589288979,0.7937555917531252,0.26433818804249165
1684252493564829700,1.59682958984375,1.059548800909519,0.42300972373783585,0.3985796313583851
1684252493574856400,1.6068564453125,1.14970618782714,0.1162766014277935,0.47460956259369846
1684252493584882400,1.61688232421875,1.254778673673421,-0.08761164795756339,0.49493748035132884
1684252493594908400,1.626908447265625,1.3284335463404655,-0.2563561032474041,0.460747918240726
1684252493604934400,1.636934326171875,1.3833061232566832,-0.4700888702988624,0.5426755292125046
1684252493614960400,1.64696044921875,1.4035234202466904,-0.5814969889074564,0.8540892105542123
1684252493624986400,1.656986328125,1.4016634715937077,-0.5220750781238078,1.26419882844761
1684252493635012400,1.667012451171875,1.4275104450337588,-0.29155484240055085,1.6576884431906043
1684252493645038600,1.67703857421875,1.5181418792039154,0.028051790007948874,2.05295646578297
1684252493655064600,1.687064697265625,1.6293365011923013,0.3236713976293802,2.396822510179132
1684252493665090600,1.697090576171875,1.7384208530284464,0.525374119669199,2.6242531093239783
1684252493675117600,1.70711767578125,1.8441976877517998,0.566245643761754,2.679814253026247
1684252493685143600,1.7171435546875,2.006852009472996,0.43910979466736316,2.6212550965517756
1684252493695169500,1.72716943359375,2.253093545941263,0.22185352966487407,2.497498368501663
1684252493705195500,1.737195556640625,2.644116332179308,0.02631692903935909,2.328662289405614
1684252493715221500,1.747221435546875,4.190457885429263,-0.1133791264206171,2.1677964585363863
1684252493725247500,1.75724755859375,7.805332974430918,-0.11135784972608088,1.9907218356661498
1684252493735273500,1.7672734375,9.858520472490786,-0.3285731981962919,1.7609188083015381
1684252493745299500,1.777299560546875,9.410012150359153,-0.6908633725553751,1.6158903057724237
1684252493755325400,1.787325439453125,7.5732023809015745,-0.7873071462661028,1.577429642213881
1684252493765352400,1.7973525390625,5.490616938921809,-0.49497079809904093,1.8613016750268636
1684252493775378400,1.80737841796875,3.284389335182309,0.09562193593382835,1.93778797172755
1684252493785404400,1.817404296875,0.9813380915690213,0.5758668740659952,1.9391613059073685
1684252493795430400,1.827430419921875,-0.7045066249173134,0.8379466156572103,1.5914247036881743
1684252493805456400,1.837456298828125,-1.1746119348943234,1.160488716995716,1.1243836766526103
1684252493815482400,1.847482421875,-1.9262065472662449,1.4607126035422087,0.9359618764683604
1684252493825508600,1.857508544921875,-2.6858430117964742,1.8241408420205114,0.7269099607095122
1684252493835534600,1.86753466796875,-3.3338334573090074,2.1641525490760802,0.5051233588010072
1684252493845560600,1.877560546875,-3.8007998116731643,2.5294582718640566,0.31928046919405456
1684252493855586600,1.887586669921875,-3.5568133606553074,2.9628707316726444,0.12505465890616177
1684252493865613600,1.897613525390625,-0.11305924681648612,4.05232250341475,-0.5930164540484547
1684252493875639600,1.9076396484375,6.312304493695497,4.999720842915773,-2.081326820220798
1684252493885665500,1.91766552734375,8.552839440706371,4.608199313375353,-2.712645678526163
1684252493895691500,1.92769140625,5.743628992438316,3.38037951990664,-1.9032064876899122
1684252493905717200,1.93771728515625,2.6758853891447183,2.501508188664913,-1.4009480168007313
1684252493915743500,1.947743408203125,-0.9324071065962314,1.884720690667629,-0.8451723291270434
1684252493925769500,1.95776953125,-4.3107191725790495,1.434614870211482,0.5242855937801301
1684252493935795500,1.96779541015625,-7.362798466011881,1.3927280315965413,2.0920047199711203
1684252493945821400,1.977821533203125,-9.20824454638958,1.5938970851510763,2.806876452362537
1684252493955848400,1.987848388671875,-10.251083035516737,1.5661118371248244,3.009985534068942
1684252493965874400,1.99787451171875,-9.02724383611679,1.1235171229511498,2.8139906682819125
1684252493975900400,2.007900390625,-4.9690404579699035,0.5561310769826173,2.698413739556074
1684252493985926400,2.017926513671875,-1.397391054971516,0.2886982839256525,2.8662539394825695
1684252493995952600,2.02795263671875,-0.08339753739386796,0.5787871454268694,3.115048667564988
1684252494005978600,2.037978515625,-0.34446108767986294,1.1432646104723214,2.7766712837129828
1684252494016004600,2.048004638671875,-1.0827058046132325,1.674091150328517,2.0838748972684145
1684252494026030600,2.058030517578125,-1.5359750575363635,1.870908438414335,1.2756836606666444
1684252494036056600,2.068056640625,-1.836337183509767,1.7864298277854918,0.310780936396122
1684252494046082600,2.07808251953125,-2.2566361869841813,1.4291326394081114,-0.5363537788450717
1684252494056109300,2.088109375,-2.6124212172329426,0.9307131621599197,-1.0052955249354243
1684252494066135300,2.09813525390625,-2.8147908787488936,0.37658991786837576,-1.369931531768292
1684252494076161300,2.108161376953125,-2.7746804021567106,-0.16806290276646613,-1.773498596150428
1684252494086187500,2.1181875,-2.640033446779847,-0.6204927822560071,-2.251851290795207
1684252494096213500,2.128213623046875,-2.628817640760541,-0.8515309043735265,-2.7308120343357323
1684252494106239500,2.138239501953125,-2.7435893905833364,-0.9433861812502146,-3.0927865668743846
1684252494116265500,2.148265380859375,-2.9139477108106013,-1.0936071378558874,-3.3149949013262985
1684252494126291500,2.15829150390625,-3.2058915525287386,-1.2346177830457687,-3.2452082483947273
1684252494136317400,2.1683173828125,-3.5780911264836788,-1.3728285683840513,-2.8475664824083444
1684252494146343400,2.178343505859375,-3.9111744955807923,-1.4187871864825485,-2.3308465015769
1684252494156370400,2.188370361328125,-4.143370263300836,-1.4302765487462281,-1.8894125017456709
1684252494166396400,2.198396484375,-4.2595305448725815,-1.4564964471518993,-1.5682758832909165
1684252494176422700,2.208422607421875,-4.285567195665836,-1.4970102438479662,-1.1932634438723324
1684252494186448600,2.21844873046875,-4.325950059458613,-1.630820748400688,-0.8352313653491437
1684252494196474600,2.228474609375,-4.419155581900477,-1.798674976852536,-0.24414134931862352
1684252494206500600,2.23850048828125,-4.521438144767284,-1.957833273151517,0.5276916028313339
1684252494216526600,2.248526611328125,-4.654945282459258,-2.1338819139748813,1.2179112706556916
1684252494226552600,2.258552490234375,-4.80705190668106,-2.417071663612127,1.8505398963853716
1684252494236578600,2.26857861328125,-5.140003173831105,-2.849534859871864,2.4948998764410613
1684252494246605300,2.278605224609375,-5.993317454490065,-3.412136594173312,3.0377541232213376
1684252494256632000,2.288632080078125,-7.075348136320709,-4.094666438147425,3.38441710485965
1684252494266658000,2.298657958984375,-7.864688834241032,-4.889384152930974,3.109442225860059
1684252494276684000,2.30868408203125,-7.552075421720743,-5.757463456523418,1.464863293480873
1684252494286710000,2.3187099609375,-5.9717480122387405,-6.616709465318918,-0.9046329644858837
1684252494296736000,2.328736083984375,-1.3019804237008095,-7.256411974957585,-2.2760522505939007
1684252494306762200,2.33876220703125,22.274887691462038,-7.9875413069278,3.0489225829675792
1684252494316788200,2.348788330078125,41.52980329236984,1.6501538099020718,11.602535053873062
1684252494326814200,2.358814208984375,12.310080096638202,16.50369966096878,7.09159083059132
1684252494336840200,2.368840087890625,-15.640077921307086,20.245509523534775,1.2898147696107625
1684252494346867200,2.3788671875,-5.996009177792072,21.592940031290052,-6.075167470180988
1684252494356893200,2.38889306640625,8.473344463708996,17.083109322208166,-10.1253383485198
1684252494366919200,2.398919189453125,11.66663723142743,6.9551073074370615,-9.670252986085414
1684252494376945000,2.40894482421875,14.251613976895808,0.10896423258781432,-8.31735135344267
1684252494386971100,2.41897119140625,-0.5190086762905121,-3.423276996868849,-4.273368808349967
1684252494396997000,2.4289970703125,-8.650579099446535,-4.141542171090841,-1.790950520080328
1684252494407023000,2.439023193359375,-4.060887502664327,-4.067231903254986,-2.281861521394551
1684252494417049000,2.449049072265625,8.696687355148791,-3.901269772160053,-1.921845429447293
1684252494427075000,2.459074951171875,2.0098110054090617,-0.6781435917139053,0.06339695189446211
1684252494437101000,2.46910107421875,-5.612582691901922,2.32079506316185,1.687123358120024
1684252494447128000,2.479128173828125,-1.1166785091027618,3.924339682102203,3.9231352747485038
1684252494457154000,2.489154052734375,4.23006713450104,3.5239760899364945,4.671453349667788
1684252494467180000,2.499179931640625,2.8304139798164365,1.3792688305646181,2.8340111275255677
1684252494477206300,2.509206298828125,0.018743132784217596,-0.6099532680630684,0.8802709689065813
1684252494487232300,2.519232177734375,1.435325064307451,-2.194897231429815,0.1691314087808132
1684252494497258200,2.52925830078125,2.1766507961213586,-3.091319416931271,-0.31294629773646593
1684252494507284200,2.5392841796875,0.7974572227500378,-2.941608747935295,-0.2805263756468892
1684252494517310200,2.549310302734375,-0.20080664998292921,-2.014983731871843,0.45910044329464433
1684252494527336200,2.559336181640625,-0.3969778952501714,-0.8434095572382211,1.66981420366168
1684252494537362200,2.569362060546875,-0.10902385382056236,0.1706558418691158,2.226197794100642
1684252494547389000,2.579388916015625,-0.36502208354100585,1.0563397757351398,1.8394792809277771
1684252494557415000,2.589414794921875,-0.34120530075430866,1.7715069839417934,1.1008052326664328
1684252494567441200,2.599441162109375,-0.2752257850207388,2.2146464725166557,0.22985943372696638
1684252494577467100,2.609467041015625,-0.31516967287436126,2.301145190796256,-0.6808341459721327
1684252494587493000,2.6194931640625,0.011190013990923762,1.9665788896650074,-1.254034138916433
1684252494597519000,2.62951904296875,0.3968645710688084,1.2975193526387214,-1.4647890592008828
1684252494607545000,2.639545166015625,0.5888567040205002,0.6728536686122417,-1.3683955543726682
1684252494617571000,2.649571044921875,0.507730874418281,0.21173779384195804,-1.1577552003785967
1684252494627597000,2.65959716796875,0.42004908383395523,-0.20250410155057905,-1.0071578116759656
1684252494637623000,2.669623046875,0.3716459586601704,-0.5261626396983862,-0.6681687256664037
1684252494647650000,2.679650146484375,0.6114052204370498,-0.5425473727881908,-0.24282851315438747
1684252494657676300,2.68967626953125,0.9820727625191211,-0.40955987505614755,0.320579569093883
1684252494667702300,2.699702392578125,1.3279074766397476,-0.17458032183647154,0.8862751777574419
1684252494677728300,2.709728271484375,1.9004630342006683,-0.23584873726963995,1.2244456408604978
1684252494687754200,2.719754150390625,2.501317634528875,-0.22600305055975914,1.3955302295356988
1684252494697780200,2.7297802734375,2.532581372320652,0.030430209577083586,1.6776377368941902
1684252494707806200,2.73980615234375,2.1529542787134646,0.1931049895644188,1.9356359082601964
1684252494717832200,2.749832275390625,1.8343711441338062,0.12918868997097013,1.963735482932627
1684252494727858200,2.759858154296875,1.671750140160322,-0.008822773402929305,1.8029672672189772
1684252494737884200,2.76988427734375,1.7601263427495955,0.12039455814063549,1.6195358226679264
1684252494747911200,2.7799111328125,2.2408459126561877,0.23434593149125574,1.3098537874244154
1684252494757937200,2.789937255859375,3.0004069738626478,-0.017785247537493706,0.6527722729615867
1684252494767963100,2.799963134765625,3.831941968911886,-0.1553723480194807,-0.003379851696640253
1684252494777989000,2.809989013671875,4.3949382554888725,-0.3432131334453821,-0.7681773522518575
1684252494788015000,2.82001513671875,4.369524997290968,-0.46325990106165404,-1.4047304579488933
1684252494798041000,2.830041015625,3.8678912341713905,-0.44310850891470904,-1.5766675718002021
1684252494808067000,2.840067138671875,3.097338238829374,-0.2910860558450222,-1.4691732656344771
1684252494818093000,2.850093017578125,2.297452181497216,-0.26451427526175975,-1.3209735857233404
1684252494828119000,2.860119140625,1.8051462186932563,-0.3540747191995382,-1.1897709255814553
1684252494838145000,2.87014501953125,1.621834454999119,-0.5259831914782523,-1.0711132742360234
1684252494848172300,2.88017236328125,1.686862369096279,-0.7752373537659645,-0.9094207832843064
1684252494858198300,2.8901982421875,1.9000667283594608,-1.0500941593438387,-0.732890350293368
1684252494868224300,2.900224365234375,2.276712321937829,-1.3194722412496804,-0.48801937152594327
1684252494878250200,2.910250244140625,2.7411405361264944,-1.4178291551053523,-0.10318681823015212
1684252494888276200,2.920276123046875,3.364934698015451,-1.3832389032393693,0.41220819760784505
1684252494898302000,2.930302001953125,4.261114306932687,-1.3781734365433453,1.006189258904755
1684252494908328000,2.940327880859375,5.497386871448159,-1.3159282850325107,1.6346164874218403
1684252494918354000,2.95035400390625,6.6319158022791145,-1.1543319479316472,2.1614843527801333
1684252494928380000,2.9603798828125,6.543467703497409,-0.5336965423345565,2.288650304751843
1684252494938406100,2.97040625,5.035861246833205,0.212940739890933,1.680815051756054
1684252494948433200,2.98043310546875,3.059175389173627,0.6444330452919006,0.6454384229421615
1684252494958459100,2.990459228515625,2.047165169030428,0.46144963676929474,-0.2852852606117725
1684252494968485000,3.000485107421875,3.0800007350593805,-0.5508563514500856,-1.6688782379858196
1684252494978511000,3.010510986328125,6.489541467520594,-2.241931369805336,-3.923518721108138
1684252494988537000,3.020537109375,8.576205703246593,-3.6789936331689357,-5.920420560583472
1684252494998563000,3.03056298828125,6.758605661171674,-3.551201365992427,-5.4129678820520635
1684252495008589000,3.040589111328125,3.861211318016052,-0.6225578980922699,-2.27692538016662
1684252495018615000,3.050614990234375,1.1624900468807666,3.099114016330242,1.538913449075818
1684252495028641300,3.060641357421875,-1.6307563048623501,7.862095310616493,4.595685868760943
1684252495038667300,3.070667236328125,-4.7805695579469205,13.493477395534514,7.3924319722533225
1684252495048694000,3.080694091796875,-6.6874167402267455,18.08451573075056,9.163288967853784
1684252495058720000,3.090719970703125,-7.2665271262586115,20.167506246399878,9.003351503875852
1684252495068746000,3.10074609375,-8.915036676084995,18.232493292343616,10.547796868115663
1684252495078772000,3.11077197265625,-8.236226729416847,12.505782701480388,11.090436595362425
1684252495088798000,3.1207978515625,-6.351884808933734,6.171648068770766,9.332310486519336
1684252495098824000,3.130823974609375,-4.554015887767076,1.3445552445799112,7.105349891352653
1684252495108850000,3.140849853515625,-3.5641394657596943,-1.9231302085608242,5.293771009263396
1684252495118876200,3.150876220703125,-2.5414260652944445,-4.187324848100543,4.50275857873857
1684252495128902100,3.160902099609375,-1.0398337543532252,-5.878028695055842,4.696201714216173
1684252495138928000,3.17092822265625,-0.40459611516892907,-7.074160387840867,4.638208082669973
1684252495148955100,3.180955078125,-2.0639880012765524,-7.194406477421522,4.04437768189013
1684252495158981000,3.190981201171875,-4.381968007017671,-6.4421601231426,2.713516908402741
1684252495169007000,3.201007080078125,-5.846288571923971,-5.122904739513993,0.9867711494684219
1684252495179033000,3.211033203125,-5.957392154628038,-3.944231546530127,-0.34882542036920783
1684252495189059000,3.22105908203125,-3.920395620651543,-2.7414216911554337,-1.1014517138764262
1684252495199085300,3.231085205078125,-1.622769543892145,-1.125758764398098,-1.8129262050449848
1684252495209111300,3.241111328125,-1.3028104447841644,0.15316460884213445,-3.0401392647922036
1684252495219137300,3.25113720703125,-1.3163070552170275,1.4132353975743055,-3.897812325182557
1684252495229163300,3.261163330078125,-0.7553913743063807,2.7606635672420263,-4.21525827242583
1684252495239189200,3.271189208984375,-0.43583968695551156,3.68329337618947,-4.375277569468319
1684252495249216000,3.281216064453125,-0.23842852462977168,3.9416654954344033,-4.109331215576828
1684252495259242000,3.291241943359375,-0.3780152744963765,3.801629832756519,-3.074354253605008
1684252495269268200,3.301268310546875,-0.9054436963468789,3.297636354768276,-1.6547352924734353
1684252495279294200,3.311294189453125,-1.2454255927860736,2.48989490776062,-0.5468395170241594
1684252495289320200,3.3213203125,-1.698925439594686,1.421065652808547,-0.259049287854135
1684252495299346200,3.33134619140625,-2.6026298910588026,0.4600070367455482,-0.5130880540698767
1684252495309372200,3.3413720703125,-3.964178356015682,-0.23822014257609841,-0.7913122902542352
1684252495319398100,3.351398193359375,-4.970022454744577,-0.7397679809778929,-1.0315268215179443
1684252495329424100,3.361424072265625,-5.027655728545785,-1.0562485903203487,-1.1047589387282728
1684252495339450000,3.3714501953125,-4.316509446418285,-1.1659779620617627,-0.8077674582317471
1684252495349476000,3.38147607421875,-3.438701652754843,-1.372758425757289,-0.6564826717868447
1684252495359503400,3.39150341796875,-2.822502183778584,-1.9100322420567273,-1.1942188449010251
1684252495369529300,3.401529296875,-2.544998370823264,-2.495813776415586,-1.8207526608869433
1684252495379555300,3.411555419921875,-2.308580893754959,-3.2844016101419924,-2.363179037643969
1684252495389581300,3.421581298828125,-2.0647622005194424,-4.173117459049821,-2.754382587276399
1684252495399607300,3.431607177734375,-2.08417212664932,-4.893977325940132,-2.9388357760906216
1684252495409633300,3.44163330078125,-2.1537664718791842,-5.253570516300201,-2.9528605020508167
1684252495419659300,3.4516591796875,-2.2947899765506383,-4.985476628986,-2.658245687557757
1684252495429685000,3.46168505859375,-2.6033947379514575,-4.170603430402279,-2.124273835413158
1684252495439711000,3.4717109375,-2.809479036076367,-3.1367472891539334,-1.6520789327457546
1684252495449737000,3.481737060546875,-2.938617457164824,-2.108824045085907,-1.40893740811944
1684252495459764200,3.49176416015625,-2.9990649116039276,-1.2349959687083958,-1.4243515426114202
1684252495469790200,3.501790283203125,-3.198008105802536,-0.5574024120926857,-1.2649340108543634
1684252495479816200,3.511816162109375,-3.3287118765115737,-0.14230419213175774,-1.0717118246510624
1684252495489842200,3.52184228515625,-3.1069129996433853,-0.02001929019987583,-1.0039666144192219
1684252495499868200,3.5318681640625,-2.5925498110711573,-0.2434855157583952,-1.0614297923505305
1684252495509894100,3.54189404296875,-2.170933149126917,-0.6234522165834904,-0.9586389877006412
1684252495519920000,3.551920166015625,-2.038092220258713,-0.8679115458101033,-0.665764294873178
1684252495529946000,3.561946044921875,-1.9729415565647184,-1.02528705034554,-0.2684482537098229
1684252495539972000,3.57197216796875,-1.6767479484476149,-1.226638474729657,0.063031625713408
1684252495549998000,3.581998046875,-0.9058125296592712,-1.3948200354397295,0.1573138374760747
1684252495560024300,3.5920244140625,0.5551064101099967,-1.5935276673167944,0.041517128519713876
1684252495570051000,3.602051025390625,3.502527643716335,-1.8823814340651035,-0.2016233001280576
1684252495580077000,3.6120771484375,8.549567871689796,-1.224417291548848,0.10321450995467603
1684252495590103000,3.62210302734375,14.661526318651436,2.105188903453946,1.1453658936005084
1684252495600129000,3.63212890625,16.506400152099133,6.471561574193835,0.4872351623456925
1684252495610155000,3.642155029296875,12.494608981037139,11.015569862687586,-0.8304756952546536
1684252495620181000,3.652180908203125,10.092377159160375,18.40471565287709,-2.6600650119394063
1684252495630207000,3.66220703125,3.785632637679577,23.34806754283905,-4.238751083955169
1684252495640233000,3.67223291015625,-2.410852350705862,21.83571067677736,-4.786838262952864
1684252495650259200,3.68225927734375,-6.374841321629286,16.392575035476682,-3.8037162836417555
1684252495660285200,3.69228515625,-7.369946584200859,9.461150216922164,-2.3046553908742964
1684252495670312200,3.702312255859375,-5.879063883322477,3.2646471083581448,-1.8530355125933884
1684252495680338200,3.712338134765625,-3.9660850664198395,-2.0760271063774822,-1.757610706666857
1684252495690364200,3.7223642578125,-2.771794617587328,-6.169751295238733,-1.277910542935878
1684252495700390100,3.73239013671875,-2.7958184672534463,-8.731330798506736,-0.4265335139498114
1684252495710416100,3.742416015625,-3.517328907006979,-10.057444961988926,0.4191914806239307
1684252495720442000,3.752442138671875,-4.8353205543100835,-10.144716418206691,1.8506921643376348
1684252495730468400,3.76246826171875,-6.543306375455856,-9.328841349104046,3.638124739424884
1684252495740494300,3.772494384765625,-7.062994266182184,-8.338060963994264,4.720386307401955
1684252495750520300,3.782520263671875,-6.071613577091694,-7.606397379016876,4.64265220259726
1684252495760546300,3.79254638671875,-4.883429043918848,-6.776078189498186,4.398776226216555
1684252495770573000,3.802572998046875,-1.5223242794550955,-4.866364511871337,5.537627696421742
1684252495780599000,3.81259912109375,2.986025397288799,-2.7393986608952283,6.433113477855921
1684252495790625000,3.822625,-1.2341114409588276,-2.6853987751603126,5.440419368079304
1684252495800651000,3.832651123046875,-2.77783272870779,-1.3778221388876437,5.709641967162489
1684252495810677000,3.842677001953125,-2.8034932396650314,0.8856739969938993,6.186324828898907
1684252495820703200,3.852703125,-3.281500043481588,2.8158406800627707,6.1388137206614015
1684252495830729200,3.862729248046875,-3.8858676203668114,4.487765592268109,6.042140814369916
1684252495840755200,3.872755126953125,-3.7655449584186074,5.806411319565773,5.212139020237326
1684252495850781200,3.88278125,-0.1031003089904785,7.170840892916917,3.396481928923726
1684252495860807200,3.89280712890625,0.7531634691238402,6.576824029654264,1.5866224179729818
1684252495870834200,3.902834228515625,-1.8846144538141787,4.344150902059674,0.6160141024719923
1684252495880860200,3.912860107421875,-1.8700702340245245,3.693592651885748,-0.5477862963549792
1684252495890886100,3.92288623046875,-1.453908184224367,3.479756424459815,-1.4485206459671258
1684252495900912000,3.932912109375,0.04636427628993988,3.114277098670602,-2.059941356234252
1684252495910938400,3.9429384765625,4.213060762381553,2.4809903012931347,-2.95968070345968
1684252495920964400,3.95296435546875,9.71362509482205,1.2912953635573385,-4.216201690755784
1684252495930990300,3.962990234375,13.128780160033703,0.056739539831876754,-4.716837967270612
1684252495941016300,3.973016357421875,11.318490148711204,-0.8693459625273943,-3.98171342818439
1684252495951042000,3.9830419921875,7.041103921413421,-1.0143231732606888,-2.392807575449347
1684252495961068000,3.993068115234375,3.383390976682305,-0.31886078247725963,-0.8054496828086674
1684252495971094000,4.003093994140625,1.1057926656901835,0.35187574785053727,0.5049920605715363
1684252495981121000,4.01312109375,-0.28586452180445193,0.7561644045054912,1.7025623347923158
1684252495991147000,4.02314697265625,-1.0740601413428783,1.0727923133641482,2.69345085645169
1684252496001173200,4.03317333984375,-1.2530278844833374,1.3276508715301751,3.25725115288794
1684252496011199200,4.04319921875,-0.7166822889447212,1.4853314964920281,3.2798283108770847
1684252496021225200,4.05322509765625,-0.1723036090761423,1.636235174664855,3.177909028364718
1684252496031251200,4.063251220703125,-0.0576613673845306,1.6289660604447125,2.999936726002395
1684252496041277200,4.073277099609375,-0.048319465478323394,1.2446142764031887,2.6138360524669286
1684252496051303200,4.08330322265625,-0.26537523947264996,0.6842945155590773,2.3895992809273303
1684252496061329200,4.0933291015625,-0.5621253489613532,0.05844459018409252,2.2783343701817094
1684252496071355100,4.103355224609375,-0.7854694094449282,-0.8001648742735386,2.1328492099262775
1684252496081381000,4.113381103515625,-1.029960887375474,-1.5358406175017356,1.9800725774884222
1684252496091408100,4.123408203125,-1.2032353873103856,-2.183427742910385,1.79908735704571
1684252496101434000,4.13343408203125,-1.3474714242875576,-2.744801981243491,1.724392181545496
1684252496111460000,4.143460205078125,-1.4318132567942141,-3.1809751379370685,1.6488779447473585
1684252496121486000,4.153486083984375,-1.4739970325291156,-3.423731170377135,1.585520009689033
1684252496131512000,4.163511962890625,-1.4142729239284992,-3.382285061267018,1.7188526675969362
1684252496141538000,4.1735380859375,-1.26559276702404,-2.6941812165528534,2.239637852040678
1684252496151564000,4.18356396484375,-0.9883405907422304,-1.6607365787148474,2.910377451108396
1684252496161590000,4.193590087890625,0.42714755419492717,-0.625377631688118,3.764721367076039
1684252496171616000,4.203615966796875,6.430096760383248,0.6408481725424527,5.597317318230867
1684252496181642000,4.21364208984375,11.62508824646473,1.5486790562868118,7.257145549929142
1684252496191668200,4.223668212890625,10.485433058661222,1.6241390786796808,7.230275663182139
1684252496201695200,4.2336953125,7.351524792325496,0.996627357572317,6.122389240083098
1684252496211721200,4.24372119140625,5.632058961266279,-0.22676935875713825,4.862887483410537
1684252496221747200,4.253747314453125,4.635071538209915,-1.6335896285921334,3.965439169731736
1684252496231773200,4.263773193359375,3.949536082679033,-3.063481561934948,3.1915397865712642
1684252496241799200,4.273799072265625,4.464875130546092,-4.308431353902817,2.647113175907731
1684252496251825200,4.2838251953125,4.89577063909769,-5.300200165528059,2.149346609610319
1684252496261850600,4.2938505859375,3.958777373754978,-6.006081658995151,1.5120073219716548
1684252496271876600,4.303876708984375,1.663707265088707,-6.165215405374765,1.3175395196214317
1684252496281902600,4.313902587890625,-1.0140627687588333,-5.181292046552896,1.7885082414947449
1684252496291928600,4.323928466796875,-2.594907772374153,-3.299462401151657,2.755860258613527
1684252496301955600,4.33395556640625,-3.061994538247585,-0.08933832561969757,4.3746933398395775
1684252496311981600,4.343981689453125,-5.012678524166345,4.509918971887231,7.394176185572147
1684252496322007600,4.354007568359375,-7.093659453558922,10.76037695800066,10.734155306029319
1684252496332033500,4.364033447265625,-7.398611537671089,17.314943563139437,11.349877805143594
1684252496342059500,4.3740595703125,-5.788768110847473,21.10170315902233,8.261936340212822
1684252496352085500,4.38408544921875,-2.787048300820589,19.301179339432714,3.3918227049410343
1684252496362111500,4.394111572265625,0.9119602386340498,14.30951788433194,-0.7343252054020762
1684252496372137500,4.404137451171875,3.253683815795183,8.974768383470177,-3.2521573368802663
1684252496382163500,4.41416357421875,1.8984579779885709,5.350062805327773,-4.148931989081204
1684252496392189400,4.424189453125,-0.32976562285125255,2.8337825794667,-4.1170378444314
1684252496402215700,4.434215576171875,-0.7422381704837083,0.7947989633262157,-4.4695387384429575
1684252496412242700,4.44424267578125,0.2614996036157012,-0.7211229017406702,-5.624340934234858
1684252496422268700,4.4542685546875,1.1949404371738432,-1.4634475814640522,-7.623555434566736
1684252496432294700,4.464294677734375,1.839243572475761,-1.2648346421331167,-10.29397525178194
1684252496442320600,4.474320556640625,2.1510425998732448,-0.6609779373794794,-11.965760463255643
1684252496452346600,4.4843466796875,1.4364566986858844,-0.36951486491560936,-11.881018817776441
1684252496462372600,4.49437255859375,0.5717667452707886,0.005790858361124992,-11.004778419560193
1684252496472398600,4.504398681640625,0.4542600175261497,0.43411505511999127,-8.917044508776069
1684252496482424600,4.514424560546875,-0.7805731618359685,0.4260965838372707,-6.350765449514984
1684252496492450800,4.524450927734375,-3.098145755819976,-0.2211982806265354,-4.176430821381509
1684252496502476800,4.534476806640625,-3.3275556922137737,-1.2104945646584033,-2.2165701340556145
1684252496512503600,4.544503662109375,-0.7727250786840916,-2.1586820087105036,-0.19608809702843427
1684252496522529500,4.554529541015625,1.5589637189358472,-2.9689111808806654,0.7478682122599333
1684252496532555500,4.564555419921875,0.4426414759248495,-3.0408161411404606,0.35339850043840704
1684252496542581500,4.57458154296875,-1.5960855351060628,-2.815873413288593,-0.720736386641115
1684252496552607500,4.584607421875,-3.059918901017308,-2.7661498896986245,-1.6807612757422028
1684252496562633500,4.594633544921875,-4.029424150647222,-2.688393280801177,-1.887361852826178
1684252496572659700,4.60465966796875,-4.256761372420192,-2.451723290276527,-1.812918021738529
1684252496582685700,4.614685791015625,-3.8309532501354813,-1.6863041506916283,-1.9443859086878597
1684252496592711700,4.624711669921875,-3.1077772152572867,-0.4679898521929979,-2.3757699314087626
1684252496602737700,4.634737548828125,-2.7289041548877955,0.7355775435507297,-2.856000841015577
1684252496612763600,4.644763671875,-2.436057519111037,1.3247516429573296,-3.0834374315097928
1684252496622790700,4.654790771484375,-2.438856794440746,1.2516823150932788,-2.934967117963731
1684252496632816600,4.664816650390625,-2.731971141242981,0.6183785665810108,-2.6401854224711654
1684252496642842600,4.674842529296875,-2.8942309106886386,-0.5987655190944672,-2.5661820286273955
1684252496652868600,4.68486865234375,-3.2014035934597254,-2.0730612423092127,-2.600543732434511
1684252496662894800,4.694894775390625,-3.650411974067986,-3.3405250639021395,-2.7149393424212933
1684252496672920600,4.704920654296875,-4.023856287387013,-4.412279266390204,-2.9373189417868852
1684252496682946600,4.714946533203125,-4.198249562218785,-5.274890952226519,-3.162766404290497
1684252496692972500,4.72497265625,-4.209932693488896,-5.921819321465492,-3.4452965209752318
1684252496702998500,4.73499853515625,-4.121615235349536,-6.386897670125961,-3.7250931210428475
1684252496713024500,4.7450244140625,-4.16209746786356,-6.599921412125229,-3.9321009637534616
1684252496723050500,4.755050537109375,-4.206293167942762,-6.510671349310875,-4.037755048879981
1684252496733077500,4.765077392578125,-4.177215249757468,-6.139616853737831,-3.8691684145003555
1684252496743103500,4.775103515625,-4.023135864157974,-5.418647681254148,-3.444372976389527
1684252496753129700,4.785129638671875,-3.8423029116675256,-4.317760907784104,-2.841741721777618
1684252496763155700,4.79515576171875,-3.502175761538744,-2.835211735486984,-2.046972861328721
1684252496773181700,4.805181640625,-2.749887906205654,-1.164700197210908,-1.230571722525358
1684252496783207700,4.815207763671875,-1.7145453257918357,0.45924891185462474,-0.35589974266961216
1684252496793233700,4.825233642578125,-0.533176463983208,1.7807658106744289,0.41983752344250674
1684252496803259600,4.835259765625,0.8203681427381933,2.6029227365255356,1.4480625269360838
1684252496813285600,4.84528564453125,2.4087328743338583,3.0141344704419373,2.599161922687292
1684252496823311600,4.8553115234375,4.137374530017376,3.684122228229046,3.7054756896421313
1684252496833337600,4.865337646484375,5.318799652057886,6.304452611151337,4.055794855700433
1684252496843364600,4.875364501953125,5.5733811468482015,12.064992406380176,4.404445211763679
1684252496853390600,4.885390625,4.33106521051526,18.488505696719884,5.150163917839527
1684252496863416600,4.89541650390625,3.837430044934153,22.022173159587382,4.308580699245631
1684252496873442600,4.905442626953125,0.7438765853404998,20.217475853705405,3.3026930536359544
1684252496883468500,4.915468505859375,-1.5450468372642994,14.97387260466814,2.498796299357712
1684252496893494500,4.92549462890625,-0.16722411385476588,9.455576800704002,1.5358924938194454
1684252496903520500,4.9355205078125,7.7186185675740235,3.583659282004833,-0.2776912252862006
1684252496913546500,4.94554638671875,24.796141029560566,-2.6025644246071575,-4.065596703268588
1684252496923572500,4.955572509765625,20.618960558855534,-5.614508691528439,-5.798637178432941
1684252496933598500,4.965598388671875,8.996722441124916,-5.720631563210487,-4.635877009373903
1684252496943624700,4.975624755859375,3.0659909144073723,-4.948889065822959,-3.2612101196467873
1684252496953651700,4.985651611328125,-1.160494562214613,-4.252434156870842,-1.9091471297852693
1684252496963677700,4.995677734375,-2.832341733008623,-4.193706073570251,-0.8444796706877649
1684252496973703700,5.00570361328125,-3.3052316322028634,-4.251230626299977,-0.09393164475932717
1684252496983729700,5.015729736328125,-4.067646913796663,-4.02559640905261,0.17430632720068095
1684252496993755600,5.025755615234375,-4.69783866776824,-3.343013373586535,0.6868554520882666
1684252497003781600,5.03578173828125,-5.552678550559282,-2.087877703168988,1.215320450444892
1684252497013807600,5.0458076171875,-6.482319699573517,-0.5494125823825597,1.44270801416561
1684252497023833600,5.05583349609375,-7.572026322859525,0.9339695336073637,0.9518908286146819
1684252497033859800,5.06585986328125,-8.257084808528424,1.969289902189374,0.15535364331901072
1684252497043885800,5.0758857421875,-8.026911778807639,2.344364739319682,-0.6436569463528692
1684252497053911800,5.085911865234375,-6.613381197679042,1.8454554327279329,-0.8321919245880096
1684252497063938600,5.0959384765625,-5.162290408962964,1.140648875015974,-0.44551432794742285
1684252497073964500,5.105964599609375,-3.7328362825155255,0.4869949969142675,0.05422952977232635
1684252497083990500,5.115990478515625,-2.4850223332881924,0.07995265763700007,0.4581549791380763
1684252497094016500,5.1260166015625,-1.6482032603561878,-0.17909399986863137,0.35651451356709
1684252497104042500,5.13604248046875,-1.1190355936229228,-0.4333025696933269,-0.09907529125809669
1684252497114068500,5.146068359375,-0.6303676950603723,-0.5951537583380937,-0.7482558233380318
1684252497124094700,5.1560947265625,-0.25865261668674644,-0.6793330937594175,-1.2169370187960564
1684252497134120700,5.16612060546875,0.0022667758882045745,-0.5218056135326624,-1.6184005350276827
1684252497144146700,5.176146728515625,0.16308635646291075,-0.23961656537055967,-2.066647429744154
1684252497154172700,5.186172607421875,0.19348025261759758,0.07166705985069274,-2.3223399545162913
1684252497164199700,5.19619970703125,0.07791684096045792,0.42756724091172216,-2.5036089603364466
1684252497174225700,5.2062255859375,0.1647756977893412,0.8103086671471595,-2.5630209342479704
1684252497184251600,5.216251708984375,0.6943186275757849,1.1452549075067042,-2.3734525943771003
1684252497194277600,5.226277587890625,9.347529682961106,1.8685072224915027,-0.074410951731354
1684252497204303600,5.2363037109375,14.876680642938613,1.8564327538162468,2.8224446083724497
1684252497214329600,5.24632958984375,13.185934710407256,1.3915449592918157,2.929126282981038
1684252497224355600,5.25635546875,14.232615846437215,0.7504197233736515,2.993466360944509
1684252497234381600,5.266381591796875,12.505454200178384,0.04686696511507034,1.864805299233645
1684252497244407600,5.276407470703125,8.125587841615081,-0.6003372984558344,0.12906331002563237
1684252497254433500,5.28643359375,3.7381349734455345,-1.36581839736104,-1.297161917503178
1684252497264460000,5.2964599609375,0.7750409544110298,-2.115142726713419,-1.8196324246853588
1684252497274486000,5.306486083984375,-0.18036708854436873,-2.9758360117077824,-2.274365904942155
1684252497284513000,5.316512939453125,-0.19259645552039145,-3.9630841310381886,-2.6059406230419873
1684252497294539000,5.3265390625,-0.11741057389378547,-4.731357491010427,-2.581451493951678
1684252497304565000,5.33656494140625,-0.035731750051304696,-5.189125808918476,-2.8237577367976305
1684252497314591000,5.346591064453125,-0.165919314866513,-5.337823501479625,-3.164018450178206
1684252497324617000,5.356616943359375,-0.36659861214272677,-4.877434187418222,-3.540566866992414
1684252497334643000,5.366642822265625,-0.5625695125322788,-3.812864343476295,-3.937986222399771
1684252497344669200,5.376669189453125,-0.537485413223505,-2.3743600646108387,-4.313494482511282
1684252497354695200,5.386695068359375,-0.7920785253863781,-0.5339660069257021,-4.537378933481872
1684252497364721200,5.39672119140625,-0.7507398952387273,1.3554419647753237,-4.398936092953384
1684252497374747100,5.4067470703125,2.1832348506867882,2.540289462479949,-3.4645448268026113
1684252497384773000,5.416773193359375,9.786545954126119,2.442341129425168,-1.5199167799219488
1684252497394799900,5.4267998046875,18.86406685606241,1.7740601755559444,-0.11718027226924896
1684252497404825900,5.436825927734375,16.13358858372569,1.620980906909704,-0.9352931834265589
1684252497414851800,5.446851806640625,9.691209264874457,1.50856624160707,-2.623845405305922
1684252497424877800,5.4568779296875,6.296956117916107,0.6451029073774814,-3.7383079919248816
1684252497434904000,5.466904052734375,3.102782475709915,-0.5171598335534334,-3.9104350753903385
1684252497444930000,5.476929931640625,0.10283380354139954,0.2009165400981903,-2.658118261785805
1684252497454956000,5.4869560546875,-1.6129191810071468,3.2835511307924983,0.07262947514206171
1684252497464982000,5.49698193359375,-2.799959220319986,7.050238244983554,3.3009774818897246
1684252497475008000,5.507008056640625,-4.14383817307353,11.202146911787986,5.727356487551331
1684252497485034000,5.517033935546875,-4.863889646190405,16.365756002134084,6.64067135566473
1684252497495060000,5.52706005859375,-2.5682372075915336,21.63971814907789,7.220261049646139
1684252497505087000,5.5370869140625,1.7632393602035938,23.90335164760351,8.115933293563128
1684252497515113000,5.547113037109375,-0.6169770292200147,19.140141220736503,7.32512778378725
1684252497525139200,5.55713916015625,-3.680899174529314,12.162160987234115,6.081400227090716
1684252497535165200,5.567165283203125,-5.2644800328493115,7.089427515077591,4.752900045254826
1684252497545191200,5.577191162109375,-5.799401733064651,3.6350785035967825,3.579531972941756
1684252497555217200,5.587217041015625,-6.094741939222812,1.5925596990674733,2.6889646509483454
1684252497565243000,5.597242919921875,-6.634206543564796,0.49436932507455345,1.735763616517931
1684252497575268900,5.607268798828125,-7.58110044067502,0.25332944890260695,0.8120840062566101
1684252497585294800,5.617294921875,-8.413749534446001,0.5895318268030881,0.28818025140091774
1684252497595320800,5.62732080078125,-7.967239108133316,0.9650842183172702,0.21195742794200778
1684252497605346800,5.637346923828125,-5.492262368041277,1.3893512486398218,1.3293901164129376
1684252497615374000,5.6473740234375,1.6565177919760345,1.695331506755948,3.9061274413242932
1684252497625400000,5.657400146484375,6.325753173333406,1.606848336660862,5.927153668230772
1684252497635426000,5.667426025390625,4.2243738912954925,1.1779811190664768,5.774751275932789
1684252497645452000,5.6774521484375,0.3735921973571181,0.3996884693831205,3.932603944839537
1684252497655478000,5.68747802734375,-1.4793796023502945,-0.7307195821255446,1.9152552374020217
1684252497665504000,5.69750390625,-2.0935560410663485,-1.992947256630659,0.32485710028260945
1684252497675530000,5.707530029296875,-2.3190163630515337,-3.5552170313745735,-1.3920175452396273
1684252497685556000,5.717555908203125,-2.578338914889097,-4.900318219399452,-2.9801831010013817
1684252497695582000,5.72758203125,-3.2779414742171764,-5.664234553205967,-3.901846403004229
1684252497705608000,5.73760791015625,-3.7453129022508858,-6.039067398273945,-4.337786627724767
1684252497715634200,5.74763427734375,-3.8169542431384325,-6.115049983236193,-4.517411665730178
1684252497725661000,5.757660888671875,-3.7184073596686122,-6.045781801220774,-4.379362208433449
1684252497735687000,5.76768701171875,-3.989902579858899,-5.8275873785853385,-3.9034024002745746
1684252497745713000,5.777712890625,-4.4354842008888715,-5.584434455782175,-3.4507676458626984
1684252497755739000,5.78773876953125,-4.682498475295305,-5.349181346318125,-3.1997602101668714
1684252497765764900,5.797764892578125,-4.647311718840897,-5.024880418613553,-3.1076860298424958
1684252497775790800,5.807790771484375,-4.523374081265926,-4.610338663491606,-3.104531949725747
1684252497785816800,5.81781689453125,-4.451196441544592,-4.281794106867909,-3.1968028216660023
1684252497795842800,5.8278427734375,-4.17886330922544,-4.140773524805903,-3.3507191256582733
1684252497805869000,5.837869140625,-3.7548590214923023,-4.0805601713836195,-3.5656428560599682
1684252497815895000,5.84789501953125,-3.195173174637556,-4.0407045463353395,-3.741252228683233
1684252497825921000,5.857921142578125,-2.6790318704769014,-3.938963835260272,-3.832745101988315
1684252497835947000,5.867947021484375,-2.5117212473824617,-3.655012453600764,-3.768285781559348
1684252497845974000,5.87797412109375,-2.563608086486161,-3.1374861248224972,-3.300773483750224
1684252497856000000,5.888,-2.475640464697778,-2.466699325612187,-2.498475689101219
1684252497866026000,5.89802587890625,-2.415131050938368,-1.5631202540934086,-1.5030892715007065
1684252497876052000,5.908052001953125,-2.1680796593919394,-0.5815729767531156,-0.556053993158415
1684252497886078000,5.918077880859375,-1.1237786964967846,0.3735854753553867,0.2260298655014485
1684252497896104200,5.928104248046875,-0.07293108843713998,1.2069687286198139,0.7813855741973966
1684252497906130200,5.938130126953125,0.6096168757155537,2.1934598921030757,1.5015566551059483
1684252497916156200,5.94815625,1.0609154130876064,3.039668140149116,2.4549551118046042
1684252497926182100,5.95818212890625,1.3121525658860802,3.723476918017864,3.4501980292811987
1684252497936208100,5.9682080078125,1.4646362067267298,4.0272178727746,4.0617198618352415
1684252497946234000,5.978234130859375,2.381691576542705,4.1190673044323916,4.259874828265607
1684252497956260900,5.9882607421875,4.095428070169687,4.545903892982006,3.988233185341954
1684252497966286800,5.998286865234375,4.871142393797636,5.987385141831636,3.3731226806461807
1684252497976312800,6.008312744140625,3.5961259648680683,9.032508624777197,3.5842312366738915
1684252497986339000,6.018339111328125,2.831554966545105,11.784286290252208,3.28832258297801
1684252497996365000,6.028364990234375,5.745873556494712,12.722328187865019,0.7905846335668116
1684252498006391000,6.03839111328125,9.880610723745823,10.899507196271419,-2.732437005189061
1684252498016417000,6.0484169921875,7.155976501262187,4.685785826402903,-3.085036683399975
1684252498026443000,6.058443115234375,2.6625673501491547,-0.3122743898242712,-1.9232664021611212
1684252498036469000,6.068468994140625,-0.8550210115116089,-2.547428228318691,-1.024870797694847
1684252498046495000,6.078494873046875,-1.6134043341755866,-4.437593155866861,-0.9182835233714431
1684252498056521000,6.08852099609375,-1.257412967699766,-6.187658707851171,-0.9065840985536575
1684252498066548200,6.09854833984375,-1.2387830860316753,-7.311873749938607,-0.9861710646834224
1684252498076574200,6.10857421875,-1.1255635340869425,-7.654194902980327,-1.090922867207974
1684252498086600200,6.11860009765625,-1.2322984001874924,-7.294191378253698,-1.0189968641601503
1684252498096626000,6.1286259765625,-1.618926750858873,-6.111122580659389,-1.242989013288915
1684252498106652000,6.13865185546875,-2.2975836989223954,-4.111258091986179,-1.4575434719868003
1684252498116678000,6.148677978515625,-2.9914520985126494,-1.575115227791667,-0.9370921226073056
1684252498126703900,6.158703857421875,-3.816798175793886,1.1205652874082326,-0.24307087054289875
1684252498136729900,6.168729736328125,-4.681739765882492,3.4946617326468226,0.42253253468014296
1684252498146755800,6.178755859375,-4.965580088382959,4.939426240950823,1.0293594143509863
1684252498156781800,6.18878173828125,-4.971946700805425,5.372969049140811,1.3988222568184137
1684252498166807800,6.198807861328125,-4.785709843444824,4.61723134561479,1.6192732262089848
1684252498176834000,6.208833984375,-4.393070123529434,3.2204110762685536,1.3776194559223949
1684252498186861000,6.218861083984375,-3.789840026241541,1.6511843219935893,0.9697270026218145
1684252498196887000,6.228886962890625,-3.228532423403859,0.22935645264089105,0.5920272968806326
1684252498206913000,6.2389130859375,-2.9053324426785108,-0.9404887062430382,0.3400457554556429
1684252498216939000,6.24893896484375,-2.6281460251092907,-1.5467267531752587,0.04475143426582217
1684252498226965000,6.258965087890625,-2.489650577610731,-1.8421236579567193,-0.011616020850650966
1684252498236991000,6.268990966796875,-2.5209891342043873,-1.8543594546735285,0.08441928165704012
1684252498247017000,6.279016845703125,-2.5404279941678047,-0.5491530546635389,-0.1854195678946562
1684252498257043500,6.28904345703125,-2.162293769466877,1.0210083501130343,-0.2260743622303009
1684252498267069400,6.2990693359375,-1.5675718266747891,1.4698252998024224,-0.06504488349827006
1684252498277095400,6.309095458984375,-0.9224001649100333,1.085832412201166,0.208437035263516
1684252498287121400,6.319121337890625,-0.104621234947443,0.631383009582758,0.48148514745160936
1684252498297148400,6.3291484375,0.710914226937294,-0.3339110520929098,1.1014946031700819
1684252498307174400,6.33917431640625,1.289454119604826,-1.3817770139932632,1.5730606333494186
1684252498317200400,6.349200439453125,1.8313918360620736,-1.7538854025334119,1.877237787566334
1684252498327226400,6.359226318359375,2.383082884770632,-1.4623445886582136,1.9352575764670967
1684252498337252400,6.36925244140625,2.928659834513068,-0.9846347219616174,1.7911827214010059
1684252498347278300,6.3792783203125,3.556202535280585,-0.21825813552141188,1.2088134797036647
1684252498357304300,6.38930419921875,4.193547083616257,0.34435470469594,0.5375307136699558
1684252498367330300,6.399330322265625,5.696866656741499,0.6881289791554213,-0.2948450430523604
1684252498377356300,6.409356201171875,6.259138720697164,0.704705435425043,-0.8391717735379933
1684252498387382500,6.419382568359375,4.637649864265322,0.3373971406430006,-0.44370501350313424
1684252498397408500,6.429408447265625,3.8813130258023736,-0.26992928604781624,-0.1556026496440172
1684252498407434500,6.4394345703125,3.8821465540170665,-0.8509563193559646,-0.3469260164886713
1684252498417461500,6.44946142578125,3.647414253556728,-0.9139385529696941,-0.7748775805428624
1684252498427487500,6.459487548828125,3.414534887486696,-0.47216333848536013,-1.3710036910444496
1684252498437513500,6.469513427734375,3.1379625101625916,-0.004025017732381821,-1.8945652083337305
1684252498447539500,6.47953955078125,2.4523101502537727,-1.0626444288372994,-1.6109003885306417
1684252498457565200,6.489565185546875,1.6146914513766764,-0.5401432342559099,-1.632829457874596
1684252498467591400,6.49959130859375,0.9436252507030963,1.40330495519042,-1.789602758733183
1684252498477617400,6.509617431640625,-0.12307225291728972,1.8476245934605597,-1.2345764281220732
1684252498487643400,6.519643310546875,-1.062665471625328,1.8387866224884986,-0.5630735530642792
1684252498497669400,6.52966943359375,-1.8054326344192027,2.168440601658821,0.27685152305904775
1684252498507695400,6.5396953125,-3.1158862874329087,0.13508242418467997,2.5313158824294804
1684252498517721300,6.549721435546875,-6.8861296328008175,-3.445182539206743,3.4167280136168
1684252498527747300,6.559747314453125,-11.52282731090784,-9.138002550905943,5.745512321966886
1684252498537774300,6.5697744140625,-12.805218067997693,-5.952679154631495,2.9879060964688655
1684252498547800300,6.57980029296875,-11.414428895509243,4.52942797447741,-1.997918469171971
1684252498557826600,6.58982666015625,-10.296347241610288,6.713444915452599,-1.9718860561624167
1684252498567852500,6.5998525390625,-9.374928562018274,5.232784333381057,-0.8171475732564926
1684252498577878500,6.60987841796875,-8.675753872713447,3.8189603222638366,-0.534145162884891
1684252498587904500,6.619904541015625,-7.636895393133163,3.060827248033881,-0.3876104570439085
1684252498597930500,6.629930419921875,-5.99245060852766,3.416288453155756,-0.2797872477173805
1684252498607956500,6.63995654296875,4.472094560405612,4.181147620770335,-0.062275838910043235
1684252498617982500,6.649982421875,39.03105404702425,3.94144746876955,-1.6975545896328985
1684252498628008400,6.660008544921875,24.05695464786291,3.6146681682527064,-2.9545842571035026
1684252498638034400,6.670034423828125,13.560180695497989,1.87824769526124,-2.175295874381065
1684252498648060400,6.680060302734375,7.918737235292792,1.410039816403389,-2.152433761970699
1684252498658087400,6.69008740234375,2.459088266086578,1.2154647542864083,-3.4112653642967343
1684252498668113400,6.700113525390625,-1.7467670949608087,-0.0274058933198452,-4.828135611242056
1684252498678139400,6.710139404296875,-3.943029769524932,-1.0421475842535495,-5.735253378280997
1684252498688165400,6.720165283203125,-4.6393467313110826,-1.4286889872938393,-6.043354281812906
1684252498698191400,6.73019140625,-4.959563604572415,-1.6267191583007574,-5.649648393970727
1684252498708217300,6.74021728515625,-5.176368618676066,-2.4087393040746448,-5.207314961081743
1684252498718243300,6.750243408203125,-5.514153881853819,-3.853801918542385,-4.72827413804233
1684252498728269300,6.760269287109375,-5.82489857789278,-2.375390576702356,-2.6200533195465803
1684252498738295300,6.77029541015625,-5.563687435829639,-0.7858487641513348,-0.6470519225534052
1684252498748321300,6.7803212890625,-5.255907434815168,0.05102233122885227,0.6040285541892051
1684252498758347500,6.790347412109375,-4.899540220764279,0.7662620201498269,1.6660756016552447
1684252498768374500,6.80037451171875,-4.385611039695143,1.430785667312145,2.429702012604475
1684252498778400500,6.810400390625,-3.2706992480039596,2.108797741600871,3.38677652746737
1684252498788426500,6.820426513671875,-1.5228794291198253,2.54190975715816,4.220002252082526
1684252498798452500,6.830452392578125,0.7509229967206716,3.4592256776064634,3.534887360051274
1684252498808478500,6.840478515625,4.999090728318691,4.138700225663185,1.9607478454239666
1684252498818504400,6.85050439453125,8.647165491610766,3.3380969599723813,0.42292905971705913
1684252498828530400,6.860530517578125,9.294650910210608,2.7417186282753945,-0.8448015961185097
1684252498838556400,6.870556396484375,6.900719883689284,2.5821985129266976,-1.31080991910547
1684252498848582400,6.88058251953125,4.207983020725846,1.5314970353394746,-1.0458618555363266
1684252498858608400,6.8906083984375,2.5548575015366075,0.5507523065537214,-0.8606985456913709
1684252498868634400,6.90063427734375,1.7892244269400834,-0.5215671286016702,-0.740955729457736
1684252498878660400,6.910660400390625,1.402214237344265,-1.3318167590379715,-0.42907114266864954
1684252498888687400,6.920687255859375,0.77408935277462,-1.2671283060282468,-0.4150760811943561
1684252498898713300,6.93071337890625,0.03617481764368713,-0.8046423119485377,-0.7769426233138889
1684252498908739300,6.9407392578125,-0.5554759010095149,-0.42028468268811703,-1.3194491526350378
1684252498918765300,6.950765380859375,-1.0488567265033721,-0.2266144604563713,-1.29986240863353
1684252498928791600,6.96079150390625,-1.5770787829495965,-0.045994858455657955,-1.1353487227812409
1684252498938817500,6.970817626953125,-1.9504000544108449,0.476091325584054,-1.1686940891526638
1684252498948843500,6.980843505859375,-2.438586745327711,0.9833791689425706,-1.4218414594866335
1684252498958869500,6.990869384765625,-2.943460513281822,0.6956015069931745,-1.1258538953356445
1684252498968895500,7.0008955078125,-3.4330747527837753,0.4739771099090576,-0.8174458255507051
1684252498978921500,7.01092138671875,-3.967227514453232,0.6893558906018734,-1.330911042369902
1684252498988947500,7.020947509765625,-4.541290553967654,0.7466378667473793,-2.093653363960981
1684252498998973400,7.030973388671875,-4.7629926924631,0.050444239079952234,-2.182459774661064
1684252499008999400,7.04099951171875,-4.6264285052880645,-1.008927451696992,-1.8544369038239121
1684252499019026400,7.0510263671875,-4.176491611658037,-1.4433341832399367,-1.619283747602999
1684252499029052400,7.061052490234375,-3.3026725953698155,-1.2428572036027907,-1.031974492220208
1684252499039078400,7.071078369140625,0.6671146865688264,-1.089127946615219,0.9810584709100425
1684252499049104400,7.0811044921875,6.157993052905797,-1.2027484805762767,3.4774317809045314
1684252499059130400,7.09113037109375,7.821898909306526,-1.0705763908803463,5.001556241649389
1684252499069156400,7.10115625,5.62254528298974,-0.8040577900588511,4.6711721946388485
1684252499079182300,7.111182373046875,2.8712469254642725,0.29490298378467555,3.859307822482288
1684252499089208300,7.121208251953125,0.23726211119890211,0.9568950666427611,2.0632512114346024
1684252499099234300,7.131234375,-2.322061137574911,1.2234241888582706,0.52572176406309
1684252499109260300,7.14126025390625,-3.9625840725615618,1.3966443282574414,0.21572920156568287
1684252499119286300,7.151286376953125,-4.655539448960125,1.0066606758087873,0.1400721222307533
1684252499129312500,7.1613125,-4.963556473600864,0.652983431494236,0.11610168325230479
1684252499139339500,7.171339599609375,-4.886784491826593,0.10377309368550777,0.3652384297054261
1684252499149365500,7.181365478515625,-4.500458485102653,-0.6030003801852465,0.734995725074783
1684252499159391500,7.1913916015625,-3.6978453408941623,-1.1926537875413894,0.7888641664497554
1684252499169417500,7.20141748046875,-2.5952292594134807,-1.500115808647871,0.8271594103135168
1684252499179443500,7.211443359375,-1.2377119496688247,-1.5542027881443499,0.8122416079711169
1684252499189469400,7.221469482421875,0.05453019321933388,-2.36283212390244,-0.1876072689309716
1684252499199495400,7.231495361328125,0.8724199631452559,-3.2054794645965097,-1.306219230314344
1684252499209521400,7.241521484375,1.2976060080088674,-2.253212642276287,-1.6194132192015647
1684252499219547400,7.25154736328125,1.1527462861753999,-0.5537310301035643,-1.7770539505444467
1684252499229573400,7.261573486328125,0.639973143273592,0.5765677158117294,-1.6632772031083702
1684252499239599400,7.271599365234375,0.10967267311811446,1.074064232996106,-1.2688834791325032
1684252499249625300,7.281625244140625,-0.1466015970647335,1.6564882736206055,-0.6190064161557703
1684252499259652000,7.291652099609375,-0.448598192372173,2.5217478436172005,0.30945531381554897
1684252499269678000,7.301677978515625,-0.7070398697219789,2.8829239192545413,1.5024261314168572
1684252499279704000,7.3117041015625,-0.5878850825093687,2.390338554987311,2.749175958544016
1684252499289730000,7.32172998046875,-0.10255188132748007,1.670351379278302,3.907588453787565
1684252499299756000,7.331756103515625,0.47443669024482366,2.117206673505902,4.397074682995677
1684252499309782000,7.341781982421875,1.1868857255339622,3.459205219340324,3.2638384223237633
1684252499319808000,7.35180810546875,1.7134288889825342,4.5548476624161,1.6913976744383572
1684252499329834000,7.361833984375,1.8569255057692526,4.236568479219079,1.659944113162905
1684252499339860000,7.37185986328125,1.6181668724022804,3.680934830364585,0.8358037584096193
1684252499349886000,7.381885986328125,1.049532506873086,3.029969168433547,-1.0250994188189506
1684252499359912000,7.391911865234375,1.079739282957837,2.695972191622853,-2.9462594963505864
1684252499369938200,7.401938232421875,1.2395721905827521,2.765352017319202,-3.799534029521048
1684252499379965200,7.411965087890625,1.7032476867079733,3.0197330211013553,-3.836706699095666
1684252499389991200,7.4219912109375,1.9080524664163587,2.738154798313975,-3.2108512207627293
1684252499400017000,7.432016845703125,1.7373673984527587,2.4438667315572498,-2.303170266883075
1684252499410043000,7.44204296875,1.2620353668034077,2.0766402698397637,-1.5874232129618524
1684252499420068900,7.45206884765625,0.6756184571504592,1.457269185090065,-1.6569792720079421
1684252499430094800,7.4620947265625,0.13910097564365714,0.9815262345522642,-2.106623027910292
1684252499440120800,7.472120849609375,-0.6135071611523628,0.8577508018016815,-2.4303967168703675
1684252499450147000,7.48214697265625,-3.2287060264050957,-0.20123218191862105,-3.290744841688871
1684252499460173000,7.492173095703125,-4.3635330633997915,0.26781390132904054,-3.1628692801430818
1684252499470199000,7.502198974609375,-4.258911828452349,1.1753998704016209,-2.9221608278825877
1684252499480225000,7.51222509765625,-3.4707834289312363,1.0055039069890976,-2.4031506902873514
1684252499490251000,7.5222509765625,-2.2398972336292267,0.06597966186404228,-1.9336545251846313
1684252499500278000,7.532278076171875,-0.7649275566756725,-0.9003723844319581,-1.7866244735747574
1684252499510304000,7.542303955078125,0.4417863934654742,-1.9194506432652472,-1.846048137924075
1684252499520330000,7.552330078125,1.2910580476701259,-2.728928704807162,-1.721553158727288
1684252499530356000,7.56235595703125,3.0617835258454082,-3.433428973048925,-1.7193202851086853
1684252499540382200,7.57238232421875,6.619172056040167,-4.647372216856479,-2.0069319428414105
1684252499550408200,7.582408203125,5.711852044427395,-5.045650234919786,-2.698497910708189
1684252499560434200,7.59243408203125,2.811662517595291,-4.764218727126718,-2.9601521203637122
1684252499570460200,7.602460205078125,1.0160779810387641,-4.379298203286528,-2.5826760673105715
1684252499580486100,7.612486083984375,0.059664560433104634,-4.039283573621511,-2.003883661186695
1684252499590512000,7.62251220703125,-0.4178671732176095,-4.026323554283381,-1.5674077221542595
1684252499600538000,7.6325380859375,-0.7776700608056039,-4.04053620403111,-1.3243483228534458
1684252499610564000,7.642564208984375,-1.0404390267699957,-3.7940363088876006,-1.4495131641358137
1684252499620590800,7.6525908203125,-0.9765361711800098,-3.524540738081932,-1.8453373593062161
1684252499630617000,7.6626171875,-0.5755079045604914,-2.787202614599466,-1.9456100436553359
1684252499640643000,7.67264306640625,-0.22721176876239477,-1.7548609695672988,-1.689676549734175
1684252499650669000,7.6826689453125,0.03485156968329101,-1.1295260079771279,-1.5173229640364645
1684252499660695000,7.692695068359375,0.24210081993434576,-1.5654109953790902,-2.094442468512058
1684252499670721000,7.702720947265625,0.37843240392990407,-1.9664058711856602,-2.4167370248302817
1684252499680747000,7.7127470703125,0.19685584826422853,-1.5733330205500125,-2.1062933575645086
1684252499690773000,7.72277294921875,0.24061609780192375,-1.4146148692339657,-1.9205343468487261
1684252499700799000,7.732799072265625,0.3580617430090904,-1.3773241262376308,-1.5954630192935466
1684252499710825000,7.742824951171875,0.10022210493935271,-1.5471271506696938,-1.0744072012148798
1684252499720851000,7.752850830078125,-0.14608024007175116,-1.9248644850075243,-0.07297682727500795
1684252499730877000,7.762876953125,0.0017606164643540977,-1.1548737997233867,1.253008010739088
1684252499740903200,7.772903076171875,0.3964017027974128,0.4850707508534193,3.141312989634275
1684252499750930200,7.78293017578125,0.7514367914617062,3.9117420663356777,6.70885524957478
1684252499760956200,7.7929560546875,-0.6005331132888794,6.877306859397888,9.896129779917
1684252499770982100,7.802982177734375,-1.1104758550703524,8.468787531057,11.60276184836626
1684252499781008100,7.813008056640625,-0.9183844264626503,8.99330298807025,11.069534092587231
1684252499791033900,7.823033935546875,-0.8483779202353209,8.93959010258317,9.56458896408677
1684252499801059800,7.833059814453125,0.01796243073530495,7.713672927865385,6.6423197073936455
1684252499811085800,7.8430859375,0.6893546484928578,5.470529844182729,3.4084003302544352
1684252499821111800,7.85311181640625,1.0359973179955035,2.9176287374109027,0.6937526642560958
1684252499831138000,7.863137939453125,1.0966022280186414,0.5658540140956639,-1.3908192753657698
1684252499841164000,7.8731640625,0.9336907166659831,-1.0765303308486938,-2.849531937262416
1684252499851190000,7.88318994140625,0.6274000774264336,-2.0621382817566394,-3.6818545755580065
1684252499861216000,7.893216064453125,0.41377369335889813,-2.548495565289259,-4.079052689430117
1684252499871243000,7.903242919921875,0.1636895099878311,-2.8180092562735077,-4.204233312803507
1684252499881269000,7.91326904296875,-0.21777298235297202,-2.5274013393342494,-4.0019402236551045
1684252499891295000,7.923294921875,-0.3400982162952423,-1.8490490733057259,-3.536483981592953
1684252499901321000,7.933321044921875,-0.1519897381101735,-1.3570838867634534,-2.8653385782033203
1684252499911347200,7.94334716796875,0.12378595414459705,-1.0452660085350274,-1.8881167628467082
1684252499921373200,7.953373291015625,0.31486499083936215,-0.4325666566342115,-0.8062228591382503
1684252499931399200,7.963399169921875,0.34528760163187977,0.42653614429831505,0.14800737220942972
1684252499941425200,7.973425048828125,0.26628362302184105,1.3889999509841202,0.961908510890603
1684252499951451100,7.983451171875,0.0737217273581773,1.836585313051939,1.6996131295979022
1684252499961477000,7.99347705078125,-0.1010041404288262,1.960591047427058,2.056796336206794
1684252499971503000,8.003503173828125,-0.16718604686670005,1.9370891758084297,1.9718080224901438
1684252499981529000,8.013529052734375,0.030916677919775246,1.8596715896070002,1.362066059090197
1684252499991555800,8.023555908203125,0.2790297073483467,1.574391589692235,0.6111725807249546
1684252500001582000,8.03358203125,0.5996083996593952,0.6594196020215749,0.32266309736967086
1684252500011608000,8.043608154296875,1.0259336046207697,-0.7562965064525604,0.5542195442728698
1684252500021634000,8.053634033203124,1.4351749883122742,-1.4031348593205213,0.233912800770998
1684252500031660000,8.063659912109374,1.784316196632385,-1.5482266363441943,0.0673110565982759
1684252500041686000,8.07368603515625,1.7010545605778693,-1.9476848041027783,0.7756558714389801
1684252500051712000,8.0837119140625,0.9360263200066983,-1.7438415629029274,1.6791956338606773
1684252500061738000,8.093738037109375,0.7920861972361802,-0.6402747565686703,2.302903140379488
1684252500071764000,8.103763916015625,0.8209995725095272,0.06740005005598068,2.8259453099697827
1684252500081790000,8.1137900390625,1.004091117581725,0.16356383778154848,3.4879996444091197
1684252500091816000,8.12381591796875,1.2851426861464976,0.5758487538874149,3.898763634558022
1684252500101842000,8.133842041015624,1.9366747497886418,1.143252335512638,4.0426159329146145
1684252500111868200,8.1438681640625,3.7944846371769905,1.7393524347901343,4.221896979787945
1684252500121895200,8.153895263671876,5.595068662521243,1.7392437137186527,4.134259028345347
1684252500131921200,8.163921142578126,6.6229726173669095,1.0297715022832155,3.7744521952345966
1684252500141947100,8.173947021484375,6.68584145373404,0.06255787072181701,3.3142028741657734
1684252500151973000,8.18397314453125,5.082908244690299,-0.732876467898488,2.8936715232402084
1684252500161999000,8.1939990234375,2.3363515287339687,-1.268482058724761,2.4892490110725163
1684252500172025000,8.204025146484375,0.0019441198050975798,-1.6146879442453383,2.0998878744363783
1684252500182050800,8.21405078125,-1.726894812016189,-1.59204356623888,2.00236331975162
1684252500192076800,8.224076904296876,-2.822643345814943,-0.9761088856786488,2.2725191080316898
1684252500202103000,8.23410302734375,-3.8497383223652837,0.1803559826284647,2.7928473424881695
1684252500212129000,8.24412890625,-4.6834550453677775,1.703226059398055,3.497784833103418
1684252500222155000,8.254155029296875,-5.01524340621829,3.602244740009308,4.0233877930924296
1684252500232181000,8.264180908203125,-4.447660960894823,5.907427223497629,4.0629461887598035
1684252500242207000,8.27420703125,-2.970268148447573,7.314419342768192,3.542047168678045
1684252500252234000,8.28423388671875,-1.5071981681242583,7.3254779123991725,2.864039478303492
1684252500262260200,8.29426025390625,-0.037680326835811136,6.558757627087831,3.126652888379991
1684252500272286200,8.3042861328125,-0.03271569016575813,4.731545122537017,3.9739030466943976
1684252500282312200,8.314312255859376,-1.8446996459245681,2.714347221747041,4.193532470569014
1684252500292338200,8.324338134765625,-4.253269730912149,1.1548533414572477,3.6812659620150923
1684252500302364200,8.3343642578125,-6.359031173557042,0.01764087063074112,2.817660296705365
1684252500312390100,8.34439013671875,-7.814676556837559,-0.8600468037843704,2.309591239841282
1684252500322416000,8.354416015625,-9.274772489786148,-1.6505629752248525,2.3642592340961097
1684252500332442000,8.364442138671874,-10.089074610483646,-2.4534593202888964,2.3234736347213385
1684252500342468000,8.374468017578126,-9.523711010253429,-3.0265549760758876,2.0593425135582684
1684252500352494000,8.384494140625,-8.110747415357828,-3.6107810976862904,1.316345341400802
1684252500362520300,8.394520263671875,-6.229580617779493,-3.914112302598357,0.5831386186346411
1684252500372546300,8.40454638671875,-3.940395329368114,-3.967153572434187,0.45884120783656834
1684252500382573000,8.414572998046875,-1.081966676683724,-3.5223885284841057,1.3355091838151216
1684252500392599000,8.42459912109375,0.07243102996051311,-2.7390958785563706,2.321472816292941
1684252500402625000,8.434625,-1.0781348434358835,-1.607688879138231,2.646504980881512
1684252500412651000,8.444651123046874,-2.423226094588637,-0.30657763948738576,2.730958457069099
1684252500422677000,8.454677001953126,-3.686424952213466,1.0914426532983779,2.4790228006124493
1684252500432703000,8.464702880859376,-3.7844784992083906,2.6398101594179866,1.758968989408016
1684252500442729200,8.474729248046875,-2.10434193123579,4.064513876467943,0.5064817876726389
1684252500452755200,8.484755126953125,-0.6218158475533128,5.0090118183523415,-1.0169769026398658
1684252500462781200,8.49478125,-0.0053559740751981735,5.62457883464396,-2.0335034311637283
1684252500472807200,8.50480712890625,-0.3400362569749355,5.8438464394688605,-2.4130580440565943
1684252500482833200,8.514833251953124,-0.6829176742479205,5.496511257657408,-2.4996459019243717
1684252500492859100,8.524859130859374,-0.015844050341844558,4.36890657313168,-2.819461793169379
1684252500502885000,8.534885009765626,0.07409867091178894,2.83898657785058,-2.748248906826973
1684252500512912100,8.544912109375,-0.4066007329896092,1.474350668272376,-2.5569275858089324
1684252500522938000,8.554938232421875,-0.7901514297813177,0.4212508973717689,-2.567631935174763
1684252500532964400,8.56496435546875,-1.0709633443713187,-0.3198971397876739,-2.524589496783912
1684252500542990000,8.574989990234375,-1.5489011746048926,-0.6808779851138591,-2.3928745032057166
1684252500553016000,8.58501611328125,-2.0057585151478645,-0.6557891365647316,-2.469590955400467
1684252500563042000,8.5950419921875,-2.275548392724991,-0.49221010121405123,-2.8829993225783106
1684252500573068000,8.605068115234374,-2.2125167670115826,-0.4295604605555534,-3.3385426579132673
1684252500583094000,8.615093994140626,-1.8880214857786892,-0.4870733228474855,-3.605845687110722
1684252500593120000,8.6251201171875,-1.711603719381988,-0.6123544839859009,-3.7212677175357936
1684252500603146000,8.63514599609375,-1.815919249381125,-0.8456231416344642,-3.8038913479477166
1684252500613172000,8.645171875,-2.2405849236324427,-1.1863333523482082,-3.9054049722686406
1684252500623198000,8.655197998046875,-2.759858680599928,-1.6324363669037818,-4.003936365908384
1684252500633224000,8.665223876953124,-3.0834833164781332,-2.207407753434777,-4.20034682675898
1684252500643251200,8.675251220703124,-3.2244466153949496,-2.7644956927508115,-4.3393323958620424
1684252500653277200,8.685277099609374,-3.0857223275765775,-3.3259868354618547,-4.553354793509841
1684252500663303200,8.69530322265625,-2.975107697433233,-3.851103180977702,-4.773787934982776
1684252500673329200,8.7053291015625,-3.0177684430301186,-4.33623121497631,-4.818345454111695
1684252500683355100,8.715355224609375,-3.14294497475028,-4.794419219601154,-4.499791545626521
1684252500693381000,8.725381103515625,-3.1145164603844284,-5.238438413619995,-3.9691809866085648
1684252500703407000,8.735406982421875,-2.774886446122825,-5.5404351550579065,-3.381826796105504
1684252500713433000,8.74543310546875,-2.7748554664626717,-5.590569013014435,-2.4701897980764507
1684252500723459000,8.755458984375,-3.249481395669281,-5.310183214882016,-1.0091711973249913
1684252500733485300,8.7654853515625,-3.657397887432575,-4.559461878213286,1.2134002229720353
1684252500743511300,8.77551123046875,-3.7387981135293837,-3.508848663431406,3.4725825873076914
1684252500753537300,8.785537353515625,-2.472843235194683,-2.210899102681875,4.776373859822749
1684252500763563300,8.795563232421875,-0.5847906236253678,-0.7015016709476709,5.592656925204396
1684252500773590000,8.805590087890625,0.15071999216899276,1.07510117482841,6.496196249234676
1684252500783616000,8.815615966796875,-0.061358431804180144,3.4915906546384092,7.398117032152414
1684252500793642000,8.82564208984375,0.6768214031994343,8.075473857402802,8.414881753346323
1684252500803668000,8.83566796875,25.190080726158616,18.903508055090903,15.57367506559491
1684252500813694000,8.84569384765625,19.516946242660282,26.03884391938448,16.496526408338546
1684252500823720200,8.85572021484375,7.015790616458654,25.26322311925888,8.43760504180789
1684252500833746200,8.86574609375,8.72291134520769,18.203510358965396,-4.539316331285238
1684252500843772200,8.875772216796875,8.47081874462366,7.09026747303307,-13.118589605408905
1684252500853798100,8.885798095703125,2.4162124164342877,-0.27724691558480263,-13.363292680263518
1684252500863824100,8.89582421875,1.415237385046482,-3.7359617210596796,-12.753650377845764
1684252500873850000,8.90585009765625,-0.9965851258657872,-4.550601110887527,-9.638540920004248
1684252500883876000,8.9158759765625,-2.626310626375675,-4.436034235987067,-7.790490210086107
1684252500893902000,8.925902099609376,-2.80235809815526,-4.173402121210098,-7.511738150635361
1684252500903929300,8.935929443359376,-3.1908746006608006,-3.583064238721132,-7.280170451685786
1684252500913955300,8.945955322265625,-3.2690169940054417,-2.7422067040532827,-6.460244645887613
1684252500923981300,8.955981201171875,-3.4654245322465895,-1.9227023385375737,-4.920024790388346
1684252500934007000,8.966007080078125,-3.795182556313276,-1.0101286441802977,-3.125239222189784
1684252500944033000,8.976032958984375,-4.495962342727184,-0.05553191760778427,-1.2555644172236322
1684252500954059000,8.98605908203125,-4.756469720435142,0.7748679359316826,0.34330373433828354
1684252500964085000,8.9960849609375,-4.388296917778253,1.2419605470240116,1.3212883507609368
1684252500974111000,9.006111083984376,-3.743917648500204,1.567889952713251,1.835667321424186
1684252500984137000,9.016136962890625,-3.1694857756733894,1.848086950275302,1.881513419058919
1684252500994163000,9.026162841796875,-1.4087766645997761,1.6626386129438877,1.4538389183804392
1684252501004189000,9.03618896484375,0.8290069378763437,1.9798335080355405,1.2438690109938382
1684252501014215200,9.046215087890625,2.891919126614928,2.877463900282979,1.6453633607551454
1684252501024241200,9.0562412109375,5.120227044737339,3.6218665553241967,2.330207326890528
1684252501034268200,9.06626806640625,6.000585984188318,3.7772125998586414,3.09041720739454
1684252501044294100,9.076294189453124,4.516859000283479,3.5432793408215044,3.218524824130535
1684252501054320000,9.086320068359376,2.5877333507001397,2.8424919556230304,2.5350252583414314
1684252501064346000,9.09634619140625,1.6213099927335977,1.4322259292483328,1.7634329830795525
1684252501074372000,9.1063720703125,1.668352022154629,-0.4907084644794464,0.967495955634117
1684252501084398000,9.116398193359375,2.1089625767737625,-2.490775197726488,0.05725976431369781
1684252501094424000,9.126424072265625,2.4716671771526335,-3.8363188688218592,-0.21065116764903066
1684252501104450300,9.1364501953125,2.4943548097789288,-4.280977529788017,0.2431932548135519
1684252501114476300,9.146476318359374,2.663916718931496,-4.1638142086535685,1.194595861519873
1684252501124502300,9.156502197265626,3.284814574857056,-3.9300031146913765,2.03833947301805
1684252501134528300,9.1665283203125,3.627713235525787,-3.409254901257157,2.489609953339398
1684252501144554200,9.17655419921875,4.764370118296146,-2.1198510505348445,3.387772552767396
1684252501154580200,9.186580322265625,7.764498859739303,-0.20843349159955976,4.921002695509791
1684252501164606200,9.196606201171875,11.955370002144575,1.2074696638792752,6.19726415606439
1684252501174633000,9.206633056640625,14.172788861984014,1.931413468259573,6.7285612360417835
1684252501184659000,9.216658935546874,13.672746751970053,2.261075046214461,6.367570453843474
1684252501194685200,9.226685302734374,11.413878275889157,2.2183213616371154,5.283377625542879
1684252501204711200,9.236711181640626,8.149894015353917,1.4149737656742334,4.043310052658617
1684252501214737200,9.246737060546875,5.207531234180927,0.10776245558261871,2.628962602189183
1684252501224763100,9.25676318359375,3.741647657741606,-1.0518103156119585,1.1985595044538377
1684252501234789000,9.2667890625,3.220260854142904,-1.681618038702011,-0.37321956465244294
1684252501244815000,9.276815185546875,3.4689681962028143,-2.214849886134267,-2.002766347594559
1684252501254841000,9.286841064453125,6.093372404435277,-3.7453234236449,-3.841675427418947
1684252501264867000,9.2968671875,12.476077299046516,-6.019274902567267,-3.220514828903973
1684252501274893000,9.30689306640625,2.648221429410577,-2.750568289685249,-1.6259624947145581
1684252501284919300,9.316919189453126,-5.036711141660809,1.233046588206291,-0.6289534443482756
1684252501294945300,9.3269453125,-5.077063025793433,4.556502443885803,3.795307059475779
1684252501304972300,9.33697216796875,-8.122057913923262,10.249957246357202,7.582078345796465
1684252501314998300,9.346998291015625,-8.264841414004565,14.865592262691258,8.87912715831399
1684252501325024000,9.35702392578125,-7.289492991304397,17.09805554692745,6.045616381525993
1684252501335050000,9.367050048828125,5.986073474711179,20.762138026690483,-0.12590221564620732
1684252501345076000,9.377075927734374,8.29299198821187,19.008415705764293,-4.8386625582143665
1684252501355102000,9.38710205078125,1.4267024896517395,13.649016332292556,-4.096684207710624
1684252501365128000,9.3971279296875,-5.496304921430349,10.456868642956017,-0.7407648830607533
1684252501375154200,9.407154296875,-12.172360894209145,8.849208405390382,3.9844761708959933
1684252501385180200,9.41718017578125,-15.919084247779844,8.820253529062867,9.407131626486779
1684252501395206100,9.4272060546875,-15.196957721954583,8.196257707121967,12.143012050127982
1684252501405232000,9.437232177734375,-9.863540346479414,6.403774570646882,13.162923252654075
1684252501415258000,9.447258056640624,-3.2277924186915157,3.8893390958696603,13.53951433956623
1684252501425284000,9.4572841796875,-2.3109555139318108,1.359493870514631,12.701097183787821
1684252501435311000,9.46731103515625,-4.320247463902831,-0.9796078337103128,8.732452496013044
1684252501445337000,9.477337158203126,-6.165294900351762,-2.5755817251354456,5.3190743773460385
1684252501455363300,9.48736328125,-7.788476532176136,-3.5137726758301255,3.5293916852444407
1684252501465389300,9.497389404296875,-8.541126791080831,-4.265391253599525,2.03479668584466
1684252501475415300,9.507415283203125,-7.467756970089674,-4.786861936089396,0.5031564426422119
1684252501485441300,9.517441162109375,-5.232484473651647,-4.830799277493357,-1.3531991542845965
1684252501495467300,9.52746728515625,-2.484435765571892,-4.07184904166162,-4.036771298539638
1684252501505493200,9.5374931640625,1.17860948009789,-2.8117285685688254,-6.385886447256803
1684252501515519200,9.547519287109376,3.540154194538295,-1.9930904644936323,-7.679951275527477
1684252501525545200,9.557545166015625,3.436808678615093,-1.424055482274294,-8.07098005311489
1684252501535571200,9.5675712890625,1.5302844446793198,-1.2169003400474787,-6.734278444644809
1684252501545597200,9.57759716796875,0.11435147858411072,-1.9386802443921565,-4.0180350338876245
1684252501555623200,9.587623046875,0.37024697858244177,-2.652301392200589,-2.5393244168400764
1684252501565649200,9.597649169921874,-0.13439093478918074,-2.892826889109611,-2.390984451675415
1684252501575676200,9.60767626953125,-2.2947844235926866,-2.8898814833074806,-2.409660510572791
1684252501585702100,9.6177021484375,-3.982231314578652,-2.762107336309552,-2.3814830483585596
1684252501595728100,9.62772802734375,-3.901987857301533,-2.644761059823632,-2.5472879430651663
1684252501605754000,9.637754150390625,-2.7036756056070326,-2.3819249469071626,-1.971563107818365
1684252501615780000,9.647780029296875,-2.094151376610994,-1.9210171619296073,-1.190237374049425
1684252501625806000,9.65780615234375,-2.638739315316081,-1.3620207586437463,-1.1081260770738124
1684252501635832000,9.66783203125,-3.737242408519983,-0.9191530727475881,-1.7438333795964718
1684252501645858000,9.677858154296874,-4.810448563382029,-0.598215483996272,-2.4423405449032782
1684252501655884300,9.68788427734375,-5.234853540870547,-0.42903965155184265,-3.1373060920804736
1684252501665910300,9.69791015625,-5.187493823802471,-0.5169903222054243,-3.6012919693291185
1684252501675936300,9.707936279296876,-5.1233501451939345,-0.7519120077580214,-3.718268243458867
1684252501685962200,9.717962158203125,-5.141079278630018,-1.030894953355193,-3.586708148181438
1684252501695988200,9.72798828125,-5.119792160451412,-1.3325000651270151,-3.2178912024021145
1684252501706014200,9.73801416015625,-5.2307724090367556,-1.6202917556017635,-2.7234447204381227
1684252501716041200,9.748041259765625,-5.291925089135765,-1.8561562749624252,-2.2572809146285056
1684252501726067000,9.75806689453125,-5.228346058672666,-2.099689721515775,-2.1111077721089124
1684252501736093000,9.768093017578124,-5.109619141483306,-2.3731238008141515,-2.2951240308105945
1684252501746119200,9.778119140625,-4.957030286702514,-2.606916190075874,-2.649787363553047
1684252501756145200,9.788145263671876,-4.714055935336649,-2.708900646778941,-2.9296622895538804
1684252501766171100,9.798171142578125,-4.237628509666026,-2.7293413772612807,-3.0842396878033873
1684252501776197000,9.808197021484375,-3.714955465649068,-2.54563959133625,-3.0545676031172273
1684252501786223000,9.81822314453125,-3.4036370613753792,-2.073769098317623,-2.583693427659571
1684252501796249000,9.8282490234375,-3.3049159903824328,-1.2793413063913583,-1.5629674016192554
1684252501806275000,9.838275146484374,-3.017415391808748,-0.32264147005975247,-0.3496428742319345
1684252501816301000,9.848301025390626,-2.398148205824941,0.33915129083395,0.7579509956613183
1684252501826327000,9.8583271484375,-1.7164964598596095,0.76575290158391,1.844846945440769
1684252501836353000,9.86835302734375,-0.6117196932137012,0.9274439312309026,2.669866274985671
1684252501846380300,9.87838037109375,0.49746086134910583,1.0118599980175496,3.4543639167889952
1684252501856406300,9.88840625,1.1631564749002457,1.5192045399993657,4.557267290778458
1684252501866432300,9.898432373046875,0.49179509067237376,3.233002846816182,6.003626667058468
1684252501876458200,9.908458251953125,0.3527846063237637,7.338679339277744,8.776982542613148
1684252501886484200,9.918484130859374,16.582354095488785,18.337029187095165,14.762689522099494
1684252501896510200,9.92851025390625,12.627454439949988,21.62444576114416,15.759741242563724
1684252501906536200,9.9385361328125,-3.1299381936609745,16.473304522705078,10.456556508266925
1684252501916562200,9.948562255859375,-2.7211691767215727,12.790084796273707,7.176793079319596
1684252501926588200,9.958588134765625,4.206740911710262,7.569483068117499,1.8036705931827426
1684252501936614400,9.968614501953125,12.035669281262159,2.938982491084933,-4.799915186668932
1684252501946640100,9.97864013671875,13.5394932967782,-0.0001233341187238693,-7.648289478328824
1684252501956666000,9.988666015625,9.387759986540674,-1.2411293568968773,-6.846592572182416
1684252501966692000,9.998692138671874,1.0941554193884133,-1.81071554325819,-3.898951266084611
1684252501976718000,10.008718017578126,-1.579559347718954,-2.9333307489335536,-2.3304452272996303
1684252501986744000,10.018744140625,-1.1473358054339886,-4.165135812646151,-2.1859221900746224
1684252501996771000,10.02877099609375,-1.7857868537068367,-5.317408489960432,-2.2102812630444766
1684252502006797000,10.038797119140625,-2.3382021250367164,-5.990296060842275,-2.3268141773208972
1684252502016823000,10.048822998046875,-2.8947359376013275,-5.891688971617818,-2.1006617814183235
1684252502026849300,10.058849365234375,-3.5188533400952813,-4.997178757217526,-1.5840195419982075
1684252502036875300,10.068875244140624,-4.349389971756935,-3.564916003090143,-0.8645344705924392
1684252502046901200,10.0789013671875,-6.104738432580232,-1.7521113785982132,-1.3976163881599901
1684252502056927200,10.08892724609375,-7.021884841680526,0.10835516077876091,-1.6316367409586905
1684252502066953200,10.098953125,-9.502497541832923,1.7937626548916101,-0.8736939286038279
1684252502076979200,10.108979248046875,-12.018785951000451,2.88881940703392,-0.7736202739581465
1684252502087005200,10.119005126953125,-9.147289434689283,2.516611065250635,0.3860854759663343
1684252502097031200,10.12903125,-5.904295355212688,1.589908307775855,1.5322876011952757
1684252502107057200,10.13905712890625,-4.316532827293873,0.6094926648139953,1.5150588184967637
1684252502117083100,10.149083251953124,-3.6363913397610186,-0.31497721904218196,1.0416852274388073
1684252502127110100,10.159110107421874,-3.258862679737806,-1.009072997647524,0.059336278326809405
1684252502137136000,10.16913623046875,-3.102691290295124,-1.2938099767267703,-0.9008692280381917
1684252502147162000,10.179162109375,-2.979429652285576,-1.2404916435152291,-1.1134431804433464
1684252502157188000,10.18918798828125,-2.8533763377308845,-0.9834645091384648,-1.0598308327212929
1684252502167214000,10.199214111328125,-2.885283049601316,-0.5998918927758932,-0.8443898004472256
1684252502177240000,10.209239990234375,-2.881795792007446,-0.045104047095775604,-0.599849222677946
1684252502187266000,10.21926611328125,-2.6534733585894106,0.6815718125969171,-0.2967220159053802
1684252502197292000,10.2292919921875,-2.539498604363203,1.3250579324275253,0.028085107755661008
1684252502207318000,10.239318115234376,-2.144825917315483,1.7301351091116666,0.20913521012812852
1684252502217344000,10.249343994140625,-1.4413263505488634,1.9543980380058288,0.29794132856726646
1684252502227370200,10.259370361328125,-0.41140404161810873,2.0965976007193325,0.078287354773283
1684252502237396200,10.269396240234375,1.4748909126289187,2.1782874574124813,-0.35809652206152676
1684252502247422200,10.279422119140625,3.499063766998052,2.336674184817076,-0.503904046139121
1684252502257448200,10.2894482421875,14.086878172725438,2.2909862003535033,-0.7952735951006412
1684252502267474000,10.299473876953124,17.384010669624804,0.5288035095959901,-1.1110729441806673
1684252502277501200,10.309501220703124,10.645506716239451,-0.7978338009774685,-1.4731144044756888
1684252502287527200,10.319527099609376,8.437832420822977,-1.0972785198450088,-0.9829133049964904
1684252502297553200,10.32955322265625,6.537457649427652,-0.9662702132314444,-0.0014916998624801634
1684252502307579100,10.3395791015625,4.244980333733558,-0.9996697940081357,1.1177367859840392
1684252502317605000,10.349605224609375,2.956144053766131,-1.186211187273264,1.5909534329146147
1684252502327631000,10.359631103515625,2.2540872331537307,-1.3959920018285512,1.6273159551501273
1684252502337657000,10.369656982421875,1.7974347675330935,-1.659480441173911,1.4658186945095657
1684252502347683000,10.37968310546875,1.7610820360392332,-1.920747112816572,1.134757478889823
1684252502357709000,10.389708984375,1.8892495662689208,-2.103827551972866,0.8879203146159649
1684252502367734800,10.39973486328125,2.076393309341371,-2.1871283509939907,0.9092764063775539
1684252502377760800,10.4097607421875,2.3452964672118424,-2.1051006406486032,1.0675175878316163
1684252502387787000,10.419787109375,2.641366156688332,-1.813380963075161,1.2656906744405627
1684252502397813000,10.42981298828125,2.894439000481367,-1.33416945964396,1.4107923883363604
1684252502407840000,10.439840087890625,3.1761563394784926,-0.6101484983742237,1.1535162476345897
1684252502417866000,10.449865966796875,3.696055827128887,-0.3414718427360058,0.5265352724030613
1684252502427892000,10.45989208984375,4.272437664979696,-0.5927408519774675,-0.13509645271003246
1684252502437918000,10.46991796875,4.647164127063751,-0.7396247731149196,-0.45557343821227547
1684252502447944000,10.47994384765625,4.576041257092356,-0.6237205121308564,-0.44398178461790083
1684252502457970000,10.489969970703125,3.3333819141492245,-0.6532435437351465,-0.12701163819283245
1684252502467996000,10.499995849609375,2.287010282459855,-0.5129910234361886,0.3148398563981056
1684252502478022100,10.510022216796875,1.3637639490492641,0.06902618995308876,1.2958654479518532
1684252502488048000,10.520048095703125,0.43700361616834993,1.1980787351995705,3.001917086164653
1684252502498074000,10.53007421875,-0.9267219005666673,3.1966865018099546,5.3547442411422725
1684252502508100000,10.54010009765625,-2.9352608402132985,6.282360021808743,7.674920880144834
1684252502518126000,10.5501259765625,-5.290128853368759,10.02295232527852,8.84141263694763
1684252502528152000,10.560152099609375,-6.833396406000852,12.807957137572764,8.478505791994928
1684252502538178000,10.570177978515625,-6.361108564352989,13.155705576360225,7.031645188194513
1684252502548204000,10.5802041015625,-4.542653951275349,11.157356168425082,5.33434618075788
1684252502558230800,10.590230712890625,-3.1341993582367893,7.7412448254019015,3.2568811505317687
1684252502568257000,10.600257080078125,-1.9894342800736426,4.322676152354479,1.4143936276987195
1684252502578283000,10.610282958984374,-1.1953110240519047,1.5438018056392668,-0.4269815499782562
1684252502588309000,10.62030908203125,-0.7647323263645172,-0.6256400820165873,-2.364481060153246
1684252502598335000,10.6303349609375,1.7825567857444284,-2.1936358331918715,-4.436493670192361
1684252502608361000,10.64036083984375,6.6003042739629745,-3.1661598461210727,-6.7732736534714695
1684252502618387000,10.650386962890625,3.9813481020033357,-3.649482876524329,-6.14273235540986
1684252502628413000,10.660412841796875,0.7209669805265962,-3.8200685757666824,-4.583562007986009
1684252502638439000,10.67043896484375,-1.2593126638412475,-3.9978906560033556,-3.5503862502172585
1684252502648465000,10.68046484375,-2.6810405799508095,-3.487383266076445,-2.8778581602975724
1684252502658491000,10.690490966796874,-3.939785380776226,-1.8262369375169276,-1.858968994295597
1684252502668516900,10.700516845703126,-5.838634842300415,0.6464362018078565,-0.16073416731357573
1684252502678543000,10.710543212890625,-7.479218275302648,3.179133893984556,2.0879495993614197
1684252502688569000,10.720569091796875,-7.630776617991923,5.302935727971792,4.46103891338408
1684252502698595000,10.730594970703125,-6.017703707727789,6.076091014766693,6.464844833159447
1684252502708622000,10.7406220703125,-2.5130340835466978,5.4863031673759215,7.662822446072101
1684252502718648000,10.75064794921875,-2.180893548257649,4.055371369591355,7.769312397500872
1684252502728674000,10.760674072265624,-5.0727989386081695,2.6089935808718203,8.012449538213014
1684252502738700000,10.770699951171874,-6.991133145064115,0.6846124954670667,8.41063637086153
1684252502748726000,10.78072607421875,-5.622887812817097,-1.4142045348674057,9.04805632252097
1684252502758752000,10.790751953125,-3.835035551013052,-3.5128491312444208,9.16488120548129
1684252502768778000,10.800778076171875,-3.039911301255226,-5.013984930589795,8.432825990837811
1684252502778804000,10.810803955078125,-3.440360818138718,-5.7716866276651615,6.40810470880568
1684252502788830000,10.820829833984375,-4.019102663119137,-6.144227562403678,4.0025528025954955
1684252502798856000,10.83085595703125,-3.398894835284352,-6.545895807427168,1.2303273923754692
1684252502808882000,10.8408818359375,-2.222831532537937,-6.5982005796819925,-2.269816571074724
1684252502818908000,10.850907958984376,-1.9237100542753933,-4.654530271917581,-4.923887895557284
1684252502828934000,10.860933837890625,-1.026570368154347,-1.6314058548122643,-5.9326055038958785
1684252502838959900,10.8709599609375,1.2245508548006414,0.7623404627919197,-7.2136150357604025
1684252502848985900,10.88098583984375,2.0220926870942115,2.583281631988287,-8.177257823097705
1684252502859013000,10.89101318359375,0.2276230529770255,3.922868440505862,-7.8446227822899814
1684252502869039000,10.9010390625,-1.716266450496018,4.118692041379213,-6.9278317624986165
1684252502879065000,10.911065185546875,-3.2037045638784765,3.533145484820008,-5.9467035873532295
1684252502889091000,10.921091064453124,-4.592146880979835,2.5443390301316975,-4.886556236028671
1684252502899117000,10.931116943359376,-5.504848877891898,1.4468307931840418,-4.252925739780068
1684252502909143000,10.94114306640625,-5.6504830912292,0.29050387204289435,-4.088768027758598
1684252502919169000,10.9511689453125,-5.440265054300427,-0.9983891065478324,-4.328104022622108
1684252502929195000,10.961195068359375,-5.240172690066695,-2.347510636129975,-4.945135266247392
1684252502939221000,10.971220947265625,-5.0776469631612295,-3.5612265009224413,-5.5693584672033785
1684252502949247000,10.9812470703125,-4.860113634783029,-4.464669378840923,-6.110006143850088
1684252502959273200,10.991273193359374,-4.2936379816576835,-5.061927415981889,-6.591961393031477
1684252502969299200,11.00129931640625,-3.5696024073407053,-5.473915979489684,-6.903011209496856
1684252502979325200,11.0113251953125,-3.1358664146661757,-5.671008577385544,-6.8843176149427885
1684252502989351000,11.021350830078125,-2.3372820875823495,-5.737320832204818,-6.947443056419491
1684252502999378000,11.0313779296875,-0.5678548325240612,-5.8713575467288495,-7.230919806304573
1684252503009404000,11.04140380859375,2.383378652846813,-6.067438337233662,-7.427906021216511
1684252503019430000,11.051429931640625,5.4909881103217595,-6.551026740574836,-7.1081678713828325
1684252503029456000,11.061455810546875,3.8555496389925477,-6.178215756723285,-3.3560467504218217
1684252503039481900,11.07148193359375,-1.6968331434905528,-3.378264135187864,0.7807517332732677
1684252503049508000,11.081508056640626,-7.283793902879953,2.551609897917509,3.96565544283092
1684252503059534000,11.0915341796875,-6.6132894277423615,16.161735650801656,11.862586504507064
1684252503069560000,11.10156005859375,3.0766502555876967,39.25382936770916,27.661853117251393
1684252503079586000,11.1115859375,-1.6475082638293503,43.82122729961872,29.452187551259993
1684252503089612000,11.121612060546875,39.86261125390529,38.6272125496149,14.583103354799746
1684252503099638000,11.131637939453125,32.244724512624735,19.776180531692503,-15.499730708462
1684252503109664000,11.1416640625,10.771896715402603,-1.2010644730120896,-14.740222838747501
1684252503119690000,11.15168994140625,-10.049218400913476,-3.73612947884202,-6.3689230374962085
1684252503129716000,11.161716064453126,-6.289921396973729,-1.7365876462519168,-6.314602833765745
1684252503139743000,11.171742919921876,-1.6855916185081004,-2.9442864427119493,-6.704122375833988
1684252503149769000,11.18176904296875,-1.8028923022866248,-2.760902636694908,-6.247530700489878
1684252503159795000,11.191794921875,-2.6292811666190623,-2.4239479791224,-5.904495261698961
1684252503169821000,11.201821044921875,-4.018873238277435,-1.694479273840785,-5.244609211209416
1684252503179847000,11.211846923828125,-5.009131645339727,-0.868671424266696,-3.903095818543434
1684252503189873000,11.221872802734374,-5.342245994096994,-0.17299977464675903,-2.0884306608766314
1684252503199899000,11.23189892578125,-5.367214431136846,-0.33556466451883316,-0.8014964151382445
1684252503209924900,11.2419248046875,-5.079442614406347,-1.1723416518747807,0.2340256134957075
1684252503219950800,11.251950927734375,-4.466512960880994,-0.7342553550362586,1.5584391105398534
1684252503229976800,11.261976806640625,-4.20225061455369,0.08551321437358855,2.405596037612855
1684252503240003000,11.272003173828125,-3.7977205503582954,0.28317864372134205,2.6485207046180963
1684252503250029000,11.282029052734375,-2.827807012188434,0.06424246280789375,2.36124631601572
1684252503260055000,11.292054931640624,-1.405265441608429,0.03413081766068935,2.2712004266485573
1684252503270081000,11.3020810546875,1.200703823006153,0.04589490521252155,2.3580457664087415
1684252503280107000,11.31210693359375,2.975048076200485,0.6625181525588035,3.133189888933301
1684252503290134000,11.322134033203126,2.562538703688979,1.6413251912802458,3.9007504244610667
1684252503300160000,11.332159912109375,2.0125151498012244,3.0498399900734423,3.639432607153058
1684252503310186000,11.34218603515625,5.207677949175238,2.1579916883587837,3.9435795123621817
1684252503320212000,11.3522119140625,5.3159927779436105,0.6560077477514743,4.112250610154867
1684252503330238200,11.36223828125,2.905243010829389,-1.5763380475848912,4.265677084803581
1684252503340264200,11.37226416015625,1.7324324262686073,-3.00903802408576,3.458070954613387
1684252503350290200,11.382290283203124,1.1014058289080857,-3.8052497768193483,2.5999291076675055
1684252503360316200,11.392316162109376,1.1421313686586916,-4.739907292690873,1.9564701681047676
1684252503370342100,11.402342041015626,0.9548856265164911,-5.213873296684026,0.9724816350921988
1684252503380368000,11.412367919921875,0.5863559732459486,-5.161238854083418,-0.0992778280928731
1684252503390393900,11.422393798828125,0.20058818492665886,-4.5684909878432745,-1.0854790687188505
1684252503400419800,11.432419921875,-0.21022388214766977,-3.7743496116429567,-1.7517165340617298
1684252503410445800,11.44244580078125,-0.26598142520487306,-2.655527368509769,-2.0770894749119875
1684252503420471800,11.452471923828124,-0.10371756410598754,-1.0388841985434294,-2.384450958253443
1684252503430497800,11.462497802734376,-0.05715805750489235,0.8346195170611143,-2.761353595332801
1684252503440525000,11.472525146484376,-0.35725261858329177,2.5942262198507784,-3.2352436114802954
1684252503450551000,11.482551025390626,-0.6061345865577459,4.21965066216588,-3.723016022507846
1684252503460577000,11.492576904296875,-0.25839213911965486,5.569356129115819,-3.9272897640794513
1684252503470603000,11.50260302734375,0.2017104669548571,6.075168639224767,-4.045217932106555
1684252503480629000,11.51262890625,1.2697908032357692,5.466271602216363,-3.823159527519345
1684252503490655000,11.522655029296875,2.809829164688289,4.0133705492079255,-2.8204271310701965
1684252503500681000,11.532680908203124,4.076341384644806,2.7918583314508196,-2.063250626912713
1684252503510707000,11.54270703125,5.678666983184218,1.2753157041370868,-1.6328522542282937
1684252503520733000,11.55273291015625,5.040343945205211,0.47123336415886874,-1.6928183548912406
1684252503530759200,11.56275927734375,3.7129426645219326,0.2028852098226547,-1.8789122966498135
1684252503540785200,11.57278515625,3.6063095052301883,-0.216353763204813,-1.942455963538587
1684252503550811100,11.58281103515625,4.036327061903476,-0.6075485450088978,-1.910916915936768
1684252503560837000,11.592837158203125,4.712691953507066,-0.8796557596176863,-1.4572361596032977
1684252503570863000,11.602863037109374,5.42565668323338,-0.9910627091825008,-0.5926379761248827
1684252503580889000,11.61288916015625,6.588647153916955,-0.9433639694184064,0.08863543804734945
1684252503590915800,11.622915771484376,7.950220168793201,-0.6729442695051431,0.645439299724996
1684252503600941800,11.63294189453125,7.87558549130857,-0.15463292782902716,1.2980249640733004
1684252503610967800,11.6429677734375,6.325395445936918,0.270606746917963,1.5451584809452295
1684252503620994000,11.652994140625,4.670560200220346,0.7267588618010282,1.5558891337960958
1684252503631020000,11.66302001953125,3.5313851971492167,1.2282932561993598,1.3722522298008202
1684252503641046000,11.6730458984375,2.6550249719455836,1.7394973962187765,0.8334621637195349
1684252503651072000,11.683072021484374,1.9148282441616058,2.1508248654693363,0.11799772613197565
1684252503661098000,11.693097900390624,1.3470906082764267,2.3684347662150858,-0.5411953736573457
1684252503671124000,11.7031240234375,0.812211870419979,2.317294361564517,-0.826413998773694
1684252503681150000,11.71314990234375,0.18214783448129893,2.5610166086882353,-0.4145940698310733
1684252503691176000,11.723176025390625,-0.23975801966786384,3.8055554817676542,0.8306026826351881
1684252503701202000,11.733201904296875,-0.5478258977130055,5.587675045138597,2.5271175539568067
1684252503711228000,11.743227783203125,-0.984534768718481,6.961105086547136,3.418635893064737
1684252503721254100,11.753254150390624,-1.323124626277387,7.228138066631555,2.6207375024184585
1684252503731280100,11.763280029296874,-1.2237163036726415,6.065679510867596,0.7716396215349436
1684252503741306000,11.77330615234375,-0.4535474853426218,4.0813574592411515,-1.375598617619276
1684252503751333000,11.7833330078125,4.4736651707232,2.270172544905543,-3.7853251791656013
1684252503761359000,11.793359130859375,15.959947004044055,1.4984738866597413,-8.36136351364851
1684252503771384800,11.803384765625,10.912881057107448,1.5929191800296305,-8.110713513088227
1684252503781410800,11.813410888671875,3.4013357986956834,2.457951371011138,-5.000861829644442
1684252503791436800,11.823436767578125,-0.9572884498745202,3.1459318816065784,-1.6475860052406788
1684252503801462800,11.833462890625,-2.7886978215932845,3.6311341498851775,0.4456120161682367
1684252503811489000,11.843489013671874,-3.572631692034006,4.354052702870964,1.3422843770384787
1684252503821515000,11.853514892578126,-4.238108694398403,4.923357734203338,2.0764625751852988
1684252503831541000,11.863541015625,-5.05213375172019,5.467397975897788,2.2982067992568016
1684252503841567000,11.87356689453125,-5.989865852731466,6.11740677549541,1.986238698902726
1684252503851593000,11.883593017578125,-6.547474016529321,7.18803109717071,1.5404448964267967
1684252503861619000,11.893618896484375,-5.96221796734929,7.821304450544715,1.2052753687053919
1684252503871645000,11.90364501953125,-5.127468101906776,6.834387755125761,0.7375181562244891
1684252503881671000,11.9136708984375,-4.2344472492814065,4.9805876879006625,-0.029201544564962385
1684252503891697000,11.92369677734375,-3.2974963617756963,3.130994424715638,-0.5044850608974695
1684252503901723000,11.933722900390626,-2.5629578058838844,2.0519956579267977,-0.7318173142343759
1684252503911750100,11.943750244140626,-1.8903753554284572,1.6985329331457615,-0.9386731812536716
1684252503921776000,11.953776123046875,-1.0692717380225658,1.8742577488422392,-1.2422662519723175
1684252503931802000,11.963802001953125,-1.2028706456512213,1.98076698949337,-1.5760162682846188
1684252503941828000,11.973828125,-1.7924995030879973,1.7348884411185979,-1.6287725836992262
1684252503951854000,11.98385400390625,-2.6879408608585593,1.016584688451886,-1.5169766348168252
1684252503961880000,11.993880126953124,-3.869898190079629,0.04562485609948635,-1.4597837982594966
1684252503971906000,12.003906005859376,-5.153223305410147,-0.9550538226902484,-1.2968120811522006
1684252503981932000,12.01393212890625,-6.560798193004727,-1.632493650048971,-1.1167325773775576
1684252503991958000,12.0239580078125,-7.41828595995605,-2.1491373507738114,-1.1283208699710667
1684252504001984000,12.03398388671875,-7.707041527026891,-2.8710733224630354,-0.3954565309017896
1684252504012010000,12.044010009765625,-7.064606962075829,-3.4873961255580186,1.0108328469268977
1684252504022036000,12.054035888671875,-5.920532788786292,-4.321992261743545,2.038332166494429
1684252504032062000,12.06406201171875,-5.231608859860897,-4.557620634260774,3.1635923337206244
1684252504042088000,12.074087890625,-4.768426115688682,-4.0743268299520015,3.6638723441436887
1684252504052114000,12.084114013671876,-4.355362908686697,-5.98133475575149,4.919743050837517
1684252504062140000,12.094139892578125,-4.22155152735114,-12.52265667939186,7.8512775640040635
1684252504072167000,12.1041669921875,-4.617052481916547,-15.80581325790882,9.622921910589932
1684252504082193000,12.11419287109375,-4.875170918661356,-12.531843025410174,9.091118634656072
1684252504092219000,12.124218994140625,-4.683737077179551,-6.001607143929601,7.034052833858132
1684252504102245000,12.1342451171875,-3.9167777224153277,1.1957447392940521,3.6170609086081384
1684252504112271000,12.14427099609375,-3.951653220963478,4.254052697983384,1.165875086209178
1684252504122297000,12.154297119140624,-3.580002513062954,3.758302147683501,0.34473449779376386
1684252504132323000,12.164322998046876,-2.198545232543349,4.179015869438648,-0.6047868982758373
1684252504142349000,12.17434912109375,-0.44376171212643384,6.063011168441176,-2.02209502518177
1684252504152375000,12.184375,15.317718775320053,12.62178107048869,-7.0511629586130375
1684252504162401000,12.194401123046875,26.618308525681496,16.478250746935604,-11.154597225105762
1684252504172427000,12.204427001953125,8.041280495899915,11.909931608527899,-7.5091452115327115
1684252504182453000,12.214452880859374,-0.9344380279019474,8.795992363509535,-5.122501419410109
1684252504192479000,12.22447900390625,-3.7447444547131656,2.441366146913171,-2.0801625987470147
1684252504202505000,12.2345048828125,-4.037836297422647,-0.7879904523551463,-1.4361658990457653
1684252504212531200,12.24453125,-3.893543269561231,0.8257353688597678,-2.1596792030543086
1684252504222557200,12.25455712890625,-4.432787216889858,-0.13511749549806118,-0.612312252279371
1684252504232584000,12.264583984375,-6.231181038713455,-1.2397007853984832,0.8165631244320422
1684252504242610000,12.27460986328125,-6.428062039685249,-1.9936866768211126,1.3370467686459422
1684252504252636000,12.284635986328125,-5.636577315473557,-1.6929694537997244,1.1968617606252432
1684252504262661600,12.29466162109375,-4.773273555719852,-3.082347590446472,2.4426085481896993
1684252504272687600,12.3046875,-4.378329650515318,-3.639309273034334,3.7346421628937123
1684252504282713600,12.314713623046876,-5.14672692912817,-1.853196840634942,4.285965839594603
1684252504292739600,12.324739501953125,-7.38027508599162,0.05481704733669757,4.27485466299355
1684252504302765800,12.334765869140625,-9.445450543487071,1.428154149764776,3.6870530209839343
1684252504312791800,12.344791748046875,-11.175492713618278,2.587629305803776,2.3811229828745124
1684252504322817800,12.35481787109375,-12.28623043449521,2.2862521575689314,1.5740445298202335
1684252504332843800,12.36484375,-12.894618352937698,1.6464204685926436,0.9682070265129208
1684252504342869800,12.374869873046874,4.340779964321851,0.509264111867547,4.708971179418265
1684252504352895700,12.384895751953126,34.25788570524454,-3.7900083685457706,10.588170964080094
1684252504362921700,12.394921630859375,13.474749314188957,-3.3663223529815673,4.525235783484578
1684252504372947700,12.40494775390625,1.3612655563622713,0.2587736857831478,3.4299078131854532
1684252504382973700,12.4149736328125,-3.4209155284345147,4.276497169503569,2.727563846194744
1684252504393001000,12.4250009765625,-3.482657991120219,7.106265252631903,-0.4474493511306122
1684252504403027000,12.43502685546875,0.38063711089994756,12.89287881579399,-5.337056608760356
1684252504413052700,12.445052734375,4.596620519262552,12.99217038015127,-6.414243942213058
1684252504423078700,12.45507861328125,13.011973981773853,2.642176304027438,-1.3442390182375907
1684252504433104600,12.465104736328126,4.983192901962995,-5.771462171259522,-0.14733181103542448
1684252504443130600,12.475130615234375,-1.3010730995975435,-10.306593910336494,-4.081720739595592
1684252504453156600,12.485156494140625,-5.179520945227146,-17.41995642775297,-10.739364565110206
1684252504463182600,12.4951826171875,-9.459097960567474,-14.51288006401658,-7.178700958767533
1684252504473208600,12.50520849609375,-11.121007090193032,1.2453957821696997,2.0102350760400296
1684252504483234600,12.515234619140625,-10.471143836545943,5.1254731286972754,3.944066126835346
1684252504493260800,12.5252607421875,-9.555885433149337,3.6234213835507627,3.2898344488456845
1684252504503286800,12.535286865234376,-7.512165436136722,2.079552942416072,3.577221942433715
1684252504513312800,12.545312744140626,-1.7021780116498468,1.8925474387705326,6.302753990539908
1684252504523338800,12.5553388671875,7.633804441380501,3.05961728772223,7.9471824085325
1684252504533364700,12.56536474609375,12.716332162320613,3.933282867014408,7.123041615387797
1684252504543390700,12.575390625,10.555071827554702,3.80558178525269,5.846303769493103
1684252504553417700,12.585417724609375,5.236428827363253,3.602188625907898,4.481090644548833
1684252504563443700,12.595443603515625,0.8097416809141635,3.302399623647332,2.7930639078482984
1684252504573469700,12.6054697265625,-1.3404454711735247,3.498991286283731,2.0992928311526775
1684252504583496000,12.615495849609376,-1.6735563127994537,5.529343267679214,2.2079326540917155
1684252504593522000,12.62552197265625,-1.2574269962251186,7.854900430676341,1.8599195730186997
1684252504603548000,12.6355478515625,-0.5501928460400551,8.883556080672145,1.1619012141421436
1684252504613574000,12.645573974609375,-0.11075286957025528,9.890082316446303,1.2241405204340814
1684252504623599900,12.655599853515625,-0.3097837420523166,10.712326920580864,1.1980918869420885
1684252504633625900,12.6656259765625,-0.5842669650774449,10.407912596607208,1.1100006387740373
1684252504643651800,12.67565185546875,-0.8272165473282337,9.419275068745016,1.083059148095548
1684252504653677800,12.685677734375,-0.8101683818936347,8.809093837144971,1.1238351028591393
1684252504663703800,12.695703857421876,-0.8124328196942806,9.153519853511453,1.3015312186285852
1684252504673729500,12.7057294921875,0.08718958662059158,10.51117423363924,0.17920622807145117
1684252504683755500,12.715755615234375,-0.17101243675444275,11.121769306737184,-1.2490537201553582
