time,seconds_elapsed,z,y,x
1684253134037756000,0.013755859375,-3.834752934679389,2.9258015224725007,2.7469565289288758
1684253134047782000,0.023781982421875,-2.3949837504446507,2.5869793174624442,2.5327447461888193
1684253134057808000,0.033807861328125,-0.7690309003412723,2.7080814393505452,1.434844587314129
1684253134067832800,0.043832763671875,0.19196341831386088,3.241534820578992,0.7551992127351462
1684253134077858800,0.05385888671875,0.8222235613465309,3.327201764209568,0.8037311153877527
1684253134087884800,0.063884765625,1.5323510218203067,3.0347651705384253,0.4064684849120676
1684253134097910000,0.073909912109375,2.4578011488854883,2.7595208269476887,-0.05877331068180501
1684253134107936000,0.08393603515625,3.885891001242399,1.9703911414295434,-0.6744068163383752
1684253134117962000,0.0939619140625,4.92221557843089,0.9334358651220798,-1.7414499915912747
1684253134127988000,0.103988037109375,4.51103950034976,-0.27494039220809935,-2.343506222794205
1684253134138013000,0.114012939453125,2.957297315454483,-1.236603403905034,-2.8118516104266047
1684253134148039000,0.124038818359375,1.3190829496711491,-1.3078788340896368,-2.955115295240283
1684253134158065000,0.13406494140625,-3.9503655192404983,-4.124951686295867,-9.192628459584713
1684253134168089900,0.14408984375,-7.748872251540422,-8.067801423078775,-17.199622070479393
1684253134178115800,0.15411572265625,0.7674825018554925,-0.4042389722943306,-3.3154829771041867
1684253134188141800,0.164141845703125,1.4434657006651161,4.311581342366337,3.691497433172166
1684253134198166800,0.174166748046875,0.9247469472318888,5.226728686603903,4.2647707836136215
1684253134208192800,0.18419287109375,0.9412544299185276,5.327746928623318,1.8838038680836557
1684253134218219000,0.194218994140625,1.38504682944417,5.8343199017107485,0.46548283780813215
1684253134228245000,0.204244873046875,3.0769138749599456,6.435756685841083,1.3153580839291215
1684253134238270000,0.21427001953125,4.363953919160366,6.65790306097269,1.7341314852714538
1684253134248296000,0.2242958984375,5.69509497089386,6.952177683725953,0.8136869114086032
1684253134258322000,0.234322021484375,6.210614636024832,7.32565093087852,-0.892737359508872
1684253134268347100,0.24434716796875,5.851747421851754,7.252960957720875,-2.2447709771454334
1684253134278373000,0.254373046875,5.443381725016236,7.451801276066899,-2.5239818862795826
1684253134288399000,0.264399169921875,4.782365793713927,8.356523087880015,-2.453902387881279
1684253134298424000,0.274424072265625,4.480952405121922,9.732745974877476,-2.337994035243988
1684253134308450000,0.284449951171875,4.348970577301085,11.066306362712382,-2.520725514832139
1684253134318476000,0.29447607421875,6.657120970684289,12.074333066177367,-3.4837516315758226
1684253134328502000,0.304501953125,4.867010993081331,13.513678472042082,-4.722988306593894
1684253134338527000,0.31452685546875,3.15745514613986,14.341880523276329,-5.4029065067648885
1684253134348553000,0.324552978515625,3.186659028792381,12.877239348113536,-4.026569637998938
1684253134358579000,0.334578857421875,1.4266472523331641,12.563656213778257,-1.6499679319411515
1684253134368604000,0.34460400390625,0.33525603696107864,12.042180855113267,1.5663585053622722
1684253134378630000,0.3546298828125,0.17723054408431052,10.889735159319638,3.827782511144876
1684253134388655900,0.36465576171875,0.016263737058639524,8.95829480305314,5.416639848563075
1684253134398680800,0.374680908203125,-0.2375367634218186,7.236570963934064,5.966990004056692
1684253134408706800,0.384706787109375,-0.2876140688855201,5.687569836086034,5.782672716581821
1684253134418732800,0.39473291015625,-0.20705511591844258,4.730637944564223,7.727013470953702
1684253134428758800,0.4047587890625,0.007127659922838211,4.023860671301186,10.218245764797926
1684253134438784000,0.414783935546875,-0.020084172129631043,2.962693913801014,12.4223550612092
1684253134448810000,0.42481005859375,-1.1871943530917166,2.0062176570922134,13.978992967545985
1684253134458836000,0.4348359375,-1.6552210301637649,1.029604329022765,14.940217003303765
1684253134468861000,0.44486083984375,-1.7841081068396567,-0.11189444082081318,15.992734005880354
1684253134478887000,0.454886962890625,-2.1269301951408384,-1.1854659218639134,16.84516098231077
1684253134488913000,0.464912841796875,-2.299489240282774,-2.607498373878002,17.777791376268862
1684253134498937900,0.474937744140625,-1.3902245243430136,-4.63868037635684,18.6170455673933
1684253134508963800,0.4849638671875,0.3615261311840266,-6.07065028501749,18.127717743617296
1684253134518990000,0.494989990234375,1.5922078168898819,-6.727481039589643,16.798338440859318
1684253134529016000,0.50501611328125,2.4631255587786436,-7.103736610937118,15.605205345368384
1684253134539041000,0.515041015625,3.2592572320133444,-7.504913273051381,14.494800801968573
1684253134549067000,0.52506689453125,4.009506274995208,-7.733873419851064,13.030956914663314
1684253134559093000,0.535093017578125,4.451455092480779,-7.770520019724964,11.306942334258556
1684253134569118000,0.545117919921875,4.695644372594356,-7.92187436427474,9.586803718504308
1684253134579144000,0.55514404296875,5.25019724047482,-8.13162945986688,7.801600217643379
1684253134589170000,0.565169921875,5.894813241118192,-8.244075689351558,5.767026819160581
1684253134599195000,0.57519482421875,5.673873903688788,-8.16555627938807,4.500252733397484
1684253134609220900,0.585220947265625,5.4261260543107985,-7.50349873007834,2.7637708856076
1684253134619246800,0.595246826171875,5.522902420976758,-5.915682426145673,0.23188567885756492
1684253134629272800,0.60527294921875,11.023244635099172,-0.3957791869848966,-4.574366601878404
1684253134639298000,0.615298095703125,15.789217512416839,6.3967766745835535,-6.76450816321373
1684253134649324000,0.625323974609375,7.727415622013807,2.5697242312788964,-5.367268207150698
1684253134659350000,0.63535009765625,0.22602818500101565,-1.2699883716344833,-5.135898661121725
1684253134669375000,0.645375,0.516204213329032,-0.6798866359889507,-1.2453443442434071
1684253134679401000,0.65540087890625,0.8475497988481074,-1.7339385930478572,0.037462007910013195
1684253134689427000,0.665427001953125,-0.13285532271973788,-3.2637107042908666,0.9147451931774616
1684253134699452000,0.675451904296875,0.6354057622928172,-5.373732434728741,3.5536797388046977
1684253134709478000,0.685477783203125,-1.875763477230072,-5.371504237285256,5.854095446282625
1684253134719504000,0.69550390625,-3.4751340253561733,-3.0051702427417037,5.229997917532921
1684253134729529900,0.70552978515625,-3.5560569893300533,1.3490443726927042,2.694806654974818
1684253134739554800,0.715554931640625,-2.7942075249254703,5.310426960510015,2.175121102336049
1684253134749580800,0.725580810546875,-2.806828521567583,9.371585681331156,1.812550941991806
1684253134759606800,0.735606689453125,-3.911730960419774,11.211114646619558,-2.160176631182432
1684253134769631700,0.7456318359375,-3.5346839464336632,9.812849439162015,-5.468297555086016
1684253134779657700,0.75565771484375,-0.8031038503348827,8.574826231586933,-6.4438271795719855
1684253134789683700,0.76568359375,1.77104696521461,7.201593174055218,-6.477994237589836
1684253134799709000,0.775708984375,3.032842678043246,5.290722727608681,-4.832414311474562
1684253134809735000,0.78573486328125,2.8312743960380553,3.056067486286163,-2.52950737170279
1684253134819761200,0.79576123046875,2.192077497833967,2.2255951520323753,-0.4485650207549333
1684253134829785900,0.805785888671875,1.5935656612396238,3.655376026216149,1.491391234922409
1684253134839812000,0.81581201171875,-0.1218447569489479,4.546094447118044,1.5888549993306398
1684253134849838000,0.825838134765625,-3.2427894968152042,4.432209124740958,1.0051268903702497
1684253134859864000,0.835864013671875,-5.1312569727957245,4.673676286414265,1.9992466490358114
1684253134869889000,0.845888916015625,-3.8470121122717855,5.349065610983968,6.362599679693579
1684253134879915000,0.8559150390625,0.712577776235342,4.630086151012778,11.061590440106391
1684253134889941000,0.86594091796875,4.4317479369699955,2.9715426984280344,11.181744759750366
1684253134899966000,0.875966064453125,5.621264011007547,0.5933768117934465,8.247748824906349
1684253134909992000,0.885991943359375,1.861169719210267,-0.867403011766076,6.773120508736372
1684253134920018000,0.896017822265625,0.4006769324311986,-0.002463759765028953,5.817971993499994
1684253134930043000,0.90604296875,-0.7705816369146108,1.5754852301478386,5.204998500832915
1684253134940068900,0.91606884765625,-1.0529822089355438,2.3626316328942774,3.5906110008388756
1684253134950094800,0.9260947265625,0.6339496452003717,2.0039409443318843,0.018041852647066117
1684253134960120800,0.936120849609375,1.6080816778481006,0.9949375047892332,-4.008026850092411
1684253134970146000,0.94614599609375,2.10794200155437,-0.20480127257704733,-8.156402082073688
1684253134980172000,0.956172119140625,2.0152701475977897,-1.731782876318693,-12.403962495428322
1684253134990198000,0.966197998046875,2.623067114409804,-3.5936931847631928,-14.391882863807677
1684253135000223000,0.976222900390625,3.1419705767601727,-5.238441920751333,-12.039893036437034
1684253135010249000,0.9862490234375,1.7611983558952808,-7.661106289803981,-8.511676824712753
1684253135020275000,0.99627490234375,-3.2087703228354454,-9.891761063313483,-6.593976824507117
1684253135030300000,1.0062998046875,0.359302682980895,-8.47041191738844,-4.771323590695857
1684253135040326000,1.016325927734375,2.7309043887943028,-9.637641340816021,-4.526902839913964
1684253135050351900,1.026351806640625,1.7277883998550474,-9.049263944745062,-2.642939105093479
1684253135060377900,1.0363779296875,0.6093700613476336,-6.918515652620792,-1.0588210711568593
1684253135070402800,1.04640283203125,0.6289731719620526,-6.611269320091605,-3.550342703336477
1684253135080428800,1.0564287109375,2.103711816638708,-5.546356361800432,-4.693579256758094
1684253135090454800,1.066454833984375,3.273424873575568,-4.014799705228209,-4.898201081115007
1684253135100479700,1.076479736328125,4.01865813422203,-3.3966040939986706,-5.440327013620734
1684253135110505700,1.086505615234375,4.4087423244357105,-3.44317412199378,-6.531143643975257
1684253135120532000,1.096531982421875,4.305508744454384,-2.8468624257922173,-8.40573106316328
1684253135130557000,1.106556884765625,1.228306115680933,-2.977935029813647,-9.948534505414962
1684253135140583000,1.1165830078125,-2.9449919606328008,-2.1338597021430727,-7.886612496757507
1684253135150609000,1.12660888671875,-5.737691419082879,3.962934493434429,-0.9227046277493238
1684253135160635000,1.136634765625,-6.487416730451583,10.90508002796769,6.077901863580942
1684253135170660000,1.14666015625,-6.968218717944621,13.740116406887768,10.028473719048499
1684253135180686000,1.15668603515625,-6.351715297585725,14.44878022454977,14.715930109012126
1684253135190712000,1.166712158203125,-3.766797004306316,13.147605272012948,19.905558606755733
1684253135200737000,1.176737060546875,-0.8784031292080878,10.051852256548404,22.349147690415382
1684253135210763000,1.186762939453125,2.064664585363865,6.544539132121205,20.319379061865806
1684253135220789000,1.1967890625,4.0780221773386,2.6219196979403496,16.321231800752876
1684253135230814000,1.20681396484375,3.7265947577774523,0.09449030155539512,12.956640801608561
1684253135240840000,1.21683984375,3.0099522163212296,-0.3860878140538931,8.96008519360125
1684253135250866000,1.226865966796875,2.1443115380525586,-0.2874894926577806,3.3425463405966758
1684253135260892000,1.236891845703125,2.2500784359037875,-0.20718436832129955,-0.5923129819542169
1684253135270916900,1.246916748046875,2.4911492917358875,-2.584374103400111,-3.0000550916850566
1684253135280942800,1.25694287109375,2.977832738482952,-5.566602446493506,-4.796516776402294
1684253135290968800,1.26696875,4.797811784648895,-5.662153655278682,-9.225521259883045
1684253135300993800,1.276993896484375,9.11579539527297,-5.322659250095486,-14.339481645441055
1684253135311019800,1.287019775390625,9.451558797234297,-5.329336828163266,-15.90217753664255
1684253135321045800,1.297045654296875,6.141684892183542,-8.91394654276073,-25.962568488955498
1684253135331071000,1.307071044921875,2.5743863778710363,-10.9594826492846,-27.062180420184134
1684253135341097000,1.317096923828125,2.3984813833020624,-8.275256425035,-17.995710489094257
1684253135351123000,1.327123046875,3.4733377895891664,-4.978911279121041,-12.112099025470018
1684253135361148000,1.33714794921875,4.547466904515027,-0.8380296177655457,-6.944795756781101
1684253135371174000,1.347173828125,2.3384197133101523,-1.2902829716444015,-3.190585262325406
1684253135381200000,1.357199951171875,3.66611720046103,0.7168763502120972,-4.409721398600936
1684253135391225900,1.367225830078125,2.3219150071024894,4.696595974230766,-1.6503601461291313
1684253135401250800,1.377250732421875,-0.8091372852802277,7.5575722655713555,4.29504375680238
1684253135411276800,1.38727685546875,-2.833974887168407,10.672990935492514,8.315040738412737
1684253135421303000,1.397302978515625,-1.6220120035231111,10.349249979758262,8.570104463762044
1684253135431327700,1.40732763671875,-0.9852432092487812,8.583852418607473,6.4320058088749645
1684253135441354000,1.41735400390625,-0.953525955535844,7.551680869445204,6.791468650853633
1684253135451380000,1.4273798828125,-0.9498843110978603,6.607404461356997,7.0514698326051235
1684253135461405000,1.437405029296875,-1.152189748271182,5.92189647835493,7.21292763801813
1684253135471431000,1.447430908203125,-1.2936533248603344,6.134873458603024,6.881575038236379
1684253135481457000,1.457456787109375,-1.7103180634856223,6.227568108913302,6.242931097739935
1684253135491483000,1.46748291015625,-1.6112977172851561,7.035946684780717,6.042466977584362
1684253135501508000,1.477508056640625,-1.2482546787321567,7.376019182112812,8.59493612267971
1684253135511534000,1.4875341796875,0.047122967436444015,6.559129967531561,13.355267194718122
1684253135521560000,1.49756005859375,1.858163523131609,3.971718688392639,15.244568198913335
1684253135531585000,1.5075849609375,1.9096984800577164,2.5130928279966116,12.897454453146457
1684253135541611000,1.517611083984375,0.9866811330974101,2.917867222341895,8.062733618295193
1684253135551637000,1.527636962890625,0.09487959313392638,3.6354438297778366,2.321445636025071
1684253135561662000,1.537661865234375,-0.6573403115294874,3.877261704584956,-2.8901632228583094
1684253135571688000,1.54768798828125,-1.028211413359642,3.057203212317824,-5.3870893444299695
1684253135581714000,1.5577138671875,-0.8914135635592043,2.0223814409077168,-5.616147106385231
1684253135591740000,1.567739990234375,-1.278889617101103,0.825887929072976,-5.469527973663807
1684253135601764900,1.577764892578125,-2.138329541033506,-0.05151274509429931,-5.009049812275171
1684253135611790800,1.587790771484375,-3.174805509391427,-0.6225011994689703,-3.869740076908469
1684253135621816800,1.59781689453125,-5.190431630820036,-1.154248361301422,-2.3334680822521445
1684253135631841800,1.607841796875,-7.215738019263744,-1.951704561138153,-0.7671595535114407
1684253135641867800,1.61786767578125,-5.567559308826923,-2.280512152612209,0.05783288802653551
1684253135651893800,1.627893798828125,-3.984094185841083,-1.626855936422944,0.39782764394730324
1684253135661919000,1.6379189453125,-3.4944854992970824,-0.36697044112980365,0.2905710920602083
1684253135671945000,1.647945068359375,-3.145507518714666,0.772668380060792,0.3861094413638115
1684253135681971000,1.657970947265625,-2.6930606880903243,1.8140221835881472,1.1470651717990636
1684253135691997000,1.667996826171875,-2.491436876505613,3.1727637744307517,1.1179787780463695
1684253135702022000,1.67802197265625,-2.0603098972856997,4.058593838769197,0.5442062459111213
1684253135712047900,1.6880478515625,-1.7787550553739069,4.251452744618058,0.0814528330668807
1684253135722074000,1.69807421875,-1.7395634471923112,4.0629742458105085,-0.17103870370686053
1684253135732098800,1.708098876953125,-1.777948999688029,3.4935710148006676,-0.5482756873071193
1684253135742125000,1.718125,-1.9532973832875489,2.605275437131524,-1.0341595081090926
1684253135752151000,1.728151123046875,-1.8671400257915258,1.692897557607293,-1.181449671959877
1684253135762176000,1.738176025390625,-1.626923156440258,0.7312462363481521,-1.2040192311644553
1684253135772202000,1.748201904296875,-1.2667536274969577,-0.15421967085301874,-1.2134437698528169
1684253135782228000,1.75822802734375,-0.9381607016868889,-0.8031284002542495,-1.1612228764891623
1684253135792254000,1.76825390625,-0.6359060399651527,-1.2106044547736643,-1.2950740053132175
1684253135802279000,1.77827880859375,-0.30728724906146526,-1.3114379878759383,-1.6136346358001232
1684253135812305000,1.788304931640625,0.1330991414129734,-1.0822574763238428,-2.0026298617333174
1684253135822331000,1.798330810546875,0.6028088031359017,-0.678263418701291,-2.4055299866393205
1684253135832356000,1.808356201171875,1.8537328472077845,-0.26583471021056176,-2.8346985252678394
1684253135842382000,1.818382080078125,7.984753137513994,0.8246493271887302,-3.6365105822265145
1684253135852407800,1.82840771484375,20.07003605225086,1.9742454787701367,-4.104149429024756
1684253135862433000,1.83843310546875,14.137238240653275,1.1220967347592115,-2.6302538110435005
1684253135872459500,1.84845947265625,4.491510916276276,0.45206747591793534,-2.0595622937887907
1684253135882485500,1.858485595703125,0.2720844182550907,0.06068623163104057,-1.9914789376437663
1684253135892510500,1.868510498046875,-0.1022381392031908,-0.004429506880044937,-1.8113193543702364
1684253135902536400,1.878536376953125,0.13450155555680393,-0.17700433411300182,-1.2056614454135297
1684253135912562400,1.8885625,0.17109028776362536,-0.4537468073070049,-0.5966612402915954
1684253135922588400,1.89858837890625,0.2637140647947788,-0.6075888770192861,-0.023024317234754562
1684253135932613400,1.90861328125,0.3288884016253054,-0.6004793372750282,0.4949804427102208
1684253135942639400,1.918639404296875,0.3467461298771202,-0.40964404620826245,0.8023653069272637
1684253135952665300,1.928665283203125,0.24441161762736735,-0.10476619637608528,1.0400099877029656
1684253135962690300,1.938690185546875,0.33935718866959214,0.1578039590805769,1.240769583673775
1684253135972716300,1.94871630859375,0.6752760734535753,0.32315877193212506,1.4623320214375852
1684253135982742300,1.9587421875,0.9499604450739919,0.4685644372105598,1.67737704013139
1684253135992767200,1.968767333984375,1.0993895206496118,0.5673480520457029,1.7757202177226543
1684253136002793200,1.978793212890625,1.3144871463134884,0.7017810724109411,1.8842986658632754
1684253136012819200,1.988819091796875,1.679178828856349,0.9504507128089665,2.1232202347069977
1684253136022845200,1.99884521484375,2.5765023471117017,1.2203320680618286,2.5350161982521415
1684253136032870400,2.008870361328125,5.689440306133031,1.6005489442557095,3.445418978311121
1684253136042896400,2.018896484375,8.04753780272901,1.798188654640317,4.223780309316516
1684253136052922400,2.02892236328125,7.395802325469255,1.7150404158324002,4.044235350809991
1684253136062947300,2.038947265625,5.61586828944385,1.4136246891528368,3.1802333796590565
1684253136072973300,2.048973388671875,4.032566248065233,0.8845300876557827,2.279137941649556
1684253136082999300,2.058999267578125,2.7791245220839977,0.23637597601413726,1.4710206470668314
1684253136093024300,2.069024169921875,1.8603915744446218,-0.32321780864298344,0.8604697053715586
1684253136103050200,2.07905029296875,1.2412374934464692,-0.5210100792407989,0.39296559086889027
1684253136113076200,2.089076171875,0.7272481066226959,-0.3988783220440149,-0.037649054914712904
1684253136123102500,2.0991025390625,0.5769699034044519,-0.06344108329713344,-0.2533034376785159
1684253136133127200,2.109127197265625,2.2298072167694567,1.0132254411518573,-0.4256427025899291
1684253136143153200,2.119153076171875,5.821382094204425,2.9640491278022525,-0.49005935292094943
1684253136153179400,2.129179443359375,6.99192692579031,4.838078328585625,-0.8174567853361367
1684253136163204000,2.1392041015625,5.351454551947117,6.494148084533214,-0.808127523715794
1684253136173230300,2.149230224609375,3.1674469633221625,7.585906964173913,-0.4283677436396479
1684253136183256300,2.15925634765625,2.481955054672062,7.609322911074758,0.17728811949044465
1684253136193281500,2.169281494140625,1.902824794895947,6.4235325795620675,1.3958350577011704
1684253136203307300,2.179307373046875,0.6232359434843063,4.658766886574029,3.3016736474603414
1684253136213333200,2.189333251953125,-2.8515558443054556,3.4728935529530047,4.657136947284639
1684253136223359200,2.199359130859375,-7.07365126927495,2.9066373877972365,5.979332183757424
1684253136233384400,2.209384521484375,-11.170776791012287,2.913483892691135,6.505909833997488
1684253136243410400,2.219410400390625,-13.623112660229205,3.3031355367064474,6.459595242068171
1684253136253436400,2.2294365234375,-15.167537566202878,3.973275854706764,6.964546751433611
1684253136263461400,2.23946142578125,-15.204284119319915,5.17863714812994,8.952461274594068
1684253136273487400,2.2494873046875,-11.62232462697029,6.122333125981688,12.501853545337914
1684253136283513300,2.259513427734375,-7.447345465701818,5.37836067905128,12.277540932083129
1684253136293538300,2.269538330078125,-4.937035546422004,3.870014802196622,8.147373556965588
1684253136303564300,2.279564208984375,-2.7667186294972894,2.6613363470494744,3.8372652097612616
1684253136313590300,2.28959033203125,-0.28500264427810906,2.4476982725441454,1.0060633675027637
1684253136323615200,2.299615234375,2.919356876377761,3.3711651168376204,-1.3771182284019887
1684253136333641200,2.30964111328125,3.862692496484518,4.267857351452112,-3.5770939321398734
1684253136343667200,2.319667236328125,3.7170638361051678,3.814271287664771,-4.776891161695122
1684253136353693200,2.329693115234375,1.1565057848393916,1.5351432828873395,-5.163413275513053
1684253136363718100,2.33971826171875,-1.2430232078194619,-0.3137076374977827,-4.426584855118394
1684253136373744000,2.349744140625,-1.9266244804173707,-1.0554793595135212,-3.2378727909401057
1684253136383770000,2.35977001953125,-3.1401804784730074,-1.7450626291304825,-2.762030763942003
1684253136393795300,2.36979541015625,-3.8559962137162684,-2.707104411011934,-3.0429896857872603
1684253136403821300,2.3798212890625,-2.957477932718396,-3.552501927196979,-4.043201039326191
1684253136413847300,2.389847412109375,-1.6538029800593852,-3.7800083680570125,-5.341798250329494
1684253136423872300,2.399872314453125,-1.8115695297390222,-3.3183933115929363,-6.33167730268538
1684253136433898200,2.409898193359375,-2.120401670154929,-2.5955039847016335,-6.861970758578181
1684253136443924500,2.419924560546875,-2.0689692968204616,-1.6963146725744007,-6.1293865516245365
1684253136453950500,2.429950439453125,-2.532637486422062,-1.2082938397437333,-4.432769388972223
1684253136463975200,2.43997509765625,-3.442335040821135,-1.0542162077099084,-3.108499976573884
1684253136474001400,2.45000146484375,-4.248661068072915,-1.3719278201520442,-2.7870427478626367
1684253136484027400,2.46002734375,-4.527034357339144,-2.2731319792330265,-2.938343316398561
1684253136494052400,2.47005224609375,-4.517325741012394,-3.3713889887213706,-2.9967002282992006
1684253136504078300,2.480078369140625,-4.444466548767686,-4.36004814389348,-2.689970905381441
1684253136514104300,2.490104248046875,-4.87989970074892,-5.102331322562694,-2.3667061888568104
1684253136524129300,2.50012939453125,-5.387751023209095,-5.609517459112405,-1.8870435806572436
1684253136534155300,2.5101552734375,-5.948728955700993,-5.98308832142055,-1.3759570756681263
1684253136544181200,2.52018115234375,-6.581583206880092,-6.190593007737398,-1.2491358454808592
1684253136554207200,2.530207275390625,-6.679163291144371,-6.245291397130489,-1.5808628315329551
1684253136564232400,2.540232421875,-6.294210618600249,-6.279798646888136,-1.9335930042557417
1684253136574258400,2.550258544921875,-5.43285507030487,-6.320826822847128,-2.0348954700440167
1684253136584284400,2.560284423828125,-4.421018745423853,-6.528064382660388,-1.5193278741180896
1684253136594309400,2.570309326171875,-3.5977447982415556,-6.6262886100471015,-0.6457737923763692
1684253136604335400,2.58033544921875,-2.2424662073343993,-6.466082850521802,0.761584675988555
1684253136614361300,2.590361328125,-1.1123084773249923,-5.179281875774264,2.5977479642361403
1684253136624386300,2.60038623046875,0.3955586761020124,-2.4123183316051957,4.18475645891726
1684253136634412300,2.610412353515625,31.092767477130888,13.188812896192074,9.646236735203862
1684253136644438300,2.620438232421875,22.748118951439857,35.584376300823685,4.857841013675928
1684253136654464300,2.63046435546875,-18.40557490005493,36.762592397689815,-12.657265056324004
1684253136664489200,2.6404892578125,-10.348374365967512,30.560165159773824,-21.06664119799137
1684253136674515200,2.65051513671875,39.94937768321037,16.97981495195031,-17.352623013192414
1684253136684541200,2.660541259765625,26.018804170918465,-2.039344850668311,-3.859743583551049
1684253136694566100,2.670566162109375,-3.6867408862948414,-3.4768104341357944,-1.0201441344991327
1684253136704592100,2.680592041015625,-12.224020938819645,-2.4002970544219018,-0.11270020424574613
1684253136714618000,2.6906181640625,-9.694071084046364,-3.873484524133801,-1.023139370792359
1684253136724643300,2.700643310546875,-9.266960939252376,-4.012545788821578,-3.059096478718519
1684253136734669300,2.71066943359375,-8.105328897440433,-4.317999392715096,-2.1007555971816183
1684253136744695600,2.720695556640625,-6.675835023504495,-4.119308711972832,0.054038756440579885
1684253136754720300,2.73072021484375,-5.588899033975601,-3.758596162194013,1.482888487254083
1684253136764746200,2.740746337890625,-4.841508303034305,-3.238407336208224,2.5194223232790827
1684253136774772500,2.7507724609375,-1.5998492715537547,-0.9741787943989038,3.9742096284255384
1684253136784798500,2.760798583984375,0.08391410861387848,0.3847872528493404,4.982774384289979
1684253136794823400,2.770823486328125,-0.16466200828179717,-0.28087095130085943,5.000277307754755
1684253136804849400,2.780849365234375,-0.577847818750143,-0.30877251918315884,3.855295956492424
1684253136814875400,2.79087548828125,0.1441792652886361,0.8840133703052997,2.3806942360684276
1684253136824900400,2.800900390625,2.3034487915635107,2.808109209027886,1.4726882880181074
1684253136834926300,2.81092626953125,2.907594250130653,4.272219053792953,0.593928015935421
1684253136844952300,2.820952392578125,1.4198714745879173,5.040919114744663,-0.4307046621546149
1684253136854977300,2.830977294921875,0.26873974746968593,6.0129217341482635,-0.5203679819449782
1684253136865003300,2.841003173828125,-0.10041152656422928,6.167992468872666,0.5423094723790883
1684253136875028700,2.85102880859375,-0.10164952566027641,5.23492368349731,2.000474145004153
1684253136885054700,2.8610546875,0.2949123361349106,3.8637633405864236,3.1960780145227905
1684253136895080000,2.871079833984375,1.1177847167789936,2.6855215247571467,3.884878317068517
1684253136905106000,2.88110595703125,2.0700521236211062,1.6750298924833535,4.466882086454332
1684253136915132000,2.8911318359375,2.934510898628831,0.4975573074609041,4.667158575083315
1684253136925156900,2.901156982421875,3.3270056571155786,-0.6398726055085658,4.450610750611126
1684253136935182800,2.911182861328125,3.0046394968658685,-1.3877093266516922,3.9067543410509824
1684253136945208800,2.921208740234375,2.276806868353486,-1.7034055076181887,3.2393519235819577
1684253136955233800,2.93123388671875,1.5642781919568776,-1.7531003896355628,2.448724692982435
1684253136965259800,2.941259765625,1.0075602549970148,-1.5134832397431135,1.664545907869935
1684253136975285800,2.95128564453125,0.6786060215938836,-1.0112830749124289,0.9527963991522789
1684253136985311700,2.961311767578125,0.44330490826964375,-0.45402796233594417,0.2234638874709606
1684253136995336700,2.971336669921875,0.29339791298396883,0.021260814693570135,-0.3132064099773764
1684253137005362700,2.98136279296875,0.22857670044004916,0.34267946496009827,-0.6037707800358534
1684253137015388700,2.991388671875,0.23648696210794148,0.4319909025728702,-0.6578492839649319
1684253137025413600,3.00141357421875,0.2435983284831047,0.3755582367330789,-0.4937403795212507
1684253137035439600,3.011439697265625,0.24732640909552572,0.2766664853483438,-0.11241291173696517
1684253137045465600,3.021465576171875,0.34190438893437386,0.10086685084998608,0.2711816241964698
1684253137055490800,3.03149072265625,0.30901283074505626,-0.09512626137137413,0.5368789717629552
1684253137065516800,3.041516845703125,0.23865561138391495,-0.26439327923059464,0.653837417975068
1684253137075543000,3.05154296875,0.19456519831009209,-0.39205402898192404,0.6843781021893024
1684253137085569000,3.061569091796875,0.1097721149045974,-0.463875402611494,0.5157344769254326
1684253137095593700,3.07159375,0.013671382477879523,-0.4098194027751684,0.2639022808432579
1684253137105620000,3.081619873046875,-0.07098258471786975,-0.25727730974555013,-0.0603387333676219
1684253137115646000,3.09164599609375,-0.10977796012349426,-0.0910229177057743,-0.3576066927179694
1684253137125671000,3.1016708984375,-0.07030220123827458,0.026059154886007307,-0.5366457475289702
1684253137135697000,3.11169677734375,0.0866658915400505,-0.04304711456596851,-0.650001200813055
1684253137145723000,3.121722900390625,0.29774083755910397,-0.27453707210421563,-0.6121726976782084
1684253137155747800,3.131747802734375,0.4592582642048597,-0.5571650962054729,-0.5151803501740098
1684253137165773800,3.14177392578125,0.5511950088199228,-0.7523059755116701,-0.4630348601341247
1684253137175799800,3.1517998046875,0.5988011749297381,-0.8485305535137653,-0.5445709875702858
1684253137185824800,3.16182470703125,0.6001445523627102,-0.791650143906474,-0.6998200014710426
1684253137195850800,3.171850830078125,0.5641249983459711,-0.718504828196764,-0.9310825799942016
1684253137205876700,3.181876708984375,0.5395383271653205,-0.6848416280478239,-1.2067223526433108
1684253137215902700,3.19190283203125,0.5639543179541826,-0.6722206314057111,-1.4410194765567779
1684253137225928000,3.201927978515625,0.6888637231707573,-0.6763374190747737,-1.5710352650016546
1684253137235954000,3.211953857421875,0.8717180984862148,-0.7452081262052058,-1.5316022492796182
1684253137245980000,3.22197998046875,1.0894237146914005,-0.8146025649487971,-1.352901340381801
1684253137256004900,3.2320048828125,1.3246918755941093,-1.0137357287615536,-1.0507169674172996
1684253137266030800,3.24203076171875,1.5391500343106685,-1.2501444380015134,-0.8150587842836976
1684253137276056800,3.252056884765625,1.7330473432965576,-1.473673791924119,-0.6695274467989802
1684253137286081800,3.262081787109375,1.8961136068195104,-1.6791688919842243,-0.611701573035121
1684253137296107800,3.272107666015625,2.0361708968073127,-1.8933394659310578,-0.6599784049481153
1684253137306133800,3.2821337890625,2.173134312433004,-2.117488997578621,-0.7368930100634694
1684253137316159700,3.29215966796875,2.3008289644539355,-2.3479431823283434,-0.7795160539984702
1684253137326184700,3.302184814453125,2.3986096858568486,-2.571485395732522,-0.7104486552521586
1684253137336210700,3.312210693359375,2.4685008220762015,-2.7559201721072197,-0.5776940894931555
1684253137346236700,3.322236572265625,2.539466163398325,-3.0468221035569902,-0.38523382757306096
1684253137356261600,3.33226171875,2.6383149524241682,-3.392700072297454,-0.20652970380485056
1684253137366287600,3.34228759765625,2.7611832072019578,-3.786179750168323,-0.02295592817366123
1684253137376313900,3.35231396484375,2.804397787289321,-4.16431514391303,0.21904840911626813
1684253137386338800,3.3623388671875,2.735592254349589,-4.5470133155286305,0.5479787501871586
1684253137396364800,3.37236474609375,2.5448931568831203,-4.760526302349567,0.8026029150754213
1684253137406390800,3.382390869140625,2.285728425955772,-4.656022556301951,0.8057549493655561
1684253137416415700,3.392415771484375,2.027327080616355,-4.0886183901548385,0.47718204343020915
1684253137426442000,3.40244189453125,1.8216940333902836,-2.999692103591561,-0.0779383952051401
1684253137436468000,3.412468017578125,1.7523384653523564,-1.7623153772264717,-0.5988242635443807
1684253137446494000,3.422493896484375,1.7157225528776645,-0.28934184252619743,-0.8192892614603042
1684253137456519000,3.432518798828125,1.6639838900730013,1.6161977642863987,-0.5833803184360266
1684253137466545000,3.442544921875,1.4073805340662597,4.606161085546017,-0.5288397499531508
1684253137476571000,3.45257080078125,0.6110394558645784,8.838667722153662,-1.6838582188442348
1684253137486595800,3.462595947265625,-0.8722612654522061,13.008776647037267,-3.439375606493652
1684253137496621800,3.472621826171875,-2.0189795235097407,15.672560971760749,-4.841944356364012
1684253137506647800,3.482647705078125,-3.162026107317209,16.91573381718397,-5.03738100374639
1684253137516672800,3.4926728515625,-2.4906097780317067,15.710877550673484,-3.2148850063234566
1684253137526698800,3.50269873046875,8.426236091053486,11.207931340408324,0.378191507846117
1684253137536724700,3.512724853515625,17.149319285696745,6.703213444295526,2.1191543004423377
1684253137546750700,3.522750732421875,8.020354612249136,4.508258345198631,2.9499986828789115
1684253137556776000,3.53277587890625,-0.06399696361422538,3.402410149928927,3.495927807059884
1684253137566801700,3.5428017578125,-4.797713584971428,2.492335871171951,3.8588983648985624
1684253137576827600,3.55282763671875,-8.661328456997872,2.041521610185504,4.25438499867767
1684253137586852900,3.562852783203125,-12.838771962553261,2.4436288311481476,4.994238027590513
1684253137596878800,3.57287890625,-17.486361621552703,4.111706420275569,6.062839903527498
1684253137606904800,3.58290478515625,-22.36376775192022,6.984339831662178,7.50006524849832
1684253137616929800,3.5929296875,-20.914801115751267,10.680185230910777,10.37019807524085
1684253137626955800,3.602955810546875,7.156313185870647,18.648298783791063,18.696671477293968
1684253137636981800,3.612981689453125,2.0935744535058736,18.4820607583642,13.103655071127413
1684253137647006700,3.6230068359375,-3.6970021680682894,13.08180330480337,2.506955932676792
1684253137657032700,3.63303271484375,5.666809956651925,8.836216821870208,-3.631992228019237
1684253137667058700,3.64305859375,8.563948279219865,4.517124373221397,-5.195025972872972
1684253137677085000,3.6530849609375,2.9182898316681385,2.588755679485202,-3.264529034936428
1684253137687109600,3.663109619140625,-4.605129988932609,2.410007132053375,-1.5887135450333356
1684253137697135900,3.673135986328125,-10.875270580637455,2.00553376648128,-1.8036627021372318
1684253137707161900,3.683161865234375,-13.732719866895675,0.38397359837889666,-3.191990745209157
1684253137717186800,3.693186767578125,-13.718878388547896,-1.8589286622852086,-5.3042427189171315
1684253137727212800,3.703212890625,-12.684820587247609,-3.8778801287442444,-6.808369516772031
1684253137737238800,3.71323876953125,-11.229416026985644,-5.360241084992885,-6.614024756279587
1684253137747264000,3.723263916015625,-8.952863425654172,-7.805975363987684,-5.705380802586674
1684253137757290000,3.7332900390625,-7.300732178199291,-10.30121163277626,-5.570190826374292
1684253137767316000,3.74331591796875,-6.773048028022051,-11.14902322436571,-5.2681169280469415
1684253137777342000,3.753342041015625,-7.2819216792672865,-11.193199050700663,-4.538169499337673
1684253137787367000,3.763366943359375,-8.431600248435139,-11.1602343542099,-4.5549569680094715
1684253137797393000,3.773392822265625,-9.182129277402161,-10.768700549709797,-5.3066673157155515
1684253137807419000,3.7834189453125,-8.942468872889876,-10.562809728330373,-6.376383290374279
1684253137817443800,3.79344384765625,-8.979563216531275,-10.774092179620265,-7.147196397957205
1684253137827469800,3.8034697265625,-9.35448081727326,-11.6998906817317,-7.332458857327699
1684253137837495800,3.813495849609375,-9.628919689700007,-12.435478746676445,-7.149961186495423
1684253137847520800,3.823520751953125,-9.453729127010703,-14.089142610526084,-6.171997028338909
1684253137857546800,3.833546630859375,-8.779574897193909,-15.426598836755751,-4.983098209416866
1684253137867572700,3.84357275390625,-6.888180135589837,-15.098648154371975,-4.806364508938789
1684253137877598700,3.8535986328125,16.164556553441287,-9.419922718998789,-17.346521773707867
1684253137887623700,3.863623779296875,50.29438169596195,21.548937223434447,-25.85780579971075
1684253137897649700,3.873649658203125,25.936447374749182,30.985664362239834,-0.21371669269949198
1684253137907675600,3.883675537109375,-6.265456233280897,10.002876336455344,-7.076871400365233
1684253137917700900,3.893700927734375,-0.6932815396130084,0.5230553213328123,-7.963568895187974
1684253137927726800,3.903726806640625,12.394323729467391,-2.419119243791699,-4.268092913773656
1684253137937752800,3.9137529296875,-5.129006563520432,-5.4593689832210535,-2.7183032658964392
1684253137947777800,3.92377783203125,-11.884066514909266,-4.507823460912705,-4.389876880446076
1684253137957803800,3.9338037109375,-13.342476686728,-2.9500206024497744,-9.300722923600674
1684253137967829800,3.943829833984375,-11.283460920906066,-0.8303232811719179,-12.229494401794671
1684253137977854700,3.953854736328125,-9.231300427806376,3.1578122890144584,-13.651945956003665
1684253137987880700,3.963880615234375,-10.15827732604742,6.015915070745349,-11.49856497631073
1684253137997906700,3.97390673828125,-11.44205223097205,7.122299857109785,-8.694550343120097
1684253138007932700,3.9839326171875,-11.106740079909562,7.146164132300019,-7.073328613191842
1684253138017957600,3.99395751953125,-9.791098795124888,7.1738576103895895,-6.1771209472239015
1684253138027983600,4.003983642578125,-8.854640367311239,7.572080098873377,-5.569808549058437
1684253138038009600,4.014009521484375,-6.9706877384066575,7.801257687816023,-5.018393979203701
1684253138048034600,4.02403466796875,-3.453715389752388,8.244809264323115,-3.824088332802057
1684253138058060500,4.034060546875,18.143903154742716,10.377295340025425,4.6459839773684735
1684253138068086500,4.04408642578125,7.009939552342892,8.758940689966082,2.2032608628883956
1684253138078111700,4.05411181640625,-5.933873331874609,7.396022690221667,-3.69876362478286
1684253138088137700,4.0641376953125,-4.044784801386297,7.890713502335548,-3.405058618611097
1684253138098163700,4.074163818359375,-3.1916976074814793,8.605908183071017,-2.369923251207173
1684253138108188700,4.084188720703125,-2.917299651587009,7.785590747606753,0.6040080959230661
1684253138118214700,4.094214599609375,-1.6773370003819466,5.688251973131298,3.72849182357043
1684253138128240600,4.10424072265625,-0.5667103386640548,4.518291078913212,6.414143404448032
1684253138138267000,4.114266845703125,0.12712183883534744,3.2418028238654135,8.181923476821183
1684253138148291600,4.12429150390625,1.5424556517273187,1.6912036131709813,8.832677541828154
1684253138158317600,4.134317626953125,3.102390846043825,0.5288701450914144,9.144076317861675
1684253138168343800,4.14434375,3.3449843813985582,-0.22810674484074114,9.080243604898453
1684253138178368500,4.154368408203125,2.56686358115077,-0.7069412316530943,8.85385593893528
1684253138188394800,4.164394775390625,1.8873171369016168,-1.2324421925723552,8.775808238136769
1684253138198420700,4.174420654296875,1.305011754220724,-1.62221950879395,8.430658583670853
1684253138208445700,4.18444580078125,0.7006634665578604,-1.6619190664976835,8.113440892225503
1684253138218471700,4.1944716796875,0.3036123599410057,-1.3410235633224248,7.934062814718485
1684253138228497700,4.20449755859375,0.08477205888377502,-0.8836205715954303,7.268013565424084
1684253138238523600,4.214523681640625,0.14804657170865684,-0.6067898355960846,6.69486822527647
1684253138248548900,4.224548828125,0.33783494753837584,-0.4693833523780107,6.058669924366474
1684253138258574800,4.234574951171875,0.44659580304119734,-0.46991702086329457,5.254125227573514
1684253138268600600,4.2446005859375,0.6477005226552486,-0.38724341382980343,4.36141007989645
1684253138278625800,4.254625732421875,0.864594384086132,-0.0442851319283247,3.281006707006693
1684253138288651800,4.26465185546875,0.8467009999990462,0.5130804552853108,2.1406848719879985
1684253138298677800,4.274677734375,0.5397761545091867,1.0940484518826008,1.0451669320747257
1684253138308702700,4.28470263671875,0.08451938103064895,1.713358746355772,0.0065723641276359554
1684253138318728700,4.294728759765625,-0.12421375110261142,2.223020333108306,-0.7018778107836842
1684253138328754700,4.304754638671875,-0.15842881298065184,2.5536224067837,-1.1794757415384054
1684253138338779600,4.314779541015625,-0.18363573495149613,2.509026309210062,-1.4330989126905798
1684253138348805600,4.3248056640625,-0.09865962312929331,2.094343684312701,-1.3709703732967375
1684253138358831600,4.33483154296875,0.07731244532652198,1.4832845008343458,-1.2074375151753425
1684253138368857600,4.344857666015625,0.3568809357266873,0.8035521786242723,-1.1159651001363993
1684253138378882600,4.354882568359375,0.5461848525077104,0.18377251307368278,-1.0133943679779767
1684253138388908500,4.364908447265625,0.5962333702683449,-0.31900925103724,-0.914433058488369
1684253138398934500,4.3749345703125,0.6165104346215725,-0.7201356442689896,-0.8668526844069361
1684253138408959700,4.384959716796875,0.5247323146343231,-0.9743617497503757,-0.9135080525979399
1684253138418985700,4.39498583984375,0.3557295006692409,-1.0995108089417218,-1.0874117903470992
1684253138429011500,4.405011474609375,0.1300005908757448,-1.1021966870248316,-1.3611460216358304
1684253138439036700,4.41503662109375,-0.16363215377740561,-1.04632399315536,-1.6449536109104752
1684253138449062700,4.425062744140625,-0.38532209037840365,-0.9423398870676756,-1.832207828620076
1684253138459088600,4.435088623046875,-0.4641501278996467,-0.892621624174714,-1.968989457938075
1684253138469115000,4.445114990234375,-0.41972880237102506,-0.8594166891872882,-2.132833573965728
1684253138479139600,4.4551396484375,-0.18991715330854056,-0.7861714202344418,-2.330769052426517
1684253138489165800,4.465165771484375,0.30526261136606336,-0.6874860050767659,-2.6494731830373404
1684253138499191800,4.47519189453125,0.9195493785887956,-0.804658678561449,-2.879390776692331
1684253138509216800,4.485216796875,1.3864824152052402,-1.2433838578253984,-2.680222249305248
1684253138519242800,4.49524267578125,1.7299322800159453,-1.7346370967060327,-2.1876544206947086
1684253138529268700,4.505268798828125,2.2248694681063292,-1.9456570976674556,-1.6547949137061833
1684253138539293700,4.515293701171875,2.825527376818657,-1.7312971386283635,-1.2000184710904955
1684253138549319700,4.525319580078125,3.43959334089756,-1.2114467508167028,-0.8758245108917355
1684253138559345700,4.535345703125,3.84982015542984,-0.6938537865430117,-0.6065791154548525
1684253138569371600,4.54537158203125,3.9696453892499206,-0.16189678135216234,-0.3759393450051546
1684253138579396600,4.555396728515625,3.766076873338222,0.3069114014863968,-0.19461159473508596
1684253138589422600,4.565422607421875,3.463319668921828,0.6064806235164404,0.08584580732882022
1684253138599448600,4.575448486328125,3.1504329924181103,0.7673936545282601,0.4335749568939209
1684253138609473800,4.585473876953125,2.8731287936881182,0.7915449299663305,0.8281789626196027
1684253138619499800,4.595499755859375,2.7284102338910103,0.6882417918801307,1.2899357656419277
1684253138629525800,4.60552587890625,2.730406083883345,0.5777917046487331,1.6868153150841594
1684253138639550700,4.61555078125,2.8548683298543094,0.4911795891225338,1.9666510781183837
1684253138649576700,4.62557666015625,3.0743329185560344,0.3967179291397333,2.139091173055768
1684253138659602700,4.635602783203125,3.3404262797027826,0.20202830073237418,2.266703699751198
1684253138669627600,4.645627685546875,3.632714404813945,-0.08132745312154292,2.367082182562351
1684253138679653600,4.655653564453125,4.008562272143363,-0.6151110892176628,2.5168375674828884
1684253138689679600,4.6656796875,5.772244846069812,-0.5948205808609723,2.9264976880431175
1684253138699705600,4.67570556640625,10.143792873620987,1.355842362269759,3.061017217648029
1684253138709730600,4.68573046875,9.577517419242858,2.4182833774894474,1.3037906879931687
1684253138719756500,4.695756591796875,8.915345888164639,3.881946647530794,-0.6225853706210851
1684253138729782500,4.705782470703125,8.963270253378152,6.351163508921862,-2.37920633559823
1684253138739807500,4.715807373046875,7.761891892111301,8.734779477655888,-3.9205268458157776
1684253138749833500,4.72583349609375,4.837118543642759,9.749952545744181,-4.753002336585522
1684253138759859700,4.735859619140625,1.4049367941759525,9.169022543069719,-4.565264427012205
1684253138769884700,4.745884765625,-1.1407646103501319,7.925458067980408,-3.968389543969929
1684253138779910700,4.75591064453125,-2.8839465403005478,6.57865884386599,-3.652601008544862
1684253138789937000,4.76593701171875,-4.698669565634429,5.280001427108049,-2.917057659524679
1684253138799961600,4.775961669921875,-6.514975768506527,4.201217179852724,-1.5521435175269842
1684253138809987800,4.78598779296875,-8.019578367179632,3.3416105210512876,-0.2813274628967047
1684253138820013800,4.796013916015625,-9.190746299099922,2.8556127184808253,0.9652399934008717
1684253138830039800,4.806039794921875,-9.689121352684497,2.546483056423068,1.821900077356398
1684253138840064800,4.816064697265625,-9.376327322900295,2.3300480446755887,3.3205677330225702
1684253138850090800,4.8260908203125,-8.812346701461076,2.177269804802537,5.481552173456549
1684253138860116700,4.83611669921875,-7.429226456165313,2.366960017487407,6.955825684839486
1684253138870141700,4.8461416015625,-2.0375053602814672,3.1267841135442254,7.25621616012454
1684253138880167400,4.85616748046875,2.249577500644326,3.979457758212089,6.274650762605667
1684253138890193400,4.866193359375,2.8773505030363795,4.173654634666443,3.802914904130995
1684253138900218400,4.87621826171875,2.854678944762051,3.409171314626932,0.5555727124474943
1684253138910244400,4.886244384765625,2.995048077178001,2.146593511509895,-1.8380708754345774
1684253138920270300,4.896270263671875,3.339813993023336,0.5077735810488462,-3.4879455761343237
1684253138930295600,4.906295654296875,3.261173587028682,-0.7858832509428262,-4.661297866356373
1684253138940321500,4.916321533203125,1.9047814819216726,-1.5043237817317245,-5.070806888008117
1684253138950347800,4.92634765625,-0.3412231286719441,-1.9864783528774976,-4.648165997582674
1684253138960373800,4.936373779296875,-3.0234231077909466,-2.495401688483357,-4.571078081727028
1684253138970398700,4.946398681640625,-5.022050163623691,-3.086773005673289,-4.6315813580065965
1684253138980424700,4.9564248046875,-5.7125295052975416,-3.6646933051377535,-4.246902241706848
1684253138990450700,4.96645068359375,-5.205396560239792,-4.181901654008031,-3.8296614567592737
1684253139000475600,4.9764755859375,-3.884689516498148,-4.622019164413214,-3.6672576026678083
1684253139010501600,4.986501708984375,-3.0006518885344264,-4.8123517666548485,-3.5369238343149423
1684253139020527600,4.996527587890625,-2.7346587728917595,-4.761196164435148,-3.41984234624505
1684253139030552600,5.006552490234375,-2.754310398823023,-4.526559725564718,-3.1853716193303465
1684253139040578600,5.01657861328125,-2.7664035721987483,-3.9871167485326526,-2.708924612176418
1684253139050604500,5.0266044921875,-2.9671617068648337,-3.4647903259962796,-2.093803001564741
1684253139060630500,5.036630615234375,-3.511770688357949,-3.3281407986253497,-1.761280627351254
1684253139070655500,5.046655517578125,-3.893457344843447,-3.4525668042391535,-1.813382424379885
1684253139080681500,5.056681396484375,-3.8799113423109053,-3.6815561771333214,-2.056715964446962
1684253139090707500,5.06670751953125,-3.7636630901947616,-3.891232362270355,-2.346769170112908
1684253139100732700,5.076732666015625,-3.655414896921813,-4.044589278814196,-2.747518838986754
1684253139110758700,5.086758544921875,-3.4796953419223424,-4.135096648213267,-3.0267165963783857
1684253139120784600,5.09678466796875,-3.3171173003077503,-4.223403877219558,-2.9504978645727036
1684253139130809600,5.1068095703125,-3.190245947368443,-4.318796680572628,-2.5830752957612275
1684253139140835600,5.116835693359375,-3.05910378524214,-4.3698575902462,-2.0046233736380934
1684253139150861600,5.126861572265625,-2.9748256656214593,-4.333137925136089,-1.3250954879589378
1684253139160886500,5.136886474609375,-2.731080037622154,-4.256775985467434,-0.5847254494346678
1684253139170912500,5.14691259765625,-2.226371397101879,-4.257995882651209,0.07377163091450929
1684253139180938500,5.1569384765625,-1.585296137805283,-4.368604959836602,0.44267318623736496
1684253139190964500,5.166964599609375,-0.9824126619979738,-4.555176163718104,0.6626764118604361
1684253139200989400,5.176989501953125,-0.07300912210941314,-4.6377638460338115,0.6568763472795486
1684253139211015400,5.187015380859375,0.7820049482047557,-4.472197436258196,0.44312721361517904
1684253139221041400,5.19704150390625,1.5634009707309304,-3.849792098379135,0.13762524053528905
1684253139231066400,5.20706640625,2.1473605503596365,-2.515023503798246,-0.22545988359376787
1684253139241092400,5.21709228515625,4.297126700556278,0.5231903458893299,-0.17779723805636166
1684253139251118600,5.22711865234375,21.01158625024557,10.188167437398434,1.3983108001649378
1684253139261143600,5.2371435546875,16.787239539217946,24.397307715702055,-7.8093807885169975
1684253139271169500,5.24716943359375,-0.7315725456930696,26.91518485536575,-11.679363442009686
1684253139281195500,5.257195556640625,-4.481391381061077,21.920931630206105,-11.677004311662913
1684253139291221500,5.267221435546875,-2.577035431075096,13.833768504053353,-7.731488570541143
1684253139301246700,5.277246826171875,4.286203155481815,3.375671780607104,-2.2393919144555925
1684253139311272700,5.287272705078125,7.481423091870546,-2.751757207208872,0.3792965464785695
1684253139321298700,5.297298583984375,2.95070040140748,-3.0465508854001757,1.2769456434264779
1684253139331323600,5.30732373046875,-0.28594233628101645,-3.441429908674955,1.4931928775168954
1684253139341349600,5.317349609375,-1.021884402295202,-4.218500323086976,1.599992479416728
1684253139351375600,5.327375732421875,-1.2528852611422538,-4.46284800863266,1.1852359125003218
1684253139361400600,5.337400634765625,-0.7675836972076445,-4.310094318678975,0.6069023560598492
1684253139371426600,5.347426513671875,0.4830874680817127,-2.64875626693964,0.5337111553817987
1684253139381452500,5.35745263671875,1.0893558370869607,-0.6482862135887145,0.8186214452013373
1684253139391477500,5.3674775390625,0.38276363806724545,0.8273404659688472,1.3965961052015423
1684253139401503500,5.37750341796875,-0.503759523101896,1.7545336373090743,2.0558561327472327
1684253139411529500,5.387529541015625,-1.128211418247223,1.5465642560899258,2.47217746476233
1684253139421555500,5.397555419921875,-1.5545711830653248,0.5213239674955606,2.1931831209883095
1684253139431580400,5.407580322265625,-1.7420820058844984,0.3775590551614761,1.2173784789532422
1684253139441606400,5.4176064453125,-1.6095593491852282,1.1613128928601741,0.1724380491107702
1684253139451632400,5.42763232421875,-1.2511036384224892,2.0755735173910854,-0.20364362697452307
1684253139461657600,5.43765771484375,-0.8379799334049224,2.5120219838947055,0.11418810471594333
1684253139471683600,5.44768359375,-0.5993874503850937,2.3431068482130764,0.9094152303263544
1684253139481709600,5.45770947265625,-0.6743524558026344,1.6051707588374613,1.6906921565175055
1684253139491734500,5.467734619140625,-0.843470858971402,0.630025165233016,2.3325661649763583
1684253139501760500,5.477760498046875,-1.1328805791020393,-0.45230537632703777,2.9313129793703556
1684253139511786500,5.487786376953125,-1.6054302865564822,-1.4649427884578703,3.8191421085715294
1684253139521812500,5.4978125,-1.717159307682514,-1.5694646546840667,4.4109325279563665
1684253139531837400,5.50783740234375,-1.1179448757767676,-0.9423691131621599,4.286335841950774
1684253139541863400,5.517863525390625,-0.8530640322249382,-0.31558219919800756,3.9019811352998017
1684253139551889700,5.5278896484375,-0.941835444676876,0.2282704109698534,3.5315728286758064
1684253139561914400,5.537914306640625,-1.1907856555819512,0.37230829502642154,3.0004040512531995
1684253139571940600,5.547940673828125,-1.5864835940241813,0.18847908332943916,2.804638610307872
1684253139581966600,5.557966552734375,-1.8957962114334106,-0.07362871531248093,2.638509890474379
1684253139591991600,5.567991455078125,-1.8638427378118037,-0.2539098791390657,2.5010817799463867
1684253139602017500,5.578017578125,-1.3608943849623203,-0.1439309165507555,2.522294079323113
1684253139612043500,5.58804345703125,-0.6374713895857334,-0.017406477352976797,2.7796950154483318
1684253139622068700,5.59806884765625,0.1271036273252219,-0.11784136652648448,2.9611159969598053
1684253139632094700,5.6080947265625,0.7794055793613195,-0.35996260819435116,3.101556733307242
1684253139642120700,5.61812060546875,1.2855045051962137,-0.6230629250049591,3.2015839184626933
1684253139652145700,5.628145751953125,1.7700234673857689,-0.7437766320973634,3.236293997316062
1684253139662171600,5.638171630859375,2.2441316563285887,-0.7007716031074523,3.2289459726408123
1684253139672197600,5.64819775390625,2.603298584100604,-0.5387473959833383,3.0975577267989514
1684253139682223600,5.6582236328125,2.7809897314339875,-0.5619955851018429,2.828938062044978
1684253139692248600,5.66824853515625,2.8660277295112606,-0.8689385507702827,2.5087916236713528
1684253139702274600,5.678274658203125,3.0248131008446215,-1.133072886803746,2.0682401057630777
1684253139712300500,5.688300537109375,3.484612340058386,-0.9144038323938846,1.4367948445990681
1684253139722325500,5.698325439453125,4.528008170807361,-0.0968617068618536,0.6417424910336732
1684253139732351500,5.7083515625,5.91074380069971,0.7625713489383459,-0.15023615417480468
1684253139742377500,5.71837744140625,6.938701531559229,0.906208250978589,-0.25402736803889275
1684253139752402400,5.72840234375,9.684756143212319,0.42941900625824925,0.18454408196806907
1684253139762428400,5.738428466796875,13.564260658288001,1.9002596205830573,0.6151330087885261
1684253139772454400,5.748454345703125,5.728548327684402,4.10332963707447,1.476099850027263
1684253139782480400,5.75848046875,3.3494565583765503,5.813832409477233,0.7129775892078876
1684253139792505600,5.768505615234375,1.9736608107499778,7.268989716979861,-0.2417594226181507
1684253139802531600,5.778531494140625,-0.09618760699257255,8.843662461701035,-0.7647416787147522
1684253139812557600,5.7885576171875,-1.744163049942255,10.408643248969316,-1.3788842151612042
1684253139822582500,5.79858251953125,-1.6872119131863117,8.830349391141533,-0.916508695718646
1684253139832608500,5.8086083984375,-0.10061316834986209,6.022121524170041,0.3099462391376495
1684253139842634500,5.818634521484375,2.1130898858368394,4.967689043360949,1.421889828673005
1684253139852659500,5.828659423828125,4.88571920068264,3.981483711081743,1.189222644048929
1684253139862685400,5.838685546875,2.684972074180841,2.4778736305773257,-1.032857193338871
1684253139872712000,5.8487119140625,-1.2394202148914337,1.43536422727406,-1.2676540834680199
1684253139882737000,5.85873681640625,-3.434004142588377,2.1544372107475995,-1.3732754353687167
1684253139892763000,5.868762939453125,-4.501811068755388,4.2319232837617395,-2.470876903557777
1684253139902788900,5.878788818359375,-5.087054258453846,6.97452454009056,-4.173795796702802
1684253139912814800,5.88881494140625,-5.601123724776506,8.869479624524711,-5.670038855570555
1684253139922839800,5.89883984375,-5.434978053808212,9.642819035714863,-5.629571820625663
1684253139932865800,5.90886572265625,-4.083670996880531,9.820447054684161,-2.8802158293396234
1684253139942892000,5.91889208984375,-1.6298051416173576,8.692378259778023,1.6433122734442351
1684253139952916700,5.928916748046875,-0.8747054437339306,6.941587900650501,5.354199466741084
1684253139962943000,5.93894287109375,-3.1346622995734212,5.58265400210619,6.934429845589399
1684253139972969000,5.948968994140625,-5.348160186576843,4.43442387818098,6.831250041621923
1684253139982994200,5.958994140625,-6.289937179064751,2.7589029873102904,4.991750302428007
1684253139993020200,5.969020263671875,-5.963128652453422,0.6929810953617096,2.4130105516530573
1684253140003046100,5.979046142578125,-5.117422508710622,-0.9981564668357372,0.7392159000530839
1684253140013071000,5.989071044921875,-3.4964021465733643,-2.355396420943737,-0.9542736320979892
1684253140023097000,5.99909716796875,-1.4709443669602273,-3.7118046004027128,-2.8623218607306478
1684253140033123000,6.009123046875,-0.037757775986194606,-4.619109998968243,-4.037731375743449
1684253140043149000,6.019149169921875,0.23102876976728437,-5.166731606280804,-4.325691116261482
1684253140053174000,6.029174072265625,-0.14619886148273945,-5.575206608709693,-4.2893300553306934
1684253140063200000,6.039199951171875,-0.7701508442819118,-5.54328177666068,-4.0117239510446785
1684253140073226000,6.04922607421875,-1.9108654780104755,-5.137071212032437,-3.4510751043766734
1684253140083251000,6.0592509765625,-3.4296424402475356,-4.838473465383053,-2.779118092343211
1684253140093277000,6.06927685546875,-4.891634562206268,-4.696487253159284,-2.064599849564582
1684253140103303000,6.079302978515625,-5.801652142339944,-4.6866327986210585,-1.1942409106023608
1684253140113327900,6.089327880859375,-6.14112842734456,-4.84875286733508,-0.6970005601361393
1684253140123353900,6.099353759765625,-6.442732954594493,-5.081538709902763,-0.6232289292216301
1684253140133379800,6.1093798828125,-6.439915559086203,-5.353998975732922,-0.8586641172543168
1684253140143405000,6.119405029296875,-6.270668414971232,-5.527053110915422,-1.2554986585110426
1684253140153431000,6.12943115234375,-6.025585400888324,-5.257457586866617,-1.6914835991561412
1684253140163457000,6.13945703125,-5.568365949034691,-4.847910571292043,-2.03524808287397
1684253140173483000,6.14948291015625,-4.805893384295702,-4.5086628343462944,-2.1474385840319097
1684253140183508000,6.159508056640625,-3.8698414914563295,-4.159720801860094,-2.051812410314381
1684253140193534000,6.169533935546875,-3.002635463567078,-3.7614948062449693,-1.7458222153261302
1684253140203560000,6.179559814453125,-2.339467322666943,-3.316991628101468,-1.2720681005179881
1684253140213585000,6.1895849609375,-2.0411554072216154,-2.8080770603239533,-0.8092800547517836
1684253140223611000,6.19961083984375,-1.922752315159142,-2.282604740977287,-0.4097976293347776
1684253140233636900,6.209636962890625,-1.9042659336149692,-1.7498358348816632,-0.02168108593225479
1684253140243661800,6.219661865234375,-1.8161328921318054,-1.2249649885594844,0.3150999686390161
1684253140253687800,6.229687744140625,-1.602715182378888,-0.8296715392649173,0.6924354441776871
1684253140263714000,6.239714111328125,-1.3358102125883102,-0.4835872342973947,1.109564877705276
1684253140273738800,6.24973876953125,0.09749708215594291,0.07299509358406066,1.7181103247970342
1684253140283765000,6.259764892578125,4.974699798905849,2.023029675683379,2.0317621404543518
1684253140293791000,6.269791015625,16.14518783610463,8.723822614833711,0.6395636856898665
1684253140303817000,6.27981689453125,13.923846834385394,15.184267751729488,-0.5020855985403061
1684253140313842200,6.28984228515625,4.5078632084012025,18.14100860234499,-4.328194623515009
1684253140323868200,6.2998681640625,-2.556160108567774,16.369803231698274,-7.8434969931304455
1684253140333894000,6.309893798828125,-5.607783767187595,10.987056884908675,-7.497541867500543
1684253140343919000,6.319919189453125,-3.1178713237702844,2.539836458015442,-4.3721012775197625
1684253140353945000,6.329945068359375,1.8225825066626071,-1.7966081074506044,-3.8412455115690824
1684253140363971000,6.33997119140625,-0.05719210590496659,-1.0579156467497348,-2.0503312318459153
1684253140373996000,6.34999609375,-1.1522564568318425,-1.5797615922927855,-0.1424362940788269
1684253140384022000,6.36002197265625,-0.5103776260674,-2.7605495854735373,0.3706508832082152
1684253140394048000,6.370048095703125,-0.7350641872011124,-3.647608314824104,0.5424789837270975
1684253140404074000,6.380073974609375,-1.4325953470826147,-4.409071994781494,0.9109837948173284
1684253140414099000,6.390098876953125,-2.2364006236851215,-4.663962701651454,0.9014052346110344
1684253140424125000,6.400125,-3.195571818566322,-4.290709234729409,0.5950628651842474
1684253140434151000,6.41015087890625,-4.1783197038680315,-3.375577088060975,0.49004064822047944
1684253140444176000,6.42017578125,-4.9414440105140205,-2.0982798547178505,1.0717673542305826
1684253140454201900,6.430201904296875,-5.3655111343502995,-0.7532061392217874,2.0381430736631154
1684253140464227800,6.440227783203125,-6.0469081749022005,0.3394125721186399,3.035619741541147
1684253140474253000,6.450253173828125,-7.579148137563466,0.8152847019940614,3.8952991733178495
1684253140484279000,6.460279052734375,-6.112543553373217,1.0125438886284828,3.718126204639673
1684253140494304800,6.4703046875,-4.324237994843721,1.5597721127092838,2.8865564305379987
1684253140504330000,6.480330078125,-3.1668425676882266,1.9940560946553945,1.8588935909718274
1684253140514356000,6.49035595703125,-2.2453508228600025,2.177331764122844,1.231711540210247
1684253140524382000,6.5003818359375,-1.4864707296550272,2.1332079602360725,1.0617413425177336
1684253140534408200,6.510408203125,5.303406852614879,1.3899614894926546,-0.29586247646659614
1684253140544433000,6.520432861328125,10.82227548803091,0.8474094405293464,-1.5948688527926802
1684253140554459000,6.530458984375,7.383640763032436,0.8553916714549065,-0.599838116762042
1684253140564485000,6.540485107421875,5.354104774194956,0.6628413931638002,0.4394695678904652
1684253140574509800,6.550509765625,4.016913920903206,0.6859376065909862,1.171837209483981
1684253140584536000,6.5605361328125,2.78111540364027,0.832380213701725,1.5807134861901402
1684253140594562000,6.57056201171875,1.6234791534662245,1.0899106214255094,1.625311629590392
1684253140604587000,6.5805869140625,0.3439900361020118,1.1132657780498265,1.5964984998211265
1684253140614613000,6.590613037109375,-0.6733329765617847,0.8883645512521267,1.5752634040907025
1684253140624639000,6.600638916015625,-1.310543669384718,0.5246621720075607,1.7332205079063772
1684253140634664000,6.610663818359375,-1.6841232995212077,0.14446458503603934,2.1067077835842967
1684253140644690000,6.62068994140625,-1.9125415945291517,-0.008735679641366005,2.48730255317986
1684253140654716000,6.6307158203125,-1.8736299723327159,0.08332125728726386,2.725898251070082
1684253140664742000,6.640741943359375,-1.9430910465717315,0.3492775480508804,2.8584917810484765
1684253140674767000,6.65076708984375,-2.0914859567940236,0.6768547209471464,2.8240438602626323
1684253140684793000,6.66079296875,-2.1686837627649305,0.960830652526021,2.697027838155627
1684253140694819000,6.670819091796875,-2.1531050853610036,1.1016530816674233,2.439672202476859
1684253140704844000,6.680843994140625,-2.0199907463788986,1.107860119614005,2.1187430892929435
1684253140714870000,6.6908701171875,-1.714755753672123,0.9740145437479019,1.8819781139612197
1684253140724896000,6.70089599609375,-1.4008371037721634,0.7179512859672308,1.7104948813572525
1684253140734921000,6.7109208984375,-1.0509294411242007,0.4506196151971817,1.533719679825008
1684253140744947000,6.720947021484375,-0.7238134559988975,0.24280454775691032,1.2949080010965466
1684253140754973000,6.730972900390625,-0.4829080198615789,0.12241700387895106,1.0529548094719647
1684253140764998000,6.740997802734375,-0.2573965522110462,0.09405775535702705,0.7609642060026526
1684253140775023900,6.75102392578125,0.016784564328659324,0.12507950108647345,0.49760377695113417
1684253140785049900,6.7610498046875,0.35888712444994597,0.1603045437246561,0.3147062931463122
1684253140795075800,6.771075927734375,0.9175251792848109,0.13363748607337475,0.05175765976607799
1684253140805100800,6.781100830078125,1.772076308262348,-0.03432429440617561,-0.2929319759726524
1684253140815126800,6.791126708984375,2.488487379050255,-0.23274200342595575,-0.5916285068213939
1684253140825152800,6.80115283203125,2.66865514563024,-0.2742021410614252,-0.6627253655686974
1684253140835178000,6.811177978515625,2.3879805936843157,-0.208039523845911,-0.34233898095935583
1684253140845204000,6.821203857421875,1.838575025564432,-0.02835515686869621,0.29921646306961774
1684253140855230200,6.831230224609375,1.2823767285645007,0.2475724928110838,0.9722802673012018
1684253140865255000,6.8412548828125,0.8728063321143388,0.5352098695069551,1.383571496194601
1684253140875281700,6.85128173828125,0.6544347993463278,0.706423345258832,1.8572019846230745
1684253140885308000,6.861307861328125,0.6232447113126516,0.7112795531183481,2.3913784194290635
1684253140895332600,6.87133251953125,0.6089443832814693,0.6913759982526302,2.736146965622902
1684253140905358800,6.88135888671875,0.5099883344888687,0.5826759695589542,2.918607811576128
1684253140915384800,6.891384765625,0.36644144881963725,0.4790396539956331,3.072502488258481
1684253140925410800,6.901410888671875,0.18553778744684532,0.49347149945199487,3.1655481439635156
1684253140935435800,6.911435791015625,-0.010500954014528541,0.7192793197005987,3.189442229770124
1684253140945461800,6.921461669921875,-0.1086719625098165,1.4643097512513399,3.267617940862477
1684253140955487700,6.93148779296875,0.1847650312423706,2.8085563682734964,3.405023255036771
1684253140965512700,6.9415126953125,1.8019699267446994,4.744359595924616,3.5370047905966637
1684253140975538700,6.95153857421875,1.5593734687805174,6.1381362597912545,3.3090789552807807
1684253140985564700,6.961564697265625,-0.3098118356356397,6.5543170142918825,2.897432337078452
1684253140995589600,6.971589599609375,-1.0457634366631507,6.813872205841541,2.5073914014846084
1684253141005615600,6.98161572265625,-1.6612930435538291,6.559133474662899,2.233402318651974
1684253141015641600,6.9916416015625,-2.3707108944535253,5.213739441171288,2.0113523896321652
1684253141025666800,7.001666748046875,-2.6547066997766495,3.335814986515045,1.7720403601661323
1684253141035692800,7.01169287109375,-2.088221109779179,1.655377097508311,1.750194146800041
1684253141045718800,7.02171875,-1.5170273420907556,0.331402284142375,1.9425667304366825
1684253141055744800,7.031744873046875,-1.5306899567402898,-0.4779968669444322,2.2484169324323533
1684253141065769700,7.041769775390625,-2.104014306716621,-0.9884171631097793,2.4926374844670294
1684253141075795700,7.051795654296875,-2.9941289165064693,-1.2613234191417693,2.350453411583602
1684253141085821700,7.06182177734375,-3.868030058120191,-1.2314110959589482,2.059236715096235
1684253141095846700,7.0718466796875,-4.452415169684588,-0.7199374913483858,1.9371043733775615
1684253141105872600,7.08187255859375,-4.68206008387804,0.12729367000460623,1.5022075202301144
1684253141115898600,7.091898681640625,-4.888595340640842,1.146484741562605,0.8910425382897257
1684253141125923600,7.101923583984375,-5.300250434410572,2.1338778223216535,0.43577831215709445
1684253141135949600,7.111949462890625,-5.718032778888941,2.9185791700035333,0.3369517349630594
1684253141145975600,7.1219755859375,-6.069957042056322,3.359436685121059,0.5834934234216809
1684253141156001500,7.13200146484375,-6.535435203689336,3.388645243948698,1.082223866315186
1684253141166026500,7.142026611328125,-7.028993796902895,3.048366994911432,1.7886039569541812
1684253141176052500,7.152052490234375,-6.868689837700128,2.4571558367192745,2.470273384706676
1684253141186078700,7.16207861328125,-5.177743998682499,1.9114198970228433,3.122961924907565
1684253141196103700,7.172103759765625,-1.5689596277713775,1.57501644359231,3.792146841879189
1684253141206129700,7.182129638671875,-0.25372926187515255,1.3723136045992375,3.9176454451605673
1684253141216155600,7.19215576171875,-1.778793926079571,1.1214438238084317,2.847334719479084
1684253141226180900,7.202180908203125,-3.441272380025685,0.9873001417785883,1.354102240604162
1684253141236206800,7.212206787109375,-4.795872925540805,1.054914711368084,-0.08889116637408732
1684253141246232800,7.22223291015625,-5.348915388858318,1.032500634986162,-1.353195939414203
1684253141256257800,7.2322578125,-5.129982715076208,0.79221713013947,-2.0801992774955926
1684253141266283800,7.24228369140625,-4.802611878407001,0.4169920708835125,-2.33051098601222
1684253141276309800,7.252309814453125,-4.515120632183551,-0.01843289779126644,-2.4056672031529245
1684253141286334700,7.262334716796875,-4.34027961358428,-0.502639725291729,-2.5058143614262343
1684253141296360700,7.272360595703125,-4.1170846061825745,-0.9616483986496924,-2.8232588473647833
1684253141306386700,7.28238671875,-3.937061216509342,-1.4716788187146186,-3.3128739636495705
1684253141316412700,7.29241259765625,-3.8199101703345772,-1.9416537072449922,-3.5875592120528217
1684253141326437600,7.302437744140625,-3.787494924420118,-2.2436118702381846,-3.7285698572427033
1684253141336463600,7.312463623046875,-3.6428503066420554,-2.532929747366905,-3.7776021836981175
1684253141346489600,7.322489501953125,-3.45134223088026,-2.8447528862923384,-3.636042087931931
1684253141356514800,7.332514892578125,-2.9266368042528628,-3.295265533983707,-3.3650434190869327
1684253141366540500,7.34254052734375,-2.2352492616929114,-3.742790690296888,-3.185639038094878
1684253141376566500,7.35256640625,-1.9822294632613657,-3.6904695514291523,-2.991716302406788
1684253141386591700,7.362591796875,-1.5147954913854598,-3.317464506310224,-3.007952274675667
1684253141396617700,7.37261767578125,-0.5907412025928497,-2.7797435307651757,-3.2248119415760037
1684253141406643700,7.382643798828125,0.3575683334689587,-2.3456378279954193,-3.7206212363258
1684253141416669700,7.392669677734375,1.127453877878189,-2.1491063711136578,-4.062897381182014
1684253141426694700,7.402694580078125,1.9268565356075762,-1.93367556797266,-4.0902293324828145
1684253141436720600,7.412720703125,3.0013854635059833,-1.5170803874522447,-4.282798899996281
1684253141446746600,7.42274658203125,3.4770471655011175,-0.9771709619522094,-4.511927681361138
1684253141456771600,7.432771484375,1.9707377629101275,-0.34584698908030986,-4.2257732366994025
1684253141466797600,7.442797607421875,-0.9206091898400336,0.33197511559426784,-3.1974007875591512
1684253141476823600,7.452823486328125,-3.078259444350004,1.0286726011306047,-2.282176578693092
1684253141486848500,7.4628486328125,-3.509182717691362,1.6832137834608554,-1.7174524454101918
1684253141496874500,7.47287451171875,-3.263059546905756,2.146051075196266,-1.314915308597684
1684253141506900700,7.482900634765625,-3.0684897454857825,2.337432894229889,-1.2407725062832236
1684253141516925700,7.49292578125,-2.9777158341050147,2.2722592880517243,-1.4115414531379937
1684253141526951700,7.50295166015625,-2.914213376009464,1.7772715388178824,-1.6678309208899735
1684253141536977700,7.512977783203125,-2.7873627735972404,0.9221364724725485,-1.888074385009706
1684253141547003600,7.523003662109375,-2.5352736801445483,0.07812719577550888,-1.9840256990283727
1684253141557028900,7.53302880859375,-1.7614789264023303,-0.1779021597355604,-1.4409972647249698
1684253141567054800,7.543054931640625,-0.8330395543932915,-0.2652700620651245,-0.4019757035374641
1684253141577080800,7.553080810546875,0.035814825224876404,-0.4240665393143892,0.6584586480349301
1684253141587105800,7.563105712890625,0.8968705137908458,-0.4692155945956707,1.3907888802275061
1684253141597131800,7.5731318359375,3.1506057186365126,-0.7407815419346093,2.1189462106496095
1684253141607157800,7.58315771484375,6.316947935587168,-1.0317302351355553,3.160017982365191
1684253141617182700,7.5931826171875,6.4891685425549746,-0.9374953696459531,3.751061090514064
1684253141627208700,7.603208740234375,4.62553214097023,-0.46277182528376576,3.670039342340827
1684253141637234700,7.613234619140625,2.415802082067728,0.2792775446295738,3.2120603042915463
1684253141647259600,7.623259765625,0.679583853650093,1.0046943441718816,2.7958722432672976
1684253141657285600,7.63328564453125,-0.05030336930453777,1.7927771509855985,2.836148431815207
1684253141667311600,7.6433115234375,-0.21707915486991405,2.596795193555951,3.1096371639102696
1684253141677336600,7.653336669921875,-0.1497480875300709,3.126401251706481,3.097707656663656
1684253141687362600,7.663362548828125,-0.21424656179249285,3.1398949395298956,2.7283757470995185
1684253141697388500,7.673388427734375,-0.45244916871190066,2.673596109163761,2.4988904073819516
1684253141707414500,7.68341455078125,-0.6006044249594211,1.9431360547572374,2.459398647210002
1684253141717439700,7.693439697265625,-0.7062286994695663,0.9659931498557328,2.4074805361852047
1684253141727465700,7.7034658203125,-0.7265852587997913,0.3133984254181385,2.3052622707262636
1684253141737491700,7.71349169921875,-0.6378793858647346,0.356152694517374,1.9618299415722489
1684253141747516700,7.7235166015625,-0.6122843413591385,0.6412579223871231,1.3409230255573987
1684253141757542700,7.733542724609375,-0.705395755776763,0.5974141044855118,0.7306716513305902
1684253141767568600,7.743568603515625,-0.8512859897017478,0.24810616129636764,0.33900369905680416
1684253141777593600,7.753593505859375,-0.9414847315430641,-0.21529694762825966,0.11466741266548633
1684253141787619600,7.76361962890625,-0.9763923787951468,-0.7209802783995867,-0.021365736372768878
1684253141797645600,7.7736455078125,-1.046644895672798,-1.2003180385589598,-0.15918635334968567
1684253141807670500,7.78367041015625,-1.1118600029051304,-1.5112445209056138,-0.41091801166683434
1684253141817696500,7.793696533203125,-1.304293961340189,-1.5669477034270762,-0.8155752093732357
1684253141827722800,7.80372265625,-1.5181190828502178,-1.4123147755980492,-1.110594513013959
1684253141837748700,7.813748779296875,-1.7587702519655226,-1.0726584578514098,-1.3051768816545606
1684253141847773700,7.823773681640625,-1.8740999279320238,-0.64322191593647,-1.6611302542075514
1684253141857799700,7.833799560546875,-1.9410756150960922,-0.3229530202269554,-2.0876985472097993
1684253141867825700,7.84382568359375,-1.8761539378523826,-0.16268179425001145,-2.458491469237208
1684253141877850400,7.853850341796875,-1.7109049234628677,-0.18631284520626068,-2.72607916059494
1684253141887876400,7.86387646484375,-1.4570762928664684,-0.3361369114488363,-2.759310399067402
1684253141897902300,7.87390234375,-1.0983026021957396,-0.5422860915035009,-2.4520754647150635
1684253141907927300,7.88392724609375,-0.6597510259330273,-0.694020959803462,-1.6979034030705689
1684253141917953300,7.893953369140625,-0.11972879684143699,-0.6738187142521143,-0.8601789057314395
1684253141927979300,7.903979248046875,0.4221580753445625,-0.4996949040114879,-0.012440963900089263
1684253141938005200,7.914005126953125,0.9087813163369893,-0.3686614629566669,0.7315013801530003
1684253141948030200,7.9240302734375,1.2739829942286014,-0.3273573926657438,1.1891571775972842
1684253141958056200,7.93405615234375,1.482968859013915,-0.33544542205333705,1.286245971213281
1684253141968082200,7.944082275390625,1.582200217616558,-0.3564946398228407,1.1888529339537024
1684253141978107100,7.954107177734375,1.6241536917269228,-0.3532879527360201,1.1399266982212661
1684253141988133000,7.964133056640625,1.7002561036765576,-0.261048644977808,1.1687889278292656
1684253141998159400,7.974159423828125,1.846949616808444,-0.024168811094760892,1.249820905135572
1684253142008184300,7.984184326171875,2.1029472620069978,0.3779869251847267,1.4561995100319385
1684253142018210300,7.994210205078125,2.5038293250888586,0.8546452370017766,1.7301874238207935
1684253142028236300,8.004236328125,3.1666806551247833,1.3031670031368732,2.1328020097836853
1684253142038261500,8.014261474609375,5.766951415836811,1.76082659997344,2.790421284385025
1684253142048287500,8.02428759765625,9.468834926205872,2.0150708256334067,3.4988378492876886
1684253142058313500,8.0343134765625,8.415421267050505,1.6112562162309885,3.394229473821819
1684253142068339500,8.04433935546875,5.332178189069032,1.1683809315502642,2.7132360456347464
1684253142078364400,8.054364501953126,3.1478660645395515,0.9094932639986276,1.9718579991117118
1684253142088390400,8.064390380859376,2.1088971103221175,0.7811217356294393,1.3658379788443444
1684253142098416400,8.07441650390625,1.792520545876026,0.7325918057382106,1.042405650667846
1684253142108441300,8.08444140625,1.586513989162445,0.6799813285350799,0.8553162681311368
1684253142118467300,8.09446728515625,1.3296610423088073,0.629928134599328,0.5343190581470728
1684253142128493300,8.104493408203124,1.1235013408601284,0.4878700261831283,0.20908669481128453
1684253142138518300,8.114518310546876,0.9113106156188994,0.24342706356942653,-0.053721653315424917
1684253142148544300,8.124544189453125,0.6599814736880362,-0.00443067592382431,-0.33382045120000836
1684253142158570200,8.1345703125,0.3908616773921996,0.10832359659671782,-0.46885757493823765
1684253142168595200,8.14459521484375,0.01298581136651337,0.7357546536833047,-0.6141527655795216
1684253142178621200,8.15462109375,-0.4561643533101305,1.6518050842404364,-1.1902578323155641
1684253142188647200,8.164647216796874,-0.37537761946916576,2.673047827631235,-1.728092205107212
1684253142198672400,8.17467236328125,13.596308824455738,6.39452743435204,0.10141980855762958
1684253142208698400,8.184698486328125,26.807010896372795,10.781885025453567,1.111306752936542
1684253142218724400,8.194724365234375,16.42836647982597,10.259002138078213,-2.6169471702247855
1684253142228750300,8.204750244140625,6.685051764661074,8.360625262501836,-3.042928603249788
1684253142238775300,8.214775390625,1.9887518507674335,6.731354081630706,-0.21809651521891354
1684253142248801300,8.22480126953125,-3.922627325226366,4.848811319524049,1.309689390642941
1684253142258827300,8.2348271484375,-8.441430153053998,3.5165725356817243,3.814485514937341
1684253142268852200,8.244852294921875,-11.308671350008249,3.6563726360380646,7.140966563656926
1684253142278878200,8.254878173828125,-15.90391239761114,4.569645418575406,9.528190786015987
1684253142288904200,8.264904296875,-18.804129981493947,5.947882568004727,9.686502694618701
1684253142298929200,8.27492919921875,-19.07397334282398,7.356092830893397,8.714252237933874
1684253142308955100,8.284955078125,-13.199923488271235,10.002778136777877,9.336139104896784
1684253142318981400,8.2949814453125,-4.172102144527435,13.88220783305168,12.421023520344495
1684253142329006000,8.305006103515625,-6.27565146408081,14.428761518871783,12.088141811299323
1684253142339032300,8.3150322265625,-6.218428524646162,13.17184539477825,7.93030375444591
1684253142349058300,8.325058349609375,-2.3103043565467,11.616848825907706,3.2037565863266586
1684253142359084300,8.335084228515624,2.2625293366760015,8.832042751055955,-0.953068494091928
1684253142369109500,8.345109619140626,1.6457938611268996,4.424975666356087,-4.1799803305566305
1684253142379135500,8.355135498046875,-1.582744699756801,1.2175398069947958,-3.8228973694518205
1684253142389161500,8.365161376953125,-4.647121456965804,-0.927454452624917,-4.3226758600935336
1684253142399186400,8.3751865234375,-6.939992155891656,-2.475512162142992,-5.3028574020385735
1684253142409212400,8.38521240234375,-7.374898653650283,-3.2723347402513023,-5.347631778788566
1684253142419238400,8.39523828125,-6.6602545925348995,-3.70763169863224,-5.4321799475222825
1684253142429263400,8.405263427734376,-6.1930094212293625,-4.527774946573376,-5.426861967369914
1684253142439289300,8.415289306640625,-6.3448068333715195,-5.645351573559641,-6.143695647484064
1684253142449315300,8.4253154296875,-6.446041348490119,-6.8152394025415175,-7.437524913433194
1684253142459340300,8.43534033203125,-6.699580640751123,-7.550203782629966,-8.773124113619327
1684253142469366300,8.4453662109375,-6.734010733619332,-8.195112628740072,-9.856543619459867
1684253142479392300,8.455392333984374,-6.659919076970219,-9.024128334444761,-10.360416685938835
1684253142489418200,8.465418212890626,-6.5207128508538,-9.740714177277683,-10.07328901233077
1684253142499443200,8.475443115234375,-6.439209456643462,-10.208768326878547,-8.68413942374289
1684253142509469200,8.48546923828125,-6.519492953670024,-10.302048668122291,-6.346959042969345
1684253142519495200,8.4954951171875,-6.647991323289275,-9.810945066845417,-3.7837981157287954
1684253142529520400,8.505520263671874,-7.155646830916404,-8.82815275788009,-1.6154332096546888
1684253142539546400,8.51554638671875,-7.5714423854917285,-7.870191523310542,-0.5890411206766962
1684253142549572400,8.525572265625,-7.780138911941647,-7.18909492700994,-0.30800811068192124
1684253142559597300,8.535597412109375,-7.944630970484018,-6.705636287528276,-0.3393738475434482
1684253142569623300,8.545623291015625,-7.851378686290979,-6.32041298134923,-0.507336504805833
1684253142579649300,8.555649169921875,-7.246133742049336,-6.0317836710065595,-0.5492734661728144
1684253142589674200,8.56567431640625,-6.276812909075617,-5.667116246122122,-0.29164690459817644
1684253142599700200,8.5757001953125,-5.472739336925745,-4.999951729062199,0.21246099354997275
1684253142609726200,8.585726318359375,-3.6544331924080846,-2.955055674007535,0.6895455679550766
1684253142619751200,8.595751220703125,37.537175086939335,17.39599570645094,0.9680905605264007
1684253142629777200,8.605777099609375,20.386051966691017,42.39978696827888,1.9837129798173903
1684253142639803400,8.615803466796875,-16.101410653698444,54.028929458570474,-10.328539200162886
1684253142649829400,8.625829345703124,-22.194326546537877,44.873058073496814,-21.774268073821066
1684253142659854300,8.635854248046876,-0.6618013825915754,22.703346912777423,-14.451354458951949
1684253142669880300,8.64588037109375,27.567003919255733,-1.0352981567502022,-1.4448571550235152
1684253142679906300,8.65590625,18.569495880711077,-9.891230317437648,5.837072415289282
1684253142689931500,8.665931640625,4.355620975100994,-8.346399168750644,3.646879416027665
1684253142699957200,8.675957275390624,-3.6391537902116773,-6.933213455536961,0.6814087309896946
1684253142709983200,8.685983154296874,-5.622665694499015,-6.2816106647461645,0.5823655884355307
1684253142720008400,8.696008544921876,-3.7388299699723717,-6.5480339884996415,0.50752399020195
1684253142730034400,8.706034423828125,-1.470466666445881,-6.203394621643423,1.019928738182783
1684253142740060400,8.716060302734375,-1.331171300741285,-4.560237538760901,3.321437501594424
1684253142750085400,8.72608544921875,-1.8530064326293765,-3.377228946921229,4.889414255808293
1684253142760111400,8.736111328125,-2.0936393354356286,-2.2801924191385505,5.459874010133743
1684253142770137300,8.746137451171874,-3.1448563613295555,-2.0637346110373733,5.668753491935133
1684253142780163300,8.756163330078126,-3.4300060128629206,-2.2293471980422734,5.190223541027307
1684253142790188300,8.766188232421875,-2.9890146422326564,-1.9157330840468405,4.071029834233224
1684253142800214300,8.77621435546875,-2.279492746436596,-1.1619997060805558,2.8416894070684906
1684253142810240300,8.786240234375,-0.6887186886768788,0.3542413079380989,1.8827146115422249
1684253142820265200,8.79626513671875,1.7258605005323886,2.333639347165823,1.3445333250090479
1684253142830291200,8.806291259765626,2.6561609902381895,3.8510657715767618,0.6981321945145725
1684253142840317200,8.816317138671875,2.136324630951881,4.722149517682195,-0.23321605067849158
1684253142850342400,8.82634228515625,1.8489327534496782,5.254409305211901,-0.8050143601313233
1684253142860368100,8.8363681640625,1.9461106866538525,4.833400399902462,-0.6138584588080644
1684253142870394000,8.84639404296875,2.33030640335083,2.9853339078933,-0.2501683545231819
1684253142880418800,8.856418701171876,2.5755332098186017,1.4205050963163375,-0.27446926756501194
1684253142890444800,8.86644482421875,2.35805716458559,0.4639548975884914,-0.7274605803295969
1684253142900470800,8.876470703125,1.6934674664497376,-0.1617377913981676,-1.1218412986934185
1684253142910496800,8.886496826171875,0.6864402954161166,-0.22050211505591868,-1.1764230759695171
1684253142920521700,8.896521728515625,-0.18574644349515437,-0.25962241156697274,-1.0351523185387252
1684253142930547700,8.906547607421874,-0.764561061450839,-0.6344342138469219,-0.7994397748693823
1684253142940573700,8.91657373046875,-1.0754583177030086,-1.0482552534788847,-0.542998331426084
1684253142950598700,8.9265986328125,-1.2152747846722602,-1.4168641094654797,-0.3231342220127582
1684253142960624600,8.936624755859375,-1.1931652441948652,-1.6339327429413795,-0.26329700842648746
1684253142970651000,8.94665087890625,-1.197804009911418,-1.7852572768747805,-0.33664018479585645
1684253142980675600,8.956675537109374,-1.1357564267992972,-1.8504864126324652,-0.5311643935084343
1684253142990701800,8.966701904296874,-1.1063538067042826,-1.7937936345517633,-0.7900462158411741
1684253143000727800,8.976727783203126,-1.083244149273634,-1.6612626484155655,-1.0587132268682122
1684253143010753000,8.9867529296875,-1.081325163909793,-1.51354578358531,-1.366966982874274
1684253143020779000,8.996779052734375,-1.0199614714086056,-1.3991291308104992,-1.696582968121767
1684253143030805000,9.006804931640625,-0.8048796278357505,-1.335100018492341,-2.07038062492311
1684253143040830000,9.016829833984374,-0.0798603031784296,-1.3184218554139135,-2.5376006617873905
1684253143050856000,9.02685595703125,1.1584202401585877,-1.2377888142973184,-2.9437548200532793
1684253143060882000,9.0368818359375,2.76921687605381,-1.103753268817067,-2.988687309974432
1684253143070908000,9.046907958984375,3.367260510614514,-0.6424082614660263,-2.5565882708519694
1684253143080932900,9.056932861328125,2.7546540976941585,0.15834697991609573,-2.154018985335529
1684253143090958800,9.066958740234375,2.017583977498114,0.6274181976050138,-1.9500515332341193
1684253143100984800,9.07698486328125,1.5194104378350077,0.7064800438821315,-1.768868744392693
1684253143111009800,9.087009765625,1.212678922960162,0.5959603985458612,-1.4485001877009869
1684253143121035800,9.097035888671876,0.9873369666576385,0.4436082751303911,-1.2034750412851571
1684253143131061800,9.107061767578125,0.7571487393677234,0.3380903836041689,-1.0440350054353476
1684253143141086700,9.117086669921875,0.49945627295002337,0.27925357923209665,-0.9521969719544052
1684253143151112700,9.12711279296875,0.2550304076015949,0.181323366355896,-0.8510527654677629
1684253143161138700,9.137138671875,0.0699783761113882,0.07548924848735332,-0.7121919917881488
1684253143171164000,9.147163818359376,-0.08685403452329338,0.0018061726391315459,-0.5801750926539302
1684253143181190000,9.15718994140625,-0.22618659043312073,-0.06362929934561252,-0.5242588519036769
1684253143191215900,9.1672158203125,-0.38867425035052,-0.11585457662343979,-0.4729401680767536
1684253143201241900,9.177241943359375,-0.5491331443866715,-0.13804127399027347,-0.4275798081323504
1684253143211266800,9.187266845703125,-0.7009907988160848,-0.20893208877146244,-0.4311082745194435
1684253143221292800,9.197292724609374,-0.8249410036116838,-0.34332360808253287,-0.36178105579316616
1684253143231318800,9.20731884765625,-0.9457225152432918,-0.47108197298943993,-0.1899269440501928
1684253143241343700,9.21734375,-1.058677863293886,-0.5157669178903103,0.020495383279025555
1684253143251369700,9.22736962890625,-1.2112684716403483,-0.5200245753347873,0.15494827738851308
1684253143261395700,9.237395751953125,-1.2549223199278114,-0.48340953964293,0.2924967994257808
1684253143271420700,9.247420654296874,-1.283995269677043,-0.4434656517893076,0.46205607822984457
1684253143281446700,9.25744677734375,-1.4361457330405711,-0.4595686453282833,0.5993956336915492
1684253143291473000,9.267472900390626,-1.5047124887883663,-0.5306120203226804,0.7192109306395054
1684253143301497600,9.27749755859375,-1.3459487447649239,-0.630720746281743,0.8625649240851402
1684253143311523800,9.28752392578125,-1.06482528000772,-0.7085358073681592,0.9370455800518392
1684253143321549800,9.2975498046875,-0.7160024899870157,-0.7477683320820331,0.9775877260595559
1684253143331575800,9.307575927734375,-0.35998825409226115,-0.7565928590506314,0.953557154391706
1684253143341600800,9.317600830078124,-0.05442424862682819,-0.7800695962280034,0.9310425402447581
1684253143351626800,9.327626708984376,0.1844119800209999,-0.8188017702043056,0.921701003664732
1684253143361652700,9.33765283203125,0.37865043059475717,-0.9475485616266727,1.003729590792954
1684253143371678000,9.347677978515625,0.5831495784200728,-1.175356615781784,1.0212237464293836
1684253143381704000,9.357703857421875,0.8902778375275433,-1.4822738624870777,0.8826189933374523
1684253143391730000,9.36772998046875,1.3220062897719442,-1.8042033848851917,0.6037383390709757
1684253143401755000,9.3777548828125,1.9540916024051604,-2.1651047352343795,0.3813417885705828
1684253143411780900,9.38778076171875,2.7487685467869043,-2.594754627639055,0.297190510199964
1684253143421806800,9.397806884765625,3.564223929172754,-3.089488694372773,0.3656321782633662
1684253143431831800,9.407831787109375,4.470575095753372,-3.4167923110246656,0.5849862923279404
1684253143441857800,9.41785791015625,6.709061585801839,-3.571481352955103,1.1062047536224127
1684253143451883800,9.4278837890625,12.563376812314987,-3.8546640883296726,2.6602956058248877
1684253143461908700,9.43790869140625,10.091644168710708,-3.2616970263808964,3.1192119247242807
1684253143471934700,9.447934814453125,5.287468109726905,-2.436249826812744,2.4471982140675186
1684253143481960700,9.457960693359375,4.300087596188486,-2.1601643562227486,2.4484911764875052
1684253143491986700,9.467986572265625,3.879374166694283,-1.956844262114167,2.3759330130159855
1684253143502011600,9.47801171875,3.2565456349670887,-1.4822276852577925,2.0654563202634453
1684253143512037600,9.48803759765625,2.634518482750654,-0.46923897547125815,1.664210392305255
1684253143522063600,9.498063720703126,1.8528513881981372,1.2024305006682872,1.0015072385683654
1684253143532088800,9.5080888671875,0.8978244535148143,3.3653467859476804,0.6664286040008067
1684253143542114800,9.51811474609375,0.015710779350996018,6.598717881554364,0.657653176870942
1684253143552140800,9.528140869140625,-0.9708692314594983,11.071129837346076,-0.2243596672669053
1684253143562165800,9.538165771484374,-1.9382430220186708,15.906993997013569,-2.4185230314642188
1684253143572191700,9.548191650390624,-2.8373803116977214,18.734948308718202,-4.956459793338179
1684253143582217700,9.5582177734375,-3.760907361745834,18.62242316877842,-6.317795492327213
1684253143592242700,9.56824267578125,-4.1500446264982225,15.857480316781997,-6.219939513731003
1684253143602268700,9.5782685546875,-3.0395038894981146,10.971443136191368,-5.106802330496907
1684253143612295000,9.588294921875,-1.9924141726672648,5.938316282758116,-4.314869862517714
1684253143622321000,9.59832080078125,-1.3433844472348688,1.6906377959817647,-3.2751044972255823
1684253143632345900,9.608345947265626,1.2456897966802118,-1.8841940364450216,-2.496426647616923
1684253143642371800,9.618371826171876,14.210101232290267,-5.818279452013969,-6.567813624724745
1684253143652397800,9.628397705078125,6.508544858676195,-6.385348102596402,-3.6249613064691424
1684253143662422800,9.6384228515625,1.2210497878771274,-6.536228984415531,-1.9419956525504587
1684253143672448800,9.64844873046875,1.3934920017063617,-6.878889744675159,-3.2359152271315454
1684253143682474800,9.658474853515624,-0.3044691229008138,-6.2766211858958005,-4.40122712650001
1684253143692500000,9.6685,-2.658411399513483,-4.8698862562567,-4.638759871333837
1684253143702526000,9.67852587890625,-4.360705146497488,-3.411970589956641,-4.6466085390076035
1684253143712552000,9.688552001953125,-4.680621867768466,-1.9221593177020548,-4.6233232327491045
1684253143722577000,9.698576904296875,-3.3410251223787664,-0.2002583684504032,-4.671535767254233
1684253143732603000,9.708602783203125,-1.6022987105324864,1.819117460900545,-4.528692353679239
1684253143742628900,9.71862890625,-1.8366382122829554,3.404316860333085,-3.231164233212173
1684253143752654800,9.72865478515625,-2.854262472915649,4.02695892957747,-0.8974176262795924
1684253143762679800,9.7386796875,-3.5673511212825773,4.128410886839032,1.5252271612897514
1684253143772705800,9.748705810546875,-4.051627506887913,3.9750276668101545,4.12768666421771
1684253143782731800,9.758731689453125,-3.256696149353683,3.2960096303492783,5.9727171495318405
1684253143792756700,9.7687568359375,-1.6187372196361423,2.3950158991485835,6.74936261653006
1684253143802782700,9.77878271484375,-0.747902772116661,1.6759090134054422,6.5960255737304685
1684253143812808700,9.78880859375,-1.302163963574171,0.996702176374197,5.3252784926831715
1684253143822833700,9.798833740234375,-2.5996435687243937,0.40894846515953537,3.41679377232939
1684253143832859600,9.808859619140625,-3.5565696150273083,-0.08509411217868328,1.2097899235203862
1684253143842885600,9.8188857421875,-3.2036621860414742,-0.8293067976057529,-1.3967352214112878
1684253143852910800,9.828910888671874,-1.8320938468515873,-1.4583651636332273,-3.5260602027341723
1684253143862936800,9.838936767578126,-0.3837432967543602,-1.5899328576952219,-4.126528141832352
1684253143872962800,9.848962890625,0.28648499179035425,-1.5181494779884814,-3.669289985278249
1684253143882987800,9.85898779296875,-0.239684954431653,-1.8253063786685466,-3.025642245145142
1684253143893013800,9.869013671875,-1.079422545158863,-2.2018454431325196,-2.495578798615932
1684253143903039700,9.879039794921875,-1.4249422019809483,-2.463066522067785,-2.049274708530307
1684253143913065700,9.889065673828124,-1.9660522354424,-2.3266496344089505,-1.0753992809921502
1684253143923090700,9.899090576171876,-2.5303756789699197,-1.8680343442827463,0.07287672790139914
1684253143933116700,9.90911669921875,-2.8264807320207357,-1.5809651228636503,1.0798895781487226
1684253143943142700,9.919142578125,-2.95025265763998,-1.5013047261714934,1.658424794641137
1684253143953167600,9.929167724609375,-2.6292957796663043,-1.5747785431832073,1.7461600689783692
1684253143963193600,9.939193603515625,-2.1101602621257305,-1.5424164887607097,1.5885662455171345
1684253143973219600,9.949219482421874,-1.7103712549775838,-1.326595809519291,1.4095590471491217
1684253143983244500,9.95924462890625,-1.3529516092643141,-1.0503981107264757,1.0640654015511273
1684253143993270500,9.9692705078125,-1.0099515340477228,-0.8216425465881824,0.5657581525057553
1684253144003296500,9.979296630859375,-0.648727527615428,-0.7252993106424808,0.0861257933139801
1684253144013321700,9.98932177734375,-0.6281067643910646,-0.8900602492541074,-0.2560422149926424
1684253144023347700,9.99934765625,-1.0560381624400614,-1.427441617581248,-0.48785336730927226
1684253144033373700,10.009373779296874,-1.3943898273289204,-2.186562533804774,-0.5563564101710915
1684253144043399700,10.019399658203126,-1.5660738432019947,-2.9329858810186384,-0.2529956869035959
1684253144053424600,10.029424560546875,-1.9909230573266743,-3.5058564958781,0.25918080527931453
1684253144063450600,10.03945068359375,-2.642293208405375,-3.8087685985952615,0.6679717417895793
1684253144073476900,10.049476806640625,-3.1405101488187905,-3.774802031585574,0.8206073583215474
1684253144083501600,10.05950146484375,-3.4479777228832242,-3.462790676611662,0.7381754510894417
1684253144093527800,10.06952783203125,-3.5841540797844527,-3.106243429818749,0.49016865851432084
1684253144103553800,10.0795537109375,-3.5958047700896856,-2.854450104442239,0.12723375651091337
1684253144113578800,10.089578857421875,-3.4729759705394505,-2.6363316696524617,-0.30528701515495776
1684253144123604700,10.099604736328125,-3.2305121990442274,-2.41706581839323,-0.7229495326459408
1684253144133630700,10.109630615234375,-2.891648785240948,-2.1446493917047977,-1.0521966845810413
1684253144143655700,10.11965576171875,-2.294141449514031,-1.781726180139184,-1.2186559515431523
1684253144153681700,10.129681640625,-1.4270271915614605,-1.1816069083482026,-1.2538409544318914
1684253144163707600,10.139707763671876,-0.5584773478478193,-0.4537041372090578,-1.2105705525040626
1684253144173732900,10.14973291015625,0.6431400828719138,0.692299542838335,-1.213316928602755
1684253144183758800,10.1597587890625,2.0911913577616215,2.05555305814743,-1.2713631671190262
1684253144193784800,10.169784912109375,3.659934712433815,3.6012031220018863,-1.341534143193066
1684253144203810800,10.179810791015624,5.301882419526577,5.099021759623289,-1.5215639626070856
1684253144213835800,10.189835693359376,6.992330245894193,6.850491333186626,-1.7959660101547836
1684253144223861800,10.19986181640625,9.164932643407584,8.822313968724012,-2.7523449439689514
1684253144233887700,10.2098876953125,8.517273037284612,9.572855272650719,-4.743177984924614
1684253144243912700,10.21991259765625,6.976820542073249,9.185817026004194,-6.576609510120749
1684253144253938700,10.229938720703124,4.701372687113285,5.919302370208501,-6.557438945704698
1684253144263964700,10.239964599609374,1.7889361115179956,0.3927390886366367,-3.606684183761477
1684253144273989600,10.24998974609375,1.5303963806211947,-3.276161020541191,-1.3113736904680728
1684253144284015600,10.260015625,1.1629681857865304,-5.164323376095295,-0.9486226205989717
1684253144294041600,10.27004150390625,-0.6320483416236937,-5.030048176640272,-0.7269432784572243
1684253144304066600,10.280066650390625,-2.656742004996538,-4.419020557343959,0.06152414375990629
1684253144314092500,10.290092529296874,-3.83553327140212,-3.834779238164425,0.3542129586264491
1684253144324118500,10.300118408203126,-4.417911134797334,-3.0978613859206434,-0.38147301373481746
1684253144334144500,10.31014453125,-4.741387886637449,-2.114436039748788,-1.5650100133627651
1684253144344169700,10.320169677734375,-4.295737876546383,-1.2296364875018595,-2.028254424594343
1684253144354195700,10.33019580078125,-3.2399861298322676,-0.4607908805996179,-1.2577099048197269
1684253144364221700,10.3402216796875,-2.129901904428005,0.631727877497673,-0.37389351839125157
1684253144374246700,10.35024658203125,-1.4772995812058447,1.7435381960421799,0.6789183754786848
1684253144384272600,10.360272705078126,-1.094776693091914,2.380099485045671,1.4544716633260248
1684253144394299000,10.370298828125,-0.7456628842353821,2.3327368453681467,1.4528048991575837
1684253144404323600,10.380323486328125,-0.653046559858322,1.961853614708781,1.3339938108161091
1684253144414349800,10.390349853515625,-0.5766752678394317,1.5049036274462937,1.337621353663504
1684253144424375800,10.400375732421875,-0.5813210478186607,0.983320716753602,1.3671116520419715
1684253144434400800,10.41040087890625,-0.774578013074398,0.4367454036235809,1.4707099736824631
1684253144444426800,10.4204267578125,-0.9082534930706023,-0.22652619765102863,1.7732576270014047
1684253144454452700,10.43045263671875,-0.8337655305802821,-0.6442512589842081,2.29171013071388
1684253144464477700,10.440477783203125,-0.5413093554258346,-0.5356196193516254,3.0299510482549668
1684253144474503700,10.450503662109375,-0.51552492582798,-0.22544132502377032,3.510284249192476
1684253144484529700,10.46052978515625,-0.2576946766410954,-0.2372889992058277,3.5197336300611495
1684253144494555600,10.4705556640625,-0.2300268809820525,-0.4880687636256218,3.896125979530811
1684253144504580900,10.480580810546876,-0.4856102645576,-0.6134481244415044,4.124193561404943
1684253144514606600,10.490606689453125,-1.3782774814397096,-0.4689572359204292,4.185622720357776
1684253144524632600,10.500632568359375,-3.0272505571246144,-0.064161798787117,4.234520314517617
1684253144534657800,10.51065771484375,-3.092379155117273,0.7002531321913004,3.8843402646690603
1684253144544683800,10.520683837890624,-2.5458453430414196,1.7341782470226286,3.5560464679360386
1684253144554709800,10.530709716796874,-1.7448668142974375,2.5946938373625277,3.6913457497417923
1684253144564734700,10.540734619140625,-0.4262496555071324,3.0166683728337285,3.562392622092366
1684253144574760700,10.5507607421875,0.7276888361275196,2.9332302111685276,3.3218799846649167
1684253144584786700,10.56078662109375,1.4566202196620404,2.5472896966308354,3.1312025145083666
1684253144594811600,10.570811767578125,2.045292360895872,1.8381541698038577,2.864969744890928
1684253144604837600,10.580837646484374,2.8636154076725244,1.0900357091099022,2.586675950601697
1684253144614863600,10.590863525390626,4.101514696606993,0.6534183157801627,2.494021924562752
1684253144624888600,10.600888671875,5.102906492102146,0.4693015193134546,2.4691774061635137
1684253144634914600,10.61091455078125,5.60574261674881,0.4052373356819153,2.262398403772712
1684253144644940500,10.6209404296875,5.878189438575506,0.34364567964375015,1.8849103680208323
1684253144654966500,10.630966552734375,5.974456686675548,0.11813596555888652,1.379800453223288
1684253144664991700,10.64099169921875,6.001095687276124,-0.23184125519394874,0.7967626646146178
1684253144675017500,10.651017578125,6.02585252739191,-0.566105943030119,0.2184285236522555
1684253144685043500,10.66104345703125,5.947644083073735,-0.8267997832208871,-0.2220981520757079
1684253144695068700,10.671068603515625,5.770843162578344,-1.047960069924593,-0.48548254652470346
1684253144705094700,10.6810947265625,5.624934223952889,-1.285414488825202,-0.5187263522177934
1684253144715121000,10.691120849609375,5.4144297712981695,-1.5672656833350658,-0.22178601738661527
1684253144725145600,10.7011455078125,4.8328895277708765,-1.2134621822923422,0.2789122184485197
1684253144735171800,10.711171875,4.000943613833189,0.410139136248827,0.8869692975014447
1684253144745197800,10.72119775390625,3.2649840852275487,2.3655384602516887,1.1696543124869465
1684253144755222800,10.731222900390625,2.6641823841303585,4.690551433369517,0.9661658760741353
1684253144765248800,10.741248779296875,1.4476523386999964,7.446783740165829,0.1646785210251808
1684253144775274800,10.751274658203124,-0.014767507151514292,9.991026908707617,-1.364910050344467
1684253144785299700,10.7612998046875,-1.3818401423573494,11.901074932855368,-3.249783885747194
1684253144795325700,10.77132568359375,-3.4345027397602794,13.014342464470863,-5.047609552294015
1684253144805351700,10.7813515625,-6.439196012639999,12.406399951708316,-6.318468277022242
1684253144815377700,10.791377685546875,-10.460932239133118,9.999619380486012,-6.405553270757198
1684253144825402600,10.801402587890625,-13.815241498237848,6.347849854329228,-6.566855593347549
1684253144835428600,10.8114287109375,-13.22169809770584,2.9332261195152998,-4.94853250747025
1684253144845454600,10.82145458984375,-8.129494201403856,-0.4314864601820707,-2.475916651290655
1684253144855479800,10.831479736328125,-4.470442117023468,-3.0742186445266007,-1.28216367033571
1684253144865505800,10.841505859375,-3.5167619207739826,-4.379515645429492,-0.8611375216305256
1684253144875531800,10.85153173828125,-2.5902444567382332,-5.416582565417886,-0.3552776652485132
1684253144885557000,10.861556884765625,-1.7839958786368368,-6.1823255301296705,0.0027481296643614766
1684253144895583000,10.8715830078125,-1.461480080783367,-6.223038064268231,-0.2673556361675262
1684253144905609000,10.88160888671875,-0.19741525397896764,-5.958641862428188,-1.6909347331017255
1684253144915634000,10.891634033203125,2.816556134855747,-4.796302549129725,-4.424717892202735
1684253144925660000,10.901659912109375,4.502333631324768,-2.979209287533164,-6.355291402506828
1684253144935686000,10.911685791015625,8.365582592648268,-1.0424836843401193,-5.842459369024634
1684253144945710800,10.9217109375,18.446807074153423,2.788029128551483,-3.2282068447113037
1684253144955736800,10.93173681640625,12.508204960191248,4.715000814971328,-1.733694847419858
1684253144965762800,10.9417626953125,3.7330554782241583,5.219104767596721,-2.022138279801607
1684253144975788800,10.951788818359375,-1.343807641083002,5.743444283521175,-1.6640326976507902
1684253144985813800,10.961813720703125,0.2683564837731421,7.749182632663846,1.5066870037317275
1684253144995839700,10.97183984375,-0.07119841942563652,9.246381092560291,4.754257305082678
1684253145005866000,10.981865966796875,-1.325610597874224,6.820560305303335,6.331965471976995
1684253145015891000,10.991890869140626,0.7892049427114427,4.1600919732600445,6.638686319327354
1684253145025917000,11.0019169921875,1.704274107146263,2.053794816303253,6.438072561568021
1684253145035943000,11.01194287109375,-0.12081146837845444,0.4506435805946588,5.988257248491048
1684253145045968000,11.0219677734375,-2.7051065151929854,-0.5264198293298482,5.310378445193171
1684253145055994000,11.031994140625,-4.857901803952455,-0.7337135032445192,4.8052626851767295
1684253145066020000,11.04202001953125,-5.925644432711601,-0.5928022267758846,4.5156279971838
1684253145076045000,11.052045166015626,-5.236842668861151,-0.3281406519979238,4.418483381727338
1684253145086071000,11.062071044921876,-3.125997347080707,0.26397826868891716,4.44200658839494
1684253145096097000,11.072096923828125,-2.2476412718847394,1.1211673449546098,4.679012971267104
1684253145106122000,11.0821220703125,-2.7170047505185004,2.0543279002666472,4.973897834873199
1684253145116148000,11.09214794921875,-3.105734018991887,3.3074832105219363,5.620921481180191
1684253145126174000,11.102174072265624,-3.1600185668870804,4.196970043802261,5.995326456224918
1684253145136200000,11.112199951171876,-3.0105797005698083,4.398383427506685,5.886255840653181
1684253145146225000,11.122224853515625,-2.707045374301076,4.512749811398983,5.381172229340672
1684253145156251000,11.1322509765625,-2.0914871258378027,4.381057614174485,4.219514468565583
1684253145166276900,11.14227685546875,-1.7779241575077176,3.9749885038435457,2.389190846256912
1684253145176302000,11.152302001953124,-1.5075371908202766,3.1383266672998666,0.09140066497698426
1684253145186327800,11.162327880859374,-1.3612559117510914,2.1159230634361506,-1.5384294649511574
1684253145196353800,11.172353759765626,-1.822330869989097,1.306195995569229,-1.9448903510786593
1684253145206379000,11.18237890625,-2.005489342817664,0.6252315012156963,-1.8533650368086994
1684253145216405000,11.192405029296875,-2.0564234112411737,0.1918237175822258,-1.803275310254842
1684253145226431000,11.202430908203125,-2.0032488704144953,-0.1559083545923233,-2.0260497541569173
1684253145236456000,11.2124560546875,-1.8910574924737213,-0.5744096609950066,-2.463995327350497
1684253145246482000,11.22248193359375,-2.0399428165614606,-0.8918915563344955,-2.7626322369664904
1684253145256508000,11.2325078125,-2.590329212412238,-1.1362947714596987,-2.4801287160277363
1684253145266532900,11.242532958984375,-3.3016783236354588,-1.4718249491870403,-1.9019059264853595
1684253145276558800,11.252558837890625,-3.833648188307881,-1.8799825562298296,-1.2186392926692962
1684253145286584800,11.262584716796875,-3.65804086151123,-2.227920964631438,-0.5504546387813986
1684253145296610800,11.27261083984375,-3.459559731866419,-2.2174966012507675,-0.09966872710660099
1684253145306635800,11.2826357421875,-3.7798277507930993,-1.9361936882734299,-0.10962313488796353
1684253145316661800,11.292661865234376,-4.1832746959269045,-1.5465420442581175,-0.3268319074869156
1684253145326688000,11.30268798828125,-4.132296203839779,-1.1107780528873203,-0.3878808349505067
1684253145336713000,11.312712890625,-4.1223119854420425,-0.7392407422333955,-0.28070392417088147
1684253145346738700,11.32273876953125,-4.216135932043194,-0.7400766085356474,-0.22009499555975198
1684253145356765000,11.332764892578124,-4.1768923014134165,-1.1419243017792702,-0.17581760854646564
1684253145366790000,11.342789794921876,-4.230929012027382,-1.8182833481639622,-0.20470628776997327
1684253145376816000,11.352816162109375,-4.670314701026678,-2.610642517122626,-0.2548670337334275
1684253145386842000,11.362842041015625,-5.235939582541585,-3.3813188465833663,-0.3911417364425957
1684253145396867000,11.3728671875,-5.5534355064064265,-4.147171701410413,-0.5190463779523968
1684253145406893000,11.38289306640625,-5.967295709004998,-4.78500958622098,-0.6071645141273737
1684253145416919000,11.3929189453125,-6.373085417872667,-5.285398902237415,-0.5666669379137456
1684253145426944000,11.402944091796876,-6.340631593513488,-5.779943583878874,-0.47010742886886
1684253145436970000,11.412969970703125,-6.014239246487617,-6.209826115995646,-0.42813992623314256
1684253145446996000,11.422995849609375,-5.659484728330374,-6.477361200383305,-0.5902919975206256
1684253145457022000,11.43302197265625,-5.263875052693486,-6.593897914052009,-0.816021345705539
1684253145467047000,11.443046875,-4.6503491868406535,-6.865853737491369,-0.8795102136671542
1684253145477073000,11.453072998046874,-4.13605146472007,-7.036049560633301,-0.9707510119073093
1684253145487099000,11.463098876953126,-3.5301623773559925,-7.096775539752841,-0.9907716172814368
1684253145497123800,11.473123779296875,-2.6037416516929865,-6.80786799699068,-1.1723834451898931
1684253145507149800,11.48314990234375,-1.2695675158739088,-5.8862540870875115,-1.5727642807513476
1684253145517175800,11.49317578125,0.9956113123975694,-3.6921792779564857,-1.5052017336100338
1684253145527201000,11.503200927734374,5.199646033889055,0.05905424651503562,-0.7861004008248448
1684253145537227000,11.51322705078125,9.601191724818944,5.7523471364229914,0.28009616753607985
1684253145547253000,11.5232529296875,11.963446925616264,11.438111384391783,0.5350660771220922
1684253145557278000,11.53327783203125,10.247364307254552,17.45343550350666,-1.2738280959278345
1684253145567304000,11.543303955078125,4.147731088858842,22.647312306344507,-5.807267059612274
1684253145577330000,11.553329833984375,0.883456905466318,27.3997324591279,-11.411404579252004
1684253145587355000,11.56335498046875,0.5709048312118277,31.248442022967335,-15.609125149160622
1684253145597380900,11.573380859375,5.335741434508562,30.608353144359587,-12.639460519564151
1684253145607406800,11.58340673828125,6.658702686917781,20.92388926209211,-4.061112835852802
1684253145617432800,11.593432861328125,7.1012874642193315,9.719544547998904,0.587659603190422
1684253145627457800,11.603457763671875,5.030394213598966,1.1146920114606618,1.931780548006296
1684253145637483800,11.61348388671875,2.7596938454270363,-3.8529017548322675,2.4983324812382457
1684253145647510000,11.623510009765624,-0.008398556641489268,-5.715276173657179,1.814639730964601
1684253145657534700,11.63353466796875,-1.6636813999950886,-7.1580199897885315,2.1024986414566635
1684253145667560700,11.643560791015625,-1.5406874730110167,-8.62196032320559,2.864558533741534
1684253145677587000,11.6535869140625,-1.5126467889189719,-9.04861746353507,2.966510257218778
1684253145687612000,11.66361181640625,-1.513033596279472,-8.8250407633394,2.680968391497433
1684253145697638100,11.67363818359375,-1.6735037058293818,-8.326960893309115,2.298161206549406
1684253145707664100,11.6836640625,-2.006891903091967,-7.634205423396826,1.6572820543467996
1684253145717689000,11.693689208984376,-2.794877387011051,-6.219601660078764,0.40031390780508513
1684253145727715000,11.703715087890625,-4.930369658792019,-4.021485466602444,-1.3761609276771545
1684253145737741000,11.713740966796875,-6.490263352054357,-1.7549223443657158,-2.5903561004191635
1684253145747766000,11.72376611328125,-7.71633191794157,0.6053706164479256,-3.0291721728369594
1684253145757792000,11.7337919921875,-8.084111921888589,1.7243682161480187,-2.7138100461304187
1684253145767818000,11.74381787109375,-7.281847444987297,2.126837840682268,-1.2417892821103333
1684253145777844000,11.753843994140626,-8.385099778544902,2.0122896704822777,0.09428571889400482
1684253145787869000,11.763868896484375,-8.415008594596385,1.0166004705429077,0.5564192462742328
1684253145797895000,11.77389501953125,-6.604914982628822,-0.5205570747762918,0.11203121894299983
1684253145807921000,11.7839208984375,-5.332697244507074,-2.055949363988638,-0.8224842581093311
1684253145817945900,11.79394580078125,-4.823085342115164,-3.251065742251277,-1.5092799428343773
1684253145827971800,11.803971923828126,-4.400822929613292,-4.053946305224299,-2.0387895548731088
1684253145837997800,11.813997802734375,-3.836362123441696,-4.621972402662038,-2.6333395020991563
1684253145848023000,11.82402294921875,-3.141837890291214,-4.576555051833391,-3.4014915737792846
1684253145858049000,11.834049072265625,-2.465636957077682,-3.8798791936069725,-4.239069356124102
1684253145868075000,11.844074951171875,-1.6648828847393393,-2.712294965392351,-5.050312381511926
1684253145878100700,11.854100830078124,-0.44067119876518845,-1.2521236291199922,-5.753399860346317
1684253145888126700,11.864126708984376,0.9125554280482232,-0.1425192961871624,-5.691022022366523
1684253145898152700,11.874152587890626,1.7838731290400027,0.3429594509452581,-4.469725200925767
1684253145908177700,11.884177734375,1.8077869424603878,0.6471528256446123,-2.8530794006109237
1684253145918203600,11.89420361328125,1.1792661904409527,1.1363216594666241,-1.3963307322636247
1684253145928229600,11.904229736328125,0.40031653815358875,1.9921189891129731,-0.4468231455236673
1684253145938256000,11.914255859375,0.5821881860420107,2.290091297340393,0.23942601123452184
1684253145948280600,11.924280517578126,1.0340098705053329,2.3261592205435035,0.9205275759711861
1684253145958306800,11.934306884765626,1.1143393986307084,2.2043857752650973,1.378090142174065
1684253145968332800,11.944332763671875,1.2020118368647992,1.810568243741989,1.8658137456238268
1684253145978357800,11.954357666015625,1.3231892159461975,1.4255039275169372,2.1108836079642175
1684253145988383700,11.9643837890625,1.5898070393584667,1.0028542692631484,2.034102566100657
1684253145998409700,11.97440966796875,2.0070997006237508,0.9787994399368762,2.078405525946617
1684253146008434700,11.9844345703125,2.5370342600762843,1.209245441380143,2.0896414979711175
1684253146018460700,11.994460693359375,3.0137621299982067,1.2303636327326297,2.2666662903502584
1684253146028486700,12.004486572265625,3.5311540187418458,1.3731968171745539,2.9245480152800676
1684253146038511900,12.014511962890625,3.624221594017744,1.4231377829074858,3.928179406395554
1684253146048537900,12.024537841796874,3.1811341278910636,1.6027034919410943,4.668665764775872
1684253146058563600,12.0345634765625,2.041587515028566,1.648448759549856,4.659724625690281
1684253146068588800,12.0445888671875,0.7198362229309976,1.2331646616280079,3.9255096026644107
1684253146078614800,12.05461474609375,-0.2594333187356591,0.7510913390249013,2.78630011280179
1684253146088640800,12.064640869140625,-1.457205764465034,0.10056114590167999,1.4088567440986632
1684253146098666800,12.074666748046875,-5.188750545865297,-1.8506559239804743,0.8133750689804553
1684253146108691700,12.084691650390624,-5.308669887709617,0.37797114309370516,0.022616613216698167
1684253146118717700,12.0947177734375,-4.074844716346264,2.760798591798544,-0.5936147122025489
1684253146128743700,12.10474365234375,-4.254202920109034,1.835451340585947,-1.319650520426035
1684253146138768600,12.1147685546875,-6.3696004983663554,-0.9378338078200816,-1.6018348924130201
1684253146148794600,12.124794677734375,-8.209865961235762,-3.659650634795427,-0.9651105218023062
1684253146158820600,12.134820556640625,-5.924070899784565,-1.4305103575021028,-1.7541653885185717
1684253146168845600,12.144845458984374,-6.221717629319429,-1.5353899511247873,-2.345299389821291
1684253146178871600,12.15487158203125,-4.05416900806427,-1.7990829731315374,-2.7690684074938297
1684253146188897500,12.1648974609375,-0.31106852116584777,-1.250016427707672,-3.6428722262129187
1684253146198922800,12.1749228515625,3.543190493494272,-1.2483148844867944,-3.887349091096222
1684253146208948700,12.18494873046875,4.936026661640406,-2.210522670584917,-3.0389407026574013
1684253146218974500,12.194974365234375,4.094987340664863,-2.5957535755485295,-2.8278336079344153
1684253146228999700,12.204999755859374,2.9006273337274786,-2.10833363122046,-3.735284552450478
1684253146239025700,12.215025634765626,1.13897772693336,-1.202589490622282,-4.516194106633961
1684253146249051600,12.2250517578125,-1.7292156561791896,-0.8459756083339453,-4.371466779008507
1684253146259078000,12.235077880859375,-4.586999288958311,-0.540734185886383,-3.561626313894987
1684253146269102600,12.2451025390625,-6.310003231015801,0.13943535869717597,-2.042452169033885
1684253146279128800,12.25512890625,-6.817440711978078,0.909887816274166,-0.7500105580508708
1684253146289154800,12.26515478515625,-6.867042655014991,1.8168126910895108,0.13296937755346297
1684253146299179800,12.2751796875,-6.131228964620829,2.570274850898981,0.5827466967076063
1684253146309205800,12.285205810546875,-4.105453789621591,3.001923223644495,2.034267693534493
1684253146319231700,12.295231689453125,0.04324336779043078,2.4485750553786754,3.7165275372713804
1684253146329256700,12.305256591796875,6.882070128276943,1.631281351649761,4.4012277110219
1684253146339282700,12.31528271484375,9.463306518173217,1.279494451126456,5.027984229847789
1684253146349308700,12.32530859375,6.427914155647159,1.1772311774820088,4.704673482224345
1684253146359333600,12.335333740234375,2.6226480122148987,1.576894512423873,3.5064661522090432
1684253146369359600,12.345359619140625,-0.3666588909626007,1.574527783292532,1.993631731763482
1684253146379385600,12.355385498046875,-2.0954192045897244,0.43535365700423717,-0.7242103463619947
1684253146389410800,12.365410888671875,-1.6308067198753355,-0.39629648885726926,-3.0792186447709797
1684253146399436800,12.375436767578124,0.44244398059137163,-0.6297925255209207,-3.069332041528821
1684253146409462800,12.385462890625,2.256360877174139,-0.2756476636946201,-1.9298492876827715
1684253146419488800,12.39548876953125,2.837996397769451,0.2350841826379299,-0.6157073015451431
1684253146429513700,12.405513671875,3.2684482542067763,0.7069482459157704,1.1052186651945113
1684253146439539700,12.415539794921875,2.9857506720006466,1.264171794310212,3.023393297174573
1684253146449565700,12.425565673828125,1.8285709334224463,1.904452396097779,4.847469841787219
1684253146459590700,12.435590576171874,-1.0266174221664666,2.363775542232394,5.685683583948016
1684253146469616600,12.44561669921875,-3.0589129388451575,1.302943715775013,3.927909357282519
1684253146479642600,12.455642578125,-2.259221527302265,0.17198913629949092,0.5030933142781258
1684253146489667600,12.46566748046875,-1.892923286345601,0.24733693048954009,-1.5493769754230975
1684253146499693600,12.475693603515625,-1.1177379550278186,-0.21422785709202288,-2.5867399557486177
1684253146509719600,12.485719482421874,-0.31853403474092484,-0.3342430605262518,-2.385374210578203
1684253146519744500,12.49574462890625,-0.5863899851134047,-0.4012614177882671,-1.5490969894379376
1684253146529770500,12.5057705078125,-0.9467308155030012,-0.09112053286135197,-0.2848611899808049
1684253146539796500,12.51579638671875,-1.238955519989133,-0.5267980149924755,0.3070040482059121
1684253146549821700,12.52582177734375,-0.69769877153337,-1.2284656901568174,-0.7323217566251754
1684253146559847700,12.53584765625,0.4568571213472634,-1.2782827372491359,-1.7735621629059313
1684253146569873700,12.545873779296874,1.1446856562513856,-1.2181763513326644,-2.387970656812191
1684253146579898600,12.555898681640626,0.8320352727215736,-1.5713094057679176,-2.777925959949195
1684253146589924600,12.565924560546875,-0.030247838747501372,-2.0254186166465282,-3.2266999472796916
1684253146599950800,12.575950927734375,-0.37495961325280364,-1.9292916538000107,-3.633071255427599
1684253146609976800,12.585976806640625,0.774382198241353,-1.2498854948043823,-3.634939095126092
1684253146620001800,12.596001708984375,4.487243614220619,-0.8161667455255984,-3.1384646144658324
1684253146630027800,12.60602783203125,7.799653759750723,-0.2288315519839525,-3.1394001417502757
1684253146640053800,12.6160537109375,6.065234105187654,1.6334101803719996,-2.818008964012563
1684253146650078700,12.62607861328125,5.015955353879928,2.9298399842083453,-1.6443465849280356
1684253146660104700,12.636104736328125,3.7759815967589616,2.559611418065429,-0.31002865672409535
1684253146670130700,12.646130615234375,-0.47044952030479903,0.7989175045609473,2.779067823460698
1684253146680155600,12.65615576171875,-4.1845290799021715,-0.4591021968603134,6.9012687497437
1684253146690181600,12.666181640625,-6.626691930150986,0.10569207904934882,7.106939790892601
1684253146700207600,12.67620751953125,-7.6903154331535095,0.4662801256656646,5.310950692123174
1684253146710232800,12.68623291015625,-6.751283939981461,0.7066472171425819,3.8340108841404317
1684253146720258800,12.6962587890625,-4.94713433111012,0.9503969367951154,1.785017622900009
