time,seconds_elapsed,z,y,x
1684253071727785700,0.01978564453125,-1.60714994995594,0.7330389649838208,-0.18229122500736264
1684253071737811700,0.029811767578125,-1.4039339007437228,0.9049673110067844,-1.2440594189994036
1684253071747837700,0.039837646484375,-2.4603297905802726,1.2106377725213766,-2.0145511856734752
1684253071757863000,0.04986279296875,-3.3262276584804056,1.3725035742133855,-2.2843511462531985
1684253071767889000,0.059888916015625,-1.6924287710517645,1.7058640066862105,-1.450153069474548
1684253071777915000,0.069914794921875,0.6895248174279928,2.0064362682789563,-1.4464906014442442
1684253071787940900,0.07994091796875,2.3891911385178566,1.026879872494936,-0.8191312944196164
1684253071797965800,0.0899658203125,2.4287930810660123,0.8027911311239003,0.30199747209027406
1684253071807992600,0.09999267578125,1.6445067439258099,0.22641513849198816,0.7717017269857227
1684253071818018600,0.1100185546875,-0.45685938636958595,-0.42633974494338034,0.7734307427354157
1684253071828044500,0.12004443359375,-2.8248095839381215,-1.5219237358301878,-0.02610372468009591
1684253071838070500,0.130070556640625,-4.258432520502805,-3.0874615724593397,-2.4984844569295643
1684253071848095700,0.140095703125,-6.616619448947906,-5.925299564796686,-8.88873202200532
1684253071858121700,0.150121826171875,-1.0067126982569694,-1.546599327403307,-3.5404271662607787
1684253071868147700,0.160147705078125,2.203257648018002,4.824029344967007,3.3203920841947197
1684253071878173700,0.170173583984375,0.6669470749169588,7.582738855531812,2.9319968699812886
1684253071888198700,0.18019873046875,-0.07186345920562744,7.150429388529062,0.9023502603761852
1684253071898224600,0.190224609375,0.23319442336857318,6.914241628563404,0.07250190323963761
1684253071908250600,0.200250732421875,0.9985796606838703,7.327963883996009,0.11651888575106858
1684253071918276900,0.21027685546875,2.2305372846096754,7.624880545690655,0.7743608631923794
1684253071928301600,0.220301513671875,3.619683950588107,8.29506236474514,1.6300456723749637
1684253071938327800,0.230327880859375,4.388815973216295,8.838651355540751,1.5223790783822535
1684253071948353800,0.240353759765625,5.048543033751845,9.086164227119088,-0.23596359582096338
1684253071958379800,0.2503798828125,9.07754194472432,7.713443795284628,-5.546754421207308
1684253071968404700,0.26040478515625,9.008160949984193,7.309330495196581,-8.222992569312453
1684253071978430700,0.2704306640625,6.867718946841359,10.852635554981232,-4.044165500444174
1684253071988456700,0.280456787109375,6.259760651987791,10.928808109557629,-0.20700199749171733
1684253071998482700,0.290482666015625,4.40984414819777,9.35613735230863,0.4908855746120214
1684253072008507600,0.300507568359375,2.608017137055099,8.873701041612028,0.17375673049390314
1684253072018533600,0.31053369140625,1.3372493054807186,9.11228943297863,0.03868950387835502
1684253072028559600,0.3205595703125,2.1977223718531427,9.156469935488701,-0.8108902664273977
1684253072038585600,0.330585693359375,3.10652166223824,9.16521672104597,-1.821128216201067
1684253072048610600,0.340610595703125,2.788136680579185,8.95197086072862,-1.6115502307415008
1684253072058636500,0.350636474609375,2.4076709441907704,9.081621907514334,-1.1836258469551801
1684253072068662500,0.36066259765625,1.012739118939638,9.50128875056505,-0.9758160402119159
1684253072078688500,0.3706884765625,-0.22572781381495297,9.588956512624025,-0.28341069891154763
1684253072088713700,0.380713623046875,-1.4973288082778453,8.728089624628424,2.43599614431262
1684253072098739700,0.39073974609375,-2.3610645297080275,8.382431436118482,5.278855179682374
1684253072108765700,0.400765625,-3.293475727957487,8.355213174325227,8.116815921616555
1684253072118791700,0.410791748046875,-3.63903688583374,7.511550519108772,10.16387003148794
1684253072128816600,0.420816650390625,-2.454629533112049,7.031272263228892,11.272588813757896
1684253072138842600,0.430842529296875,-0.7654816834270953,6.285763692772388,13.250077804493904
1684253072148868900,0.440868896484375,-2.2557331006646155,3.228955032730102,16.503935807812212
1684253072158894800,0.450894775390625,-0.9583797522425651,2.1439935581445693,17.157301516622304
1684253072168920800,0.4609208984375,-1.0238111325740813,1.4403005146324634,18.801319600248334
1684253072178945800,0.47094580078125,-1.6131296088874338,-0.4832300914227962,21.995965536141394
1684253072188971800,0.4809716796875,-1.1213456241309643,-2.2208745532512664,22.318937261068818
1684253072198997800,0.490997802734375,-0.2215688675045967,-4.149952272039652,21.807763516187666
1684253072209023700,0.501023681640625,0.6204699859023094,-6.377557010328769,21.21731457453966
1684253072219048700,0.511048583984375,0.9596376433491707,-7.973321642917394,19.84032128769159
1684253072229074700,0.52107470703125,3.165551358833909,-9.36745661870241,18.620449822878836
1684253072239100700,0.5311005859375,4.538394540265203,-10.009516505122184,16.336844380426406
1684253072249126700,0.541126708984375,5.244536730495095,-9.47137701190412,13.258455172216891
1684253072259151600,0.551151611328125,5.995197861409187,-8.46612035767436,10.57090769459009
1684253072269177600,0.561177490234375,6.14849574124217,-7.5984952275902025,8.157142086786031
1684253072279203600,0.57120361328125,6.504351498639584,-6.771646929052472,5.430106063857674
1684253072289229600,0.5812294921875,5.8443239938527345,-6.115649702695012,3.434343165284395
1684253072299254500,0.591254638671875,4.502508987891674,-5.41426259803772,1.9235995796382426
1684253072309280500,0.601280517578125,2.979884410315752,-4.932813544812798,1.0094915153205395
1684253072319306500,0.611306396484375,3.160629100000858,-4.869767013791203,1.042571947145462
1684253072329332500,0.62133251953125,4.974312260892987,-3.8743542927056547,-0.02110416282713413
1684253072339357700,0.631357666015625,8.546544139954447,-1.4479203419864177,-2.5092712238818407
1684253072349383700,0.6413837890625,10.780027414888142,0.5076631064116954,-3.8484459444671866
1684253072359409700,0.65140966796875,9.314929143607616,-0.283665550455451,-1.4758663335323332
1684253072369436000,0.661435791015625,4.519575273504853,-2.8773300447702406,2.177778338846564
1684253072379460600,0.671460693359375,-0.3253540900193155,-2.7483389231979847,2.4038842652589083
1684253072389486800,0.68148681640625,-1.246899026339501,-1.6986024912506341,0.6352192267447709
1684253072399512800,0.691512939453125,-0.150526003966853,-1.6730691138043998,-1.5392922192603349
1684253072409538800,0.701538818359375,0.7298773591477423,-1.9026786644235252,-3.6171541398495433
1684253072419563800,0.711563720703125,-1.302908059939742,-0.7698156209781766,-3.817791863006353
1684253072429589800,0.72158984375,-1.8709820881724357,3.0277395096853374,-7.0976137441426514
1684253072439615700,0.73161572265625,-4.025883993822336,6.264800399720668,-6.9247285357862705
1684253072449641700,0.741641845703125,-5.563307496601343,7.843714435273409,-8.140541665118933
1684253072459666700,0.751666748046875,-6.823064397078752,9.57119055430889,-8.322845859205723
1684253072469692700,0.761692626953125,-6.118498077863454,10.571401031064987,-5.062542333009839
1684253072479718700,0.77171875,-3.647060033291578,9.7009777946949,-2.920642532274127
1684253072489744600,0.78174462890625,0.04320027756737545,7.859049951571226,-0.763867233967781
1684253072499770600,0.7917705078125,3.877722892355919,5.883287638497352,1.131072068375349
1684253072509795600,0.801795654296875,6.695715782016515,3.985198347690701,1.7179250313580035
1684253072519821600,0.811821533203125,8.098405820178986,2.1764649181604385,1.9532061978727577
1684253072529847600,0.82184765625,9.423631510388851,0.5604243902623653,0.7521148368537426
1684253072539873500,0.83187353515625,8.366158931231498,-1.3758289192438125,-0.83434771438241
1684253072549898800,0.841898681640625,5.900460891616344,-1.94137781291306,-0.27609540746212
1684253072559924500,0.851924560546875,3.2765047194123267,-1.7124556600362062,-0.7815519437402486
1684253072569950500,0.861950439453125,0.5265794038057326,-1.0066916554689407,-1.0327163235634564
1684253072579976700,0.871976806640625,-1.3010939962550998,-0.7159896305054426,-1.9570891767859457
1684253072590001700,0.882001708984375,-3.1652833555474875,0.05582768568396568,-2.946115996226668
1684253072600028000,0.89202783203125,-5.017406137210131,1.862980568024516,-2.546156893208623
1684253072610054000,0.902053955078125,-6.159857677733898,2.822608274501562,-1.1072247443199157
1684253072620079900,0.912079833984375,-4.486154649940133,3.026623365136981,2.270285357630253
1684253072630104800,0.922104736328125,-2.4973633439451453,3.55804027210176,5.534633775302767
1684253072640130800,0.932130859375,-2.1541876199007035,1.9438094239741563,4.476321238189936
1684253072650156800,0.94215673828125,-2.081594677376747,0.8784791170537471,3.151643829512596
1684253072660182800,0.952182861328125,-1.8220742648795245,2.7331507064163683,2.468078212749958
1684253072670207700,0.962207763671875,-1.263976271738112,3.474709077942371,1.8918422131106256
1684253072680233700,0.972233642578125,-0.6353349620789289,2.523267016008496,1.1565697899863123
1684253072690259700,0.982259765625,-0.09101444213837384,1.2528788314014672,0.11123626917302608
1684253072700285700,0.99228564453125,0.03153378690481186,0.34638416469693184,0.3647077568948269
1684253072710310700,1.002310546875,0.027075930713117122,-0.5214870491027832,1.408174607053399
1684253072720336600,1.012336669921875,0.02659370015412569,-1.226228140363097,1.9678820812180637
1684253072730362600,1.022362548828125,0.2696598214566707,-1.4365864625453948,2.6151129405349494
1684253072740388600,1.032388671875,0.6936380979657173,-1.4469570499122142,3.1095366261452435
1684253072750414600,1.04241455078125,1.057756949056685,-1.5550240413993597,3.509592175275087
1684253072760439600,1.052439453125,1.2357310049846768,-1.7943442541718482,3.6990497482478615
1684253072770465500,1.062465576171875,1.3532630133010446,-1.8692250153720378,3.878993935205042
1684253072780491500,1.072491455078125,1.4764659068606794,-1.6871259884685277,3.808545895755291
1684253072790517800,1.082517822265625,1.5430091939568518,-1.508049524256587,3.861459155297279
1684253072800542700,1.092542724609375,1.7409037558853626,-1.4102730406373738,4.055439174130559
1684253072810568400,1.102568359375,1.872724109534174,-1.2394769135147332,4.087270482677221
1684253072820594400,1.112594482421875,1.9299276136159895,-1.317764852809906,3.8393694885641336
1684253072830620400,1.122620361328125,2.0670118791423735,-1.0329624072790144,3.844138602662086
1684253072840645600,1.132645751953125,1.9618204430915414,-0.8828723835766314,3.5790263615071773
1684253072850671600,1.142671630859375,1.8252772987045347,-1.6102695432811975,1.844325698045641
1684253072860697600,1.152697509765625,1.303496819613129,-2.5520301691561937,0.11681406930536031
1684253072870723600,1.1627236328125,0.7735739505983888,-1.7823814291775226,0.02396612812951207
1684253072880748500,1.17274853515625,0.4143373185910284,-0.5677677387624979,0.6561257481079549
1684253072890774500,1.1827744140625,0.2664987270772457,-0.04055354418456554,1.090292752610892
1684253072900800500,1.192800537109375,0.025063129585981368,0.5510299544513225,1.638717346869409
1684253072910826500,1.202826416015625,-0.6373568232953548,-0.1870306380867958,1.1739657459452748
1684253072920851500,1.2128515625,-1.2292143165670335,-1.5996774221181869,0.3312095380492508
1684253072930877400,1.22287744140625,-0.9157024939022957,-2.7914059115082024,-0.04707523757088929
1684253072940903400,1.2329033203125,-0.518185523339361,-3.6319840447127816,0.5512572604011744
1684253072950929400,1.242929443359375,-0.3236146990060806,-3.6905893784165382,1.5300718248419463
1684253072960954400,1.252954345703125,-0.44100203815475103,-2.9880057574510572,1.952293759202957
1684253072970980400,1.26298046875,-0.8705658597111702,-2.47577636603713,1.7309845655478535
1684253072981006300,1.27300634765625,-1.0767160626791417,-2.0700211439609526,1.549572205734253
1684253072991032300,1.2830322265625,-0.701240389662981,-1.1024877789258956,0.9395287751697003
1684253073001058300,1.293058349609375,0.10444222511872649,0.36856735493242737,-0.6652246350385248
1684253073011083300,1.303083251953125,0.7930851451456546,2.052303700962663,-2.5135142682790756
1684253073021109200,1.313109130859375,1.0480153072431684,3.2874726881504057,-4.145023291204869
1684253073031135200,1.32313525390625,0.7370591604106128,4.1578316271126265,-5.1984378271430725
1684253073041161500,1.333161376953125,0.05291793571710586,4.369277160009742,-5.848869236066937
1684253073051186400,1.3431865234375,-1.1112313496127724,3.7958991801500317,-5.885151094281673
1684253073061212400,1.35321240234375,-2.346615733116865,1.995813751977682,-5.142662748429179
1684253073071238400,1.36323828125,-3.3315853861212728,0.11087094299197196,-3.9750989784806965
1684253073081264400,1.373264404296875,-3.958290467020869,-0.9965256507635116,-2.981916500665247
1684253073091289600,1.38328955078125,-5.162966700789332,-2.4983073467969894,-1.5018398559615016
1684253073101315600,1.393315673828125,-5.670845495778322,-3.2082571126163004,-0.06922178559042513
1684253073111341600,1.403341552734375,-3.931126858024299,-3.386112510600686,0.5524810300424695
1684253073121367600,1.413367431640625,-2.289416905210167,-3.049605596795678,0.45054070474207397
1684253073131392500,1.423392578125,-1.9279568980649113,-3.7082600596636532,1.0552414591044188
1684253073141418500,1.43341845703125,-1.6315525698065756,-3.184178317892551,0.8717446942321956
1684253073151444500,1.443444580078125,-1.0778139409184455,-0.692799309054017,0.06516103895753622
1684253073161470500,1.453470458984375,-0.6164800394833088,2.9341666152358052,-0.3664404259063303
1684253073171495400,1.463495361328125,-0.5431289720684289,5.988446633583307,-0.5321317772358656
1684253073181521400,1.473521484375,-0.4025473294129595,8.118191886144876,0.4507724676713347
1684253073191547400,1.48354736328125,-0.6846843916594981,9.820325474131106,1.7934695171639323
1684253073201573400,1.493573486328125,-0.397240455176495,10.683195518642663,3.3096813050881027
1684253073211598300,1.503598388671875,0.32406127372980115,10.787882220041752,4.686175410242378
1684253073221624300,1.513624267578125,1.0959165107768027,10.1802459967494,5.777790205237269
1684253073231650300,1.523650390625,4.985121239677071,8.570275144153833,6.498092438244819
1684253073241676300,1.53367626953125,13.334751645433903,7.149384263390302,7.473630246037245
1684253073251702500,1.54370263671875,26.585671161448953,4.844714405599237,8.989081570982933
1684253073261727200,1.553727294921875,16.76407259864211,3.6350101145356892,6.367184669396281
1684253073271753500,1.56375341796875,3.248778508096933,3.8793864416539665,1.6926403679758308
1684253073281779500,1.573779541015625,0.8015220610361545,3.5078993998825547,-0.36953970709592104
1684253073291805400,1.583805419921875,0.3122854592075571,2.9226427661806342,-1.1493088590726255
1684253073301830700,1.59383056640625,-0.900883841085434,1.9172043256431817,-1.552634515914321
1684253073311856400,1.6038564453125,-2.057420021063089,1.0002771122515202,-1.5834116392329334
1684253073321882400,1.61388232421875,-2.0379168636918066,0.5335270309865474,-1.2625588061556219
1684253073331908400,1.623908447265625,0.08786646296884865,-0.019400866040587425,0.05527151310592889
1684253073341933600,1.63393359375,11.670382847696542,0.4490665405362844,2.651976982551813
1684253073351959600,1.64395947265625,13.65606099010706,0.6765870099216699,4.306122492438554
1684253073361985500,1.653985595703125,4.592740462958813,0.15214578718841076,3.41386531766206
1684253073372011500,1.664011474609375,-1.9526165614165365,-0.7546148369759321,2.977571749459207
1684253073382037500,1.67403759765625,-6.2728977814584965,-1.7727251275599,3.1535429411321876
1684253073392062500,1.6840625,-8.72048791745305,-1.940794460067153,3.8469764564365145
1684253073402088400,1.69408837890625,-8.216970240283011,-1.0419944395184517,3.991121892520785
1684253073412114400,1.704114501953125,-7.856475717169046,0.6714549077302218,3.415045759618282
1684253073422140400,1.714140380859375,-9.05665580856204,3.181236419221759,3.314161957633495
1684253073432165400,1.724165283203125,-9.26821883035898,5.655547388881445,2.705963424283266
1684253073442191400,1.73419140625,-9.816242004209757,7.666624760964512,2.353785624746233
1684253073452217300,1.74421728515625,-11.3663531391263,9.058367873176932,4.4372669926524155
1684253073462243600,1.75424365234375,-11.735879694479703,9.35097368593514,8.642930630519986
1684253073472268300,1.764268310546875,-9.407875138330459,8.2852879897058,11.698538098078965
1684253073482294300,1.774294189453125,-5.724620340585708,6.27609920784831,11.728225964856147
1684253073492320500,1.784320556640625,-4.8212969973936675,4.1805876488000155,8.979498334601521
1684253073502346500,1.794346435546875,-3.9452904079332947,2.9040812735736368,4.790875263383985
1684253073512371500,1.804371337890625,-1.2747732678234576,2.359210426273942,0.22240034989267587
1684253073522397400,1.8143974609375,0.17329495820105076,2.6527070503920314,-2.504270639115572
1684253073532423400,1.82442333984375,-0.04706190316528082,3.3218209479540586,-3.5755621925279497
1684253073542449400,1.834449462890625,-1.3185662323206662,3.611874738141894,-3.582159398835897
1684253073552474600,1.844474609375,-2.4676740158632398,3.349100000023842,-2.5615888556182385
1684253073562500400,1.854500244140625,-3.0843250279992818,2.650589327585697,-1.7853816339068114
1684253073572526300,1.8645263671875,-3.684865447811782,1.7060113062024116,-2.3727289562776686
1684253073582552300,1.87455224609375,-4.164299946343898,0.09237257874906063,-4.045052804672718
1684253073592577500,1.88457763671875,-3.731028356310725,-1.7337047842919826,-5.808015832152963
1684253073602603500,1.894603515625,-2.464588032546639,-3.459395773476362,-6.667043814283609
1684253073612629500,1.90462939453125,-0.9667489366590977,-5.262140191724896,-7.6881965413033955
1684253073622655500,1.914655517578125,-0.2385851764962077,-5.791487306678294,-8.177422073748707
1684253073632681500,1.924681396484375,-0.03714578156769276,-5.470558485755324,-7.881760965073108
1684253073642706400,1.93470654296875,-1.8181424783885478,-5.252775566530227,-6.4467088724881405
1684253073652732400,1.944732421875,-4.491486950878799,-5.173500369763374,-4.872584993821382
1684253073662758400,1.95475830078125,-6.490932045096159,-4.986326523813605,-3.824814016728103
1684253073672784400,1.964784423828125,-7.126460483920574,-4.857292732143402,-3.4798689449235796
1684253073682809300,1.974809326171875,-6.639014820629358,-4.770289571473002,-3.0361335362821817
1684253073692835300,1.98483544921875,-5.832468720886111,-4.729602756297588,-2.5368968974322077
1684253073702861600,1.994861572265625,-5.265877624687552,-4.8420238513410085,-2.5895932993531225
1684253073712887600,2.004887451171875,-5.10854946642518,-5.299630256685615,-2.8567072357192633
1684253073722912500,2.01491259765625,-5.224835420203209,-5.960819206467271,-3.102905809828639
1684253073732938500,2.0249384765625,-4.912330728754401,-6.746475078395009,-3.4765210958003996
1684253073742964500,2.034964599609375,-4.203991905263066,-7.528122299203276,-4.076657610987127
1684253073752990500,2.044990478515625,-3.609897592850029,-8.038564807200432,-4.431139449682831
1684253073763015400,2.055015380859375,-3.1209950087487695,-8.341448268344998,-4.599741866153479
1684253073773041400,2.06504150390625,-2.294056109318137,-8.75467309564948,-4.301205786563456
1684253073783067400,2.0750673828125,-0.8566466399520635,-9.329902256333828,-3.293031491321325
1684253073793093400,2.08509326171875,3.4189562110602854,-10.216395168495177,-1.2844959126755595
1684253073803119400,2.095119384765625,38.98431567672491,-9.384489002045989,8.537271284696459
1684253073813144300,2.105144287109375,37.60253164846897,19.492301630747317,29.418289957833288
1684253073823170300,2.11517041015625,-50.57693957743644,33.35145592046976,12.343132471412419
1684253073833196500,2.125196533203125,-29.05625112788677,37.03590548095703,-14.213051898789406
1684253073843222500,2.135222412109375,26.78529006295204,36.11086218112707,-18.318732482904196
1684253073853247500,2.14524755859375,2.5024691426515577,15.400367832434176,-8.519400696963071
1684253073863273700,2.155273681640625,10.178333441126346,-2.7836224180251357,-3.982245927625894
1684253073873299700,2.1652998046875,35.42541440387964,-18.171396726346014,4.768824759617448
1684253073883325700,2.17532568359375,2.047318167635053,-11.434237173306942,4.195373129999638
1684253073893350700,2.1853505859375,-3.1775276278316973,-6.304204773870111,-4.057970153912902
1684253073903376600,2.195376708984375,4.787361702305078,-6.669038787493109,-8.37063227725327
1684253073913402600,2.205402587890625,-0.8372890285313129,-1.9574965885430573,-9.818321733093262
1684253073923428600,2.2154287109375,-7.330534611266851,0.9342617945522069,-5.719461934909225
1684253073933453600,2.22545361328125,-7.782601502662897,2.2733459142446515,-3.0221535262465475
1684253073943479600,2.2354794921875,-6.326707113057375,3.1668525045603513,-2.390375087605417
1684253073953505500,2.245505615234375,-3.2570658594489097,4.51572093616426,-1.211744491654262
1684253073963531500,2.255531494140625,-0.5635455910228192,5.2223921187043185,0.24802447436228392
1684253073973557500,2.2655576171875,-1.0141291119933127,4.546409504416585,0.6958364847928286
1684253073983582500,2.27558251953125,-0.6731645611923187,4.558846961185336,0.353536082278192
1684253073993608400,2.2856083984375,0.9427461297810077,5.360345129889249,0.35374417207092046
1684253074003634400,2.295634521484375,0.3031225305974483,5.98687426970005,0.20342194704785943
1684253074013660400,2.305660400390625,-1.057230587095022,6.427865055808424,-0.3809304312907159
1684253074023685400,2.315685302734375,-0.8699649712085723,6.542615470582247,-0.8794201972961425
1684253074033711400,2.32571142578125,-0.3406488359153271,6.031723465251922,-1.1345862139761447
1684253074043737300,2.3357373046875,-0.22920975591288878,4.755946573343873,-0.9693836690768599
1684253074053763600,2.345763671875,-0.09628596193366683,3.014468232440948,-0.4678542431145906
1684253074063788300,2.355788330078125,0.3700187227845192,1.4052525821268558,-0.14811214775815607
1684253074073814500,2.365814453125,0.9778326407313346,0.25918518919348715,-0.24278467401266096
1684253074083840500,2.375840576171875,1.6347744544625282,-0.4828343701034784,-0.5414563626810908
1684253074093866500,2.385866455078125,2.2102970451354977,-0.8908505228489637,-0.8959164279364049
1684253074103891700,2.3958916015625,2.4803952580094335,-1.1269050118237733,-1.1794053066506982
1684253074113917700,2.405917724609375,2.369811169134825,-1.2614666270047425,-1.3994210994943976
1684253074123943700,2.415943603515625,2.0290227786183355,-1.4027017286002634,-1.4286425178036093
1684253074133969700,2.4259697265625,1.646183152705431,-1.6460142258793116,-1.2846437967136501
1684253074143995600,2.43599560546875,1.3204127369701861,-1.8835101458340882,-1.0553928502738474
1684253074154020600,2.4460205078125,0.9384159916222095,-1.91703949047029,-0.6220818050131202
1684253074164046600,2.456046630859375,0.5639122323781252,-1.8948416871875524,-0.11582505826801061
1684253074174072600,2.466072509765625,0.33393622306678444,-1.8837270034551619,0.36567572514414787
1684253074184098600,2.4760986328125,0.22041388878319412,-1.8691385061323642,0.7731234303519129
1684253074194123500,2.48612353515625,0.15758651693761347,-1.8046476215213536,1.1215636507958173
1684253074204149500,2.4961494140625,0.11464520083367824,-1.6975760708123444,1.4970640198618173
1684253074214175500,2.506175537109375,0.0885609115064144,-1.5392103861957787,1.8353896735265849
1684253074224201500,2.516201416015625,0.13389701379239557,-1.32732470831573,2.1385803009241817
1684253074234226400,2.526226318359375,0.14698906201235948,-1.0490063641071319,2.5489342489674685
1684253074244252400,2.53625244140625,0.12906769393980502,-0.7587222722947597,2.944814558239281
1684253074254278400,2.5462783203125,0.22041027205400168,-0.5748281786680222,3.2002281199395655
1684253074264304600,2.5563046875,0.35031332083940503,-0.44113925466835496,3.3312691597789525
1684253074274329300,2.566329345703125,0.4119025657247752,-0.37710429713129995,3.3702345579892397
1684253074284355600,2.57635546875,0.43866789611876006,-0.4032786028295755,3.355065630429983
1684253074294381600,2.586381591796875,0.4711065229088068,-0.46102995005249975,3.307833631394803
1684253074304407600,2.596407470703125,0.5082961436182261,-0.5718395182460546,3.234388455955684
1684253074314433500,2.60643359375,0.6488432629495858,-0.5347317306011915,3.299174816381931
1684253074324458500,2.61645849609375,0.8003273713588714,-0.47059272816777226,3.3380107429936525
1684253074334484500,2.626484375,1.0106401008337735,-0.5921031385958194,3.215540839883685
1684253074344510500,2.636510498046875,1.3955343211889266,-1.0158324087798596,3.0461934502646324
1684253074354536400,2.646536376953125,1.7082383346021175,-1.705031647515297,2.8827316115528343
1684253074364561700,2.656561767578125,1.8141783970631657,-2.5841706897825003,2.78067730448395
1684253074374587600,2.666587646484375,1.7569395294070242,-3.531401271501183,2.841416435346007
1684253074384613600,2.676613525390625,1.7620909208208322,-4.392769094756245,2.9450395991668104
1684253074394639600,2.6866396484375,1.7423934099212288,-5.063055543228984,2.9133085361242292
1684253074404664600,2.69666455078125,2.3314780774787067,-5.274388263401389,2.248606025263667
1684253074414690600,2.706690673828125,5.125248087769746,-4.0552153022468085,0.9724594232603907
1684253074424716500,2.716716552734375,7.194162147271633,-2.1867039881020784,0.4459422710359096
1684253074434742500,2.726742431640625,6.996558677244186,-0.6978104152143001,0.9050868457332253
1684253074444768500,2.7367685546875,6.822304518622159,0.4380354434341192,1.5331290204554795
1684253074454793500,2.74679345703125,7.520294966578483,1.5073884299993514,1.6146172170966864
1684253074464819500,2.7568193359375,7.876203330945968,1.830044513106346,1.5778575122371314
1684253074474845400,2.766845458984375,6.173108788973092,0.8519827397942542,1.8821905876681206
1684253074484871700,2.77687158203125,4.105402059434354,1.4441986911147833,1.7705626888290047
1684253074494896400,2.786896484375,3.196996590672433,4.693559967535734,1.3274810679212212
1684253074504922600,2.796922607421875,1.499410582987964,9.256852217692137,-0.1642059350773692
1684253074514948600,2.806948486328125,-0.4594001568935811,13.778733430051803,-2.0024951294377447
1684253074524974600,2.816974609375,-2.2204816084109247,16.299245594394208,-3.96101141641736
1684253074534999600,2.82699951171875,-5.150589449775219,15.771541570472717,-5.7819631070077415
1684253074545025500,2.837025634765625,-11.073635098165273,12.926722633206843,-7.180465045830607
1684253074555051500,2.847051513671875,-12.507039423543214,8.668504047715663,-6.9253142267197365
1684253074565077500,2.857077392578125,-7.029429850232601,4.710639112630486,-2.9982535952210423
1684253074575102500,2.8671025390625,-2.449748775333166,2.401387187746167,0.7314718617975712
1684253074585128400,2.87712841796875,-0.23762699898853898,1.1031880361497401,2.724099969476461
1684253074595154400,2.887154541015625,0.6196808813512324,0.16151742664575575,2.7718939863085743
1684253074605180400,2.897180419921875,0.909906520974636,-0.4956839148044586,1.6721651507019997
1684253074615206400,2.907206298828125,0.9261987534753978,-0.6865139451742172,0.289819981431961
1684253074625231600,2.917231689453125,0.7827000908620655,-0.5690811594486236,-1.5414856376513837
1684253074635257600,2.927257568359375,0.645972675949335,-0.3710474813103676,-3.452736023326218
1684253074645283600,2.93728369140625,0.4242190995275974,-0.2634761643856764,-4.795328735661506
1684253074655309300,2.947309326171875,0.1838368104815483,-0.5007400291502475,-5.169790993851423
1684253074665334500,2.95733447265625,0.15543664542734623,-1.1821195340454578,-4.20265071978718
1684253074675360500,2.967360595703125,0.34059272181391714,-1.9736229629576205,-2.4342513464719056
1684253074685386500,2.977386474609375,0.640119419876486,-2.5031179619491097,-0.7021276938915252
1684253074695412700,2.987412841796875,1.115869384676963,-2.679054959091544,0.5846221351906656
1684253074705437400,2.9974375,10.122176085096598,-1.0501607948392628,2.7080074973315
1684253074715463700,3.007463623046875,21.087239749383926,2.167719301646948,4.8440670476064085
1684253074725489700,3.01748974609375,12.991857076418398,2.4050889648735523,2.4228639832779764
1684253074735515600,3.027515625,5.475291944018006,2.3414076430797577,0.018273615576326847
1684253074745540600,3.03754052734375,-0.29801969103310255,2.1758581844389435,-1.1013862474247813
1684253074755566600,3.047566650390625,-4.404988524860143,1.877266283008456,-1.483593420653045
1684253074765592600,3.057592529296875,-6.957090590208768,2.0361679741978644,-0.6393807303383946
1684253074775618600,3.06761865234375,-9.014988750177622,2.6764468224197624,1.580147084479034
1684253074785644500,3.07764453125,-9.959289708185196,2.750147433924675,2.5893507227689025
1684253074795669500,3.08766943359375,-9.15792539499402,2.3656600408047437,2.9521482621282336
1684253074805695500,3.097695556640625,-5.0113703641772265,1.966588826537132,3.548806579810381
1684253074815721700,3.1077216796875,-1.8420391945436596,2.1443699902415276,4.5783115401118994
1684253074825747700,3.117747802734375,-2.2206223320558665,2.3193927951484916,3.9586011404052375
1684253074835772700,3.127772705078125,-2.4892969418674706,2.4008003277689216,1.8658368342384695
1684253074845798700,3.137798583984375,-2.0667026670627293,2.404870938208699,-0.2938724716931581
1684253074855824600,3.14782470703125,-1.3072899282857775,2.0474831489384173,-1.8050572252355515
1684253074865850600,3.1578505859375,0.022322014184296128,1.2568711159080266,-3.137852035525441
1684253074875875600,3.16787548828125,0.5218707877233624,0.46167876935005187,-3.7887759041413664
1684253074885901600,3.177901611328125,-0.2525090724304318,-0.4346399557769298,-4.090888088652491
1684253074895927600,3.187927490234375,-1.4820757095664738,-1.5615829615235328,-4.767769697606563
1684253074905953500,3.19795361328125,-3.0111469790637493,-2.6813258266329765,-5.1295045761704445
1684253074915979500,3.2079794921875,-3.9339869236305356,-3.9820682329714296,-4.958571670925617
1684253074926004700,3.218004638671875,-4.325113608634472,-5.282383353808522,-4.511934111101925
1684253074936030700,3.22803076171875,-4.6047681698828935,-6.3884980910599225,-4.075471908333897
1684253074946056700,3.238056640625,-4.764019112901389,-7.140339371669292,-3.717922498761117
1684253074956082700,3.248082763671875,-4.852155661515892,-7.770342909592389,-3.557958146776259
1684253074966107600,3.258107666015625,-4.755750758510827,-8.427021688473225,-3.498868536686897
1684253074976133600,3.268133544921875,-4.32106988620162,-9.095604255637525,-3.4698426409497856
1684253074986159600,3.27815966796875,-3.623223522891104,-9.635704819795489,-3.305577376900613
1684253074996185600,3.288185546875,-3.1918130505546927,-9.957664737331866,-2.953268206068873
1684253075006210600,3.29821044921875,-2.975769668473303,-9.976205771672726,-2.3814959078401325
1684253075016236500,3.308236572265625,-2.466722121965885,-9.844688346493244,-1.3913902071215212
1684253075026262800,3.3182626953125,-1.5905585883781312,-9.544626372510194,-0.1005430257230997
1684253075036288800,3.328288818359375,-0.08800181631892919,-8.67293063198626,1.2271907017849386
1684253075046313700,3.338313720703125,3.281135301822424,-7.288927758637071,2.5620541350424286
1684253075056339700,3.348339599609375,10.98576275344491,-3.9573441260814666,5.120380773994326
1684253075066365700,3.35836572265625,9.89372622590661,5.058024563324451,6.1762219525575635
1684253075076391700,3.3683916015625,-10.523624549889563,15.501139406216144,3.8647462141439317
1684253075086417700,3.378417724609375,-17.181881831127406,26.735949401199814,-4.1545717485338445
1684253075096442600,3.388442626953125,-13.021052775764465,30.826379809212682,-13.314914141541719
1684253075106468600,3.398468505859375,-5.188686248457431,26.193015074920652,-12.395420292532444
1684253075116494600,3.40849462890625,11.161915439164638,13.743443505483866,-6.3000739576756954
1684253075126520600,3.4185205078125,16.583776821768282,2.1208383080065247,-1.6838532504081725
1684253075136545500,3.428545654296875,7.187105799019336,-4.902446463599801,5.120764804875851
1684253075146571500,3.438571533203125,6.03476765525341,-2.067017870491743,4.099218110102415
1684253075156597500,3.448597412109375,7.018277172577381,-0.1320715519309044,3.188462278822064
1684253075166623500,3.45862353515625,3.5202947710752484,0.0006634323447942734,2.4816280146747824
1684253075176648700,3.468648681640625,0.03755085523724556,-0.5125783509820699,1.5930907372042535
1684253075186674700,3.4786748046875,-0.9426303213816135,-1.6237632311046122,1.4024132670477032
1684253075196700700,3.48870068359375,-1.4949661707997322,-2.4258739787489176,1.4917065844818949
1684253075206726700,3.4987265625,-2.3245640603065487,-2.346851295438409,2.0153397057026625
1684253075216752600,3.508752685546875,-3.132404876035452,-1.3833832801461219,2.78423879635781
1684253075226777600,3.518777587890625,-3.5715514955818652,-0.6097030926942825,3.723680331635475
1684253075236803600,3.528803466796875,-3.652836278605461,-0.6539554913967848,4.764126957190037
1684253075246829800,3.538829833984375,-2.9072318465590476,-0.7685305496037006,4.957754509323835
1684253075256855800,3.548855712890625,-2.1779285609722137,0.2008943282663822,4.768585105642676
1684253075266880800,3.558880859375,-1.6984733119130133,1.5004069005489349,4.034270421634615
1684253075276906800,3.56890673828125,-1.2933715853095054,2.213897699975967,3.140791596108675
1684253075286932700,3.5789326171875,-1.0973521696031092,2.08944013018012,2.5879490392774342
1684253075296958700,3.588958740234375,-1.070418569970131,1.3535305781960487,2.268254144063592
1684253075306983700,3.598983642578125,-1.3006664184927939,0.20836627158224583,2.2296511494249103
1684253075317009700,3.609009765625,-1.8398866926848887,-0.9642010057419538,2.4511416909962893
1684253075327035600,3.61903564453125,-2.72986569339633,-1.8543185381412506,2.6661706353381276
1684253075337061600,3.6290615234375,-2.2687235151410103,-2.258812946501374,2.740857919792831
1684253075347086600,3.639086669921875,-2.55142168186903,-2.3312317015022037,2.7700322840899227
1684253075357112600,3.649112548828125,-2.9925580139279364,-2.0262568210363385,2.9335020138472316
1684253075367138600,3.659138671875,-3.9178506123438477,-1.2325292863339186,2.662427941678464
1684253075377164500,3.66916455078125,-4.193935206151008,-0.36536709758639335,2.168511036546528
1684253075387190500,3.6791904296875,-3.7815690415024754,0.4561906933277845,1.6962047824591397
1684253075397215500,3.689215576171875,-3.1004724452018735,1.2026035191476345,1.3653320751488207
1684253075407241500,3.699241455078125,-2.5494261241376397,1.8783207604974508,1.0292685211971402
1684253075417267500,3.709267333984375,-1.9523101258158682,2.418690789246559,0.6063149115607142
1684253075427293400,3.71929345703125,-1.3150596855044365,2.641682383030653,0.3404255485534668
1684253075437318700,3.729318603515625,-0.6129892747581005,2.473293901571631,0.19844664285331964
1684253075447344600,3.7393447265625,0.20759877607477828,2.0089660790175197,0.15331921488195657
1684253075457371000,3.749370849609375,1.0866057346612215,1.4549299284875392,0.15841946063041687
1684253075467396900,3.75939697265625,1.9662416205346582,0.9572966331809759,0.22453765418231486
1684253075477422600,3.769422607421875,2.837802336502075,0.5448188248515129,0.281190684774518
1684253075487447800,3.77944775390625,3.554709081852436,0.31410277429521083,0.3135311118870973
1684253075497473800,3.789473876953125,4.01627036230266,0.24639175859391688,0.21152853500545024
1684253075507499800,3.799499755859375,4.237005701592564,0.2672510067492723,-0.0922124197512865
1684253075517525800,3.80952587890625,4.149077242770791,0.25675357813239097,-0.43327363585978745
1684253075527550700,3.81955078125,3.7428140711724756,0.109414314442873,-0.653641603142023
1684253075537576700,3.82957666015625,3.1392221548348664,-0.16598785005807876,-0.630271248948574
1684253075547602700,3.839602783203125,2.5068729305684565,-0.4776730418175459,-0.4585641444608569
1684253075557628700,3.849628662109375,1.9053812013804912,-0.7428764683872461,-0.322090265917778
1684253075567653600,3.859653564453125,1.3937643889069555,-0.8691179989904165,-0.15478957969546317
1684253075577679600,3.8696796875,0.9871610986340791,-0.8657809635221958,0.028664661209285257
1684253075587705600,3.87970556640625,0.6736883658707141,-0.8870973077952862,0.1883382135540247
1684253075597731600,3.889731689453125,0.48652204564027485,-0.9826531927555799,0.3462102694347501
1684253075607756500,3.899756591796875,0.35486141259782017,-1.2046119363605976,0.432875284191966
1684253075617782500,3.909782470703125,0.21815869373492897,-1.2991460770577192,0.4675502917319536
1684253075627808500,3.91980859375,0.19924122729711233,-1.1434382134735583,0.6314306481167674
1684253075637834500,3.92983447265625,0.4095750726252794,-0.8905565083384513,0.8477467096596956
1684253075647860700,3.93986083984375,0.7517518487602471,-0.5779530326902866,1.0531824807479977
1684253075657885400,3.949885498046875,1.081681137740612,-0.18058336164355276,1.2344289824754
1684253075667911400,3.959911376953125,1.2546826659530401,0.05172726462781429,1.311065647432208
1684253075677937700,3.969937744140625,1.3435527895390986,0.07638122889101505,1.343523855705559
1684253075687963600,3.979963623046875,1.5310376011341809,-0.07034370229244231,1.2677832628056407
1684253075697988900,3.98998876953125,4.808957448041439,-0.11766133378446102,1.454161574463546
1684253075708014800,4.000014892578125,27.601009064710137,1.3790572336405515,3.0421812920138236
1684253075718040800,4.010040771484375,19.719147561872003,1.6277981857091188,1.1671052125260233
1684253075728066600,4.020066650390625,8.048439720004797,1.4751175609916447,-0.311896204161644
1684253075738092500,4.030092529296875,0.9563438625007867,1.1988082185178994,-0.5559089586645365
1684253075748117800,4.04011767578125,-4.302076139657199,1.0916928286671639,0.520599744874239
1684253075758143700,4.050143798828125,-8.610176946431398,2.205707379257679,1.8649644353181123
1684253075768169700,4.060169677734375,-11.55089488300681,4.856172203680873,2.0208222287669777
1684253075778195700,4.07019580078125,-14.003680834078787,8.64853561092019,1.227179449738562
1684253075788220700,4.080220703125,-15.558353577822446,12.5057254183352,0.2211307683482766
1684253075798246700,4.09024658203125,-15.32548005697131,16.052079344296455,0.960187093925476
1684253075808272600,4.100272705078125,-14.000068488800524,20.016372266602517,-0.5661176334679127
1684253075818298600,4.110298583984375,-13.71993637316823,21.606547700881958,1.227190555654466
1684253075828323600,4.120323486328125,-13.49296184722781,18.784087894940374,8.47156634812057
1684253075838349600,4.130349609375,-9.360236604321003,12.181543733096122,13.295262515610455
1684253075848375600,4.14037548828125,-4.024128090065718,5.874737836816907,12.798033124929665
1684253075858401500,4.150401611328125,-5.086058233153819,1.4209750519156454,10.478153423047065
1684253075868426500,4.160426513671875,-6.237239023578167,-0.30507308014333245,8.1849150598526
1684253075878452500,4.170452392578125,-3.6268048885092137,-0.861172008422017,4.9365959859609605
1684253075888478700,4.180478759765625,4.570885189503431,-0.7519207755863666,-0.34458208371102805
1684253075898504700,4.190504638671875,15.466407115530966,0.04184241495132446,-5.449350278031826
1684253075908530700,4.20053076171875,13.464528364425897,-0.6367343074828385,-7.949474318861961
1684253075918555600,4.2105556640625,6.114367846190929,-0.8989566724151372,-7.922802585035562
1684253075928581600,4.22058154296875,-0.9756748781755566,-0.13048749760985373,-7.711748097282648
1684253075938607600,4.230607666015625,-5.014641348671913,-0.12069500239193438,-7.3676587655246255
1684253075948633600,4.240633544921875,-7.950324213689565,-0.6461047778964042,-7.27604080453515
1684253075958658800,4.250658935546875,-9.437049794888496,-2.1967039885908366,-7.251755673584341
1684253075968684800,4.260684814453125,-4.361406280504167,-4.4243098959237335,-6.92515932841897
1684253075978710500,4.27071044921875,0.17911971883177757,-5.39193795350492,-6.8961196964174505
1684253075988736500,4.280736572265625,-0.7394348035007715,-4.2460213672190905,-5.979830780929326
1684253075998761700,4.29076171875,-2.36993757199347,-3.0470009672552347,-4.757342996138334
1684253076008787700,4.30078759765625,-3.859900235417485,-2.1176760445833205,-4.181317716640233
1684253076018813700,4.310813720703125,-4.936998137021065,-1.606439755859971,-4.075934265148639
1684253076028839700,4.320839599609375,-5.180321740216017,-1.2641478289127348,-3.369737714383006
1684253076038865700,4.33086572265625,-4.813473464161158,-1.4437363343000411,-2.973597000609338
1684253076048890600,4.340890625,-4.051958346277475,-2.370946456775069,-2.846104008640349
1684253076058916600,4.35091650390625,-2.9354905573159455,-3.578616027140617,-2.2721379997596145
1684253076068942600,4.360942626953125,-2.4117209502339363,-4.81477285632193,-1.9865369511969386
1684253076078968800,4.37096875,-2.690183671349287,-5.71920766788721,-2.121115371382236
1684253076088993500,4.38099365234375,-3.337246480622887,-6.0433016748428345,-2.231921140183508
1684253076099019800,4.391019775390625,-4.43179469872117,-5.977760404396057,-2.1170941530421374
1684253076109045800,4.401045654296875,-5.282792519131302,-5.976901741740107,-1.821939240323007
1684253076119071700,4.41107177734375,-4.87595563929826,-6.312166546529531,-1.7706350234128534
1684253076129096700,4.4210966796875,-3.455606318065524,-6.811931593167781,-2.0000185101911425
1684253076139122700,4.431122802734375,-2.01733993960917,-7.070897002130747,-2.2814843586452302
1684253076149148700,4.441148681640625,-1.1977177929326892,-7.0063061642766,-2.265449608036876
1684253076159174700,4.451174560546875,-0.9799892342433333,-6.679308252573013,-1.5825132290884851
1684253076169200600,4.46120068359375,-0.8674357449918985,-5.9206035159349435,0.6503939995229244
1684253076179225600,4.4712255859375,-1.4129118647083638,-4.276507106375694,4.438336083188653
1684253076189251600,4.48125146484375,-2.912236815239489,-1.9171248306661843,6.930283247303962
1684253076199277600,4.491277587890625,-6.135988141846656,0.1015232689321041,7.7751535247445105
1684253076209303600,4.501303466796875,-5.055534500074386,5.812941598117352,7.204248072478174
1684253076219328800,4.511328857421875,35.15915533077717,31.37088766841888,4.990633281096816
1684253076229354500,4.5213544921875,-5.0819116348683835,47.58727377781868,-1.6121078646242617
1684253076239380500,4.53138037109375,-23.9523088629961,51.3796143887043,-9.814449860095976
1684253076249406500,4.541406494140625,34.26739003117084,28.374525586032867,-14.565201787406206
1684253076259431700,4.551431640625,48.77924484379291,-0.9042997870087623,-7.185840309128165
1684253076269457700,4.561457763671875,7.716773816490173,-4.70069055006802,-3.1147546530544754
1684253076279483600,4.571483642578125,-7.574827351754903,-2.6491847214847803,-0.9103278151266276
1684253076289509600,4.581509521484375,-0.7342939334809779,-5.160370839077234,2.6985557783752676
1684253076299536000,4.591535888671875,0.868473563607037,-5.515073334786296,3.18239932552129
1684253076309560600,4.601560546875,-6.28245939052999,-3.2956472267776724,1.2072438922993838
1684253076319586800,4.6115869140625,-7.149773554968833,-1.4321160391330718,0.6104732002839446
1684253076329612800,4.62161279296875,-8.137472340676188,-1.174545299398899,0.07670300819128752
1684253076339638800,4.631638671875,-8.737509194880724,-3.375382442271709,0.8749966817654669
1684253076349663700,4.641663818359375,-6.631687254220247,-5.146786550360917,1.4689470556631683
1684253076359689700,4.651689697265625,-5.0845221096277236,-5.29499441357851,1.2214826994016765
1684253076369715700,4.6617158203125,-4.184225420780479,-4.7312294807165856,0.5893143846601248
1684253076379741700,4.67174169921875,-3.65725760217905,-3.7906086725264787,-0.3718380471661687
1684253076389766700,4.6817666015625,-3.1512101142704485,-2.4425246692985296,-1.2064637017071247
1684253076399792600,4.691792724609375,-1.967798640718311,-0.6731885996550321,-1.431770878957212
1684253076409818600,4.701818603515625,-0.4981191791273653,1.275658818486333,-1.3573191568240524
1684253076419844600,4.7118447265625,0.055200785957276816,2.6402269235253333,-1.3230898472249508
1684253076429870600,4.72187060546875,0.30276933324560523,3.4065444732546806,-1.2036702715963123
1684253076439895600,4.7318955078125,0.8117372386455536,3.95465240277946,-0.9643304773405194
1684253076449921500,4.741921630859375,1.356122348254919,3.883692614415288,-0.4305357353284955
1684253076459947500,4.751947509765625,1.5819021114528178,2.9325071575909853,-0.053581952583789824
1684253076469973500,4.761973388671875,1.7132348277151583,1.7551771959096192,0.16285159785896539
1684253076479998500,4.77199853515625,1.9841198070526123,0.793153534206748,0.22065058361589907
1684253076490024400,4.7820244140625,2.212743853765726,0.1273784256786108,-0.019737550649046896
1684253076500050400,4.792050537109375,2.234990756887197,-0.24286299994587895,-0.39543957976698874
1684253076510076700,4.80207666015625,1.9034581243634223,-0.38542671979665755,-0.6458966881036758
1684253076520101600,4.8121015625,1.2002011341810226,-0.45673312964141366,-0.7163958732187747
1684253076530128000,4.8221279296875,0.5273766916632652,-0.5186065252304077,-0.633441695678234
1684253076540153900,4.83215380859375,-0.06135368256382644,-0.5565899266660214,-0.4079316893324256
1684253076550179800,4.842179931640625,-0.49789216543845827,-0.6610591859221459,-0.18155337571948765
1684253076560205800,4.852205810546875,-0.7384650816857814,-0.8112439021706581,-0.05524608640372753
1684253076570230800,4.862230712890625,-0.8803612775385379,-0.9088385994821786,0.14532178638726473
1684253076580256800,4.8722568359375,-0.9737865802109241,-0.949200420486927,0.3277536985069513
1684253076590282800,4.88228271484375,-1.0328792590402067,-0.9545704230874776,0.4545043476760387
1684253076600308700,4.892308837890625,-1.0800643501937388,-1.0420260037004947,0.4999696292996406
1684253076610333700,4.902333740234375,-1.0925905812244863,-1.1035124457985162,0.5347893060073257
1684253076620359700,4.912359619140625,-1.0817653088927268,-1.165682778507471,0.6267281695142388
1684253076630385700,4.9223857421875,-1.0926257256031036,-1.2533926261425017,0.7091206215187906
1684253076640411600,4.93241162109375,-1.1599228998064994,-1.260158467015624,0.8592942318513989
1684253076650436600,4.9424365234375,-1.1889023260533809,-1.1430459992855786,1.0941910752236843
1684253076660462600,4.952462646484375,-1.124853924512863,-0.8915618859887122,1.3234814768910408
1684253076670488600,4.962488525390625,-1.044507883644104,-0.4486825096547603,1.6945242820262907
1684253076680514600,4.9725146484375,-0.7916431296437978,0.08405950843393802,2.048709183602035
1684253076690540500,4.98254052734375,-0.40639118189215656,0.4725380170166492,2.3058815716683863
1684253076700565500,4.9925654296875,-0.04501227715909481,0.6708236240893602,2.5295705000668764
1684253076710591500,5.002591552734375,0.393915110146068,0.7574673037976026,2.806798418690264
1684253076720617500,5.012617431640625,0.9642810121756047,0.745388743469119,3.1129639702454206
1684253076730643700,5.022643798828125,1.7849141625255345,0.7737661121696233,3.4154739219024774
1684253076740668400,5.03266845703125,3.2572821325480934,0.7821960868626833,3.535635548070073
1684253076750694700,5.042694580078125,5.15394518994391,0.8492904319703578,3.485285709275305
1684253076760720600,5.052720703125,6.971247125855088,1.1065431917965411,3.4550413776591418
1684253076770746600,5.06274658203125,8.07269854747057,1.4728238970965146,3.5772812714055178
1684253076780771800,5.072771728515625,8.26061765882969,1.8607628919750452,3.885443257474899
1684253076790797800,5.0827978515625,7.564466116738319,2.2336977944672105,4.339446669891476
1684253076800823800,5.09282373046875,6.277261237365007,2.5206758304715153,4.6971240897580975
1684253076810849800,5.102849853515625,4.585431601250171,2.5612217758715152,4.897258539567887
1684253076820875500,5.11287548828125,3.0721377465993163,2.143443523046374,4.768970305567979
1684253076830900700,5.122900634765625,2.1605092241376638,1.3374001121282577,4.3524014285326
1684253076840926700,5.1329267578125,1.7440607586115597,0.6138672266364097,3.7995062647312876
1684253076850952700,5.14295263671875,1.618905269679427,-0.1296218206912279,3.5101664680317044
1684253076860978700,5.152978759765625,1.5403841061502694,-0.9156891960293054,3.464179500621557
1684253076871003600,5.163003662109375,1.0973387986648828,-1.3519886094510554,3.5350150780841707
1684253076881029600,5.173029541015625,0.3542331976968795,-1.2976584688484667,3.6754420781671997
1684253076891055600,5.1830556640625,-0.5439098933130503,-0.5681921016544104,3.755099259988963
1684253076901081900,5.193081787109375,-1.722790007045865,1.1409873131901025,3.2898695201590655
1684253076911107800,5.20310791015625,-2.4992992804437875,3.4738983460813757,2.4481492311820388
1684253076921132800,5.2131328125,-2.8394413358807564,6.196375682792067,1.0639458668246864
1684253076931158800,5.22315869140625,-3.035823155158758,8.342020515275001,-0.0416597518607974
1684253076941184800,5.233184814453125,-3.174970929086208,9.400714745181798,-0.9882923676863312
1684253076951210800,5.243210693359375,-2.6235014141738415,9.299207258340715,-2.051905349294841
1684253076961235700,5.253235595703125,-2.4519395633757113,8.18463507386744,-3.468060725969076
1684253076971261700,5.26326171875,-1.7040227627336977,6.255678935632109,-4.7434474495157595
1684253076981287700,5.27328759765625,0.19761391835622488,3.310221695575118,-5.575856012529134
1684253076991313700,5.283313720703125,6.835282073616981,-0.3878115691065788,-6.54417614402771
1684253077001338600,5.293338623046875,7.5010934225022785,-2.8040263236284253,-6.270068110990524
1684253077011364600,5.303364501953125,1.9781109220266342,-3.166989282682538,-4.370864136940241
1684253077021390600,5.313390625,-2.2118987812437116,-2.827279773443937,-2.8330905055493116
1684253077031416600,5.32341650390625,-3.730484166431427,-2.4957085624754427,-2.676678293088078
1684253077041442600,5.333442626953125,-4.034677541130781,-1.6204320408552884,-3.361540963923931
1684253077051467800,5.3434677734375,-4.297368692618608,-0.4986725752264261,-4.295027682450414
1684253077061493800,5.35349365234375,-4.49802102882266,0.524475125002861,-5.015401227128505
1684253077071519500,5.36351953125,-4.594786289572715,0.9465478601515293,-4.836439621467888
1684253077081545500,5.37354541015625,-4.8731405818775295,0.5166162281960248,-4.0774657124996185
1684253077091570700,5.38357080078125,-5.081776025789976,-0.33214053528904913,-3.0534342151731253
1684253077101596700,5.3935966796875,-5.229502242970466,-1.2285954540163277,-2.0089424058809877
1684253077111622700,5.40362255859375,-5.409548428997397,-1.8539193096905946,-1.1559963740125299
1684253077121649000,5.41364892578125,-3.935166196542978,-2.050915461474657,-0.4243573389545083
1684253077131673600,5.423673583984375,0.5895880870349705,-1.3949427850365639,0.8310361056163906
1684253077141699800,5.433699951171875,2.1933815661698577,-0.5476473262757062,1.3058067039906978
1684253077151725800,5.443725830078125,-0.5059001883924007,-0.3734358377516269,0.2950070286810398
1684253077161751800,5.453751708984375,-3.0204715645089744,-0.34738018999695774,-0.7006431544221937
1684253077171777800,5.46377783203125,-4.373198717367649,-0.3514034541636705,-1.0043769487857819
1684253077181802800,5.473802734375,-4.756219545066356,-0.5283510896533727,-0.9590759178131818
1684253077191828700,5.483828857421875,-4.615414943842589,-1.0523229413092137,-0.8781577761448919
1684253077201854700,5.493854736328125,-4.202703034496307,-1.7788994322806595,-0.9207146229758858
1684253077211880700,5.503880615234375,-3.7161969901427625,-2.5127643266946076,-1.1738764602266252
1684253077221905700,5.51390576171875,-3.384178327667713,-3.078985420536995,-1.5161324390776454
1684253077231931600,5.523931640625,-3.203226424972713,-3.4635073004484176,-1.727135342773795
1684253077241957600,5.53395751953125,-2.9777962058648466,-3.735344465944171,-1.7445123017713426
1684253077251983600,5.543983642578125,-2.6154543013185263,-3.911637436917424,-1.578370284064859
1684253077262008600,5.554008544921875,-2.129670433759689,-3.9600352648615833,-1.2550064910799263
1684253077272034600,5.56403466796875,-1.6071327065601944,-3.7759552932739258,-0.8475979488387704
1684253077282060500,5.574060546875,-1.0216790889814495,-3.1844629800528286,-0.35026772813200946
1684253077292086500,5.58408642578125,-0.6199295954152941,-2.0293290680885314,-0.07048588724210858
1684253077302112500,5.594112548828125,-0.31817981447577476,-0.3814823660850525,-0.2393074994213879
1684253077312137700,5.6041376953125,1.8557468173786997,1.8721429486453531,-0.7338067344859242
1684253077322163500,5.61416357421875,5.237960274714231,4.2217678004503245,-1.7033876797005534
1684253077332189700,5.624189697265625,5.244595767205953,5.273902525711059,-2.655375100557506
1684253077342215700,5.634215576171875,4.263821520064771,4.8263633408725255,-3.6718583744615314
1684253077352241000,5.644240966796875,2.1253457024283704,2.9462065971195694,-3.9532115563213823
1684253077362267000,5.654266845703125,-1.6466577844798564,1.0659984154403208,-2.9792306225821372
1684253077372292900,5.66429296875,-4.0926679578065865,-0.16841420042216776,-1.9294538586243986
1684253077382318800,5.67431884765625,-4.308515525054931,-1.1348071632504462,-1.7035308875635264
1684253077392344800,5.6843447265625,-4.006864820575714,-1.4392097967863082,-1.9541151294112205
1684253077402369800,5.694369873046875,-3.6568601272940633,-0.5922141977548598,-2.3525489225581286
1684253077412395800,5.704395751953125,-3.312819895374775,0.5619704506605864,-2.842952266611159
1684253077422421800,5.714421875,-3.057496057784557,1.3588614178299903,-3.133077076208591
1684253077432447700,5.72444775390625,-2.8668203411936757,1.42085464040637,-2.8961840905830263
1684253077442472700,5.73447265625,-2.384236730980873,0.9742296478033066,-1.7282149547040462
1684253077452498700,5.744498779296875,-1.8693898505449293,0.3943459393113851,-0.48731940656304357
1684253077462524700,5.754524658203125,-1.667680698764324,-0.23269465715289114,0.15943857454508542
1684253077472550700,5.764550537109375,-1.2482184383749961,-0.7399906838178634,0.6293450740143657
1684253077482575600,5.77457568359375,1.8487609040141104,-1.04442195892632,1.9383184253424406
1684253077492601600,5.7846015625,5.382200403344631,-1.6999018834114075,3.554098840999603
1684253077502627600,5.794627685546875,6.709771195375919,-1.6639637240678071,4.439165519750118
1684253077512653600,5.804653564453125,5.648949305790662,-0.7413748316526413,4.558487772484123
1684253077522679800,5.8146796875,2.267353395831585,0.552513471007347,3.6326249729648232
1684253077532704500,5.82470458984375,-0.5219546666145325,1.7504571816504,2.571897191403806
1684253077542730500,5.83473046875,-1.4400316345632076,2.580039873588085,2.213629696689546
1684253077552756700,5.8447568359375,-1.837043578213453,3.263451176571846,2.27609988912791
1684253077562782700,5.85478271484375,-2.2103297783613205,3.7417981721282003,2.786463194409013
1684253077572807700,5.8648076171875,-2.011882258725166,3.448860350936651,3.607256722952425
1684253077582833700,5.874833740234375,-1.3171663023948668,2.284728893524408,4.476342865499854
1684253077592859600,5.884859619140625,-0.804404996061325,1.0197487054407597,5.009413384890556
1684253077602885600,5.8948857421875,-0.5562533881880343,0.3306652020394802,5.1976469690263265
1684253077612910800,5.904910888671875,-0.3819734375376254,0.11144669705331325,5.120277313619852
1684253077622936800,5.914936767578125,-0.3221592760333791,0.2387532265394926,4.718688855834305
1684253077632962800,5.924962890625,-0.4329634739320725,0.5796487306922674,3.977200042413175
1684253077642988800,5.93498876953125,-0.7256885291557759,0.999715971237421,3.00429199860245
1684253077653014800,5.945014892578125,-1.1501181296288967,1.2025626026153564,1.9283035195454954
1684253077663039700,5.955039794921875,-1.566893927413225,1.1438204907894134,1.1858493682235478
1684253077673065700,5.965065673828125,-1.859843439042568,0.9363274949103594,0.7732923571780324
1684253077683091700,5.975091796875,-2.1094646810770032,0.7078560084104537,0.517494472335279
1684253077693117700,5.98511767578125,-2.2356465904474256,0.5084031111240387,0.44226621287167067
1684253077703142700,5.995142578125,-2.280053887450695,0.361484703195095,0.5201441100612283
1684253077713168600,6.005168701171875,-2.3252013352967795,0.19089725038707256,0.5432102206110954
1684253077723194600,6.015194580078125,-2.325750639742613,0.03415945923328399,0.47730157815665003
1684253077733220600,6.025220703125,-2.288784306395054,-0.07177110474705696,0.2828513114631176
1684253077743246800,6.035246826171875,-2.2373744371533393,-0.11804361110031604,0.01356909114718437
1684253077753271600,6.045271484375,-2.1463608717977998,-0.18064356739819049,-0.3658876143291592
1684253077763297800,6.0552978515625,-1.9787585722804069,-0.19738076718747616,-0.6945116659298539
1684253077773323800,6.06532373046875,-1.7807694639362395,-0.2262269224435091,-0.8707391704514622
1684253077783349800,6.075349853515625,-1.555763461589813,-0.21015666213035583,-0.8507482295632361
1684253077793374700,6.085374755859375,-1.3087281443953513,-0.1124818853199482,-0.6209343885436653
1684253077803400700,6.095400634765625,-1.2491022354722023,-0.07136310846805573,-0.3456193178042769
1684253077813426400,6.105426513671875,-1.3023463344037531,-0.18398060286641119,-0.1394192843452096
1684253077823452400,6.115452392578125,-1.3220809624433516,-0.3207657393157482,0.05106061741262674
1684253077833477400,6.125477294921875,-1.4069757526576518,-0.4431014946520328,0.38453941556811333
1684253077843503400,6.13550341796875,-1.4845102432370185,-0.42291035501658913,0.7488450214028358
1684253077853529300,6.145529296875,-1.5413772088408468,-0.258721078813076,1.0557952935948967
1684253077863555300,6.155555419921875,-1.5398948613286016,-0.05637830530405044,1.2840040375053883
1684253077873581300,6.165581298828125,-1.471830794405937,0.17727672131359576,1.3797867169588804
1684253077883606500,6.1756064453125,-1.375968035453558,0.381332143959403,1.419107504478097
1684253077893632500,6.185632568359375,-1.3151824351012706,0.5435287850409746,1.430416833999753
1684253077903658800,6.19565869140625,-1.2573533464670181,0.6251058290094137,1.3635817243501542
1684253077913684500,6.2056845703125,-1.1001999602496624,0.6895055282056332,1.3473030819833278
1684253077923709700,6.215709716796875,-0.9100403764873742,0.7342261289417743,1.373550745178759
1684253077933735700,6.225735595703125,-0.6794973444104194,0.7720148845881223,1.396029411229491
1684253077943761700,6.23576171875,-0.47214054213166234,0.7685510078698397,1.3219997139006852
1684253077953787600,6.24578759765625,-0.2676607200613245,0.7768138093024491,1.1688920959427953
1684253077963813600,6.255813720703125,-0.04292261140346527,0.7661737573444842,1.0839718790262938
1684253077973838600,6.265838623046875,0.15714228030145166,0.677545625820756,0.9521241989791392
1684253077983864600,6.275864501953125,0.3418827616244554,0.5093512056291103,0.742082103139162
1684253077993890600,6.285890625,0.5104326076576486,0.333125454673171,0.5078770414233207
1684253078003916500,6.29591650390625,0.7452654093503952,0.14952303746938705,0.28939006558209657
1684253078013941500,6.30594140625,1.351651924842596,-0.11605097597837448,0.021717618550360203
1684253078023967500,6.315967529296875,3.665755381411314,-0.48813364555537697,-0.5578244368970394
1684253078033993500,6.325993408203125,6.260359786924719,-0.8073585851699113,-0.9035530602946877
1684253078044019500,6.33601953125,6.771672648015618,-1.0455974324464798,-0.7281164138898253
1684253078054044400,6.34604443359375,5.636207313117384,-1.215621990674734,-0.5595516990810633
1684253078064070400,6.3560703125,4.028292224007845,-1.2716630268484352,-0.48105040929615495
1684253078074096400,6.366096435546875,2.381752512949705,-1.2778472684413194,-0.32017011151015756
1684253078084122400,6.376122314453125,1.1235786438800395,-1.2607751376092433,-0.19211802435368297
1684253078094148600,6.386148681640625,0.23547581230401993,-1.0451859290361403,0.07683481787741184
1684253078104173300,6.39617333984375,-0.5637412597253918,-0.3593301555097103,0.5176251129776239
1684253078114199600,6.406199462890625,-1.2866963453292846,0.6364104823559522,1.0844336513191462
1684253078124225500,6.4162255859375,-1.5611632748067379,2.002574332153797,1.4340660041570663
1684253078134251500,6.42625146484375,-1.224502924005687,3.855181974723935,1.9214117142051457
1684253078144276700,6.43627685546875,0.007783201222121715,5.996455167993902,2.2579510689750313
1684253078154302700,6.446302734375,1.4205845912933348,7.940480280545353,2.2669214341551065
1684253078164328400,6.456328369140625,1.2338096815332769,9.090326022973656,2.2896607969686387
1684253078174354400,6.4663544921875,-0.045345746897161004,8.681268252220748,2.2004116109371186
1684253078184379600,6.476379638671875,-1.33421592913419,7.227445992714166,1.6877002812251447
1684253078194405600,6.486405517578125,-2.6667899362802503,5.6041790206938975,1.1191593661330639
1684253078204431600,6.496431640625,-3.8209097027659413,3.840072083875537,0.8357504207871854
1684253078214457600,6.50645751953125,-3.833307704307139,1.6843664606273174,0.43889790548235175
1684253078224483600,6.516483642578125,-3.224711111550033,-0.1599959161669016,-0.09758709852695464
1684253078234508500,6.526508544921875,-2.4510712561085817,-1.3381909702450037,-0.7814467298001051
1684253078244534500,6.536534423828125,-2.02603967115432,-1.7272879029870032,-1.6258954208277165
1684253078254560500,6.546560546875,-2.4635171884447336,-1.286975162270665,-1.870966598342359
1684253078264586500,6.55658642578125,-3.0876825217336417,-0.4889864629924297,-1.806331336824596
1684253078274611500,6.566611572265625,-3.2145547514557835,0.21538345686793325,-1.8372890774071216
1684253078284637400,6.576637451171875,-2.6205945868164298,0.5827975501120091,-1.9928902657464145
1684253078294663400,6.586663330078125,-2.0625971314400435,0.8085176920771598,-1.5937097458854317
1684253078304689400,6.596689453125,-1.5025956427648663,0.9321949251502751,-0.8684969444826245
1684253078314715600,6.606715576171875,-0.9563929623395204,0.9616478141278028,-0.15815613351911306
1684253078324740400,6.616740234375,-0.9566600888431072,0.8149509399950504,0.20271730590984224
1684253078334766600,6.6267666015625,-1.289071257767081,0.4266431118041277,0.07397562905400991
1684253078344792600,6.63679248046875,-1.7781261098206043,-0.13674421991705893,-0.5325929650068283
1684253078354818600,6.646818603515625,-1.881985128223896,-0.7676257097184658,-1.7048760185621679
1684253078364843500,6.656843505859375,-2.0215929208785295,-1.4397498950123786,-2.5190415072679517
1684253078374869500,6.666869384765625,-2.07953774484694,-2.063828719061613,-2.7444576978504656
1684253078384895500,6.6768955078125,-1.742106117412448,-2.51013047105968,-2.6405548403054473
1684253078394921500,6.68692138671875,-1.5361451534062622,-2.640257318663597,-2.2618805173784495
1684253078404946700,6.69694677734375,-1.6509446680188178,-2.4019418990194796,-1.733446717877686
1684253078414972400,6.706972412109375,-1.9117174186646937,-1.8840093275278806,-0.8638304139763117
1684253078424998400,6.716998291015625,-2.308394431272149,-1.2500702037215232,0.4161330429013818
1684253078435024400,6.7270244140625,-2.867450455790758,-0.5759557213932276,1.8879393604531882
1684253078445050400,6.73705029296875,-3.2522301098555326,0.1485936476647854,3.211850168672204
1684253078455075600,6.74707568359375,-3.0108702079489826,0.691329821023345,3.8123236607283353
1684253078465101600,6.7571015625,-2.905596938833594,1.0908534552335738,3.73137322422564
1684253078475127600,6.76712744140625,-3.024371786817908,1.3360457749098538,2.934472904706001
1684253078485153500,6.777153564453125,-2.958927547004819,1.412895205834508,1.725143292173743
1684253078495178500,6.787178466796875,-2.526559627813101,1.3790928894758223,0.9670527419112622
1684253078505204500,6.79720458984375,-2.086728533133864,1.2363427071422337,0.5747289560772478
1684253078515230500,6.80723046875,-1.7264350855499504,0.9000374533891677,-0.20386033846512436
1684253078525256700,6.817256591796875,-1.2960796752244232,0.2054991917133331,-0.8054163650609553
1684253078535282700,6.82728271484375,-1.101914362952113,-0.6961117946028709,-1.5031728581309318
1684253078545307600,6.8373076171875,-1.0861056761845946,-1.6085633238852024,-2.6038699542477723
1684253078555333600,6.847333740234375,-1.1076090674623846,-2.4853596024185416,-3.707191261388361
1684253078565359600,6.857359619140625,-1.141362868504226,-3.238357067325711,-4.620616311877965
1684253078575385600,6.867385498046875,-1.110549212567508,-3.9065135180324315,-5.1591538645029065
1684253078585410600,6.87741064453125,-1.1057339212402701,-4.419528506866097,-5.42233718342185
1684253078595436500,6.8874365234375,-1.4900941808491945,-4.705688212224841,-5.451787149789929
1684253078605462500,6.897462646484375,-2.1467048629298806,-4.887592008817196,-5.238551226344704
1684253078615488500,6.907488525390625,-2.823971964070201,-4.902084060028195,-4.888946346035599
1684253078625514500,6.917514404296875,-3.1524145216241477,-4.808644728830457,-4.527091640484333
1684253078635539500,6.92753955078125,-3.2386995971530674,-4.711656765240431,-4.128972612375021
1684253078645565400,6.9375654296875,-3.3744121359348296,-4.555903308948874,-3.637938569203019
1684253078655591400,6.94759130859375,-3.1839255121752617,-4.446898744350672,-3.194258690141141
1684253078665617400,6.957617431640625,-3.081295743305981,-4.283491558435559,-2.852046842692792
1684253078675642400,6.967642333984375,-3.3242750631079074,-3.9867087522536515,-2.555155023178458
1684253078685668400,6.97766845703125,-3.710761228829622,-3.618990123105049,-1.9529908015564084
1684253078695694300,6.9876943359375,-3.9540988605499265,-3.276119519487023,-0.958848977189511
1684253078705720300,6.99772021484375,-4.170782294100523,-2.7910908542096613,0.23123934377804398
1684253078715745500,7.00774560546875,-3.8909669893324375,-2.3784224917441605,1.5674042150229215
1684253078725771500,7.017771484375,-2.9319290654420853,-2.1224422360718247,2.3118325890272855
1684253078735797500,7.027797607421875,-2.3755974974513054,-1.3167185586273669,2.4043279173731804
1684253078745823700,7.03782373046875,-2.7202017929941413,1.900286508589983,1.1010030202608554
1684253078755849500,7.047849365234375,13.639568120467661,13.629783224034309,-1.5819691853396594
1684253078765874700,7.057874755859375,28.306641551852223,35.48958087884188,-2.7692145379662514
1684253078775900700,7.067900634765625,1.157221239632368,45.325791319847106,-7.485525266492366
1684253078785926700,7.0779267578125,-7.331085230886936,33.52934931237697,-8.115271614784001
1684253078795952600,7.08795263671875,0.2859644750475883,12.166652453434466,-4.829835400897264
1684253078805977600,7.0979775390625,17.29800178068876,-4.966207280370592,-1.720437160309404
1684253078816003000,7.108003173828125,11.98728723540902,-9.861642988425492,0.4754826921664178
1684253078826029000,7.118029052734375,1.8535832096040248,-8.874690637171268,0.6222869721964002
1684253078836055000,7.128054931640625,-3.773992468768358,-8.003960526809095,0.46367023542821406
1684253078846081000,7.1380810546875,-4.156446310234069,-8.030800018417835,0.07562734178379178
1684253078856106000,7.14810595703125,-4.225644349622726,-7.81338593250513,-0.7083477374501526
1684253078866132000,7.158132080078125,-5.2246308375418185,-6.775668439653516,-1.6358143189042806
1684253078876158000,7.168157958984375,-5.69641832845211,-5.786258758375048,-1.9337392808586358
1684253078886184000,7.178183837890625,-5.454094257688522,-5.023277659592032,-1.950798259948194
1684253078896209000,7.188208984375,-4.732496139651537,-4.387866709667444,-1.2581073797047138
1684253078906235000,7.19823486328125,-4.769111759865284,-3.136708126187324,-0.2498003979936242
1684253078916260900,7.2082607421875,-4.688498007971048,-1.4481214175164698,0.03885463131219148
1684253078926286800,7.218286865234375,-2.8817268184244633,-1.2017378422290086,0.2365726676300168
1684253078936312000,7.22831201171875,-0.9466741899449378,-1.0043161585092544,0.3508253620147705
1684253078946338000,7.238338134765625,2.998918781131506,-0.34518531030118466,0.6727239047527312
1684253078956364000,7.248364013671875,10.237729048424958,1.008793011662364,1.8468898494452237
1684253078966390000,7.25839013671875,10.578477253061532,2.412489596518874,2.255159684690833
1684253078976416000,7.268416015625,4.614573524582386,2.9745991633892057,1.0767515723839403
1684253078986441200,7.278441162109375,0.5387725304245948,3.0168139187842606,-0.7723229276239871
1684253078996467200,7.28846728515625,-1.1326958701848984,3.291953632956743,-1.9026836328595875
1684253079006493200,7.2984931640625,-1.7368004122197627,3.688616032516956,-2.5179437751591203
1684253079016519200,7.308519287109375,-1.5562006839632987,3.698239600908756,-2.182667279931903
1684253079026544000,7.318544189453125,-1.1650777252864093,3.072819299122691,-1.342684774532914
1684253079036570000,7.328570068359375,-0.7130541615754366,1.983224904039502,-0.31965982390046116
1684253079046596000,7.33859619140625,-0.19792554158866404,0.7338222243160009,0.7768693388819694
1684253079056622000,7.3486220703125,0.34730186406373975,-0.33432080193758007,1.8666446434900164
1684253079066648000,7.35864794921875,0.9903682971775531,-1.1560586255937815,2.6909435498058794
1684253079076673000,7.368673095703125,1.9562299296081065,-1.6611866605699062,3.1559657843649385
1684253079086699000,7.378698974609375,3.084187665355205,-1.8678584031939505,3.204511204086244
1684253079096725000,7.38872509765625,3.8659202263593673,-1.5686264502942562,2.725978622829914
1684253079106751000,7.3987509765625,3.833225578981638,-0.8563578861385583,1.7585899269625545
1684253079116776000,7.40877587890625,3.1724101386874914,-0.05000058696568012,0.5396665566548705
1684253079126802000,7.418802001953125,2.615060625825822,0.5386369213461876,-0.6424731433957814
1684253079136828000,7.428827880859375,2.3377356765687463,0.8559639183849096,-1.438568576273322
1684253079146854000,7.43885400390625,1.9808020608067511,1.129740527510643,-1.7724878116726874
1684253079156878800,7.44887890625,1.5405875197678804,1.3205261342167853,-1.465693314564228
1684253079166904800,7.45890478515625,1.155069030034542,1.234033261156082,-0.7242845806419849
1684253079176930800,7.468930908203125,0.8303127597779035,0.8669178585976361,0.08882102374732494
1684253079186957000,7.47895703125,0.46500411438047884,0.3171533940374851,0.8383440905421972
1684253079196983000,7.488983154296875,0.11884966678619384,-0.31353461901843543,1.5263918211549519
1684253079207008000,7.499008056640625,-0.23712416403293607,-0.8898276095420121,2.0065233620405194
1684253079217034000,7.509033935546875,-0.29016368030309675,-1.33383394407928,2.3962334582448004
1684253079227060000,7.51906005859375,0.023699001625925302,-1.504334303125739,2.767944664160907
1684253079237086000,7.5290859375,0.5162776438914239,-1.4341314706087112,3.0775001504153012
1684253079247111200,7.539111083984375,0.9212823398612439,-1.3190116380006074,3.3075311413168906
1684253079257137200,7.54913720703125,1.0960428405702114,-1.2204676771402359,3.3417730181366205
1684253079267163100,7.5591630859375,0.9815069453299045,-1.1618459768235683,2.944479042674601
1684253079277189000,7.569189208984375,1.1291302866578101,-1.0079881250202656,2.3130592082127928
1684253079287215000,7.579215087890625,1.2852116597294807,-0.7265005031257867,1.6799156186982989
1684253079297240000,7.589239990234375,1.2937532781034706,-0.2896341034710407,1.0896677525803447
1684253079307266000,7.59926611328125,1.5197066443026066,0.13113339429795742,0.8774626334875821
1684253079317292000,7.6092919921875,1.6858453010082244,0.5773159038305282,0.7432257202163338
1684253079327318000,7.619318115234375,1.718927486398816,0.8996072452783584,0.6004091946482658
1684253079337343000,7.629343017578125,1.8428525567531584,1.0417325737118721,0.5047925194114447
1684253079347369000,7.639368896484375,2.2327540838763116,1.1387538550496101,0.32793957646787164
1684253079357395000,7.64939501953125,3.063973437105119,1.1833207265287637,-0.015549451309442519
1684253079367421000,7.6594208984375,4.379904352486133,1.0954010355353354,-0.523296436612308
1684253079377446000,7.66944580078125,6.008196459192037,0.8537748839080334,-1.0309370389312504
1684253079387472000,7.679471923828125,7.711410828152299,0.5153752882242203,-1.2674424865439533
1684253079397498000,7.689498046875,8.131074748593567,0.31086452302634715,-0.881948254469037
1684253079407524000,7.699524169921875,6.886319017893076,1.498304959833622,-0.22350831113457678
1684253079417550000,7.709550048828125,5.430578357544541,3.3390392092585564,-0.3216343388438225
1684253079427575000,7.719574951171875,4.27524570813775,5.16453731110692,-1.2118801737979055
1684253079437601000,7.72960107421875,3.3127965144991873,6.844218828788399,-1.835811406069994
1684253079447627000,7.739626953125,2.111300664332509,8.31083919506967,-2.4078169285327196
1684253079457653000,7.749653076171875,0.8995670593984425,8.879255753129721,-2.417676351507008
1684253079467678000,7.759677978515625,0.1860147390425205,7.66200411542654,-1.8743883894845843
1684253079477704000,7.769703857421875,-0.3756861739616841,5.43253884396255,-0.7501417832151055
1684253079487730000,7.77972998046875,-1.1150363679189235,3.288828778934479,0.642701691454649
1684253079497756000,7.789755859375,-0.9127367759644984,1.8830138867497443,2.075180718681216
1684253079507782000,7.799781982421875,-1.119223809671402,1.517479031381011,2.8349159674108027
1684253079517807000,7.80980712890625,-1.778191576272249,2.0927730739951134,2.82733968693763
1684253079527833000,7.8198330078125,-2.5024936925709245,3.6242221785396334,2.3092340969666836
1684253079537859000,7.829859130859375,-2.939894929754734,6.012570436492562,1.280057930228114
1684253079547885000,7.839885009765625,-1.023164651364088,8.672779240816832,-0.6328162572562694
1684253079557910000,7.849909912109375,-0.1122949844457209,9.769275670373439,-2.9893685702368615
1684253079567936000,7.85993603515625,-1.9279063369214533,9.505126721292733,-4.548195803311467
1684253079577962000,7.8699619140625,-3.408850704370439,8.70874136555791,-4.01329660718888
1684253079587988200,7.87998828125,-4.698057278954982,7.95393422088027,-1.5563783786177634
1684253079598014200,7.89001416015625,-5.316815784764289,7.298484107011556,1.6517603683158755
1684253079608039200,7.9000390625,-4.952463417178392,6.504230502608418,4.049891476875543
1684253079618065200,7.910065185546875,-4.628139108598232,5.38975476424694,4.992091078689694
1684253079628091100,7.920091064453125,-4.835926995770633,4.022901763141155,4.540091699571907
1684253079638117000,7.9301171875,-5.349632012695074,2.3983798226237294,3.230365776310861
1684253079648142000,7.94014208984375,-5.779803883147239,0.564660420396924,1.1401863720707595
1684253079658168000,7.95016796875,-5.870158107811212,-0.8690484408855438,-0.390313176663965
1684253079668194000,7.960194091796875,-5.459844784039259,-1.7470435738146304,-1.2875973858222365
1684253079678220000,7.970219970703125,-4.3978620339810846,-2.46921218521595,-2.3132868794888255
1684253079688245000,7.980244873046875,-2.7635423375487327,-3.332913419854641,-3.246997762160003
1684253079698271000,7.99027099609375,-0.5933671671822667,-4.470929608279467,-4.027155913454294
1684253079708297000,8.000296875,1.3717895807251332,-5.663741801252961,-5.097086407646536
1684253079718323000,8.010322998046876,2.3897706919714805,-6.6821396766066545,-5.722273485198617
1684253079728349000,8.020348876953125,1.9683084899365901,-7.29042004302144,-5.6539750249981875
1684253079738374000,8.030373779296875,0.3328445919051766,-7.475557414707541,-5.098042685458064
1684253079748399900,8.04039990234375,-1.86554720364213,-7.424833189642429,-4.342401428043842
1684253079758425900,8.05042578125,-4.061896387445927,-7.235075172418355,-3.5515167155519127
1684253079768451800,8.060451904296874,-5.889881629934907,-7.057959779146313,-2.9344746582716703
1684253079778477000,8.07047705078125,-7.063963987997174,-6.912461174887419,-2.4480701745964586
1684253079788503000,8.0805029296875,-7.569729151833057,-6.83470573503375,-1.8924641444012522
1684253079798529000,8.090529052734375,-7.5425407006561755,-6.914224092906713,-1.2996186630055309
1684253079808555000,8.100554931640625,-7.172268295371532,-7.070717553910613,-0.8211489178523421
1684253079818580200,8.110580322265625,-6.670227120494842,-7.2129428355872625,-0.5495204266712069
1684253079828606200,8.120606201171874,-6.118084236365556,-7.267460023194551,-0.42821386825218793
1684253079838632200,8.130632080078126,-5.464574735170602,-7.228714405214786,-0.4750977845020592
1684253079848658200,8.140658203125,-4.776333820073306,-7.017659332939982,-0.42640725722163914
1684253079858684400,8.150684326171875,-4.086666087043285,-6.637491556584835,-0.02115267814397812
1684253079868709000,8.160709228515625,-3.362268109154701,-6.000860709476471,0.48974692597091196
1684253079878735400,8.1707353515625,-2.6568954419925808,-4.540408218175172,1.0078139374971389
1684253079888761300,8.18076123046875,-2.0630992357432842,-2.0323352641671897,1.528392931844294
1684253079898787300,8.190787353515624,-1.17751846999079,0.8108534415483474,1.8642033878177404
1684253079908812300,8.200812255859375,0.5166540759883821,3.523057806047797,2.414263035932183
1684253079918838300,8.21083837890625,1.4866275276519356,6.524678247353434,3.3751690917819737
1684253079928864300,8.2208642578125,-0.02393507540412247,9.34560076072514,4.088578934927284
1684253079938890200,8.23089013671875,-1.1062743847925216,11.931866376960278,4.749677868337929
1684253079948916200,8.240916259765624,-1.4201719188392161,14.504604403102396,3.3453181433975696
1684253079958941200,8.250941162109376,-1.772857083376497,19.368546656262872,-1.9893337423086166
1684253079968967200,8.26096728515625,2.8940181447207927,28.81225766260624,-8.408290099996329
1684253079978993200,8.2709931640625,3.6086741885349154,28.50183912978172,-10.054241782033444
1684253079989019100,8.28101904296875,2.7827894743323323,16.37583315951228,-5.934531503522396
1684253079999044000,8.291044189453125,6.213811386239528,5.659042829781771,-1.8688120506569743
1684253080009070000,8.301070068359374,17.222193967771528,-2.0526269415676595,-1.894558778592944
1684253080019096000,8.311095947265626,22.386629572069644,-6.754008981031179,-2.686181449970603
1684253080029122000,8.3211220703125,12.449350620162486,-6.6135682446837425,-0.8561407362565397
1684253080039148000,8.33114794921875,1.795776186671108,-5.466719930505752,1.5467591941401362
1684253080049173000,8.341173095703125,-1.9418205882444977,-5.9695858657687895,2.29226951816231
1684253080059199000,8.351198974609375,-2.732071679008007,-6.644952393984794,1.967005006122589
1684253080069225000,8.361224853515624,-3.5563530496671794,-6.972963866645097,2.394365034024417
1684253080079251200,8.371251220703124,-4.3879625712573525,-6.974286055159569,2.794852837091684
1684253080089276200,8.381276123046876,-8.733693435984849,-6.555691225254535,2.2091642417132853
1684253080099302400,8.391302490234375,-16.34448525056839,-4.748368247044086,0.47351183048486706
1684253080109328400,8.401328369140625,-19.35977298269868,-1.836376054215431,-1.6832187518969177
1684253080119354400,8.411354248046875,-15.78104589639902,0.5137468102395534,-0.708032826282084
1684253080129380400,8.42138037109375,-11.420000558161735,2.4994167693436142,1.0328130619361997
1684253080139405300,8.4314052734375,-8.181216205334662,3.4833471424281597,1.428157949157059
1684253080149431300,8.441431396484376,-5.479928371647,3.567786590090394,0.7019298332318663
1684253080159457300,8.451457275390625,-3.672646017707884,2.849921228840947,-0.08160977719426155
1684253080169483300,8.461483154296875,-2.8335867646336554,1.8784505243569611,-0.22144904051721095
1684253080179508200,8.47150830078125,-2.5279861534848806,0.7477993117421865,-0.15616116030961275
1684253080189534200,8.4815341796875,-2.455188920560479,-0.22415537686645984,-0.058897886909544464
1684253080199560200,8.491560302734374,-2.5453233649939295,-0.8641682676285505,0.04101473195552826
1684253080209586200,8.501586181640626,-2.72459652082175,-1.129904778161645,0.37624417317062614
1684253080219611100,8.511611083984375,-3.4643875904142853,-1.161818504294753,0.8569038295835256
1684253080229637000,8.52163720703125,-4.114882127702236,-0.868947318598628,0.9174842627525329
1684253080239663000,8.5316630859375,-1.8249089037835597,-0.001914309188723564,-0.27263094622194767
1684253080249689000,8.541689208984375,2.297513556295633,1.0897814420878886,-1.8216843887791037
1684253080259715000,8.551715087890624,20.934712269401548,2.125563582962751,-4.92428770852983
1684253080269740000,8.561739990234376,17.78102378231883,1.6511504197239875,-4.994208216974139
1684253080279766000,8.57176611328125,9.326104033094644,1.5890274332880974,-2.7300673534482716
1684253080289792300,8.581792236328125,8.387038053131104,2.0179390745460988,-0.4884820206016302
1684253080299818200,8.591818359375,6.243404560470581,2.4457722729176283,2.5593162345111367
1684253080309843200,8.60184326171875,3.6157998026311398,2.271779980102181,4.03659097353667
1684253080319869200,8.611869140625,1.757978809326887,2.232063471263647,4.9442672512412065
1684253080329895200,8.621895263671876,1.4837116402052342,2.4912106665343043,6.180788237559795
1684253080339921200,8.631921142578125,1.839831747627258,2.326768876874447,7.794936668100952
1684253080349947100,8.641947021484375,2.977297316431999,1.9327274734675883,9.884444018298387
1684253080359972400,8.651972412109375,4.324758219325542,1.1429928077936171,11.18559558995962
1684253080369998300,8.661998291015625,3.4827672967135905,-0.40873160753846166,10.559286230379342
1684253080380024300,8.6720244140625,0.2643698983550072,-2.016639682385325,8.450665014389157
1684253080390050000,8.682050048828126,-1.9284515497140586,-2.5973814690113066,7.21824503364861
1684253080400075300,8.6920751953125,-2.6211659569635986,-2.5356951204270124,5.855061076444387
1684253080410101200,8.702101318359375,-2.3639912308096886,-1.2172557293564081,4.238064855256677
1684253080420127200,8.712127197265625,2.977004178704321,3.0968788046240805,2.897230384765565
1684253080430153200,8.7221533203125,6.0333741550683975,7.7626026707291595,1.221869945153594
1684253080440178200,8.73217822265625,2.341524547457695,12.153332368612288,0.5281719336941838
1684253080450204200,8.7422041015625,-4.299665863645076,15.869762290728092,2.1689806998848913
1684253080460230100,8.752230224609375,-10.168988105154037,15.40582492879629,3.3061417327851057
1684253080470256000,8.762256103515625,-10.547996774601936,13.168593114984034,0.8862637795805931
1684253080480282400,8.772282470703125,-10.44654949351549,10.097684617918729,-2.292247306330502
1684253080490307000,8.78230712890625,-12.306825478756426,8.043800369766354,-5.37808069306612
1684253080500333000,8.7923330078125,-13.768255290657281,6.56012190117836,-6.4552458146870135
1684253080510359300,8.802359375,-13.236717972183227,5.30292053040266,-6.062069503676891
1684253080520385300,8.81238525390625,-8.675526493698358,4.125389493191242,-3.7506215300530195
1684253080530410200,8.82241015625,-3.44710912335515,3.311185572171211,-0.8077621975347399
1684253080540436200,8.832436279296875,-2.129495369453728,2.9944957039922473,0.2915129029549658
1684253080550462200,8.842462158203125,-1.0167404635354875,2.99672916213274,-0.8394768939644098
1684253080560488200,8.85248828125,2.7427649224579334,3.066123600876331,-3.98038890158236
1684253080570514200,8.86251416015625,6.440877097594738,1.0520043768793343,-8.471480423402786
1684253080580539100,8.8725390625,4.75758469593972,-1.9337001178920268,-11.784625312948226
1684253080590565000,8.882565185546875,1.5622756199628114,-3.1073359012305737,-11.59343521709442
1684253080600591000,8.892591064453125,-0.16106383765935897,-4.805695815896987,-10.4394475525558
1684253080610617000,8.9026171875,-0.6432920585632323,-6.41274873521924,-9.7901799267143
1684253080620642300,8.912642333984374,-0.7134574816793203,-7.504647315591574,-9.771032158651947
1684253080630668300,8.922668212890626,-1.6987176420629024,-7.741776740321517,-10.042474187350273
1684253080640694000,8.932694091796876,-2.7882562153056263,-7.620278604853152,-9.859324774610995
1684253080650720000,8.942719970703125,-3.403963809111714,-7.463803264027834,-9.423740815982223
1684253080660746000,8.95274609375,-4.3298382990688085,-7.348080789351463,-8.558052791440486
1684253080670771200,8.962771240234375,-5.097613646391034,-7.33717653349936,-7.2398413639068595
1684253080680797200,8.972797119140624,-5.431664983737468,-7.404959445393085,-6.036195057708024
1684253080690823200,8.9828232421875,-5.348133298569917,-7.6879264921903605,-5.553225663048028
1684253080700849400,8.992849365234376,-4.677047224152088,-8.015971867120266,-5.294502246147394
1684253080710874000,9.0028740234375,-3.838185831737518,-8.187260746195912,-5.25743245242536
1684253080720900400,9.012900390625,-3.436079487557709,-7.885643943986296,-5.362715366151929
1684253080730926300,9.02292626953125,-3.3334888816550374,-7.150495439502596,-5.513959820586442
1684253080740952300,9.032952392578125,-3.658048460295796,-6.089746615153551,-5.4492094082564115
1684253080750977300,9.042977294921876,-4.184306084801256,-4.9889440128356215,-4.853261869192123
1684253080761003300,9.053003173828126,-4.953540106499195,-3.9671915663570165,-3.021667788556218
1684253080771029200,9.063029296875,-5.814888056010007,-2.7260505190223454,-0.471298246088624
1684253080781055200,9.07305517578125,3.312388518220186,4.597366953715682,4.158846941635012
1684253080791081200,9.083081298828125,19.024003735518455,28.26856579595804,12.681489981520174
1684253080801106200,9.093106201171874,-5.174282460051774,45.98058676919937,4.658212175300717
1684253080811132200,9.103132080078124,-15.659821901696919,48.07157588238716,-12.93133567996025
1684253080821159000,9.113158935546876,5.023004687869548,38.46588450806141,-15.353668040579556
1684253080831185000,9.123184814453126,32.97186506721973,9.983863008427619,-6.637599693134427
1684253080841209900,9.1332099609375,14.032088597917555,-4.071638029259443,0.7479695537425577
1684253080851235800,9.14323583984375,-0.9552034602940082,-4.425245715469122,0.9736255444303155
1684253080861261800,9.15326171875,3.9953731202244755,-7.6374962816357606,3.6556121730595823
1684253080871287800,9.163287841796874,11.00247189618349,-9.76032021050155,5.725732101219892
1684253080881313800,9.173313720703124,-0.022071254293620585,-7.033079604911804,0.879399885160476
1684253080891338800,9.1833388671875,-4.78377799859941,-3.99303327910006,-1.9174299510926007
1684253080901364700,9.19336474609375,-3.4806112877234816,-1.7617261791616676,-1.9434943666756153
1684253080911390700,9.203390625,-4.463439544785023,-1.063441132172942,-0.9505991813689469
1684253080921417000,9.2134169921875,-4.819878655028343,-2.6789865700304505,0.46196752316355705
1684253080931441700,9.223441650390624,-3.951449515084922,-3.871575475642085,0.8298588785305618
1684253080941468000,9.233468017578126,-2.979362140007317,-4.01946009825468,0.5011567932575941
1684253080951494000,9.243493896484376,-1.4229298392452299,-3.578969078361988,0.24578911652565
1684253080961519900,9.253519775390625,0.22873875913396477,-2.7890684084713455,0.32917496348172426
1684253080971545900,9.2635458984375,0.3866659062027931,-1.6315958244264124,0.586078179217875
1684253080981571000,9.273571044921875,-0.2079867707453668,-0.5527274060189724,0.3993994233086705
1684253080991597000,9.28359716796875,-0.2036662771977484,0.519946833923459,-0.1737967702433467
1684253081001623000,9.293623046875,0.6681283936560154,2.005045690703392,-0.5004547824680805
1684253081011648800,9.303648681640626,1.9758827245831487,3.671999828758836,-0.35911914310753346
1684253081021674000,9.313674072265625,2.7151813344836233,5.0013241864591835,-0.01155833584666252
1684253081031700000,9.323699951171875,2.5693080516934392,5.581578481829166,0.08204056982696056
1684253081041726000,9.333725830078125,2.0702736574172973,4.941337627530098,1.4762705304190515
1684253081051752000,9.343751953125,1.8452245465815067,3.4365888983845707,2.762640420272946
1684253081061777000,9.35377685546875,1.5609773968458174,0.9711363579630852,4.138757508808374
1684253081071803000,9.363802978515626,1.1119921048521995,-0.9618430444389581,4.353963855543732
1684253081081828900,9.373828857421875,0.6771440592825413,-1.745600973790884,3.939913098809123
1684253081091854800,9.383854736328125,0.28198735157754273,-1.7616852626293897,3.009334668944776
1684253081101880800,9.393880859375,-0.05933134642336517,-1.2928770797908304,1.8719249219805
1684253081111905800,9.40390576171875,-0.4301415483791381,-0.7499094357639551,0.9767173729658126
1684253081121931800,9.413931884765624,-0.7656207996368408,-0.3741735043764114,0.4534294119209051
1684253081131958000,9.4239580078125,-0.8936462910473346,-0.07087795529961585,0.19902239691466092
1684253081141984000,9.43398388671875,-0.8041466373860836,0.08271569260954856,0.1367743227943778
1684253081152009000,9.444009033203125,-0.6147638832151889,0.1436164437741041,0.14789309817999602
1684253081162035000,9.454034912109375,-0.39588323188126084,0.05144669412076473,0.29322365239560605
1684253081172061000,9.46406103515625,-0.2472468958522193,-0.26873160069584845,0.4228206309065223
1684253081182087000,9.4740869140625,-0.07530161696076393,-0.7210673721611499,0.5562704854533076
1684253081192113000,9.48411279296875,0.07804660481996833,-1.2466624411046505,0.6848398744821548
1684253081202137900,9.494137939453125,0.26408059655223043,-1.7190268551200627,0.7050546872541308
1684253081212163800,9.504163818359375,0.5551199271786957,-2.0562854640752075,0.748093033991754
1684253081222189800,9.51418994140625,0.891195463829115,-2.215718485662341,0.6581783697888255
1684253081232215800,9.5242158203125,1.2356827819287777,-2.181374902033806,0.5296960745215415
1684253081242241000,9.534240966796874,1.6614140395849941,-2.0841285797685383,0.35824031444638965
1684253081252267000,9.54426708984375,2.0830345009215177,-1.93962483176589,0.24448534045070408
1684253081262292700,9.554292724609375,2.4322413218237457,-1.5902239495962858,0.19471067119538782
1684253081272318700,9.564318603515625,3.072692457872629,-0.5572065972596406,0.26008886003494264
1684253081282344700,9.5743447265625,5.56663225710988,1.1196201155126093,0.2935325722143054
1684253081292370000,9.584369873046874,7.568931863975524,2.7693255971252917,1.5677572662442922
1684253081302396000,9.59439599609375,7.247262453818321,3.0931103920012712,3.31123379522711
1684253081312422000,9.604421875,5.667583863633871,2.6655735462278125,4.145283695706725
1684253081322448100,9.6144482421875,3.909445479831099,1.7772019807130097,4.049686894214153
1684253081332472800,9.624472900390625,2.7010814974606037,0.7010936746686697,3.6434523641884327
1684253081342498800,9.634498779296875,2.1913252181619405,-0.34781858141422267,3.5059903513908384
1684253081352525000,9.644525146484375,1.9219127955950794,-1.272351593634486,3.400932186330855
1684253081362551000,9.654551025390624,1.6487690775454042,-1.8965297864049673,3.357073755382001
1684253081372576000,9.664575927734376,1.48750577179119,-2.1708201902717352,3.264213685376942
1684253081382602000,9.67460205078125,1.6473592107474804,-1.9228589904040096,2.8386405408918858
1684253081392628000,9.6846279296875,2.093595496293902,-1.2592103725105523,2.044313286730647
1684253081402654000,9.694654052734375,2.678547594091296,-0.4575333401083946,1.1247808592766522
1684253081412680000,9.704679931640625,3.2903391834974287,0.33566344871819015,0.21609160513728856
1684253081422705000,9.714704833984374,3.7628205018907783,1.0360767399072646,-0.632923517023027
1684253081432731000,9.72473095703125,3.9758810687690973,1.5726777715116738,-1.2911702758729457
1684253081442756900,9.7347568359375,4.0244314569264645,1.8249188406556844,-1.7366615882709622
1684253081452782800,9.744782958984375,4.2630712862193585,1.5198837544351815,-1.8940064054071901
1684253081462807800,9.754807861328125,5.38276212888062,0.4491489581227302,-1.6902692549303173
1684253081472833800,9.764833740234375,6.699715080785751,-0.546153872847557,-0.4619342054158449
1684253081482859800,9.77485986328125,6.259402924591303,-0.4828039749652147,1.5078271136775612
1684253081492885800,9.7848857421875,4.341600048533082,0.7438923674315213,2.359523730006814
1684253081502911700,9.794911865234376,3.023150720590353,2.4382868855983015,2.0249930847108364
1684253081512936700,9.804936767578125,2.752610609167814,5.055018367245793,0.9944409534439443
1684253081522962700,9.814962646484375,3.7962300195395944,8.75780554845631,-1.3793081396616995
1684253081532988700,9.82498876953125,5.485203681701422,12.75285542807579,-4.948237323915958
1684253081543015000,9.835014892578124,4.814634324634075,14.654611424696444,-8.303436225336789
1684253081553040000,9.845039794921876,0.8180218718729912,13.615392295110224,-10.03640100491643
1684253081563066000,9.855066162109376,-3.675781100863218,11.146401059168577,-10.744029049789905
1684253081573092000,9.865092041015625,-7.002523138606548,8.74784763354361,-10.592192474681138
1684253081583118000,9.8751181640625,-8.78395471971333,6.0389861497312785,-9.393526879504323
1684253081593144000,9.88514404296875,-9.196752846038342,3.5683284418821333,-6.856241859537363
1684253081603169000,9.8951689453125,-8.29487414869666,1.1141419763624667,-4.660086152479052
1684253081613195000,9.905195068359374,-7.021409040862322,-1.1212661291539667,-3.1151497898519036
1684253081623221000,9.915220947265626,-5.167722955405712,-2.530003630787134,-1.9385484347060322
1684253081633247000,9.9252470703125,-0.744601684744656,-2.154677449244261,-0.1871804948862642
1684253081643272000,9.93527197265625,4.931155256211757,-0.3045440878331661,1.579630074867606
1684253081653298000,9.9452978515625,4.4296118017241355,1.5089637164920569,2.2017209399700164
1684253081663324000,9.955323974609374,0.5172711849734187,2.141822643846273,1.7065218860730529
1684253081673350000,9.965349853515624,-2.473327511580288,1.6070751311540603,-0.002084478123858571
1684253081683375900,9.9753759765625,-4.214283582174778,0.15384674588739872,-2.025263426084816
1684253081693400800,9.98540087890625,-4.49277172999233,-1.9468582901507614,-3.5742099011361597
1684253081703426800,9.9954267578125,-3.7146024144276972,-4.051964776018262,-3.976419997951388
1684253081713452800,10.005452880859375,-3.092210812813043,-5.743201706936955,-3.7531186075657605
1684253081723478800,10.015478759765625,-2.9400840225860474,-6.943297042655945,-3.5827076803684235
1684253081733503700,10.025503662109376,-2.948503475885093,-7.618155621349811,-3.26424554181993
1684253081743529700,10.03552978515625,-2.387733633185923,-7.995400788256526,-2.667922447441518
1684253081753556000,10.045555908203125,-1.8291200917378068,-8.145905237978697,-2.0903391248464582
1684253081763582000,10.05558203125,-1.212804010644555,-8.258202998903393,-1.9166795711167155
1684253081773607000,10.06560693359375,-0.8018193634822964,-8.233998531973361,-3.030953503295779
1684253081783633000,10.0756328125,-1.5201751385971902,-7.753484713771939,-5.383716068604588
1684253081793659000,10.085658935546874,-3.186821233616769,-7.213925416883826,-6.564772941854596
1684253081803684900,10.095684814453126,-4.565928736139834,-6.882027458178997,-6.020856618800759
1684253081813710800,10.1057109375,-5.042468097752332,-6.6280281471908085,-4.775070083747804
1684253081823735300,10.1157353515625,-5.145068056005239,-6.425068703088164,-3.907869901077449
1684253081833761300,10.12576123046875,-5.1514241470336914,-6.124540865159035,-3.396423184473812
1684253081843787500,10.13578759765625,-4.640705452443659,-5.7320946219891304,-3.514549797682464
1684253081853813500,10.1458134765625,-3.4554037812307477,-5.408720746001601,-3.897478855444491
1684253081863838200,10.155838134765625,-1.8174553729072211,-5.222586179971695,-4.162092791688442
1684253081873864400,10.165864501953125,0.2255855558000505,-4.8345016391426325,-3.8736780008792877
1684253081883890400,10.175890380859375,2.7538158933043477,-2.814782695442438,-2.2050065375119448
1684253081893916400,10.18591650390625,5.616089823240041,0.8346826454252004,-0.22296455964669584
1684253081903942400,10.1959423828125,9.674396077239512,4.937124978271126,0.4860673606753349
1684253081913967400,10.20596728515625,14.462461543899774,9.658414664253591,1.3187208383604883
1684253081923993300,10.215993408203126,12.91011052110195,14.4775924775362,2.8365052824288606
1684253081934019300,10.226019287109375,5.358957474923134,18.340531642258167,4.3415474415630095
1684253081944045300,10.23604541015625,0.49002018995434043,19.559035325849056,4.329055331997573
1684253081954070300,10.2460703125,-1.970617351400852,17.322520135873557,3.363707786568999
1684253081964096300,10.25609619140625,-3.1864439247369765,13.128492575263977,1.685098282033205
1684253081974122200,10.266122314453124,-2.8698984334647655,9.471304531189798,-0.27152181593626734
1684253081984148200,10.276148193359376,-0.740930448886007,6.31873248091638,-1.4390370705679059
1684253081994174200,10.28617431640625,2.351873653645068,2.4455799652159214,-2.218885425260663
1684253082004199200,10.29619921875,2.9381998162746426,0.5597095199912786,-0.7013388816013931
1684253082014225200,10.30622509765625,6.431687244445085,1.5319512088477611,2.1671184131443497
1684253082024251100,10.316251220703125,8.315048337197304,2.5349171217918394,3.1347046774104235
1684253082034277000,10.326277099609374,5.335282000303268,3.394195279291272,3.1372675136357544
1684253082044302300,10.33630224609375,3.0839877588689326,3.817791863006353,3.3193981047213077
1684253082054328300,10.346328369140625,1.4925076717317103,3.718005208608508,2.765137497785687
1684253082064354300,10.356354248046875,0.2784533687651157,2.6185925993442534,1.896498222222924
1684253082074380300,10.36638037109375,-0.6197324654079973,0.7683487632960081,1.163843872642517
1684253082084405500,10.376405517578124,-1.5089713152766226,-1.3952075734525917,0.8807219275444745
1684253082094431500,10.386431396484374,-1.4984662878751753,-2.7411995728373526,0.37486557829380035
1684253082104457500,10.39645751953125,-1.6882419868864118,-2.80860605263412,-0.7005415937438607
1684253082114483500,10.4064833984375,-1.99260940297842,-2.8522967258006333,-1.2663567371338604
1684253082124509400,10.416509521484375,-1.8235377615608275,-3.2542046247988936,-0.8074372033640742
1684253082134534400,10.426534423828125,-1.7502341865494846,-3.4116672230958938,-0.24478812278956175
1684253082144560400,10.436560302734375,-2.3412679423481224,-3.0584248630672692,0.10205167672038078
1684253082154586400,10.44658642578125,-3.142259038312733,-2.6779145568847653,0.4646595387265086
1684253082164612400,10.4566123046875,-3.8043583809375763,-2.8165146338015794,1.0344035459980367
1684253082174637300,10.46663720703125,-5.115024799919128,-3.217691295915842,1.49427994210124
1684253082184663300,10.476663330078125,-7.119764201152324,-3.71152929059267,1.4678636443406343
1684253082194689300,10.486689208984375,-7.336592596131562,-4.232722909706831,2.247686280070245
1684253082204715300,10.49671533203125,-6.831370453131198,-4.610941890081763,2.032908387880027
1684253082214741200,10.5067412109375,-7.577004695793986,-4.925615157741308,1.6736974748358129
1684253082224766200,10.51676611328125,-8.33959825656414,-5.233301635253429,1.1442959993466735
1684253082234792200,10.526792236328125,-7.8452429600149385,-5.328152586814761,0.6131015029609203
1684253082244818200,10.536818115234375,-6.951328373420238,-5.091284443369507,0.3410086091384291
1684253082254844400,10.546844482421875,-6.1275605052411555,-4.220529783087969,0.26053601928055287
1684253082264869000,10.556869140625,-5.337065961110592,-2.7176830881714817,0.5264402875959873
1684253082274895400,10.566895263671874,-4.763577798874676,-1.00037063575387,0.5496759094938636
1684253082284921300,10.57692138671875,-4.169611496755481,0.9471697914421557,-0.4584972167044878
1684253082294947300,10.586947265625,-3.8243373391270636,3.224790898787975,-2.5542814552143214
1684253082304973300,10.596973388671875,-3.648132338698208,5.698662307986616,-5.548263072204589
1684253082314998300,10.606998291015625,-3.2330583763957024,7.911675626343488,-8.275414830467104
1684253082325024300,10.617024169921875,-2.1349404831171035,9.141953334358334,-9.860423675763606
1684253082335050200,10.62705029296875,0.582605534671247,11.668263371324539,-11.015728852641582
1684253082345076200,10.637076171875,3.0836072351187465,9.50755716331005,-9.575843933072685
1684253082355101400,10.647101318359375,3.2094097897827623,4.518586262467504,-5.156818699553608
1684253082365127400,10.65712744140625,2.99598272767961,1.5913018079608678,-1.7440946608811616
1684253082375153400,10.6671533203125,2.1269509456679225,-1.4339134439438581,0.9909054727941751
1684253082385179400,10.677179443359375,0.3674745912596583,-4.331750270169973,2.5673227230951188
1684253082395205400,10.687205322265624,-1.7204536730527877,-7.341187522706389,3.4132495238512752
1684253082405230300,10.697230224609376,-2.3907763618826863,-8.78074511001706,3.266014012797177
1684253082415256300,10.70725634765625,-0.7638825776673853,-7.684851907050609,2.312829491110146
1684253082425282300,10.7172822265625,1.3497240255199372,-6.251689573734998,0.934810076084733
1684253082435308300,10.727308349609375,3.012605945700407,-4.985189044216275,-0.29430589467436075
1684253082445333200,10.737333251953125,4.032614178860188,-4.406471456894279,-0.8623720318615437
1684253082455359200,10.747359130859374,4.59145919097662,-4.084743594548106,-1.349026252514124
1684253082465385200,10.75738525390625,4.837924014806747,-3.3041835844546554,-1.6772601357534527
1684253082475411500,10.767411376953126,4.899487029272318,-2.151084977710247,-2.1903855992242693
1684253082485436200,10.777436279296875,4.9825692171066995,-0.814285754084587,-2.728696065095067
1684253082495462400,10.78746240234375,4.851258128154278,0.9011720103770494,-2.7323782607391474
1684253082505488400,10.79748828125,4.062361082348227,2.8137726416170596,-2.422825404833257
1684253082515514400,10.807514404296874,2.949751137858629,4.497634075331687,-1.7462734662249684
1684253082525540400,10.817540283203124,1.509561682385206,5.632452344498038,-0.6726362264692783
1684253082535565300,10.8275654296875,0.2702875979661941,5.937310320585966,-0.17771745081841944
1684253082545591300,10.83759130859375,-1.0906371821343899,5.170801632198691,0.94727383633852
1684253082555617300,10.8476171875,-2.681625101840496,5.272161819523572,1.0130904165953396
1684253082565643300,10.857643310546875,-4.722299739807844,-4.234730157876014,2.621781166252494
1684253082575668200,10.867668212890624,-7.234986325091123,-15.563181728631257,7.590366281670332
1684253082585694200,10.877694091796876,-7.676542343866824,-5.617121504375338,18.931352339828013
1684253082595720200,10.88772021484375,-2.150845323735475,5.195772991847992,9.171636524960398
1684253082605746200,10.89774609375,-1.4097218364953994,10.365165341770648,3.7643168779283758
1684253082615772200,10.907772216796875,-2.8983307472229,10.379313109588622,-0.5790244613140821
1684253082625797400,10.91779736328125,-3.827872527515888,9.443563706827163,-3.612282734420895
1684253082635823400,10.9278232421875,-3.288762143439054,7.345790048065781,-4.060591150066256
1684253082645849300,10.937849365234374,-2.620311093699932,5.373274754089117,-3.0590029552161693
1684253082655875300,10.947875244140626,-2.1136212162345647,2.6530653623104095,-0.01969429602921009
1684253082665900300,10.957900390625,0.4670816147742793,-0.21105273418724535,0.4481026639401912
1684253082675926300,10.96792626953125,5.558934688344597,-0.9114332921504974,-1.3171908523142337
1684253082685952500,10.977952392578125,13.78464996061921,-0.622337533339858,-2.8539631977081297
1684253082695978500,10.987978515625,14.500568863976001,-0.0057160395592451094,-3.289614960876107
1684253082706004500,10.99800439453125,10.165160655820369,-0.28260522774755953,-1.6976573193550109
1684253082716029400,11.008029541015626,5.629834270954132,-1.3619751659363508,-0.3064940528571605
1684253082726055400,11.018055419921875,1.7700614613085983,-1.8588748862713573,-0.5108370602726936
1684253082736081400,11.028081298828125,-1.3834247812002896,-0.9151251324057579,-1.512952493867278
1684253082746107400,11.038107421875,-3.4443034182846546,-0.13382511759996413,-1.7836334750652312
1684253082756132400,11.04813232421875,-5.391624065250158,-0.34721360125839706,-1.0658984621971845
1684253082766158300,11.058158447265624,-7.989013717567921,-0.7721861495018005,0.008616437175869941
1684253082776184300,11.068184326171876,-10.210863253331183,-0.3835872294098139,0.8413555473178624
1684253082786210300,11.078210205078125,-11.472559597438574,0.26985154463648797,0.6986106256812811
1684253082796236300,11.088236328125,-11.475227355343103,0.5996411328852176,0.14953122077584266
1684253082806261200,11.09826123046875,-9.227486422476172,0.12607786447405814,-0.8270470359802246
1684253082816287200,11.108287353515625,-5.272921113458276,-0.6260521699488163,-1.6925988669216632
1684253082826313500,11.1183134765625,-2.8259342040538784,-1.1152315251648426,-2.056875831183791
1684253082836339500,11.12833935546875,-1.8899884019374846,-1.694188181939721,-2.5444249548494815
1684253082846364400,11.138364501953125,1.009762733477354,-1.7016063492417335,-3.1267905432850123
1684253082856390400,11.148390380859375,4.835184360709786,-1.0826982058286667,-1.4596569570094347
1684253082866416400,11.15841650390625,6.878447846126556,-1.3299813603043555,1.9750661475032567
1684253082876442400,11.1684423828125,6.6803925406783815,-1.1968372107058762,3.451341061836481
1684253082886467600,11.178467529296874,4.8723301422774785,-0.7977367703437804,3.0526860271543264
1684253082896493300,11.188493408203126,1.7674591698557138,-0.32332886780202386,0.9203659556686877
1684253082906519300,11.198519287109375,-0.7692214544773102,0.36282501188814636,-1.2201023509591817
1684253082916545500,11.208545654296875,-2.1913386621654034,1.0966934134334325,-2.26284907014966
1684253082926571500,11.218571533203125,-2.3045056071400642,1.2003683074414728,-2.1130933929681777
1684253082936596700,11.2285966796875,-2.151416986143589,0.9858493584483862,-1.7395698769330978
1684253082946622700,11.238622802734374,-1.6190870559871195,0.3099088297367096,-1.0711597437262534
1684253082956648700,11.248648681640624,1.5674690969526768,-4.052112075534462,-1.1510060183793305
1684253082966674700,11.2586748046875,2.7760008371055123,-6.696829296216368,0.7452244928181171
1684253082976699600,11.26869970703125,1.043002082191035,0.26658348275125027,3.2011347133904695
1684253082986725600,11.2787255859375,2.5374609610557552,-0.7002209834873676,1.0234656801372766
1684253082996751600,11.288751708984375,2.300413953912258,-0.5044160873144865,0.6358861662209033
1684253083006777600,11.298777587890624,2.09020585385561,1.006913189265132,0.2531283733725548
1684253083016803600,11.308803466796874,2.2272949416875836,2.159540671366453,0.15365385366380213
1684253083026828500,11.31882861328125,1.6349031954087316,2.951802809691429,1.5024199939370155
1684253083036854500,11.3288544921875,1.1053003521285951,3.375453169420361,2.9104040468543766
1684253083046880500,11.338880615234375,1.4188637588500976,3.8483196877390142,3.930952962762117
1684253083056906500,11.348906494140625,1.3068531443037092,3.7021857081860303,4.673897235688567
1684253083066931500,11.358931396484374,1.0811199967265128,2.95014159848094,3.9028877287507053
1684253083076957400,11.36895751953125,1.538905850291252,2.734126273450255,3.4420296281337737
1684253083086983400,11.3789833984375,2.3614473915457723,3.4130162996172904,3.4036312161564823
1684253083097009400,11.389009521484375,2.8892414318382738,4.274358403909206,4.198362959465384
1684253083107035600,11.39903564453125,2.4047958271458745,3.829671685892343,6.514773523932695
1684253083117060400,11.409060302734375,1.1477785807654262,3.4173861852645873,7.841504942530393
1684253083127086600,11.419086669921874,0.21394494849741458,3.744959851029515,5.778964509713649
1684253083137112600,11.429112548828124,-0.5689551949813961,4.598156058266759,1.3517623994797467
1684253083147138600,11.439138671875,-1.9724740851834415,5.744691653233766,-3.056304509912431
1684253083157163500,11.44916357421875,-4.1676293830275535,4.657510749033094,-5.605753138142824
1684253083167189500,11.459189453125,-3.5962899232581256,2.564349552503228,-9.690843938693403
1684253083177215500,11.469215576171875,-0.5369175502076745,3.922869025027752,-11.041875685811043
1684253083187241500,11.479241455078125,1.3161574176132678,6.088533732232451,-9.133635003346205
1684253083197266700,11.4892666015625,0.7645601846680045,7.355221308755874,-7.309301269102096
1684253083207292700,11.499292724609376,-1.0004089219376444,7.7647712469398975,-5.944750699719786
1684253083217318700,11.509318603515625,-2.5906150436162947,7.451367560824751,-5.260451507985591
1684253083227344600,11.5193447265625,-3.6791523308619856,6.559295387226343,-4.780919102036953
1684253083237370400,11.529370361328125,-4.435096955136954,5.166281524425744,-3.687092476211488
1684253083247395600,11.5393955078125,-4.403547093880176,4.44531702811718,-2.7858970849588514
1684253083257421600,11.549421630859374,-3.277158214884996,4.667522439959645,-2.5644977288022637
1684253083267447600,11.559447509765626,-1.4759179175890982,5.704012436842918,-2.4797259804457426
1684253083277473500,11.5694736328125,-0.283695361071825,7.0970368210375305,-3.4243051708728074
1684253083287498500,11.57949853515625,0.2573312318898737,7.2821852986395355,-4.541174526372552
1684253083297524500,11.5895244140625,0.5379250467497855,6.188528476423024,-5.9274202102124685
1684253083307550500,11.599550537109375,0.38939679247140885,4.1865550327718255,-6.682015173444151
1684253083317576400,11.609576416015624,2.3225918834507464,3.9483682079434392,-8.209767761558293
1684253083327602700,11.619602783203124,6.151340024757385,2.0173872858822346,-10.996231540489196
1684253083337627400,11.62962744140625,8.757548943346738,0.0904611921697855,-11.52519813169241
1684253083347653600,11.639653564453125,6.158433782410621,0.8282096500188112,-9.126607881188392
1684253083357679600,11.6496796875,4.906946697628498,1.3167711655974388,-7.577317415004968
1684253083367705600,11.65970556640625,-0.9803799871265888,3.497026708212495,-7.184948913246393
1684253083377730600,11.66973046875,-2.4100796127676962,3.235140443366766,-5.791394367697834
1684253083387756500,11.679756591796876,-0.6563602144509554,2.234180609548092,-3.2824428772896526
1684253083397782500,11.689782470703125,0.7381881644405425,1.7191858450740576,-1.823455197843909
1684253083407808500,11.69980859375,0.2444213353037834,1.1869909394741058,-0.06488426784276961
1684253083417833500,11.70983349609375,-0.37293957866728306,0.9326830009281635,1.4119617243766784
1684253083427859500,11.719859375,1.4143239234633742,0.9560738133877515,1.7825404191315173
1684253083437885400,11.729885498046874,4.23320864739716,1.4670488208264112,0.8160802362859249
1684253083447911400,11.739911376953126,5.399442045524716,0.5037614227980375,0.60353463319242
1684253083457937400,11.7499375,5.7884384405016895,-0.6815805804252624,2.6705618560343978
1684253083467962600,11.759962646484375,6.897372911348938,-0.6053484046161175,4.726107315397262
1684253083477988600,11.769988525390625,5.9527650793492795,-0.7792857523739337,5.507834615704417
1684253083488014300,11.780014404296875,4.519791546604037,-0.957115431395173,5.7219186804115765
1684253083498040300,11.790040283203124,4.329380326168239,-0.9295324279427528,6.20772885145545
1684253083508065500,11.8000654296875,4.357489107060432,-0.872194337695837,6.369825539293885
1684253083518091500,11.810091552734375,3.9134234435513613,-1.5076117173612116,7.068509230211377
1684253083528117500,11.820117431640625,3.587183656738698,-2.3929724106222388,7.580042456054687
1684253083538143700,11.830143798828125,2.82039293653965,-2.6533815886527297,7.829197249621153
1684253083548169700,11.840169677734375,1.6240975776255129,-2.9611311945289374,7.051656295087933
1684253083558194700,11.850194580078124,0.8675199161440134,-2.946818007016182,6.138526720413565
1684253083568220700,11.860220703125,0.842751385590434,-3.0331273402035235,6.0219222022056575
1684253083578246700,11.87024658203125,1.4654612593740224,-2.89512347561419,8.458532679024339
1684253083588272600,11.880272705078125,1.1405544747307896,-2.291673013573885,9.5599852696836
1684253083598297600,11.890297607421875,-0.21190759745091198,-1.486292450478673,7.405967161130905
1684253083608323600,11.900323486328125,-1.9992589239954948,-0.03868278187662363,5.064513925343752
1684253083618349600,11.910349609375,-3.098884299227595,2.49620803643018,2.510699210858345
1684253083628375600,11.92037548828125,-4.068252186213433,2.086237242485583,-0.19472586876451967
1684253083638401500,11.930401611328126,-4.202686083361506,2.201336616827547,-1.8959505252122877
1684253083648426500,11.940426513671875,-3.9647324827671047,3.2235008589774368,-3.326450361320376
1684253083658452500,11.950452392578125,-3.8951530428454277,3.339142085111141,-4.491189721497893
1684253083668478500,11.960478515625,-4.087702736614644,2.575647483848035,-5.222086998277902
1684253083678504400,11.97050439453125,-3.8510298234805465,2.5371432734087107,-5.797783776473999
1684253083688529400,11.980529296875,-3.0715427033156155,2.5538468631893396,-5.929447916647791
1684253083698555400,11.990555419921876,-2.016695796486735,2.2148718057051298,-5.780175054547191
1684253083708581400,12.000581298828125,-1.4913523642167448,2.1527637245774267,-5.789222868877649
1684253083718607400,12.010607421875,-1.5042974782466887,2.250338255883753,-6.04323445482552
1684253083728633300,12.02063330078125,-1.0553542718291282,2.267749701672792,-6.290046484658122
1684253083738658300,12.030658203125,-0.21095161190032957,2.296402672444284,-6.437919416832924
1684253083748684300,12.040684326171874,1.284472824060917,2.6134035062685608,-5.914147471663355
1684253083758710500,12.05071044921875,2.6931892829060553,3.1302567580908534,-5.530267981308699
1684253083768736500,12.060736572265625,3.7170419165343045,3.210534409898519,-5.497625940901041
1684253083778761700,12.07076171875,4.601833285474777,4.019470035126805,-5.293756980738044
1684253083788787700,12.08078759765625,4.593855730724335,3.688899817894399,-4.60386040738821
1684253083798813700,12.090813720703125,4.968760471984743,1.5233379865422845,-5.079527370080352
1684253083808839700,12.100839599609374,4.927704238975048,-2.5129881985783578,-7.343825469994544
1684253083818863900,12.11086376953125,4.672279279097914,-2.2962258545726537,-6.6236985935539
1684253083828889900,12.120889892578125,4.995955937424302,0.49341012465357775,-4.4314422320216895
1684253083838915800,12.130915771484375,3.6991526241004467,1.0787690496861935,-3.397534068325162
1684253083848941800,12.14094189453125,1.3087614621430634,0.4418251911059022,-3.4836136844098564
1684253083858967800,12.1509677734375,-0.9871230316460132,0.7814177959665656,-2.5547809291690586
1684253083868992800,12.16099267578125,-3.209751150566339,1.207154168189317,-1.2562846943221986
1684253083879018800,12.171018798828126,-3.951419412207603,1.5490778463460504,-0.6171398185662925
1684253083889045000,12.181044921875,-3.068833444356918,2.2598136479765176,0.09715177584961056
1684253083899071000,12.191071044921875,-1.517199045395851,2.8358664000034333,0.8982887830909341
1684253083909096000,12.201095947265625,-1.4103747474461794,2.3728395770452915,1.56831592304036
1684253083919122000,12.211121826171874,-2.2993577228575943,1.148364271698892,1.7487828186973928
1684253083929148000,12.22114794921875,-2.0433792207509276,0.5281698878675699,2.091404708251357
1684253083939174000,12.231173828125,-0.9673124157607554,0.4391451582416892,2.2388505010552704
1684253083949200000,12.241199951171875,0.6017354748159647,0.732950994439423,1.9754130612447858
1684253083959224800,12.251224853515625,1.3291308809548616,1.2862857187017798,1.4751530706964433
1684253083969250800,12.261250732421875,1.421483001437783,1.8385349858149884,1.2199956026490777
1684253083979276800,12.27127685546875,0.9557330371260643,1.997551827816665,1.506807415241003
1684253083989302800,12.281302734375,0.015896072790026663,1.8088520874738692,1.7909956743963062
1684253083999328000,12.291327880859376,-0.6877537161022425,1.8406132533937691,2.0863199523329734
1684253084009354000,12.30135400390625,-0.3384843513578176,2.5070915417551993,2.3913268353722987
1684253084019380000,12.3113798828125,0.019847440764307975,3.1123519758269187,2.28559252461642
1684253084029406000,12.321406005859375,-0.14892214896678924,3.0223274215087295,1.5130350575841962
1684253084039432000,12.331431884765625,-0.31046237196624277,2.5291210027337074,1.0987581639435142
1684253084049457000,12.341456787109376,-0.30119068575203417,1.7679615664198993,1.4831800175465641
1684253084059483000,12.35148291015625,-0.03299450710713863,0.929086145479977,1.9497858680352567
1684253084069508900,12.3615087890625,0.3422492568492889,0.3339724268913269,2.074182939815521
1684253084079535000,12.37153515625,1.0336083039671182,0.45452422142028803,1.9968290665000676
1684253084089559800,12.381559814453125,1.6657202123463153,0.8731593833357095,1.5213590876847505
1684253084099586000,12.3915859375,1.5182558609724044,0.9065522421106695,0.5539433576799929
1684253084109612000,12.401612060546874,0.25072540388405323,0.8277543074667453,-0.42481355828940864
1684253084119638000,12.411637939453126,-0.8113432708919048,1.197735036328435,-0.9023100744962692
1684253084129664000,12.4216640625,-1.1253735644727945,1.61021839761585,-0.9655813541844487
1684253084139689000,12.43168896484375,-0.9521814821243285,1.52470752132982,-0.7710013236314058
1684253084149715000,12.44171484375,-0.7146896538227796,1.283968966192007,-0.29865269170701503
1684253084159741000,12.451740966796875,-0.7815946138381957,1.0558391327366232,0.08638765912055969
1684253084169767000,12.461766845703124,-0.9659522333234548,0.931837197753787,0.0809255943223834
1684253084179792000,12.4717919921875,-1.1357388911426067,0.8559902218699454,0.07419482476264237
1684253084189817900,12.48181787109375,-0.31635844426751136,-0.4050912052094936,0.6634568947136402
1684253084199843800,12.49184375,0.3609071955680847,-1.0307502841874956,0.6230839677929878
1684253084209869800,12.501869873046875,0.5107271701574325,-1.1912231702163816,0.2637999895125627
1684253084219894800,12.511894775390624,0.3431260396838188,-1.0791825989231467,0.17088029827475545
1684253084229920800,12.521920654296874,0.5254121135920286,-0.6093444885149598,0.1518517726778984
1684253084239946800,12.53194677734375,0.32224457969665526,-0.11817951243966818,0.22854352882280946
1684253084249972700,12.54197265625,-0.2849427307844162,0.22455518983900546,0.3015343846231699
1684253084259998700,12.551998779296875,-0.5057926363646984,0.4588058442622423,0.42444618628174063
1684253084270024000,12.56202392578125,-0.799923466733098,0.3930214127093553,0.6857816853769123
1684253084280050000,12.5720498046875,-1.1879723517268896,0.08529986388385295,0.9589353402987122
1684253084290076000,12.582075927734374,-1.2920657634079455,-0.2543535312533379,1.128106496568024
1684253084300102000,12.592101806640626,-1.2221937702804804,-0.713566202750802,1.2115285838812588
1684253084310126800,12.602126953125,-0.945638344091177,-1.1624188082754612,1.1484889209918676
1684253084320153000,12.612153076171875,-0.26487609431147574,-1.2085340782403946,1.0404172533296048
1684253084330179000,12.622178955078125,0.5463046794950962,-1.135342877562344,1.0617749525263904
1684253084340205000,12.632205078125,1.040557684713602,-0.9986927656695246,1.1417992140948772
1684253084350231000,12.64223095703125,1.2804653419852257,-0.7460586055546998,1.1432051353700459
1684253084360256000,12.652256103515626,1.3215057929039,-0.49851709240376946,0.99711148782745
1684253084370282000,12.662281982421876,0.7903332160890102,-0.30324820280373094,0.844271434764564
1684253084380308000,12.672307861328125,0.1272387249469757,-0.13272212479412554,0.8998132892444729
1684253084390334000,12.682333984375,-0.08321604334712028,-0.001866378393769264,1.068852489697188
1684253084400359000,12.69235888671875,-0.30045126556158064,-0.013482581907510756,1.274075056426227
1684253084410385000,12.702385009765624,-0.5980301905572414,0.09681845224201678,1.38295774821043
1684253084420411000,12.712410888671876,-0.7569657840162515,0.28316227710843084,1.4786867977805436
