time,seconds_elapsed,z,y,x
1684252538022597600,0.01959765625,-1.756805673894286,1.7285756047099827,2.4023709380865097
1684252538032623600,0.02962353515625,-1.9620108510971068,1.7055325827747583,2.763638491399586
1684252538042649600,0.039649658203125,-1.8458201743870972,0.9897276611864566,2.262977518834919
1684252538052675600,0.049675537109375,-0.9331798445343971,0.12673545159995556,1.0149942774552851
1684252538062701600,0.05970166015625,0.6205185012191534,0.17100421691536902,0.45465464286692436
1684252538072727600,0.0697275390625,1.8917355378657579,0.8134995721429585,0.6264552708569914
1684252538082753500,0.07975341796875,2.4071675247132776,1.5351082115739583,0.2605067201208323
1684252538092779500,0.089779541015625,2.2632360236406326,2.5039877305209637,-0.09237897195722908
1684252538102805500,0.099805419921875,0.9556114565730094,3.724392863819003,-0.2238557180664502
1684252538112831500,0.10983154296875,-0.6296499021798372,4.820454993611574,0.32206425469368694
1684252538122857500,0.119857421875,-1.6956185070037841,5.168759897238016,0.9840095758005976
1684252538132883500,0.129883544921875,-1.5378081181824206,4.669685755473375,1.1249030243515967
1684252538142909400,0.139909423828125,0.996097780740261,3.2118864090293644,1.187342748586461
1684252538152935400,0.149935302734375,3.9163738177895544,2.5663521244972944,0.5615937263026833
1684252538162961400,0.15996142578125,5.111920988684893,2.439101124590635,0.44495932441316544
1684252538172986600,0.169986572265625,4.305745475819706,2.014674519792199,0.46843785168882457
1684252538183012600,0.1800126953125,2.0597657074064015,-0.5031207868069411,-1.0154366874605416
1684252538193038300,0.190038330078125,0.17816577910780906,-2.5277128895014522,-3.0194845992982384
1684252538203064300,0.200064208984375,-0.6749427498459816,-2.1397733101010323,-4.404546334050596
1684252538213090600,0.210090576171875,-7.929103731006383,-7.577675142401456,-16.379521492636204
1684252538223116500,0.220116455078125,-1.2646470106065273,-3.440311133778095,-9.852218157476186
1684252538233142500,0.230142578125,2.831325833964348,3.046158671212196,1.301340518362075
1684252538243168500,0.24016845703125,1.8163976805478332,4.319547791200876,4.73949257441014
1684252538253194500,0.250194580078125,0.8582786250680684,5.3632507882028815,2.358305878649652
1684252538263220500,0.260220458984375,0.06528524985909462,5.993436696955562,1.005153632246703
1684252538273246500,0.27024658203125,0.17198036847114562,6.348097691610455,4.1641468016088
1684252538283272400,0.2802724609375,2.225690429100394,6.793335029247403,4.184277735489607
1684252538293298400,0.29029833984375,5.481539313974976,6.607421412491798,0.3050181350857019
1684252538303324000,0.300323974609375,6.272670402443409,6.018809623143077,-3.091402419039607
1684252538313350000,0.310349853515625,5.878264841899275,5.331151768630742,-6.439466061753034
1684252538323375900,0.3203759765625,7.553178414526581,5.1418888414472335,-9.516757537853717
1684252538333401900,0.33040185546875,9.889552739614247,6.363350790321826,-10.566687446546554
1684252538343427800,0.340427734375,8.252226262581347,9.806226806151866,-6.422600267148018
1684252538353453800,0.350453857421875,8.041768571677803,11.51642796525955,-4.37321566850245
1684252538363479800,0.360479736328125,6.574501139664649,11.137028835189343,-4.2438948765844104
1684252538373505800,0.370505859375,4.856123103842139,11.518118402564525,-4.280322865271568
1684252538383532000,0.380531982421875,3.202415400850773,12.735089469760656,-3.8636388374239203
1684252538393558000,0.39055810546875,1.267951166718453,13.485233298802376,-3.571700548663735
1684252538403584000,0.400583984375,-0.1048000986456871,13.648978922891615,-2.068634658038616
1684252538413610000,0.41060986328125,-0.5541068776786328,12.840126884293555,0.5239800349622965
1684252538423636000,0.420635986328125,-0.380515603412129,11.541162593543529,2.6117367421001196
1684252538433662000,0.430661865234375,0.5403062427978962,10.30244146683216,3.2786382243096828
1684252538443688000,0.44068798828125,2.275818441838026,8.878288953924178,2.850077296185493
1684252538453714000,0.4507138671875,3.8690076709806918,7.960741562807559,2.7404408634245394
1684252538463740000,0.460739990234375,3.8345933602035043,8.381481003525852,3.9675609841912984
1684252538473764900,0.470764892578125,2.515138070088625,9.127331519287823,6.30732086006403
1684252538483790800,0.480790771484375,0.14129764543771742,9.003610447072981,10.031045615363121
1684252538493816800,0.49081689453125,-3.282119636684656,7.961026809489726,14.448969609642027
1684252538503842800,0.5008427734375,-5.165274977731705,6.270194367718696,16.50871836591363
1684252538513869000,0.510869140625,-4.47263875028491,4.333467595481872,16.774845337069035
1684252538523895000,0.52089501953125,-2.7756033622205254,2.6590947056025267,17.120370254588128
1684252538533921000,0.530921142578125,-1.6803329673275351,1.6480483620554207,17.65623420408964
1684252538543947000,0.540947021484375,-0.19332476979494093,1.0924673201709985,18.082423142385483
1684252538553973000,0.550972900390625,1.201538374134153,1.1921616201102734,17.48741259191036
1684252538563999000,0.5609990234375,1.8336767321288585,1.6663818911254404,16.281797615987063
1684252538574025000,0.57102490234375,2.4368707351900634,1.726842497307062,15.696996324837206
1684252538584051000,0.581051025390625,0.9899452494598925,1.5863175898075104,15.776175660014152
1684252538594077000,0.591076904296875,0.3733680332124233,0.1573410177439451,16.5350347104311
1684252538604103000,0.60110302734375,1.7676105610251425,-2.026668908968568,15.730847156512736
1684252538614129000,0.61112890625,0.8462789751946925,-3.2364222998708483,14.983622429788111
1684252538624155100,0.621155029296875,4.0587539977669715,-4.7215094662129875,13.587384344244002
1684252538634181000,0.63118115234375,6.41923809723854,-6.09245236698091,12.202724468290805
1684252538644207000,0.64120703125,7.812373540592193,-6.913001857635378,11.621603326958418
1684252538654233000,0.651233154296875,8.946196368980408,-7.3069456458866595,9.511270630875229
1684252538664259000,0.661259033203125,9.171203394240141,-6.963944693887234,7.265719317007064
1684252538674285000,0.67128515625,7.2321969866335385,-6.118113462460041,5.225605235531926
1684252538684311000,0.68131103515625,5.745909796851873,-4.722279281541705,3.8987224257647988
1684252538694336800,0.691336669921875,3.4207670598745343,-2.6386691726893186,3.2665175784051415
1684252538704362800,0.70136279296875,1.2569102788746356,0.03576864799559116,2.007742674702406
1684252538714388700,0.711388671875,0.9086392044525593,1.9347417358994483,0.049535892063379286
1684252538724414700,0.721414794921875,0.667014367999509,2.4384610731214282,-1.902255762836337
1684252538734441000,0.73144091796875,0.5638837369360029,2.449496846398711,-3.7103152386277913
1684252538744467000,0.741467041015625,-0.1604044969677925,1.684861550667882,-3.9943957996249195
1684252538754493000,0.751492919921875,-0.6792145088810473,0.04044423859119415,-2.991405921283364
1684252538764519000,0.761518798828125,-0.6231948808215558,-1.2990648285150528,-2.028033767580986
1684252538774544100,0.771544189453125,-1.9442577522635458,-1.6792150692135095,-1.6759043372303246
1684252538784569900,0.78156982421875,-3.117700643378496,-0.9492384144097566,-1.7804951770395039
1684252538794595800,0.791595947265625,-2.7284207552850246,0.18338146792948246,-3.797236566233635
1684252538804621800,0.801621826171875,-1.8199029121898114,2.651107798501849,-6.2561623352348805
1684252538814647800,0.811647705078125,-0.3834381763279438,5.524254420107603,-8.548076171827315
1684252538824673800,0.821673828125,1.492174494254589,7.649239326399564,-9.998320572847128
1684252538834699800,0.83169970703125,0.9069594346720725,7.444069805032014,-9.566010521322488
1684252538844725800,0.841725830078125,1.225277123248577,4.612427160203457,-7.391543498980998
1684252538854751700,0.851751708984375,3.9107074625909326,1.5501742632806301,-4.55044562806487
1684252538864778000,0.861778076171875,4.528225612950325,-1.3440753521084785,-2.4245827698945996
1684252538874804000,0.871803955078125,3.802441733661294,-2.919726001951098,-1.336675889506936
1684252538884830000,0.881829833984375,3.79485756214261,-4.144758795049786,-1.3330191205650568
1684252538894856000,0.89185595703125,2.057425866281986,-3.7774662823587652,-2.8983623114049433
1684252538904882000,0.9018818359375,-1.2984867363661527,-3.5481016464114186,-3.1170863108724354
1684252538914908000,0.911907958984375,-1.9465116686701773,-4.429156166911125,-1.0095002831488846
1684252538924934000,0.921933837890625,-1.2638538144022227,-5.89397795933783,2.1005477996498345
1684252538934959900,0.9319599609375,-1.4873874061085284,-7.0341767524987455,5.301290298852324
1684252538944985900,0.94198583984375,-1.9623352607458828,-8.332625494942068,7.619061045756935
1684252538955011800,0.95201171875,-1.288179861885309,-8.886293396681546,8.36265004632771
1684252538965037800,0.962037841796875,-1.0878677174210547,-8.36283533976674,8.692575243654847
1684252538975064000,0.97206396484375,-0.5620275876753031,-8.342214576542377,8.201302715551853
1684252538985090000,0.982090087890625,0.36715281195938587,-8.2741002407372,7.016875489085912
1684252538995116000,0.992115966796875,1.2504413751214742,-7.343456636682152,5.255397147205471
1684252539005142000,1.00214208984375,2.5701450870394704,-5.629108294767141,3.5162218225479123
1684252539015168000,1.01216796875,3.8254935234248637,-3.414566451668739,1.9486913507968187
1684252539025194000,1.022194091796875,2.9789485907703637,-1.106185464400053,1.200215162706375
1684252539035220000,1.032219970703125,-0.1296205055169761,-0.615703794413805,0.5507657505571842
1684252539045246000,1.042245849609375,-5.173891999429464,-1.775213437244296,0.34620822360813613
1684252539055272000,1.05227197265625,-5.252026209467649,-1.7476561527550218,0.8470610654830932
1684252539065297000,1.062296875,-3.506592993459105,-1.4168500809401272,1.437022515875101
1684252539075323000,1.072322998046875,-2.006737297052145,-0.4775637362241745,-0.40351650323867794
1684252539085348900,1.082348876953125,-0.8115636356443167,0.1887432872235775,-2.592261057257652
1684252539095374800,1.092374755859375,2.015312233173847,-1.857864832445979,-2.671121243482828
1684252539105401000,1.102401123046875,3.4225463445067406,0.935440190681815,-3.8206133501678705
1684252539115427000,1.112427001953125,2.9490719234228133,4.534087198460102,-4.389783941465616
1684252539125453000,1.122453125,1.6226713442146776,3.3771833542138334,-3.061189067083597
1684252539135479000,1.13247900390625,-0.7849111910402774,2.0996131491482255,-0.26605975113809105
1684252539145505000,1.142505126953125,-3.200426857382059,5.2168362381428475,0.4715016597062349
1684252539155531000,1.152531005859375,-4.6808770115733145,9.226619576513766,-1.4603040227413178
1684252539165557000,1.162556884765625,-4.870493574500084,11.256918950939177,-4.839963996201753
1684252539175583000,1.1725830078125,-2.603721193426847,10.909397306644916,-6.547509672364592
1684252539185609000,1.18260888671875,-0.8027461960036307,10.961301681405304,-5.507404407593608
1684252539195635000,1.192635009765625,-0.18395608947966247,10.272324560987949,-2.2717940086275337
1684252539205661000,1.202660888671875,1.0265630616307257,8.385382687139511,0.18912907167077064
1684252539215687000,1.21268701171875,2.099369988042116,5.356032527387142,1.2802362094044684
1684252539225713000,1.222712890625,2.744613765195012,0.23187574198544025,2.2975486276090145
1684252539235739000,1.23273876953125,1.967128340241313,-5.507153647702932,3.2763615115493536
1684252539245764900,1.242764892578125,2.392017886376381,-5.527208593738079,2.759731254827976
1684252539255790800,1.252790771484375,4.327202689868211,-1.764676261138916,2.7483757480770348
1684252539265816800,1.26281689453125,4.7399511318325995,3.4091315671384335,0.5953758766561746
1684252539275842800,1.2728427734375,4.149909017419815,5.299915503367782,-1.6620850707143544
1684252539285868800,1.282868896484375,2.870052162721753,4.258789663377404,-3.624924189329147
1684252539295894800,1.292894775390625,2.3882827915012834,3.2883769435137506,-6.967526059505343
1684252539305921500,1.302921630859375,1.3309563428163527,0.45567046884596346,-8.07070415878296
1684252539315947500,1.312947509765625,0.466225144075416,-2.542603584641218,-7.13273415736258
1684252539325973500,1.322973388671875,-0.6415432421345263,-3.6637937259495255,-5.734067383366823
1684252539335999500,1.33299951171875,-2.1738404148757455,-4.0367391498357055,-4.284975951774418
1684252539346024400,1.3430244140625,-2.8711165770828724,-3.744533150050044,-3.3375834574922916
1684252539356050400,1.353050537109375,-2.609610835987329,-1.7846692478537558,-3.0846278103381395
1684252539366076400,1.363076416015625,-1.3444285494603216,-0.33567806176543236,-0.211292095901072
1684252539376102400,1.373102294921875,-0.850854904808104,1.1052443841576576,3.924263694256544
1684252539386128600,1.383128662109375,-0.1680064964041114,1.189211538133025,5.247260602501035
1684252539396154600,1.393154541015625,0.6547299829006195,1.051699256452918,6.040593584927916
1684252539406180600,1.4031806640625,1.0927532975055276,0.8908610442429781,5.981124327871203
1684252539416206600,1.41320654296875,0.6045277358829975,-0.01592763697206974,5.072293327173591
1684252539426232600,1.423232666015625,0.46530879641547795,-0.12087211252450943,4.97344833754003
1684252539436258600,1.433258544921875,-0.03665186057090759,-0.025258359897136685,4.637710654541849
1684252539446284500,1.443284423828125,-0.055110038933902976,-0.4050304149329662,4.0316301362589
1684252539456310500,1.453310546875,0.9670132866837083,1.730822506853938,4.271166037608683
1684252539466336500,1.46333642578125,1.5114065795995295,2.2768618134111165,3.945146031026542
1684252539476362500,1.473362548828125,1.6500119172133505,2.64495102943778,3.3391233804106712
1684252539486388500,1.483388427734375,1.3116637594558298,3.6449908258020876,2.406795476530492
1684252539496414700,1.493414794921875,0.5340273817241191,3.664408058455586,1.229209640391916
1684252539506440700,1.503440673828125,-0.7276873748227953,3.787487910157442,1.2242454421132802
1684252539516466700,1.513466796875,-1.1055538884982465,3.894797945797443,0.9822557909358293
1684252539526492700,1.52349267578125,-0.27091625125855207,2.6263673249989745,-0.046705783203989264
1684252539536518700,1.5335185546875,0.3846729788199067,1.5877888314038515,-0.38261743452958763
1684252539546544600,1.543544677734375,0.5913057046078145,1.0401911894887685,-0.06630027212053537
1684252539556570600,1.553570556640625,0.35257337472587824,0.30843232744336124,0.6782530434377491
1684252539566596600,1.5635966796875,-0.029919629706442356,-0.4074100035458803,1.4739217753358185
1684252539576622600,1.57362255859375,-0.336103885962069,-0.47821197099983687,2.198087405773252
1684252539586648600,1.583648681640625,-0.4681754378929734,-0.305079509884119,2.423923721463978
1684252539596674600,1.593674560546875,-0.5931202066838741,-0.43784196668863296,2.5377035376399752
1684252539606700500,1.603700439453125,-0.9709887661859392,-0.8686240779936313,2.6947815205335615
1684252539616726500,1.6137265625,-1.3091586447671055,-1.4704127443015576,2.7433298628643152
1684252539626751700,1.623751708984375,-1.5216846663773058,-2.139519627600908,2.7284201707631346
1684252539636777700,1.63377783203125,-1.9602965945251285,-2.7048639386087654,2.993582973061502
1684252539646803700,1.6438037109375,-2.1845102774500846,-2.840678184199333,3.430003674775362
1684252539656829700,1.65382958984375,-2.043059341146797,-1.8626538202881813,3.553804241967201
1684252539666855700,1.663855712890625,-1.9351110076032578,-0.2441600540190935,3.417842989121377
1684252539676881700,1.673881591796875,-1.8813924230277537,1.4903238979518412,3.2789944904014465
1684252539686907600,1.68390771484375,-1.9207506199479103,3.4465485668629405,2.6434865098431706
1684252539696933600,1.69393359375,-2.0839456244170664,5.351147677955031,1.904648503191769
1684252539706959400,1.70395947265625,-1.8386802395045756,6.285044730848074,2.1296341934025285
1684252539716985300,1.7139853515625,-1.7097428939461707,6.8063470710337155,1.2132134682282805
1684252539727011300,1.72401123046875,-1.4867594834685325,6.826055980110168,-0.2892266917139292
1684252539737037600,1.73403759765625,-1.4624655846893786,5.942606088906526,-1.4346066869050262
1684252539747063600,1.7440634765625,-1.2972317678689955,4.422728179690242,-1.9136331891581415
1684252539757089500,1.754089599609375,-0.9482979186892508,2.7334645946711302,-1.9012110760889946
1684252539767115500,1.764115478515625,-0.7312193483412265,1.2486059763878583,-1.9699277617014943
1684252539777141500,1.7741416015625,-0.8702432036280632,-0.07990121971070765,-1.9824293697476385
1684252539787167500,1.78416748046875,-2.0444915659070015,-1.357021342921257,-1.9437408887825904
1684252539797193500,1.794193359375,-0.3827501940637827,-1.0153934328407048,-3.6854835797101257
1684252539807219500,1.804219482421875,1.8619664225459098,0.5053010534554719,-5.790815106505155
1684252539817245400,1.814245361328125,2.853861490899324,1.204592647138238,-6.389439171302318
1684252539827271400,1.824271484375,11.338840862822533,0.9957961674451827,-7.717140896236896
1684252539837297700,1.834297607421875,18.093753514695166,-0.48359483308196066,-9.038438599348067
1684252539847323600,1.84432373046875,6.103097679635882,-1.0062643699675797,-6.31494828620255
1684252539857349600,1.854349609375,1.3222522273570299,-0.9892536139339208,-3.983113942632079
1684252539867375600,1.864375732421875,1.166140605277568,-1.6808306877166033,-3.0871047218456864
1684252539877401600,1.874401611328125,0.6883744783490896,-2.2411311593383547,-2.275625841875374
1684252539887427600,1.884427490234375,0.28402167041674253,-2.435485272181034,-1.8091367496341466
1684252539897452500,1.89445263671875,-0.059224926906824106,-2.127427038747072,-2.1647255266584455
1684252539907478500,1.904478515625,-0.12762977009117601,-1.589853947240114,-3.009861615428328
1684252539917504500,1.91450439453125,0.18652809539213774,-0.9842243875950575,-3.094365945020318
1684252539927530500,1.924530517578125,0.6705389619290828,-0.34618659629821774,-2.7637439976006744
1684252539937556500,1.934556396484375,1.155937191171199,0.1955745945483446,-2.1610857088513673
1684252539947582500,1.94458251953125,1.495506415156275,0.6056804130494594,-1.4105093336112797
1684252539957608400,1.9546083984375,1.6261061409689486,0.8902005345076323,-0.7483386793158948
1684252539967634700,1.964634765625,1.5898352425396443,0.96323829818964,-0.291091901063919
1684252539977660700,1.97466064453125,1.4667225114814937,0.9579565583944321,-0.2300911966562271
1684252539987686700,1.984686767578125,1.1047235751539468,0.9054232380807399,-0.2603822900235653
1684252539997712600,1.994712646484375,0.6501590217232703,0.7305021399825811,-0.3653296881854534
1684252540007738600,2.004738525390625,0.10128186139166355,0.5907371109396219,-0.4230570700109005
1684252540017764600,2.0147646484375,-0.383141239207983,0.43544484241902826,-0.4137370146103203
1684252540027790600,2.02479052734375,-0.8400234219312668,0.3110135761082172,-0.5089690744437277
1684252540037816600,2.034816650390625,-1.4593921685934066,0.252822083902359,-0.2510460141405463
1684252540047842600,2.044842529296875,-1.8557786738216875,0.23115327292978763,0.16411211931407452
1684252540057868500,2.05486865234375,-2.0382734220445156,0.20915479161143302,0.5162126158311963
1684252540067894500,2.06489453125,-2.1724609432160853,0.1877145286977291,0.6728348177812993
1684252540077920800,2.074920654296875,-2.3400784403026105,0.11660802533924579,0.5039117910541594
1684252540087946800,2.08494677734375,-2.4551859979510304,-0.022224691289663312,0.2904886744737625
1684252540097972700,2.09497265625,-2.4359318469047544,-0.25827158147990703,0.25290537827163934
1684252540107998700,2.104998779296875,-2.2823300156891344,-0.5738461818933487,0.3939893809586763
1684252540118024700,2.115024658203125,-1.939669255429506,-0.8963315846085548,0.6084981008186936
1684252540128050700,2.12505078125,-1.5958324371278285,-1.1428548606276512,0.7938330409035086
1684252540138076400,2.135076416015625,-1.3608265804231165,-1.2460282348543406,0.9239861919924617
1684252540148102400,2.145102294921875,-1.2798574392199515,-1.209560498678684,0.899365545476973
1684252540158128400,2.15512841796875,-1.2753168731808662,-1.0584884782016277,0.6681298549607396
1684252540168153600,2.165153564453125,-1.2059995913267134,-0.7246130819439888,0.3503536528497934
1684252540178179600,2.1751796875,-1.0471107596188782,-0.3521376136571169,0.034361119285225866
1684252540188205600,2.18520556640625,-0.7563631419479846,-0.040887890705466265,-0.15666677174419164
1684252540198231600,2.1952314453125,-0.3638894993145019,0.19372516728937625,-0.2203556923225522
1684252540208257800,2.2052578125,0.17509930420927702,0.4204939415246248,-0.25838527098745107
1684252540218283800,2.21528369140625,0.9692541974782943,0.5518126292616129,-0.4188338993579149
1684252540228309500,2.2253095703125,1.9983577373720705,0.6194546713799238,-0.7780538724914192
1684252540238335500,2.23533544921875,3.4747008946359155,0.723318365958333,-1.4463862642869352
1684252540248361500,2.245361572265625,21.70031670242548,0.7645552162319421,-4.798544482837617
1684252540258387500,2.255387451171875,33.33562239152193,-0.7335761406004428,-7.030749116137623
1684252540268413400,2.265413330078125,10.595680901318788,-1.556584130322933,-4.222381840695441
1684252540278439400,2.275439453125,0.9293395357191562,-0.9542588729202747,-2.9261633415222166
1684252540288465400,2.28546533203125,-0.28779410162754354,0.3166699944347143,-1.5661755500108003
1684252540298491400,2.295491455078125,0.01837327655851841,2.470139236932993,-0.6878869870930909
1684252540308516900,2.305516845703125,0.7902396925866604,5.154775211027264,0.228724292217195
1684252540318542800,2.31554296875,2.6716332846581934,8.597292330417037,1.670161409664154
1684252540328569000,2.325569091796875,3.28990780634284,11.958709960222244,2.7438477492585776
1684252540338595000,2.335594970703125,2.520364864826202,13.333316059672832,2.978392125931382
1684252540348621000,2.34562109375,2.3596248522937295,12.90582246851921,3.161625709822774
1684252540358647000,2.35564697265625,1.6280487994693218,12.11370178449154,4.378833800645173
1684252540368673000,2.365673095703125,0.04396685975939035,11.33382800309658,5.925436342918872
1684252540378699000,2.375698974609375,-2.0004007875069973,10.451087721467017,7.99503780016303
1684252540388725000,2.38572509765625,-3.436029510936141,9.49275005480051,9.48488122112155
1684252540398751000,2.3957509765625,-4.108444495870173,8.168716789245606,10.555700773108004
1684252540408777000,2.40577685546875,-4.368716018995642,6.206974233695864,10.737798046445846
1684252540418803000,2.415802978515625,-5.2798512049824,4.229515053576231,10.878105511802435
1684252540428829000,2.425828857421875,-6.569145750111341,2.7179116362303493,10.597975734257698
1684252540438854000,2.43585400390625,-8.014123608905077,1.7677146059215068,10.092667082017659
1684252540448879900,2.4458798828125,-8.872373007878661,1.3854057258844374,9.6521684633404
1684252540458906000,2.455906005859375,-8.584066353619098,1.1295365293711424,8.456419632393121
1684252540468932000,2.46593212890625,-7.558675258377194,0.8711065424591302,6.896017405086756
1684252540478958000,2.4759580078125,-6.236997031515837,0.5369043984651565,5.466619392740726
1684252540488984000,2.485984130859375,-5.067923441526293,0.3351280266672373,3.899840616139769
1684252540499010000,2.496010009765625,-3.3854888257443903,0.49630876870453355,2.338532672165334
1684252540509036000,2.5060361328125,-2.2974808230698107,0.5711649799853563,1.021684788069874
1684252540519062000,2.51606201171875,-2.4269255336284634,0.67410629902184,0.264143542253226
1684252540529088000,2.526087890625,-2.4521102437674998,0.6819213566869496,0.15224062586501239
1684252540539114000,2.536114013671875,-2.5215017599016427,0.7340548640280962,0.5471947602026164
1684252540549140000,2.546139892578125,-3.236565507733822,0.7635007387429475,0.844214590010792
1684252540559166000,2.556166015625,-4.484603621105849,0.8128022375285625,1.1457242785841226
1684252540569192200,2.566192138671875,-5.723392260095477,0.6597282295793294,1.3302253981932997
1684252540579218200,2.57621826171875,-6.52175914503634,0.4518056101113558,1.1989198621988295
1684252540589244200,2.586244140625,-6.686890670526028,0.3874678702354431,0.8396667174480855
1684252540599270100,2.596270263671875,-6.627233197420835,0.5417927550286055,0.4561130980469286
1684252540609296100,2.606296142578125,-6.0760606196284295,0.9168021257072687,0.15744184776991604
1684252540619322000,2.616322021484375,-4.418104027020931,1.6195166795760392,-0.26187954284399745
1684252540629348000,2.62634814453125,-2.819090621769428,2.5822195557147265,-0.6597500030197203
1684252540639374000,2.6363740234375,-2.146647872045636,3.372459832823276,-0.9846246389590203
1684252540649400000,2.646400146484375,-1.8288234468787907,3.5658395476758478,-1.1982922318197786
1684252540659426000,2.656426025390625,-1.842622255128622,2.9663351929128168,-1.4894703498624264
1684252540669452000,2.6664521484375,-2.7625258539825674,1.9783862318366765,-1.7381620559617876
1684252540679478300,2.676478271484375,-3.9868654041200875,1.088881862899661,-1.8821636996611952
1684252540689504300,2.686504150390625,-5.12291058473289,0.20889117223918438,-1.939896926705539
1684252540699530200,2.6965302734375,-5.6025897056758405,-0.8571680334776639,-1.9188518005892634
1684252540709555200,2.70655517578125,-4.948694420033693,-2.0838602842211724,-1.6938538354188202
1684252540719581200,2.716581298828125,-4.1671313703775406,-3.242001561307907,-0.4882812373325228
1684252540729607200,2.726607177734375,-3.3638638539135455,-3.9096015471756456,1.3049085861071943
1684252540739633200,2.736633056640625,-2.884703788408637,-3.8975983901709315,1.523414412779361
1684252540749659100,2.7466591796875,-4.889209965407848,-3.954045669057965,-0.8918613073267042
1684252540759685000,2.75668505859375,-5.900624557745457,-4.267822280138731,-2.7185306449115276
1684252540769711000,2.766711181640625,-5.3203503886312244,-4.819895021641254,-3.6213264570981263
1684252540779737000,2.776737060546875,-6.383098862364887,-5.1935564848423,-3.9116356833517547
1684252540789763000,2.78676318359375,-9.500905304205418,-5.119696298861503,-3.430005720601976
1684252540799789000,2.7967890625,-10.891326227903365,-5.042540578466654,-2.6511159818083048
1684252540809815300,2.806815185546875,-8.961699058538676,-5.596414231911301,-2.4589129095196722
1684252540819841000,2.816841064453125,-5.894619764372706,-6.494293630483746,-2.537929747611284
1684252540829867000,2.826866943359375,-3.885842485925555,-7.368553084015846,-2.276671113144606
1684252540839893000,2.83689306640625,-4.2839147522836925,-7.713647793424129,-1.4559166014373301
1684252540849919000,2.8469189453125,-5.025698164737224,-7.568402871665358,-0.1310045072212815
1684252540859945000,2.856945068359375,-2.728533860270679,-7.789578355938196,1.3037927338197826
1684252540869971000,2.866970947265625,41.128624876689905,-6.084180213198065,7.1845058456540105
1684252540879997000,2.876996826171875,64.3573704590559,12.196805599635839,1.9097779750347137
1684252540890023000,2.88702294921875,-9.044467358118295,16.456114902973173,-8.05317025565803
1684252540900049000,2.897048828125,-34.275496180737015,18.803700942426918,-9.614300212717056
1684252540910075000,2.907074951171875,-31.62113551791906,28.32451389315128,-13.09044020024538
1684252540920101000,2.91710107421875,-19.953134012401105,22.69093400592804,-5.3305274992525575
1684252540930127000,2.927127197265625,19.03477296681404,11.457933690714835,3.432050670433044
1684252540940153000,2.937153076171875,44.61803351111412,0.1805827771216631,9.496303947889805
1684252540950179000,2.947178955078125,3.4660566926702856,-1.5175620334893465,0.7992842920467257
1684252540960205000,2.957205078125,-11.696633725762366,0.749868519231677,-10.159311929792166
1684252540970230000,2.96722998046875,-9.232156167852878,0.6910299612939358,-12.92971070910692
1684252540980256000,2.977256103515625,-3.7259400932610034,-0.871383021312952,-13.1946943554461
1684252540990282000,2.987281982421875,1.8478525569975375,-1.6951707632362842,-12.27272680979967
1684252541000308000,2.997307861328125,-1.2161881001248955,-0.6731091046780348,-9.049462682187556
1684252541010334000,3.007333984375,-3.7698546383112665,0.4244774582028389,-5.814330422127247
1684252541020360000,3.01735986328125,-3.5096330918073653,0.9723305361837148,-2.8615631513178346
1684252541030386000,3.027385986328125,-2.9714646647557617,1.5367589013904333,-1.175927109146118
1684252541040412000,3.037411865234375,-2.1580197454094887,1.9384049345821142,-0.27152444628477096
1684252541050438100,3.047438232421875,-1.1341675501726567,2.177262206017971,0.31686288665831086
1684252541060464000,3.057464111328125,-0.556025278520584,2.270415121489763,0.6661629388019442
1684252541070490000,3.067489990234375,-0.6163152043104171,2.237999875575304,0.691478874105215
1684252541080516000,3.07751611328125,-0.7628314611792564,2.140069662699103,0.7693304678097367
1684252541090542000,3.0875419921875,-0.49773792472481726,2.1201772137492894,1.1598302530869842
1684252541100568000,3.097568115234375,0.11811324227042495,2.1561802550226448,1.84509682854861
1684252541110594000,3.107593994140625,1.1008300748467446,2.106744316202402,2.639406839314103
1684252541120620000,3.1176201171875,2.2431904299557206,1.9140771335333584,3.291858355888724
1684252541130646000,3.12764599609375,3.3238930780529974,1.4658230784237385,3.8717899951756
1684252541140672000,3.137672119140625,4.005251540160179,0.7692009962111711,4.389152073302864
1684252541150698000,3.147697998046875,4.155795737370848,-0.0033341128587722774,4.7784658636659385
1684252541160724200,3.15772412109375,4.04611078929305,-0.8163210593044757,4.989200617945194
1684252541170750200,3.167750244140625,3.8395653033971784,-1.3805869274258613,5.095127674794197
1684252541180776200,3.177776123046875,3.5072739614605903,-1.8022300389856099,5.196822793161869
1684252541190802200,3.18780224609375,3.2890111497640606,-2.117553879508376,5.101567936974764
1684252541200828200,3.197828125,3.2062931190669537,-2.37279120785892,4.894086631533503
1684252541210854100,3.207854248046875,3.145161481755972,-2.5402526376008985,4.480164469614625
1684252541220879000,3.217879150390625,3.042281537517905,-2.5718589052200316,3.917261998800933
1684252541230905000,3.227905029296875,2.8485867653667927,-2.341183186674118,3.1815500152155756
1684252541240931000,3.23793115234375,2.546677117690444,-1.8299965823113917,2.3471467712536453
1684252541250957000,3.24795703125,2.194786756792664,-1.2467074492901562,1.5043065383359788
1684252541260983000,3.257983154296875,1.8801776404105126,-0.6432043802797794,0.7622285268500447
1684252541271009000,3.268009033203125,1.6019646562725305,-0.03995207116007805,0.17486849112808703
1684252541281035000,3.278034912109375,1.1790471408627927,0.5151081617206335,-0.25465923620164393
1684252541291061200,3.288061279296875,0.7303466571599244,0.8731056073218584,-0.380705536493659
1684252541301087200,3.298087158203125,0.44001521907448765,1.04865565097332,-0.20708003116399049
1684252541311113200,3.30811328125,0.25426300342567265,0.9965724125146865,0.08269786469191312
1684252541321139200,3.31813916015625,0.17088380540609358,0.8449591247677802,0.4046268025681376
1684252541331165200,3.328165283203125,0.09970014515817165,0.6385971787452698,0.6394017731264233
1684252541341191200,3.338191162109375,0.020361308570578694,0.35710897232890126,0.7455290287226438
1684252541351217200,3.348217041015625,-0.0004944324534386397,0.03724047411382198,0.6286164674788713
1684252541361243100,3.3582431640625,0.03196523712463677,-0.2166191361427307,0.3362769044414162
1684252541371268900,3.368268798828125,0.1663351291257888,-0.24425299299955366,0.057094636879861355
1684252541381294800,3.378294921875,0.3943775034934282,-0.11167232250273228,-0.03349748819321394
1684252541391320800,3.38832080078125,0.7833892421700059,0.07303484107255935,0.24976854155063627
1684252541401347000,3.39834716796875,1.5574790333360433,0.28290099582374095,0.8264099071204661
1684252541411373000,3.408373046875,5.729214098116755,0.6630190878182649,2.024009334370494
1684252541421399000,3.41839892578125,13.830181877738237,1.1659265241354704,3.811500361646712
1684252541431425000,3.428425048828125,14.677545725560188,1.2129279292851687,3.6830481692567467
1684252541441451000,3.438450927734375,10.189141250866651,1.049450016221404,1.7459812052801251
1684252541451477000,3.44847705078125,7.031450542405247,0.6895961290985345,-0.31208851186335085
1684252541461502000,3.458501953125,5.771760861945152,0.027356793481111526,-1.6846192663446067
1684252541471528000,3.46852783203125,4.885041155290604,-0.4704799154430628,-2.270327150945365
1684252541481554000,3.478553955078125,4.632456387275457,-0.27282266940176486,-2.933718286946416
1684252541491580000,3.488579833984375,4.735377832567692,0.7337526662111282,-3.19593977509588
1684252541501606000,3.49860595703125,2.9846073471844194,2.0928999152451753,-2.4036115857973694
1684252541511632000,3.5086318359375,0.6968973920226097,3.56988210106492,-1.7922244855388998
1684252541521657900,3.518657958984375,-0.8308589954838156,5.174919004389643,-2.204473745809495
1684252541531684000,3.52868408203125,-2.2667736962474883,6.414464891487359,-2.951368217666447
1684252541541710000,3.5387099609375,-4.382953218662738,6.806736362612247,-3.8076048155128954
1684252541551736000,3.548736083984375,-6.609256811225414,6.546012711805105,-4.469092163719236
1684252541561762000,3.558761962890625,-7.9074892805695525,5.903585745638608,-5.21515339962244
1684252541571788000,3.5687880859375,-7.7221268679559225,5.327955018416047,-6.041845046293735
1684252541581814000,3.57881396484375,-5.920078615278006,4.717914656591415,-6.908450185680389
1684252541591840000,3.588840087890625,-2.6128189843788743,3.8816029486596584,-7.524729149633646
1684252541601866000,3.598865966796875,0.2602972420886159,3.0704829651296137,-7.610486109635233
1684252541611892000,3.60889208984375,1.0552385364949703,2.043811766949296,-6.410615230321884
1684252541621918000,3.61891796875,0.08852993184626103,0.7917395757555961,-4.8258749728336925
1684252541631944200,3.628944091796875,-1.749523115670681,-0.4145002540677786,-3.751046769727766
1684252541641970200,3.63897021484375,-3.4560046697333453,-1.8535107288897037,-3.052317193841934
1684252541651996200,3.64899609375,-4.520031785100699,-3.231434574586153,-2.0384981707111
1684252541662022100,3.659022216796875,-4.689284774434566,-4.1931081076771015,-0.9868354468762874
1684252541672048000,3.669048095703125,-4.531703810454904,-4.9019180558115245,-0.29943375908210873
1684252541682074000,3.67907421875,-4.289843557810783,-5.332148378452659,0.3161220051631331
1684252541692100000,3.68910009765625,-3.823649941384792,-5.419046909704804,0.7665057657778263
1684252541702126000,3.6991259765625,-3.0314336880281565,-4.975321145674586,0.9365672950156032
1684252541712152000,3.709152099609375,-2.6371476622104644,-4.225276685354113,0.26987287968546153
1684252541722177000,3.719177001953125,-3.001426964560151,-3.415893900880217,-0.66273457178846
1684252541732203000,3.729203125,-3.8462528183370828,-2.827623472315073,-1.4244997189104556
1684252541742229000,3.73922900390625,-4.8268332964718335,-2.5296762985289094,-1.891375180120766
1684252541752255000,3.7492548828125,-5.523489280954003,-2.3775118066400287,-1.9707339635178445
1684252541762281200,3.75928125,-5.633168968334794,-2.2101918311953543,-1.632058619632572
1684252541772307200,3.76930712890625,-5.141273924419283,-1.7012445301920174,-0.7508655674450099
1684252541782333200,3.779333251953125,-4.296270375987887,-0.6749842509001494,0.44544557356014847
1684252541792359200,3.789359130859375,-3.352392611828446,0.32201310902833935,1.3855429423980414
1684252541802385200,3.79938525390625,-2.2763205461412666,0.46571255491077895,2.041856102836877
1684252541812411100,3.8094111328125,-1.6939309923082588,-0.436064435622096,1.7736325977936387
1684252541822437000,3.81943701171875,-1.6118343083798885,-1.7836720535099506,0.7361946525357663
1684252541832463000,3.829463134765625,-1.6322937435626983,-2.9053508551180363,0.15759798817969858
1684252541842489000,3.839489013671875,-1.6264654758006334,-3.78141180511415,-0.13580657374076543
1684252541852515000,3.84951513671875,-1.4177128352493047,-4.464870454370975,-0.267058187590912
1684252541862541000,3.859541015625,-1.062359766677022,-4.922797762233019,-0.42918731639422475
1684252541872567300,3.8695673828125,-0.8400029636651277,-5.110938991910219,-0.47042665088586505
1684252541882593300,3.87959326171875,-1.3450371828779577,-5.25469046024084,-0.767372465609759
1684252541892619000,3.889618896484375,-2.3511501616761086,-5.370795212233066,-1.4495733698904514
1684252541902645000,3.89964501953125,-2.978837823872268,-5.3732689088702195,-2.0821029191598295
1684252541912671000,3.9096708984375,-3.1721210926130414,-5.3627451767683025,-2.7762527660399674
1684252541922697000,3.919697021484375,-2.6923297434672713,-5.056407775777578,-3.03336670191735
1684252541932723000,3.929722900390625,0.11044716462194919,-3.6388714661389585,-4.112323090869188
1684252541942749000,3.9397490234375,12.546482960659265,1.5762386788636444,-9.041332567223906
1684252541952775000,3.94977490234375,31.32987527455091,12.130449505674838,-14.768915849268435
1684252541962800000,3.959800048828125,10.464131911957264,18.34798195826411,-14.91846226761341
1684252541972826000,3.969826171875,-12.764689658254385,18.32889030430317,-14.830077881717681
1684252541982852000,3.97985205078125,-17.635298968088627,14.843774398636818,-8.622047416967153
1684252541992878000,3.989878173828125,-14.180195923370123,9.034694152122736,-1.4310837734758852
1684252542002904000,3.999904052734375,-9.01592456972301,3.1051071192651984,0.776375710146129
1684252542012930000,4.009929931640625,-2.2719322480544446,-2.257420615360141,1.9077143205031752
1684252542022956000,4.0199560546875,4.38195339397043,-5.277987749198079,5.105310630634427
1684252542032982000,4.02998193359375,4.050244528096914,-4.961687757119536,5.504300011837482
1684252542043008000,4.040008056640625,1.4385541093565524,-3.3505350012630224,3.9454803775474425
1684252542053034000,4.050033935546875,-1.477342981956154,-1.2101169635176658,3.0650989340037107
1684252542063060000,4.06006005859375,-3.2115655065119264,1.3522154039442538,2.8921041277930137
1684252542073086000,4.0700859375,-2.157554758246243,3.5679958489269015,2.3287580048650502
1684252542083112000,4.08011181640625,0.1695263263825327,5.594727301737666,1.6986612357005475
1684252542093138000,4.090137939453125,0.4725181432723999,6.720880033889412,1.707028666551411
1684252542103164000,4.100163818359375,0.1454080033659935,5.985394260275363,2.2930483935803174
1684252542113190100,4.110190185546875,0.6038391325643285,4.676047691720724,3.211229114164412
1684252542123216100,4.120216064453125,1.390062027257681,3.7203655079990625,3.679528178437054
1684252542133242000,4.1302421875,2.6457822195649143,2.5600346119135615,3.536585980662703
1684252542143268000,4.14026806640625,3.7822348119348286,1.21514443629086,2.824026032344997
1684252542153294000,4.150294189453125,4.272024408003688,0.20273849482834339,1.8238839446499944
1684252542163320000,4.160320068359375,4.109042754024267,-0.38248014495074745,1.0722522151380778
1684252542173346000,4.170345947265625,3.570978664129972,-0.8245891214340925,0.8978446195200085
1684252542183372000,4.1803720703125,3.0328999611884355,-1.3761977525562048,0.9088482440933585
1684252542193398000,4.19039794921875,2.68797710121572,-1.8193156138211488,0.9065992961227893
1684252542203423000,4.200423095703125,2.4067741414815185,-2.159225614067912,0.9164514125734567
1684252542213449000,4.210448974609375,2.042356891965866,-2.342947273737192,0.9688242816284298
1684252542223475000,4.220474853515625,1.6818237904071807,-2.303036119109392,1.0063619851231573
1684252542233501000,4.2305009765625,1.4394459436297415,-2.0377695641756057,1.0753358603671193
1684252542243527200,4.240527099609375,1.1497982500247657,-1.5695359663546085,1.1516866941198707
1684252542253553200,4.25055322265625,0.6537076541155576,-1.0579852048546075,1.0011515569984912
1684252542263579100,4.2605791015625,-0.3764017018198967,-0.49329906549453734,0.6388005923628807
1684252542273605000,4.270605224609375,-0.5164110610127449,-0.15816344004273414,0.6351999375224113
1684252542283631000,4.280631103515625,0.2345662962436676,-0.21901333780288695,0.9970268782839179
1684252542293657000,4.290656982421875,0.5063865106046199,-0.5100654913783074,1.0974433550179004
1684252542303683000,4.30068310546875,0.8955138384848833,-0.8363724982082843,1.5637950846150517
1684252542313709300,4.310709228515625,-0.584337034638971,-1.2147218269646167,2.255459836681187
1684252542323735300,4.3207353515625,-0.7058323936283588,-1.7488836487233639,2.1831898425012826
1684252542333761300,4.33076123046875,0.116374508844316,-2.0919553278714416,1.6135256224676966
1684252542343787300,4.340787353515625,0.8037684517234563,-1.9485019657045601,0.9188160958781838
1684252542353813500,4.3508134765625,1.917465022405982,-1.0800047289609909,-0.31442104646414515
1684252542363839500,4.360839599609375,3.2618793972104787,0.5101818112343549,-1.612241427876055
1684252542373865500,4.370865478515625,4.285492376863957,1.683740437683463,-2.5631699873298404
1684252542383891500,4.380891357421875,4.654605382980406,1.7152864995479582,-2.4622224724590778
1684252542393917400,4.39091748046875,5.379400543493032,1.2384697822988033,-1.7639745426103473
1684252542403943400,4.400943359375,6.351928063553571,0.31663316955566406,-1.289826752309501
1684252542413969200,4.41096923828125,4.803654080936313,-0.6691606593132019,-0.9402201184347271
1684252542423995100,4.4209951171875,2.3330375818803906,-1.5125971045583486,-0.4413847538620233
1684252542434021000,4.431021240234375,1.4141419910252093,-2.4339953258842226,0.3325499928727746
1684252542444046300,4.44104638671875,1.0897124685049056,-2.9066408949285742,1.2124936295211315
1684252542454072300,4.451072265625,1.0976356627196073,-2.8407506649136542,2.041741682676971
1684252542464098300,4.461098388671875,1.3563073494330047,-2.6230647763222454,2.6795705073982474
1684252542474124300,4.471124267578125,1.8133178347110748,-2.4202771816551683,3.009525223080814
1684252542484150500,4.481150634765625,2.488130820697546,-2.14091488135159,2.9360458531111475
1684252542494176500,4.491176513671875,3.031404169672727,-1.599234939047694,2.2153040596425533
1684252542504202200,4.5012021484375,3.284180660867691,-0.5380722732007504,0.7246712418720126
1684252542514228200,4.511228271484375,3.6921313471615314,0.7651490904718637,-0.6092483346641063
1684252542524254200,4.521254150390625,3.9422424185395237,2.061712165299058,-1.695546026289463
1684252542534280200,4.5312802734375,4.033562273365259,3.1476930460602044,-2.7882085767716167
1684252542544306200,4.54130615234375,4.234499856251478,3.608697277149558,-3.7626524518474933
1684252542554332200,4.551332275390625,4.484259045451879,2.9729701008826495,-4.017266679863631
1684252542564358100,4.561358154296875,4.880521047517657,1.745134525322914,-3.3059961868345735
1684252542574384000,4.571384033203125,7.50288205948472,0.7107797869026661,-2.584074243670702
1684252542584410400,4.581410400390625,11.624309663307667,-0.09440437683761119,-2.0442565881073476
1684252542594436400,4.591436279296875,9.132928900903464,-1.153047168818116,-1.5044054686658084
1684252542604462300,4.60146240234375,1.9114529225096106,-1.2331243296176195,-0.8186568087756634
1684252542614488300,4.61148828125,0.6186500769987702,-0.11191197647750377,-0.019763854134082794
1684252542624514300,4.621514404296875,2.2354504833534357,2.5954478706002235,0.9489882390409707
1684252542634540300,4.631540283203125,2.0920324847608804,7.121677925819158,0.6367556425318122
1684252542644566300,4.641566162109375,1.1684944749273358,12.805864549207687,-0.5931663839131593
1684252542654592300,4.65159228515625,-0.6176420690000057,18.426251777380703,-2.2959461608484384
1684252542664618200,4.6616181640625,-2.0019524008631704,21.98452761180401,-4.7962309451982374
1684252542674644200,4.671644287109375,-4.830340427809953,21.999909889853,-5.380437485325336
1684252542684670200,4.681670166015625,-5.83140664461255,16.846234164500235,-3.384479940962791
1684252542694695200,4.691695068359375,-5.568306327801943,12.729611330610513,-2.551956811659038
1684252542704721200,4.70172119140625,-6.111931558954716,9.933532166594267,-2.1371061367183923
1684252542714747400,4.711747314453125,-6.675289080059528,7.529880541047453,-1.815709990544617
1684252542724773400,4.7217734375,-8.137827729985117,5.827132620555162,-1.4599837047457693
1684252542734799400,4.73179931640625,-8.991751666975022,4.080310580536723,-1.2592439825192092
1684252542744825300,4.741825439453125,-8.965162935256958,2.5010925936013457,-1.4016484201550483
1684252542754851300,4.751851318359375,-8.135923942190407,1.294416710448265,-0.41061084541380405
1684252542764877300,4.761877197265625,-3.1715260493293402,2.1222429141074417,1.1041101194307208
1684252542774903300,4.7719033203125,11.207239266490935,4.512558088219166,4.860246905773878
1684252542784929300,4.78192919921875,14.162982922762632,3.5978871293216943,7.5561179751098155
1684252542794955300,4.791955322265625,8.289421728509664,2.537740362519026,6.1432198466658585
1684252542804981200,4.801981201171875,1.9159210078343747,1.3614192856192588,3.1979099061250684
1684252542815007200,4.81200732421875,-4.027780767354369,0.24869652840495107,0.8281623037457465
1684252542825033500,4.822033447265625,-7.95145175641477,-0.4344803813010454,-0.4506798209518194
1684252542835059500,4.8320595703125,-10.445297447627782,-0.9368494729578495,-0.9172022309407591
1684252542845085400,4.84208544921875,-11.2967155392766,-1.3503542862474918,-0.22642741345167158
1684252542855111400,4.852111328125,-10.959140119457244,-1.6413316210210322,1.3077639755383133
1684252542865137400,4.862137451171875,-10.334149441260099,-1.8261293854892253,3.1243446114376185
1684252542875163400,4.872163330078125,-8.839394282862543,-2.169352455806732,4.162821982745826
1684252542885189400,4.882189453125,-5.058468799960613,-2.615705061209202,3.909416253736615
1684252542895215400,4.89221533203125,-2.6346780572265387,-2.924500961267948,2.9122467521116135
1684252542905241300,4.902241455078125,-3.0554227586418388,-2.912323616740107,1.3471949454337357
1684252542915266300,4.912266357421875,-4.2481747458606955,-2.6457395494669673,0.2178714742913842
1684252542925292300,4.922292236328125,-5.264233364611864,-2.4914099884986878,0.22489187444746492
1684252542935318300,4.932318359375,-6.078213413748145,-2.7010914343327284,0.7755714080259204
1684252542945344300,4.94234423828125,-6.552382831358909,-3.0384143406957387,1.488895618714392
1684252542955370500,4.95237060546875,-6.811070592424273,-3.543582123160362,1.7930790565416215
1684252542965396500,4.962396484375,-7.047377594855427,-4.056019019845128,1.575748849520087
1684252542975422500,4.97242236328125,-7.266947982019186,-4.475160962238908,1.1439078768119215
1684252542985448400,4.982448486328125,-7.340895846283435,-4.796693594273925,0.5821309028968215
1684252542995474400,4.992474365234375,-7.352921215119958,-4.970435127198696,0.12246055075973272
1684252543005500400,5.00250048828125,-7.288043377017974,-5.10578876954019,-0.347583019092679
1684252543015526400,5.0125263671875,-7.13786333694458,-5.097534735935926,-0.7650494294896721
1684252543025552400,5.022552490234375,-6.923895007571578,-4.895670101332664,-0.9833023043140768
1684252543035578400,5.032578369140625,-6.599138152793049,-4.609297630006075,-1.197878244191408
1684252543045604400,5.042604248046875,-6.191500185710192,-4.269731913152337,-1.2256085471600293
1684252543055630000,5.052630126953125,-5.634460177189111,-3.9592034902125595,-0.9538681200370192
1684252543065656300,5.06265625,-4.994282451254129,-3.540627949529886,-0.6551145983040333
1684252543075682300,5.072682373046875,-4.233121553635597,-3.020653643077612,-0.26546412333250047
1684252543085708300,5.082708251953125,-3.4391713160932063,-2.4784809488207102,0.07214461423456668
1684252543095734300,5.092734375,-2.6781965886965393,-1.8151719381451605,0.4981535197883844
1684252543105760300,5.10276025390625,-1.908290951347351,-0.7906447662562132,1.1104933907270431
1684252543115786200,5.1127861328125,-1.0464319835744798,0.49929859817028044,1.5499316866964101
1684252543125812200,5.122812255859375,-0.21593290744423865,2.129045579859614,1.701793396246433
1684252543135838200,5.132838134765625,1.4983739334166049,4.487307327106595,1.7489941233605146
1684252543145864200,5.1428642578125,25.03229254916906,11.498976479721069,-0.3669979136586189
1684252543155889200,5.15288916015625,25.649788487696647,14.343104512113332,-4.329840052634477
1684252543165915100,5.1629150390625,12.061224578279257,14.275191251838207,-5.7889937362968915
1684252543175941000,5.172941162109375,7.032077734392881,14.592539876186846,-7.8511057145684955
1684252543185967000,5.182967041015625,1.6113456480801105,13.444578632330893,-8.60830764542818
1684252543195993300,5.192993408203125,-0.7445078689813613,11.013538064599036,-8.18092277534604
1684252543206019300,5.203019287109375,1.6977999426960944,7.672126865512133,-7.881135526651144
1684252543216045300,5.21304541015625,6.993985611885786,3.458308562761545,-8.237267762902379
1684252543226071300,5.2230712890625,5.856767880362272,0.21086510266065597,-6.415673098233341
1684252543236097300,5.23309716796875,-1.1233739150881767,0.1028781906723976,-3.71613649212718
1684252543246123300,5.243123291015625,-3.0741911719977852,-0.6797831756144762,-1.6552409039080143
1684252543256149200,5.253149169921875,-2.395452537000179,-2.4346108274340628,0.6102367611795664
1684252543266175200,5.26317529296875,-2.5940251443207263,-3.977826357617974,2.4391671755641697
1684252543276201200,5.273201171875,-2.5828420715272427,-5.144318698942661,3.4411586905181406
1684252543286227200,5.283227294921875,-2.960368101201951,-5.798033951842784,3.9666245801240203
1684252543296253200,5.293253173828125,-4.165660128781199,-6.085910982513427,3.8805876341372727
1684252543306279700,5.30327978515625,-6.10259674437642,-5.830768931230902,3.2587387610971925
1684252543316305700,5.3133056640625,-7.969183227938413,-4.6454134840041394,2.8538460010692477
1684252543326331600,5.32333154296875,-11.053781227660178,-2.7516473170936107,2.516972299778461
1684252543336357600,5.333357666015625,-11.836961064863205,-0.503846178472042,2.739576355549693
1684252543346383600,5.343383544921875,-11.003582487773894,2.0364812779307364,2.6057904009163377
1684252543356409600,5.35340966796875,-10.735006369900702,4.232552229315043,2.071747237101197
1684252543366435600,5.363435546875,-10.146925910949706,5.2005070346325635,1.0309525287613273
1684252543376461600,5.373461669921875,-8.355553366065024,5.100504107135534,-0.3499862808421254
1684252543386486500,5.383486572265625,-6.808924812567233,4.51351904220581,-1.281076459620893
1684252543396512500,5.393512451171875,-5.517379273641109,3.74021294876337,-1.567992536304891
1684252543406538500,5.40353857421875,-4.406959240411222,2.9837644666194914,-1.2858721694648265
1684252543416564500,5.413564453125,-3.65767758115679,1.9875211399286985,-0.4480699307143688
1684252543426590500,5.423590576171875,-3.106892833638191,0.921529154229164,0.5878086562722921
1684252543436616700,5.43361669921875,-2.6263661559551954,-0.18018237962722777,1.5885022403702138
1684252543446642700,5.443642578125,-2.090055047208071,-0.9594809914827346,2.214603510157764
1684252543456668700,5.453668701171875,-1.4550854113101959,-0.9414280329197645,2.626112473455071
1684252543466694700,5.463694580078125,-0.7238403440058231,-0.24493863717615602,3.025955256617069
1684252543476720600,5.473720703125,-0.05200367041639983,0.774606070125103,3.233150730854273
1684252543486746600,5.48374658203125,0.5187672687500715,1.9136147767186165,3.1199633276134726
1684252543496772600,5.493772705078125,1.1138596522897481,2.9895868891626596,2.600779294756055
1684252543506798600,5.503798583984375,1.933818775835633,3.695307639110088,1.7066718159377574
1684252543516824600,5.513824462890625,13.472667247217894,4.2248920699507,-1.809497984161973
1684252543526850600,5.5238505859375,25.3439058447361,3.204939950892329,-6.399288365143537
1684252543536876800,5.533876708984375,11.743175696706771,1.8327251304924488,-4.757372806754708
1684252543546902800,5.54390283203125,3.824330324864387,0.7709750201463699,-2.516002870224416
1684252543556928500,5.553928466796875,1.7920827389806508,-0.0841828425526619,-1.7413678662657737
1684252543566954500,5.56395458984375,1.2887879107810556,-0.9931856926858424,-1.5126117176055907
1684252543576980500,5.57398046875,1.2511032000310718,-1.7828192360728978,-1.4987626404732466
1684252543587006500,5.58400634765625,1.3143905540712177,-2.0647318053811787,-1.3522203723803161
1684252543597032400,5.594032470703125,1.6801332069717347,-1.848545215436816,-1.1594453454226255
1684252543607058400,5.604058349609375,2.398190437531471,-1.3071470126837492,-1.0504653307437897
1684252543617083600,5.614083740234375,3.631154023629427,-0.505330864071846,-0.5688140329450369
1684252543627109600,5.624109619140625,5.173369436860084,0.34148528673946854,0.650735944828391
1684252543637135600,5.634135498046875,6.456461620217562,1.0758002630084753,1.8694436265587806
1684252543647161600,5.64416162109375,7.638270773139595,1.6381886468201874,3.1041788985043763
1684252543657187600,5.6541875,9.38806861409843,1.8991174648106097,4.397810888315737
1684252543667213600,5.664213623046875,11.93066693804264,1.6160919658243655,5.642621271812915
1684252543677239600,5.674239501953125,13.332766609096526,0.806323981425166,6.398943497228622
1684252543687265500,5.684265625,11.233960100156068,-0.1712935552507639,6.1310407485723495
1684252543697291500,5.69429150390625,6.974865316352248,-0.33644846161603925,4.985447402891516
1684252543707317500,5.7043173828125,2.517573772802949,0.6590045914798974,3.5571883314475414
1684252543717343500,5.714343505859375,-0.5375830283790827,1.7046540463745592,2.3685586848556994
1684252543727369500,5.724369384765625,-1.5347136592984199,2.7595383626043795,1.331319330909848
1684252543737395500,5.7343955078125,-2.046143424767256,4.248317953723669,0.5560299546957016
1684252543747421400,5.74442138671875,-2.8236358639836308,6.072919398993253,0.15181553232073783
1684252543757447400,5.754447509765625,-3.900402341675758,8.208422192168236,-0.45183454394489525
1684252543767473400,5.764473388671875,-4.710334868986904,10.56154599200487,-1.993857357212901
1684252543777499600,5.774499755859375,-5.937560495954751,12.337547949278354,-3.811917125754058
1684252543787525600,5.784525634765625,-7.405335292968154,12.216304080832003,-4.570346552582085
1684252543797551600,5.794551513671875,-8.369450958514213,11.617706904041766,-4.1421094495847814
1684252543807577600,5.80457763671875,-8.463374273836612,11.126050345057248,-3.3404981758952137
1684252543817603600,5.814603515625,-5.0424903095841405,10.820421384596823,-1.0928928521066903
1684252543827629600,5.824629638671875,1.4183338897570967,9.517202359011769,2.845340330791473
1684252543837654500,5.834654541015625,2.67257202681303,6.807419084179401,4.399672590534389
1684252543847680500,5.844680419921875,0.22704700665473937,4.568736487036944,4.026503879286349
1684252543857706500,5.85470654296875,-1.6337071174919604,3.542879527848959,3.826351017037034
1684252543867732500,5.864732421875,-2.240398168888688,2.794111078813672,4.399978295482695
1684252543877758500,5.874758544921875,-1.3727800530672072,2.1825246565908194,5.596587834912539
1684252543887784400,5.884784423828125,0.264002818608284,2.104104030826688,6.624082039913535
1684252543897810400,5.894810546875,-0.019376900643110276,2.3202859445959327,6.969226433682441
1684252543907836700,5.904836669921875,-2.05275612090528,2.0861177077591417,5.83858632698357
1684252543917862700,5.914862548828125,-4.100064790059625,1.4544143801808356,3.750665076933801
1684252543927888600,5.924888671875,-5.690673647320271,0.7222498599439859,2.2517153894558546
1684252543937914600,5.93491455078125,-6.846191005644202,0.16924655959308146,1.9389353881970046
1684252543947940600,5.944940673828125,-7.812408027383684,0.07439443898797035,2.450697746621072
1684252543957966600,5.954966552734375,-8.41736947850883,0.21904314841926095,2.5358269301131364
1684252543967992600,5.96499267578125,-8.442151453065872,0.009487374791502952,1.5403785531923173
1684252543978018600,5.9750185546875,-8.678727335566283,-0.28070786969363687,0.9545426582977176
1684252543988044500,5.98504443359375,-8.845418949979543,-0.5340010782390833,0.6104775841981173
1684252543998070500,5.995070556640625,-8.843293043866753,-0.9809674316257238,0.3014157266795635
1684252544008096500,6.005096435546875,-8.819834426867962,-1.576816186490655,0.015169804342091083
1684252544018122800,6.015122802734375,-8.635724644663929,-2.315026416632533,-0.25239655196666716
1684252544028148700,6.025148681640625,-8.186248354282975,-3.229442523986101,-0.6020721594244242
1684252544038174700,6.0351748046875,-7.555172218692302,-4.03137908410728,-0.9379793537706136
1684252544048200700,6.04520068359375,-6.841757407110929,-5.25086885612607,-1.3159040273740887
1684252544058226700,6.055226806640625,-6.863476486966014,-8.050926276123523,-3.1495649774119254
1684252544068251600,6.065251708984375,-7.359215346828103,-11.660175926458836,-6.433264869025349
1684252544078277600,6.075277587890625,-7.247499185183644,-8.006548205214738,-6.945436392772197
1684252544088303600,6.0853037109375,-6.3909150890737765,-4.264640727493167,-4.797420447243749
1684252544098329600,6.09532958984375,-5.511963678333163,-4.86302163118422,-2.82552153159976
1684252544108355600,6.10535546875,-4.60417780277431,-5.845967084884643,-1.3646372247524559
1684252544118381600,6.115381591796875,-3.8156206564471122,-6.145637429201603,-0.4175622719869017
1684252544128407600,6.125407470703125,-2.95210880690068,-6.054397069352865,0.4606295525580644
1684252544138433500,6.13543359375,13.392594762593507,-3.9123581524074074,-2.0346286358013748
1684252544148459800,6.145459716796875,72.6045441144228,12.13798282378912,-21.235086378073692
1684252544158485800,6.15548583984375,36.71801675838232,19.624029483807085,-19.69012020483017
1684252544168511700,6.16551171875,-12.53894145923853,15.117239457595348,-14.044583337831495
1684252544178537700,6.175537841796875,-11.82721240878701,16.69879670113325,-9.543880522578954
1684252544188563700,6.185563720703125,-10.921560038125515,17.253363013017175,-6.501288603937626
1684252544198589400,6.19558935546875,-12.988952002626657,13.905829531657695,-3.696904552912712
1684252544208615400,6.205615478515625,-12.260367678964137,10.026975004923344,-1.9200798810794948
1684252544218641400,6.215641357421875,-11.796388231456278,6.636778439879417,-0.4100637329250574
1684252544228667400,6.22566748046875,-11.698969475233554,4.502559256774187,0.9370692531883716
1684252544238693400,6.235693359375,-12.041344988811016,3.164372962704301,1.9700217235952615
1684252544248719400,6.24571923828125,-12.336799761259556,2.3458745593607424,2.1355428329244255
1684252544258745600,6.25574560546875,-12.462385458302498,1.4371224691182374,3.0361800057724118
1684252544268771600,6.265771484375,-12.036019994395971,0.45979368625581263,4.321279729560017
1684252544278797600,6.275797607421875,-10.730002862524985,-0.22816344346404074,5.119034620082378
1684252544288822500,6.285822509765625,-8.797962786799669,-0.5257330161094665,5.067027369469404
1684252544298848500,6.2958486328125,-7.0918795844048255,-0.3347919265806675,4.551893488785624
1684252544308873700,6.305873779296875,-6.075779464599489,0.20971184097230433,4.604754141357541
1684252544318899700,6.315899658203125,-5.542464030537009,0.907929667943716,4.64004114331603
1684252544328925700,6.32592578125,-5.079796250149608,1.4044564633131027,4.237016222986579
1684252544338952000,6.335951904296875,-4.62303272536993,1.709660476359725,3.543427809381485
1684252544348978000,6.34597802734375,-4.256514411921799,1.939596774715185,3.337150619032979
1684252544359004000,6.35600390625,-3.607162030406296,2.0567028127044438,3.261818899194896
1684252544369030000,6.36602978515625,-2.717823081164062,2.054928788769245,3.082728114196658
1684252544379055600,6.3760556640625,-1.9225743282437324,1.9616092845588922,2.6996733842283485
1684252544389081600,6.38608154296875,-1.2275167188689111,1.8743501033008096,2.2642805642575023
1684252544399107600,6.396107666015625,-0.46927053965330123,1.5538199263066053,1.8638658264264463
1684252544409133600,6.406133544921875,0.32792627859488127,0.9710393273293971,1.2580538959518075
1684252544419159600,6.41615966796875,2.109834098911285,0.325924729514122,0.06770370917767286
1684252544429185500,6.426185546875,7.500048297363519,-0.1802244652032852,-3.0104613348871467
1684252544439211800,6.436211669921875,10.168547375649213,-0.40359833630323405,-5.237245988965034
1684252544449237800,6.44623779296875,8.742746511012315,-0.7204314123451709,-4.701697973544896
1684252544459263700,6.456263671875,5.68657030365467,-0.9078256230473518,-3.297002440778911
1684252544469289700,6.466289794921875,2.0065759690105915,-0.7221072366029023,-2.0382322132512924
1684252544479315700,6.476315673828125,-0.564313871981576,-0.18783610925078392,-1.0703788224816322
1684252544489341700,6.486341796875,-1.6613620171368122,0.3015209406197071,-0.6824792828306555
1684252544499367700,6.49636767578125,-2.3666075507879256,0.9325918155133723,-0.5609907919734716
1684252544509393700,6.5063935546875,-2.8307810595631597,1.485094765126705,-0.1514189342185855
1684252544519418600,6.516418701171875,-3.444104680842161,1.970591632437706,0.019874913293123245
1684252544529444600,6.526444580078125,-4.040874642205238,2.1584540451735257,-0.35454087540656326
1684252544539470600,6.536470703125,-4.4833191342532634,1.8869716844648121,-0.6841390327364206
1684252544549496600,6.54649658203125,-4.723685056686401,1.217770693141222,-0.9533964108720421
1684252544559522600,6.5565224609375,-4.676939672124385,0.48444881956279273,-1.10933340703696
1684252544569548800,6.566548828125,-4.248990153896808,-0.034384500160813326,-1.0868591249004005
1684252544579574800,6.57657470703125,-3.777914610648155,-0.1933218471854925,-0.9958803385972976
1684252544589600800,6.586600830078125,-3.381287282401323,-0.14723054261803625,-0.6574626227349043
1684252544599626800,6.596626708984375,-3.0097172385215756,-0.025740005934238433,-0.24668986475765703
1684252544609652700,6.60665283203125,-2.557061149060726,0.21257716727554796,-0.13690613248050212
1684252544619678700,6.6166787109375,-2.103437091350555,0.505849334987998,-0.46476212231814856
1684252544629704700,6.62670458984375,-1.7222668599545954,0.6702449474185704,-0.8508525667205452
1684252544639730700,6.636730712890625,-1.3907201989054678,0.6086585520774126,-1.2227929052174091
1684252544649756700,6.646756591796875,-1.09652339062877,0.3044575785934925,-1.4035729584768413
1684252544659782700,6.65678271484375,-0.8474492610830813,-0.16541151147484778,-1.3823808251053094
1684252544669808600,6.66680859375,-0.6430314348656684,-0.5945972934991121,-1.1555085904955864
1684252544679835000,6.6768349609375,-0.4919885308852419,-0.8557084823191166,-0.9005579701319336
1684252544689860900,6.68686083984375,-0.40008886687755585,-0.9472948791265488,-0.6945873615145682
1684252544699886800,6.696886962890625,-0.37980011208653447,-0.8983493541717529,-0.42782004662901163
1684252544709912800,6.706912841796875,-0.3661164546489715,-0.7517927652925253,-0.14982669659107922
1684252544719938800,6.716938720703125,-0.3645148646712303,-0.5755120692789554,0.11948884147256612
1684252544729963800,6.7269638671875,-0.3684323303759098,-0.3820990366786718,0.34041327359378337
1684252544739989800,6.73698974609375,-0.3284773366063833,-0.24645313339233396,0.40898002934157845
1684252544750015700,6.747015625,-0.2263087555080652,-0.1771627395451069,0.42492958588451146
1684252544760041700,6.757041748046875,-0.07808627924323082,-0.14588555774986742,0.29718787985146045
1684252544770067700,6.767067626953125,0.17155129287149756,-0.1510842954367399,0.0688327132076025
1684252544780093700,6.77709375,0.5053881837496533,-0.1051964044868946,-0.1572039473608136
1684252544790119700,6.78711962890625,0.8440238897442818,0.05270633879303932,-0.3994628439337015
1684252544800145700,6.797145751953125,0.941559550344944,0.29377719462513924,-0.6097346568763256
1684252544810172000,6.807171875,0.8054798587512224,0.5438198769420385,-0.7153679914757609
1684252544820198000,6.817197998046875,0.679932813218236,0.7253279522150754,-0.7088789217174053
1684252544830224000,6.827223876953125,0.5753817939627915,0.8564490715533495,-0.7292161918252706
1684252544840249900,6.837249755859375,0.5059774183470755,0.9376146121114491,-0.7306222592309117
1684252544850275800,6.84727587890625,0.6045529068568721,1.0712450839221477,-0.6506190404504537
1684252544860301800,6.8573017578125,0.6826859113186597,1.2087602882117032,-0.2634966226518154
1684252544870327800,6.867327880859375,0.3912859672188759,1.166741932171583,0.4819786300569772
1684252544880353800,6.877353759765625,-0.25119713131533933,1.0658131220012903,1.2840630742162464
1684252544890379800,6.8873798828125,-0.8627332663893699,1.0194266338795424,1.901121790370345
1684252544900405800,6.89740576171875,-1.323723468953371,1.0148843142747879,2.2603005547106263
1684252544910431700,6.907431640625,-1.7871733396291731,1.0533967080205677,2.566127083569765
1684252544920457700,6.917457763671875,-2.411448563033342,1.1013801099449396,2.9005834945857525
1684252544930483700,6.927483642578125,-2.8836159931719303,1.1202987454265356,3.226011380493641
1684252544940509000,6.937509033203125,-3.0617291653096674,1.0923708740592002,3.5034999958798285
1684252544950535000,6.947534912109375,-3.194207544475794,0.9919120194882154,3.825598737365007
1684252544960561000,6.957560791015625,-3.3192133958041667,0.9358943641901015,4.139554796665907
1684252544970587000,6.9675869140625,-3.3667268421292302,0.9018500557690858,4.30407841939032
1684252544980612900,6.97761279296875,-3.3137995540618896,0.8650976574331521,4.330999159541726
1684252544990638800,6.987638916015625,-3.244264830064773,0.8826619556963443,4.172086654697359
1684252545000664800,6.997664794921875,-3.1798446726024148,0.8938520427525043,3.974998732976615
1684252545010690800,7.00769091796875,-3.1612054385840893,0.8446458210349083,3.7539199870765207
1684252545020716500,7.017716552734375,-3.0987118652701375,0.646166737216711,3.345285410171747
1684252545030742500,7.027742431640625,-2.826705772948265,0.24797113673985002,2.726230844025314
1684252545040768500,7.0377685546875,0.900790317583084,0.08189619292020797,0.9439584281802177
1684252545050794800,7.047794677734375,9.408230527639388,0.34297581755816936,-3.0719454388976097
1684252545060820700,7.05782080078125,8.404107261353731,0.6099550216287374,-4.74729857198596
1684252545070846700,7.0678466796875,5.616311941558123,0.9150070589840411,-4.711570840522646
1684252545080872700,7.077872802734375,4.5855216176211835,1.350230367606878,-5.10137036857605
1684252545090898700,7.087898681640625,3.5633600058197974,1.4952438186973331,-4.75947650103569
1684252545100924700,7.097924560546875,1.93709282907024,1.2346242127865552,-4.371117819440364
1684252545110950700,7.10795068359375,0.9578770634174346,0.595250204449892,-4.263723028126359
1684252545120976600,7.1179765625,0.6533391130641102,0.07318330963253974,-4.059667605480551
1684252545131002600,7.128002685546875,0.7890026981376111,-0.13351765908598898,-3.109239104503393
1684252545141028600,7.138028564453125,0.7418431798167526,0.15196166279315948,-2.044581582278013
1684252545151053600,7.148053466796875,0.3886471431478858,0.487930231937766,-0.9990981316000223
1684252545161079600,7.15807958984375,-0.020014029502868652,0.4301607645362615,-0.081359017303586
1684252545171105500,7.16810546875,-0.5166548066407441,0.16774726094603537,0.49194443601518867
1684252545181131800,7.1781318359375,-0.7490458046719431,-0.0890975026011467,0.7873097766146063
1684252545191157800,7.18815771484375,-0.6950421195447445,-0.3386562007933855,0.9947902052730321
1684252545201183700,7.198183837890625,-0.4865434537544846,-0.623560937654972,1.275091247731447
1684252545211209700,7.208209716796875,-0.4405073865056038,-0.9203881675004959,1.5910636152908204
1684252545221235700,7.218235595703125,-0.4518228535071015,-1.2427239326119421,1.8218986160516737
1684252545231261700,7.22826171875,-0.6447872655570507,-1.501734349760413,2.0105150620251893
1684252545241287700,7.23828759765625,-1.4085744200259447,-1.6784902620702982,1.7633663475841284
1684252545251313700,7.248313720703125,-2.270702706259489,-1.9979040022552013,1.4701964712023734
1684252545261339600,7.258339599609375,-2.906675089459121,-2.323451715150475,1.3033435287475585
1684252545271365600,7.26836572265625,-3.3710666248992083,-2.4686399382859467,0.9927058002144098
1684252545281391600,7.2783916015625,-3.5612826150238512,-2.445813189449906,0.6360539240032435
1684252545291417900,7.28841796875,-3.497570021308958,-2.164598539277911,0.09620002808272839
1684252545301443800,7.29844384765625,-3.255892139494419,-1.7106529945284128,-0.5715875893115997
1684252545311470300,7.30847021484375,-2.7872283335626125,-1.2680237935632466,-1.1099392639756203
1684252545321496300,7.318496337890625,-2.231604621580243,-0.8915572098135948,-1.558052157048881
1684252545331522300,7.328522216796875,-1.767499794127047,-0.6106733990311622,-1.8577616643324493
1684252545341548300,7.33854833984375,-1.5337527053117752,-0.5245686485052109,-1.9820921006172894
1684252545351574300,7.34857421875,-1.49757167712301,-0.7063064408808947,-1.8344295963227748
1684252545361600300,7.358600341796875,-1.585458634890616,-0.993514778509736,-1.547268897227943
1684252545371625200,7.368625244140625,-1.771109655187279,-1.4269260692745447,-1.1695473449811338
1684252545381651200,7.378651123046875,-2.090318958841264,-1.928044868609309,-1.0332327486529946
1684252545391677200,7.38867724609375,-2.466959437853098,-2.442707040128112,-1.023895888248086
1684252545401703200,7.398703125,-2.7337913424074647,-2.84529064643085,-0.8417550680294632
1684252545411729200,7.408729248046875,-2.624315068644285,-3.0245722778260706,-0.7029577149748801
1684252545421755100,7.418755126953125,-2.244168919599056,-2.897831565529108,-0.7209300095170735
1684252545431781400,7.428781494140625,-1.6930922033965587,-2.409526070538163,-1.1298182689219713
1684252545441807400,7.438807373046875,-0.5741385159034281,-1.4354355389446019,-2.096868818876147
1684252545451833300,7.448833251953125,1.8151240073502062,0.23781799151599406,-3.969534622351825
1684252545461859300,7.458859375,6.159967567849159,2.6021564283281564,-6.466596060740947
1684252545471885300,7.46888525390625,8.596144913947581,5.0929930008530615,-8.168601053911447
1684252545481911300,7.478911376953125,5.885376719731092,6.5505936098545785,-8.398133447641134
1684252545491937300,7.488937255859375,2.814006450372934,6.596334785810113,-7.475242357409
1684252545501963300,7.49896337890625,1.4561843124628067,4.6907115923672915,-5.711850290861726
1684252545511989000,7.508989013671875,0.6033762277603149,1.5122060594141482,-3.7388916370317338
1684252545522015000,7.519014892578125,-0.2759177128076553,-0.994247768959403,-2.3053213074371217
1684252545532041000,7.529041015625,-0.846035814088583,-2.7348925816476344,-1.243317514590919
1684252545542067200,7.539067138671875,-0.9822060335099696,-3.849851135089993,-0.5831792429059743
1684252545552093200,7.54909326171875,-0.8846037374138832,-4.544964566305279,-0.1445513865366578
1684252545562119200,7.559119140625,-0.7020096204698085,-4.832443537569046,0.1914294575676322
1684252545572144400,7.569144287109375,-0.6208312204301357,-4.452467484393716,0.3713149000748992
1684252545582170400,7.57917041015625,-0.7033657112538814,-3.465262619683146,0.22235767979472873
1684252545592196400,7.5891962890625,-0.7945067023813724,-2.1662124042153357,-0.08155395535379648
1684252545602222000,7.59922216796875,-0.8288543776631355,-0.8164835563898086,-0.4754392914161086
1684252545612248000,7.609248046875,-0.8933049302637577,0.4096370319455862,-0.8354860707625746
1684252545622274000,7.619274169921875,-1.0959516551554203,1.3764344839215277,-1.18032505184412
1684252545632300000,7.629300048828125,-1.3314356507658958,2.0373463703274726,-1.2982850763142109
1684252545642326000,7.639325927734375,-1.5483423716783522,2.3052806831657886,-0.8413502866208553
1684252545652352000,7.64935205078125,-1.855682812231779,2.0572037479639054,0.4338125650420785
1684252545662378000,7.6593779296875,-1.8004349722623825,1.436630886209011,1.694661936931312
1684252545672404200,7.669404296875,-1.4898527733087539,0.9752794491171837,2.3331430880814787
1684252545682430200,7.67943017578125,-1.2546049245417117,0.7115957794606685,2.6276696397691963
1684252545692456200,7.689456298828125,-1.1210266213096678,0.48906245083808897,2.788945074352622
1684252545702482200,7.699482177734375,-1.109941602063179,0.3595575345247984,2.879533692294359
1684252545712508200,7.709508056640625,-1.1288964779019355,0.2923269958168268,2.761826181280613
1684252545722534100,7.7195341796875,-1.089362851349637,0.21023031188845634,2.56144535549432
1684252545732560100,7.72956005859375,-1.0029086297988892,0.10243220047056674,2.1991621953979132
1684252545742586000,7.739586181640625,-0.9795078804671764,0.09850129076242446,1.6144506283581257
1684252545752612000,7.749612060546875,-1.0180465776979923,0.2503945644944906,0.7922989632040262
1684252545762638000,7.75963818359375,-0.9497931256830692,0.5509896224409342,0.05027238964438438
1684252545772664000,7.7696640625,-0.671357292574644,0.9181716604948044,-0.19109978722184895
1684252545782689000,7.77968896484375,-0.5452952101916074,1.2983552189409733,0.11000468155145644
1684252545792715000,7.789715087890625,-0.3030897608390078,1.6402555162221193,0.8097139161244035
1684252545802741200,7.7997412109375,0.5531104139871895,1.8707044402748345,1.4434315061345695
1684252545812767200,7.809767333984375,1.5490005433261393,1.9063187744915484,1.7539815563842653
1684252545822793200,7.819793212890625,2.290434411689639,1.6793594461202621,1.7922700782462953
1684252545832819200,7.829819091796875,2.985581745174527,1.178984158629179,1.5182111450478433
1684252545842845200,7.83984521484375,4.844451370748877,0.5115513460218906,0.7797045623078942
1684252545852871200,7.84987109375,14.17078161381483,-0.5459533818393946,-1.5020239803567528
1684252545862897200,7.859897216796875,14.840806196480989,-1.4198931018978356,-2.680308174023032
1684252545872923100,7.869923095703125,6.839115368169546,-1.78885793171525,-1.845501902218163
1684252545882949000,7.87994921875,1.6448910670682786,-1.9462714301735162,-0.5041887082993984
1684252545892975000,7.88997509765625,0.05889291847348213,-1.9904536862492561,0.30565497168451544
1684252545903001000,7.9000009765625,0.1436421627372503,-1.8626520667225122,0.37978988295346494
1684252545913027300,7.91002734375,0.2466039400398731,-1.4440923081308603,0.36380057892203327
1684252545923053300,7.92005322265625,0.23638715499527752,-0.9417097724705934,0.3477393786981702
1684252545933079300,7.930079345703125,0.20263912610709667,-0.48749593217372894,0.288342894616723
1684252545943105300,7.940105224609375,0.2610696877658367,-0.0953974795281887,0.1510463015139103
1684252545953131300,7.95013134765625,0.4190424275420606,0.1924374655663967,-0.008474982878565789
1684252545963157200,7.9601572265625,0.6113667150575667,0.4084411001592874,-0.15847469794899224
1684252545973183200,7.970183349609375,0.8479116178978234,0.5481131902217865,-0.20606997733861207
1684252545983209200,7.980209228515625,1.0748528260905295,0.6272942789644003,-0.1949035634189844
1684252545993234200,7.990234130859375,1.3094856847643852,0.6436597228318452,-0.1143614154562354
1684252546003260200,8.00026025390625,1.4685561566494405,0.5093132117062806,0.036846506360173226
1684252546013286100,8.0102861328125,1.5868882293023168,0.18797814806997776,0.27395927221626043
1684252546023312100,8.02031201171875,1.651990377679467,-0.2544482237994671,0.6165460904568434
1684252546033338000,8.030338134765625,1.6826006199985741,-0.5073696764230727,0.992468484327197
1684252546043364400,8.0403642578125,1.756855212124437,-0.42284079691171644,1.3985402250066399
1684252546053390300,8.050390380859374,1.8987902786828577,0.11863164012134074,1.7816411322042345
1684252546063416300,8.060416259765624,2.0729602661527693,1.2642542118966578,2.039803700351715
1684252546073442300,8.0704423828125,2.1283133200623094,2.964208117756247,1.9825205551624296
1684252546083468300,8.08046826171875,2.1941290235362945,4.860610478389263,1.673061515019834
1684252546093494300,8.090494384765625,2.5234897188484666,6.391776674339175,1.3664140251666306
1684252546103520300,8.100520263671875,7.937460055941343,8.826012823241948,1.7467220867753028
1684252546113546200,8.110546142578125,18.705438136595486,12.111355513626336,1.1666495777130126
1684252546123572200,8.120572265625,17.613479934990405,12.054964348840713,-2.674427883812785
1684252546133598200,8.13059814453125,10.174193857103585,9.72209189439416,-3.9750796892583367
1684252546143624200,8.140624267578126,5.52218988879323,7.285641576573252,-2.7927807069927453
1684252546153650200,8.150650146484375,1.6792565702676772,4.980453832387924,-1.661270831722021
1684252546163676200,8.16067626953125,-0.9215537041485309,3.248756296265125,-0.4088847522735595
1684252546173702100,8.1707021484375,-3.5317125294074416,2.2035797195792197,0.29408523766100403
1684252546183728000,8.18072802734375,-6.738614428022504,1.79644853297472,0.7057382856041192
1684252546193753300,8.19075341796875,-9.343633260044456,2.1347651265501977,2.1951333782732485
1684252546203779300,8.200779296875,-11.210697297990322,3.1056232520937916,3.981419998195767
1684252546213805300,8.210805419921876,-12.839542362403868,4.897042558729648,5.270514636838436
1684252546223831300,8.220831298828125,-15.301968248480557,7.440488439413905,5.887610177871585
1684252546233857300,8.230857177734375,-17.31123068009615,10.202319881391524,7.6753271228581665
1684252546243883000,8.240883056640625,-11.236804383671283,13.866771778988838,10.556170728707313
1684252546253909000,8.250908935546875,8.493975748327374,19.223453125673533,14.712189168918131
1684252546263935000,8.26093505859375,8.00085846914053,19.570800582444665,13.836252722084522
1684252546273961000,8.2709609375,1.763072333073616,17.430162179946898,10.241498045569658
1684252546283987200,8.2809873046875,-2.7957553388893603,12.991921373826264,4.803468495236337
1684252546294013200,8.29101318359375,-5.913154953494668,8.098462518802284,0.22350071235001087
1684252546304039200,8.3010390625,-8.609684779000283,4.503809549096227,-1.8451918133556842
1684252546314064600,8.311064697265625,-10.143679476374388,1.5665163262724875,-2.622120481209457
1684252546324090600,8.321090576171875,-10.49550787795186,-0.4812298575162887,-2.918957647927105
1684252546334116600,8.33111669921875,-9.783320562338828,-1.7112001070171594,-3.174152598440647
1684252546344142800,8.341142822265626,-8.919028376069665,-2.6526199566304682,-3.0345056428194046
1684252546354168800,8.3511689453125,-8.841457645133136,-3.4503199020951985,-2.6058392084941264
1684252546364194800,8.36119482421875,-9.621675125399232,-3.944771060234308,-2.6541335760638116
1684252546374220800,8.371220703125,-9.819875392276048,-4.601541024529934,-3.354408627825975
1684252546384246800,8.381246826171875,-9.971948114228248,-5.858515600812435,-4.858243164736032
1684252546394272800,8.391272705078125,-10.927155081653595,-7.177585691002011,-6.333215179777145
1684252546404297700,8.401297607421874,-10.870638829183578,-7.818575317841768,-7.279405897054076
1684252546414323700,8.41132373046875,-9.835067116189002,-8.46507347896993,-7.177485153236985
1684252546424349700,8.421349609375,-9.073169720989466,-8.922202914452551,-5.692993030178546
1684252546434375700,8.431375732421875,-8.738904448631406,-8.903699289512634,-3.127318658812344
1684252546444401700,8.441401611328125,-8.796942796102165,-8.37089414305985,-0.5163347809061408
1684252546454427600,8.451427734375,-8.925746870669721,-7.593108858376741,1.7244632009550929
1684252546464453600,8.46145361328125,-9.472546055683493,-6.937720703828335,3.142924516484141
1684252546474479900,8.47147998046875,-9.71269044432044,-6.583395224738121,3.777170514282584
1684252546484505900,8.481505859375,-8.972400485295056,-6.424649016371369,3.9006510557398197
1684252546494531800,8.49153173828125,-7.8641621800184245,-6.530927955397964,3.946973246453702
1684252546504557800,8.501557861328125,-6.39406157040596,-6.76497402715981,3.9679517370745536
1684252546514583800,8.511583740234375,-4.929556004321575,-7.021123209658264,3.944623176196217
1684252546524609800,8.52160986328125,-3.4115526568055152,-7.086003970369696,4.270344492092728
1684252546534635800,8.5316357421875,18.907460592108965,-3.6906665353059767,7.3147747320771215
1684252546544661800,8.541661865234374,70.65145072927474,15.269023425734042,-2.431163901850581
1684252546554687700,8.551687744140626,13.732007919234036,14.265548978745937,-17.327364653295277
1684252546564713700,8.561713623046876,-26.58079624888897,12.1244780300498,-21.596956865715978
1684252546574739700,8.57173974609375,-28.852788410437107,21.615086396646497,-28.170200114274024
1684252546584764700,8.5817646484375,-14.314464108562468,20.56437322862148,-20.807922457265853
1684252546594790700,8.591790771484375,4.734352288912237,8.81938843666613,-8.862953437626361
1684252546604817000,8.60181689453125,6.5165925560534,-1.1005582721680403,-4.3403287134230135
1684252546614843000,8.6118427734375,-0.8341247192814946,-1.829548254022002,-9.402194754606485
1684252546624868900,8.621868896484376,-2.5927453336432573,-3.101619277149439,-12.648036624729633
1684252546634894800,8.631894775390625,1.3048723457500337,-4.537941535800695,-9.467787462979555
1684252546644920800,8.6419208984375,1.4780533221825956,-0.9825479788154363,-4.504170199102163
1684252546654946800,8.65194677734375,-0.7522492768883705,2.1194407161682842,-0.32240999939143655
1684252546664972800,8.661972900390625,-2.680099499708414,3.549611466452479,3.4583874732166526
1684252546674998800,8.671998779296874,-2.65474294013381,5.338353662833571,5.714184286767244
1684252546685024800,8.682024658203124,-0.7773065612554549,6.449373123261332,7.517573432660102
1684252546695050800,8.69205078125,1.7205035035438834,5.942259467425942,8.360040156090259
1684252546705076700,8.70207666015625,2.4210882057771084,4.562200363266467,7.244099021351337
1684252546715103000,8.71210302734375,1.2367818292118609,3.3075814101994037,5.172226112043857
1684252546725129000,8.72212890625,0.3744752638019621,2.6328373977959156,3.3094618171185255
1684252546735155000,8.732155029296875,0.369588222412765,2.4671207658946512,1.7717103975594042
1684252546745181000,8.742180908203125,1.0391372965216636,2.533324884164333,1.0108873535931109
1684252546755207000,8.75220703125,2.21057293946743,2.502024906015396,1.0472726721823216
1684252546765233000,8.76223291015625,3.329822468101978,1.920129857701063,1.5042667908474803
1684252546775259000,8.7722587890625,3.952831617093086,0.6510124236822128,1.8702257168471812
1684252546785284900,8.782284912109375,3.877974236768484,-0.5435118339061736,1.7018129777297377
1684252546795309800,8.792309814453125,3.304393427813053,-1.3445762873679399,1.258884501557052
1684252546805335800,8.802335693359375,2.6160113506793974,-1.8929525124400852,0.6636743368566036
1684252546815361800,8.81236181640625,2.1279227133095264,-2.1421412082761524,-0.07320669050812721
1684252546825387800,8.8223876953125,1.7695266237795353,-2.1427385896474123,-0.7000701768398284
1684252546835413800,8.832413818359376,1.2079805360108613,-1.8804899212300776,-1.0768033025711774
1684252546845440000,8.84243994140625,0.5652514450926334,-1.4009054928332567,-1.1050167128816246
1684252546855466000,8.852466064453125,0.12082593529522419,-1.0166256049841642,-0.9233733207911252
1684252546865492000,8.862491943359375,-0.03039155806712806,-0.8901882595479488,-0.7286530049845575
1684252546875518000,8.87251806640625,0.03251877935416996,-0.9630278703093528,-0.44915947951674456
1684252546885544000,8.8825439453125,0.16717099542804062,-1.0865876144826412,-0.22452333339601754
1684252546895570000,8.89256982421875,0.380011709010601,-1.0678384903490543,-0.1421770586207509
1684252546905596000,8.902595947265626,0.4760335309822112,-0.9195867879897356,-0.1732183858335018
1684252546915621600,8.91262158203125,0.5079326440680771,-0.6639654287576675,-0.23214403753280638
1684252546925647600,8.922647705078125,0.5258288776993751,-0.41935821549296376,-0.18949352106899023
1684252546935673600,8.932673583984375,0.6001609189756214,-0.284340673238039,-0.02435059740245342
1684252546945699600,8.942699462890625,0.6246048937499523,-0.28120120616853234,0.10252835432142018
1684252546955725800,8.952725830078125,0.5986177811868488,-0.37366613937616344,0.1813686668023467
1684252546965751800,8.962751708984374,0.6232599088817834,-0.56942368927598,0.14975333909392355
1684252546975777000,8.972777099609376,0.7362298699796199,-0.8216419620662927,0.027277883026003837
1684252546985803000,8.982802978515625,0.897567848405242,-1.0599410150974988,-0.24934300961494443
1684252546995829000,8.9928291015625,1.1935383152909576,-1.161654253643751,-0.3555953528955579
1684252547005854700,9.002854736328125,1.5562842705935238,-1.078057102024555,-0.30480566137880083
1684252547015880700,9.012880615234375,1.8636942692518232,-0.7609229972094297,-0.34822073247432705
1684252547025906700,9.02290673828125,2.045667770079523,-0.3909036899030208,-0.21833441562801598
1684252547035932700,9.0329326171875,2.0451985451325774,-0.033526422026753426,-0.010275894820690154
1684252547045958700,9.042958740234376,2.066135242438316,0.13527590093016623,0.10428688842654228
1684252547055984600,9.052984619140625,1.9562126862123608,0.08247194698154926,0.16307956139594315
1684252547066010600,9.0630107421875,1.8986454633846879,-0.03255319308042526,0.38859892009198665
1684252547076036600,9.07303662109375,2.0539842013955116,-0.029463994893431662,0.716501671680808
1684252547086062800,9.083062744140625,2.259462058059871,0.10048281996846198,0.8891849277243018
1684252547096088800,9.0930888671875,2.312888820081949,0.2156511678934097,1.0096420297071338
1684252547106114800,9.10311474609375,2.271064525309205,0.33583471363186834,0.9628697571381926
1684252547116140800,9.113140869140626,2.28827840269953,0.3745791625678539,0.9534770748928189
1684252547126166800,9.123166748046875,2.6292355739116666,0.3289747647345066,0.9786614927709102
1684252547136192800,9.13319287109375,3.227038677714765,0.1957879450380802,1.0519465092122555
1684252547146218800,9.14321875,3.7548368096604943,-0.006024082595109939,1.0284759095147251
1684252547156244700,9.15324462890625,4.076970914719999,-0.2011684690326452,0.7084416993439198
1684252547166270700,9.163270751953124,4.2792979061380025,-0.29608897869884965,0.03264262492954731
1684252547176296700,9.173296630859374,4.576180957823992,-0.2867144166320562,-0.7908098936900496
1684252547186321700,9.18332177734375,5.535746120458841,-0.019475684842467308,-1.928953215625882
1684252547196347600,9.19334765625,8.373978665071725,0.5715840821802616,-3.511123914887011
1684252547206373600,9.20337353515625,10.294472095388173,1.1308119561344385,-4.395729698127508
1684252547216400000,9.21339990234375,9.647516253620385,1.1738970646232365,-4.31897232940048
1684252547226425900,9.22342578125,8.152302245539426,0.4838286418378353,-3.7633348811537024
1684252547236451800,9.233451904296874,7.012905416411161,-0.7547475234448909,-2.8824741296604275
1684252547246477800,9.243477783203126,5.7554632226169105,-1.2046090137511491,-1.5660238665804267
1684252547256503800,9.25350390625,3.448132621183991,0.39640111827552316,-0.49153439390957354
1684252547266529800,9.26352978515625,1.663514811256528,2.4460493362933398,0.3584706160709262
1684252547276555800,9.2735556640625,1.31145376996696,4.542294470313191,0.44609775385856626
1684252547286581800,9.283581787109375,0.5129577056884765,6.79057959305942,-0.6409194842129945
1684252547296607700,9.293607666015625,-0.26633038477301596,8.830432977771759,-2.5276529760077593
1684252547306633700,9.3036337890625,-0.8678349734425544,10.373270322293042,-5.003081843781471
1684252547316660700,9.31366064453125,-0.6195815126299857,10.76337906242609,-7.869598818114399
1684252547326686700,9.323686767578126,-3.4668168633878227,7.578186014533043,-7.847377633956074
1684252547336712700,9.333712646484376,-5.683015241521597,4.822534722495079,-6.572253068476915
1684252547346738700,9.34373876953125,-6.875284413659572,3.4175013360768554,-5.467874361237883
1684252547356764700,9.3537646484375,-7.2744567502140995,2.0405781918555497,-4.395083801439404
1684252547366789600,9.36378955078125,-7.161620644629001,0.7290390816926956,-3.173632666219771
1684252547376815600,9.373815673828124,-6.802433112460374,-0.2787900533735752,-2.1020769089132547
1684252547386841600,9.383841552734374,-6.552417902672291,-0.7366390353024005,-1.4166516357585788
1684252547396867600,9.39386767578125,-5.869324579596519,-0.8224374963581561,-0.4201300766482949
1684252547406893600,9.4038935546875,-3.008680004428327,-0.7376257082521915,1.0393421714439988
1684252547416919800,9.413919921875,3.3062238581106063,0.5205395391196013,2.845288016082346
1684252547426945800,9.42394580078125,3.7962858413800595,1.1772948903679847,2.421118600915372
1684252547436971800,9.4339716796875,0.7672025158703327,1.2938859645724297,0.6511088697940111
1684252547446997800,9.443997802734375,-1.8950041842728853,1.8869249227136373,-0.7631862659662961
1684252547457023700,9.454023681640624,-4.4532440217241644,2.362604160365462,-1.963485599824786
1684252547467049500,9.464049560546876,-5.6418876968413585,2.3700211586236954,-2.6911414104655385
1684252547477075500,9.474075439453125,-4.800847499082982,2.1826941679388283,-3.3551989014208314
1684252547487101400,9.484101318359375,-3.342875718681514,1.6758318565160035,-3.171346308848262
1684252547497127400,9.49412744140625,-2.7077187435179946,0.48578094494938845,-2.1927008904293177
1684252547507153400,9.5041533203125,-2.660534967538714,-1.0520067149668932,-1.1401435558423398
1684252547517179400,9.514179443359374,-3.1531194550231096,-2.5908301476716993,-1.1766449020266532
1684252547527205600,9.52420556640625,-3.9186978768229483,-3.9567619422793388,-1.904335199458897
1684252547537231600,9.534231689453126,-4.743989009046555,-4.921281512451172,-2.4592414108216762
1684252547547257600,9.544257568359376,-4.7986739544361825,-5.6313563659548755,-2.45266904669404
1684252547557283600,9.55428369140625,-4.768194060498476,-5.953709082201123,-1.7580683873064815
1684252547567308500,9.56430859375,-5.212952090185881,-5.779433880791068,-0.863262843221426
1684252547577334500,9.57433447265625,-5.613802589085698,-5.071154094010591,-0.26933848054781556
1684252547587360500,9.584360595703124,-5.7826902522385115,-4.1857220890790225,-0.4891881230443716
1684252547597386500,9.594386474609376,-5.881200895351171,-3.5418244658380744,-1.1033864813312888
1684252547607412500,9.60441259765625,-5.9742784074991935,-3.0575474957108497,-1.5447745961941777
1684252547617438500,9.6144384765625,-5.438773938959836,-2.708400880563259,-1.6869110305435955
1684252547627464400,9.62446435546875,-4.846247606515884,-2.3488696495234964,-1.3366365804098546
1684252547637490400,9.634490478515625,-4.740636483748257,-1.9574013114750384,-0.7556089625798166
1684252547647516400,9.644516357421875,-4.701099715390801,-1.5866004984021187,-0.14597089794576168
1684252547657542700,9.654542724609374,-4.6595331947714085,-1.3108078732788562,0.42797377588599916
1684252547667568600,9.664568603515624,-4.726135372447967,-1.2496183683007955,1.0748162204071878
1684252547677594600,9.6745947265625,-4.856352820944786,-1.4193518346279859,1.5714455993682146
1684252547687620600,9.68462060546875,-5.060647897565365,-1.754153698080778,1.6899720255494117
1684252547697646600,9.694646484375,-5.268524924325943,-2.1070979519456623,1.3643027321010828
1684252547707672600,9.704672607421875,-5.417884295666218,-2.3257810348808765,0.9611486324340105
1684252547717698600,9.714698486328125,-5.269520949625969,-2.3087550812780857,0.8157938205599784
1684252547727724500,9.724724609375,-4.639358421748876,-2.0156822355300186,0.814390383502841
1684252547737750500,9.73475048828125,-3.646780631828308,-1.5686381407320498,0.9965002240613102
1684252547747775500,9.744775390625,-2.50986918977499,-0.8250199140667915,1.3451666544765233
1684252547757801500,9.754801513671875,-0.924442411327362,0.6919809784084558,1.709293104352057
1684252547767827500,9.764827392578125,8.614604115223884,5.164552508676052,1.2059735801026223
1684252547777853400,9.774853515625,26.793379845905303,13.608789535844325,-5.998080138847231
1684252547787879700,9.784879638671875,17.309084315717218,17.27142473940849,-12.32576632606983
1684252547797905700,9.79490576171875,0.5522854344051331,14.93586348426938,-12.43494566271305
1684252547807931600,9.804931640625,-5.675574277865886,10.065357050287723,-8.909733893501759
1684252547817957600,9.81495751953125,-4.278429014348983,6.624372547292709,-6.468083668950199
1684252547827983600,9.824983642578125,-2.580938868254423,1.4908026213794945,-3.14364493971318
1684252547838009600,9.835009521484375,-3.237303174358606,-1.7080214769810438,-1.5361334629684686
1684252547848035600,9.84503564453125,-5.05241198413968,-2.877603016492724,-3.4158962389677763
1684252547858061600,9.8550615234375,-6.442479856616258,-3.5138866575986145,-5.591864313521981
1684252547868087600,9.865087646484374,-6.551293282556533,-4.177247106200457,-6.378531408318877
1684252547878113500,9.875113525390624,-5.08117279919982,-5.378189414137601,-5.7127130451709025
1684252547888139500,9.885139404296876,-3.152162884950638,-5.772746950373053,-3.447209661120176
1684252547898165800,9.895165771484375,-1.5078735831677912,-4.030126453697681,-1.7072212665140627
1684252547908191700,9.905191650390625,0.2564228118080646,-2.5069120935350657,-0.7179673603191972
1684252547918217700,9.9152177734375,2.916106642410159,-1.5158143130391835,0.22056027498394248
1684252547928243700,9.92524365234375,7.853706252455711,-0.723406044241786,2.0656778540596363
1684252547938268700,9.9352685546875,17.330042932593823,0.27890461966395375,6.0045361831188195
1684252547948294700,9.945294677734376,15.785199508947134,1.4921101968467234,5.817327850377559
1684252547958320600,9.955320556640626,11.85578968397379,2.815048652902245,3.9466426993250843
1684252547968346600,9.9653466796875,12.039551675653456,4.4819858398228885,3.2994223614022133
1684252547978372600,9.97537255859375,13.116742516237496,6.607686785429716,0.15929215181171894
1684252547988398600,9.985398681640625,11.737445044100284,7.393396433371305,-2.482690383209288
1684252547998424600,9.995424560546875,8.323861758249997,6.614049890720844,-2.7464591008007524
1684252548008450600,10.005450439453124,5.819585858437419,5.195130017769336,-2.132781843778491
1684252548018476500,10.0154765625,3.8423631174221633,3.651652037256956,-1.0254390260368584
1684252548028502800,10.025502685546876,2.010254073001444,3.183094614309072,-0.8633926070809363
1684252548038528800,10.03552880859375,1.0855787297010422,2.801128848621249,-0.41511254074722526
1684252548048554800,10.0455546875,1.0423708716154099,1.997148799973726,0.5579921946793794
1684252548058580700,10.055580810546875,0.9300656580366193,1.1075684431910515,1.4782976523324847
1684252548068606700,10.065606689453125,0.4259517685391009,0.37159108666777607,2.50913181541115
1684252548078632700,10.0756328125,-0.17524667679071426,-0.15533786122798918,3.3485259995281695
1684252548088658700,10.08565869140625,-0.8103051600158214,-0.3737608319222927,4.038019252774119
1684252548098684700,10.0956845703125,-1.4176397700130938,-0.4714163195103407,4.459183640906215
1684252548108710400,10.10571044921875,-1.9709704026222228,-0.6089098964899778,4.50371807142049
1684252548118736400,10.115736328125,-2.820459572035074,-0.6502011072993278,4.389610922986269
1684252548128761600,10.12576171875,-3.5650925287008284,-0.8956400952130555,4.377689014524221
1684252548138787600,10.13578759765625,-5.915474920874834,-1.2714298026144504,4.973343708121776
1684252548148813600,10.1458134765625,-7.705414218086004,-2.3229700691133734,5.170103128540515
1684252548158839800,10.15583984375,-5.545177965670824,-3.331099648430943,5.039006559121608
1684252548168865800,10.16586572265625,-2.916298950111866,-3.0175615222811696,4.346944624431431
1684252548178891800,10.175891845703125,-1.3140297579348086,-2.193058910086751,3.174021665537357
1684252548188917800,10.185917724609375,-0.024889526584744453,-1.380153212183714,1.6431898161083458
1684252548198943500,10.195943603515625,0.7878969288527965,-0.6426122596055269,0.25222411800920963
1684252548208969500,10.205969482421875,1.1958381166659295,0.005395137041807174,-0.9634288523256778
1684252548218995500,10.215995361328124,1.2914357949413358,0.47734687860310077,-1.8942481052085756
1684252548229021400,10.226021484375,1.3957026634931564,0.7517793212890624,-2.5023054765224457
1684252548239047400,10.23604736328125,1.5730210319913922,0.6862514948457479,-2.8641721647724507
1684252548249073400,10.246073486328125,2.3241404280669986,0.07299743167161941,-2.995560995136201
1684252548259099400,10.256099365234375,7.740233018010854,-0.864085265520215,-4.390499396258592
1684252548269125600,10.266125732421875,54.184136386895176,-3.4153304217785596,-14.470163204318284
1684252548279151600,10.276151611328125,34.11128527722359,-2.385956978902221,-14.4614397996366
1684252548289177600,10.286177490234374,2.6694915964543817,1.6169541356116532,-8.613294786190986
1684252548299203600,10.29620361328125,-5.49773933814764,3.739780987086892,-5.015338683286309
1684252548309228500,10.306228515625,-6.721970167213678,5.853902554059029,-1.9890788907647132
1684252548319254300,10.316254150390625,-6.837859815150499,8.589761934912204,-1.0394079301565884
1684252548329280300,10.3262802734375,-6.907417920023202,11.976743629562854,-3.7208141285493967
1684252548339306200,10.33630615234375,-6.452538309293985,15.421927337813376,-8.26934223255515
1684252548349332000,10.34633203125,-7.05682756024599,15.626234104871749,-9.2219533382684
1684252548359358000,10.35635791015625,-6.788420953720808,13.518819926583767,-7.063440840905904
1684252548369384000,10.366384033203126,-4.362418087895215,11.247185492432116,-3.927510713353753
1684252548379410000,10.376409912109375,0.18151012109965084,9.928439811891316,0.00362637380361557
1684252548389436000,10.386435791015625,3.3879952556073665,9.745340668034553,3.656694123077392
1684252548399462000,10.3964619140625,1.706114766576886,10.314799428623914,5.730037689459324
1684252548409488000,10.40648779296875,-0.4344721979945898,11.748167513644695,7.935012078267335
1684252548419514000,10.41651416015625,-1.328755033379793,12.90463121290803,10.274398444652556
1684252548429540000,10.4265400390625,-1.845392012102902,12.294997093796729,10.051526093333958
1684252548439566000,10.436566162109376,-3.9585219376891847,8.902515632686018,6.986705391749739
1684252548449592000,10.446592041015625,-6.654460227042436,5.254380079117417,3.9686236449867485
1684252548459618000,10.4566181640625,-8.36692056325376,2.888638789770007,2.8443218013986944
1684252548469644000,10.46664404296875,-8.405497254407406,1.4383634090900421,3.784175716869533
1684252548479670000,10.476669921875,-6.930152314400672,0.6737269443154335,5.56392942789197
1684252548489695000,10.486695068359374,-4.895467272236943,-0.24050328507721422,6.311151816529035
1684252548499721000,10.496720947265626,-3.6040170103788376,-1.7547680305868387,4.816654432284832
1684252548509747000,10.506746826171875,-3.5603871274888514,-2.9645787046343086,3.491089719378948
1684252548519773000,10.51677294921875,-3.688520755448937,-3.8805169069886207,3.01746741425693
1684252548529799000,10.526798828125,-3.6360838812470435,-4.562914064493775,2.6047034824624657
1684252548539825000,10.536824951171875,-3.8644934084266422,-4.617243620574474,2.10010823918879
1684252548549851100,10.54685107421875,-4.314797381803393,-3.8498955587536092,1.6380390092164276
1684252548559877000,10.556877197265624,-4.672722931212187,-2.41525789218843,2.09505446293056
1684252548569903000,10.566903076171876,-4.621169854107499,-1.169927576470375,3.1375486686646936
1684252548579929000,10.57692919921875,-4.4703199519485235,-0.4800467852115631,4.248711921477318
1684252548589955000,10.586955078125,-4.018663394919038,-0.22581541903316973,4.827866438911855
1684252548599981000,10.59698095703125,-2.89389247251451,-0.3468763321280479,4.292092213520408
1684252548610007000,10.607007080078125,-2.1322925989568233,-0.7479127089887857,2.809784741024673
1684252548620033000,10.617032958984375,-2.109603212764859,-1.0333873546928167,1.3332508834943175
1684252548630059000,10.62705908203125,-2.775001304674148,-1.268814067158103,0.28774200611412526
1684252548640085000,10.6370849609375,-3.980591730678081,-1.4476526309609412,-0.06957739409506321
1684252548650111000,10.647111083984376,-5.070702258589863,-1.54929806496799,-0.053072541756927966
1684252548660137200,10.65713720703125,-5.753998995283245,-1.6721043604254722,0.3411830889225006
1684252548670163200,10.6671630859375,-5.957745205849409,-1.7955869477093218,0.9555702477797865
1684252548680188200,10.677188232421875,-5.979179623544216,-1.938968413683772,1.4751605233505367
1684252548690214100,10.687214111328124,-6.057264149221777,-2.078034354546666,1.7846733395069836
1684252548700240100,10.697240234375,-6.127123867389559,-2.270428565493226,1.9146064181044697
1684252548710266000,10.70726611328125,-6.1617889380574224,-2.3896061490595337,1.8722054924875497
1684252548720292000,10.7172919921875,-6.1168216690838335,-2.4179180513083933,1.7692784942373632
1684252548730318000,10.727318115234375,-5.994212357503176,-2.333736377799511,1.6371885298669338
1684252548740344000,10.737343994140625,-5.796705333587527,-2.2286492789059875,1.3856632077768445
1684252548750370000,10.7473701171875,-5.4557192285418505,-2.1958961793392895,0.9322580535143613
1684252548760396000,10.75739599609375,-5.083220963901281,-2.1887293564498425,0.5102455241203308
1684252548770422000,10.767422119140624,-4.656711415348947,-2.1896324427694083,0.08490735743492842
1684252548780448000,10.777447998046876,-3.904356339998543,-2.162874784225225,-0.19458119959682224
1684252548790474200,10.78747412109375,-3.0217604352757332,-2.111334566602111,-0.08135083399713039
1684252548800500200,10.797500244140625,-1.9459671865299344,-1.9559961208522318,0.3489931781515479
1684252548810526200,10.807526123046875,-0.8676505567863583,-1.5463544127315283,0.9026853375494479
1684252548820552200,10.81755224609375,0.12525588056668638,-0.996314053839445,1.275134502351284
1684252548830578200,10.827578125,0.9869700330413878,-0.335413857871294,1.3324486272007225
1684252548840604200,10.837604248046874,2.2900223237574098,0.5034679928094148,1.2788520615696906
1684252548850630100,10.847630126953124,4.074942916023731,2.3149130193859335,0.8749015508279204
1684252548860656000,10.85765625,5.064118788546324,7.0978200803697105,-2.2635794302508234
1684252548870681000,10.86768115234375,11.726929495304823,17.284312278032303,-10.569239469116926
1684252548880707000,10.87770703125,30.85181820185184,31.05813104803562,-26.337102058815955
1684252548890733000,10.887733154296875,11.553542767167091,32.135718194460864,-24.242191972792146
1684252548900759000,10.897759033203124,-1.6062287434577942,22.493938438665865,-11.77134146848321
1684252548910785000,10.907784912109374,-2.8084406329393383,12.77698682976961,-6.006104455348849
1684252548920811300,10.917811279296876,-3.1182232059478756,4.332411948949098,-4.066033925642073
1684252548930837200,10.927837158203126,-2.2387726135134693,-1.0754290916085243,-1.8463006513804197
1684252548940863200,10.93786328125,-1.3897126292981206,-4.998499192166328,0.5467082918599248
1684252548950889200,10.94788916015625,-1.1481120505034923,-7.828442047339677,2.3824638760894534
1684252548960915200,10.957915283203125,-1.2782931125126777,-9.126808956718444,3.579208732336759
1684252548970941200,10.967941162109375,-1.6110288372159003,-9.434087437951565,4.522260859327018
1684252548980967200,10.97796728515625,-2.019050981310755,-9.387351405739784,5.420166269123554
1684252548990993000,10.987992919921876,-2.66641701131463,-9.084974725073575,5.71232609167993
1684252549001019000,10.998018798828125,-3.0497990735411644,-8.698096052902937,5.330266217967868
1684252549011044900,11.008044921875,-3.060490271164477,-8.264360937011242,5.088585121282935
1684252549021070800,11.01807080078125,-3.283655760210752,-7.886446492540836,4.841958677150309
1684252549031097000,11.02809716796875,-3.5748420615598557,-7.552372358840704,4.767376314374804
1684252549041122000,11.0381220703125,-4.015641124488413,-6.746855017623305,4.689527935540676
1684252549051148300,11.048148193359374,-4.643933182318508,-5.147670931980014,4.416298438903689
1684252549061174300,11.05817431640625,-5.094736045128107,-2.5671312921762466,3.490146301048994
1684252549071200300,11.0682001953125,-5.346098577871919,1.6055664801567793,1.4868372248798607
1684252549081226000,11.07822607421875,-5.817630632716417,5.8591275952309365,-0.8556494456082582
1684252549091252000,11.088251953125,-6.5655474333584305,9.63443173111975,-2.890003648382425
1684252549101278000,11.09827783203125,-6.516645163023472,12.01670154594183,-3.834148539045453
1684252549111304000,11.108303955078124,-5.694501096653938,12.664965547698735,-3.505983921650052
1684252549121330000,11.118329833984374,-5.102687880915403,11.632745483219622,-2.803154216969013
1684252549131356000,11.12835595703125,-4.250398851650953,9.179792358887195,-1.921267337298393
1684252549141382000,11.1383818359375,-3.4630879059925674,6.117559920230508,-1.2788853793174029
1684252549151407900,11.148407958984375,-2.6597511236846447,3.088261782926321,-0.8208958198741078
1684252549161434000,11.15843408203125,-1.6683599132001399,0.9863882876306772,-0.32967852908968925
1684252549171460000,11.168460205078125,-0.818987648165226,-0.4483312119990587,0.3613300971552729
1684252549181486000,11.178486083984374,-0.25480938526205715,-1.7475784113436936,1.215581074142456
1684252549191512000,11.188511962890624,0.1625602136969566,-2.7728718914300203,1.9151891864284871
1684252549201538000,11.1985380859375,0.6064882223010063,-3.4960832898825407,2.3161492831826207
1684252549211564000,11.20856396484375,1.1352408784925938,-3.9203082346290348,2.3712740812942386
1684252549221589000,11.218589111328125,1.7902070082366466,-3.972174030944705,2.088167041504383
1684252549231615000,11.228614990234375,2.5829227355480193,-3.675223466980457,1.5552446984127164
1684252549241641000,11.238640869140625,3.3550305591166016,-3.0761534119814633,0.6772250155642628
1684252549251667000,11.2486669921875,5.531227181729674,-2.3393296677619215,-0.5924243333742022
1684252549261693000,11.25869287109375,8.117670492619276,-1.4997282706350088,-2.085401083922386
1684252549271719000,11.268718994140626,7.026598426198959,-0.8056430134236812,-2.424354221835732
1684252549281745000,11.278744873046875,4.75986813070178,-0.38768414333462714,-2.0006880800157782
1684252549291771100,11.288771240234375,2.890761773273349,0.0020271219134330746,-1.501634104256332
1684252549301797000,11.298797119140625,1.8269697818361221,0.4880184947431087,-1.3697691808134316
1684252549311823400,11.3088232421875,1.53473660178259,1.0753466740220785,-1.5457289743095635
1684252549321849300,11.318849365234374,2.0261849248439074,1.6038579226732252,-1.676766799278557
1684252549331875300,11.328875244140624,3.3051404467880725,1.8698229812651872,-1.4914420883268118
1684252549341901600,11.338901611328126,4.8456671762794254,1.7972358839601277,-0.8261533020108938
1684252549351927600,11.348927490234376,5.920358601263165,1.6273784989923237,-0.187252171882987
1684252549361953500,11.35895361328125,6.453234474864602,1.5379688617020844,0.19325842656046152
1684252549371979500,11.3689794921875,6.666404931858182,1.5005980392068623,0.4230561932280659
1684252549382005500,11.379005615234375,6.900656755325198,1.5067542237490414,0.7076663310572504
1684252549392031500,11.389031494140625,7.617419123768806,1.5720722068339585,1.2018261050343513
1684252549402056400,11.399056396484376,8.89374721981883,1.7042898892372846,1.8070467916175723
1684252549412082400,11.40908251953125,9.81802596501708,1.7176316013693809,2.1537883914500475
1684252549422108400,11.4191083984375,9.106748165464401,1.277991645348072,1.5642454587310552
1684252549432134400,11.429134521484375,6.799916161203384,0.5543582220911979,0.23192893347740173
1684252549442160400,11.439160400390625,4.95224480599165,0.13133213174045086,-1.0576783308625222
1684252549452186400,11.449186279296875,3.6960944055736062,0.6174468386888504,-1.5894184784322976
1684252549462212400,11.45921240234375,2.997819879978895,2.0586761586040256,-1.790540185713768
1684252549472238600,11.469238525390624,3.017883009320497,4.7368555039048195,-2.2823972357064486
1684252549482264600,11.4792646484375,2.441490650075674,8.39051478933096,-3.217966605725884
1684252549492290600,11.48929052734375,-1.720845010457933,12.00338379920721,-3.854529063773155
1684252549502316500,11.499316650390625,-8.497185358023643,14.3816233355999,-4.225408787301182
1684252549512342500,11.509342529296875,-13.226928399574756,15.328679729795455,-3.2194144664466378
1684252549522368500,11.519368408203125,-13.763337123477458,14.548963769310712,-0.5828741224795579
1684252549532394500,11.52939453125,-10.80418336650133,12.237353883123397,2.9077146616399285
1684252549542420500,11.53942041015625,-5.635555571210384,10.405936912620067,6.567859801954031
1684252549552446500,11.549446533203126,-0.4514326851457357,8.73361920170486,9.26316680766642
1684252549562472400,11.559472412109375,-0.275633050647378,8.104414705204963,9.980276382112503
1684252549572498400,11.56949853515625,-1.4663058935046196,8.9204376583457,11.23002159166336
1684252549582523400,11.5795234375,-1.7367974896103142,9.024806379836797,9.865763867747782
1684252549592549400,11.58954931640625,-2.0244073937773703,6.461139548900723,5.5616071224242445
1684252549602575600,11.59957568359375,-3.0668238581001757,3.312732217091322,1.6190478930205106
1684252549612601600,11.6096015625,-5.219282462251186,0.7930033120810985,-1.057027465738356
1684252549622627600,11.619627685546876,-6.75005293688178,-1.322669575986266,-3.2249297227367757
1684252549632653600,11.629653564453125,-7.850528206941485,-2.7539094168066978,-4.129341737948358
1684252549642679600,11.639679443359375,-8.741984294468164,-3.782815826693177,-3.6451772882848976
1684252549652705500,11.64970556640625,-9.520559852746128,-4.493236132633686,-2.99253229496479
1684252549662731500,11.6597314453125,-10.049177484381199,-5.073686827358603,-2.3163173332259057
1684252549672757500,11.669757568359374,-10.617344451594352,-5.7257706796646115,-1.7532953276857732
1684252549682783500,11.679783447265624,-9.472707383725046,-6.679819709226488,-1.6928329679384826
1684252549692809200,11.689809326171876,-7.9189716285705565,-7.505053558304906,-1.9022659919694065
1684252549702835200,11.699835205078125,-7.641387443855405,-7.817163112956285,-2.3435136754482984
1684252549712861400,11.709861328125,-8.254099655237793,-7.530448111802339,-2.583493813434243
1684252549722887400,11.719887451171875,-9.442796229586005,-7.201137246981263,-1.857566434021294
1684252549732913400,11.729913330078125,-9.194231218606234,-7.201280454844236,-0.3997098044320941
1684252549742939400,11.739939453125,-7.346981303676962,-7.380272747904062,1.4139067209646106
1684252549752965400,11.74996533203125,-5.803442532888054,-7.108889171394705,2.9136516504734753
1684252549762990600,11.759990478515626,-5.546268098995089,-6.509239855203032,3.7960622617572546
1684252549773016600,11.7700166015625,-5.774442063853145,-6.0302644986152645,4.4803781123653055
1684252549783042300,11.780042236328125,-5.859725561124086,-5.678256064295768,5.134108270573615
1684252549793068300,11.790068359375,-5.947838728863,-5.407331921991705,5.778730700957775
1684252549803094300,11.80009423828125,-5.755027753809094,-5.200265627092123,6.3702995865464205
1684252549813120300,11.810120361328124,-4.792134323534369,-5.173392817735672,6.292810688674449
1684252549823146200,11.820146240234376,-3.3313305345773694,-5.455665452528,5.585346894451975
1684252549833172200,11.830172119140625,-1.9037255431279538,-5.575264476376772,4.76152700382471
1684252549843198500,11.840198486328125,0.996347663848102,-4.7730309791356325,3.945640244284272
1684252549853224400,11.850224365234375,10.70638350200653,-1.8468167842090129,2.3835607314154506
1684252549863250400,11.86025048828125,56.32288327655792,10.75713052342534,-5.967058977639675
1684252549873276400,11.8702763671875,51.775817354059214,27.59628612784147,-23.839278696143626
1684252549883302400,11.880302490234374,52.02988330054283,56.90523074481487,-37.73610892878771
1684252549893328400,11.890328369140626,-13.872908089786767,59.69908638756275,-29.057375748002528
1684252549903354400,11.900354248046876,-39.380268466711044,37.081979834389685,-13.76329620694518
1684252549913380400,11.91038037109375,-25.029058974075316,14.432544544541836,-7.5386659050494425
1684252549923406300,11.92040625,-11.71455049072504,-1.9770576135814188,0.59814475684762
1684252549933431300,11.930431396484375,0.06533756456822157,-8.806881421792507,3.7766359690144657
1684252549943457300,11.940457275390624,0.0828252904638648,-10.040583843559027,5.515777683663368
1684252549953483300,11.950483154296874,-3.878087634015083,-9.310624724411964,5.374036970633268
1684252549963509200,11.96050927734375,-4.249529083079099,-9.284620514583587,4.607204457119107
1684252549973535500,11.970535400390625,-5.551994659948349,-9.038186085891724,3.2281367020845413
1684252549983561500,11.9805615234375,-5.826013845658302,-8.411782033765315,1.8702663411185145
1684252549993587500,11.99058740234375,-5.733485199564695,-7.970197957938909,1.0892185475081204
1684252550003613400,12.000613525390625,-5.704084917557239,-7.809096126356721,0.4864914313063025
1684252550013639400,12.010639404296874,-5.800423477327823,-7.610204370084404,-0.041356092739105225
1684252550023665400,12.02066552734375,-5.898921260958909,-7.284789928179979,-0.791915224583447
1684252550033691400,12.03069140625,-5.7918754292130465,-7.065306634777784,-1.7456094493582843
1684252550043717400,12.04071728515625,-5.713583398264646,-6.9706327933490275,-2.8950743757754562
1684252550053743400,12.050743408203125,-5.231165792268515,-6.6449938950389615,-4.082411936730146
1684252550063769300,12.060769287109375,-3.667482351334393,-5.571020847457647,-5.70516628305316
1684252550073795300,12.07079541015625,-2.796647027032077,-3.373791958209872,-7.474822086170315
1684252550083821600,12.080821533203125,-4.197427139919996,-2.5239661041885615,-6.70311056844294
1684252550093847600,12.09084765625,-2.9154207059726116,-1.8391537022352218,-5.070590030387043
1684252550103873500,12.10087353515625,15.637037238436937,2.2576152611494065,-1.4779010542303324
1684252550113898500,12.1108984375,18.07909253665805,4.375044052973389,0.6128752929896116
1684252550123924500,12.120924560546875,-0.9618047582551836,3.419995490980148,-3.1536943323016167
1684252550133950500,12.130950439453125,-5.244711502540111,5.296004467403888,-4.633181778940558
1684252550143976400,12.1409765625,-5.412717122161388,7.0634864336133,-4.573755776503682
1684252550154002400,12.15100244140625,-5.291113188230991,7.436096926456689,-3.1992303410738705
1684252550164028400,12.1610283203125,-4.066483715236187,7.2186056836545465,-1.5313888987898825
1684252550174054400,12.171054443359376,-2.770978625029325,6.758546039938926,-0.5242085830211639
1684252550184080400,12.181080322265625,-1.8468144461214542,5.778975031107664,0.23187048128843307
1684252550194106400,12.1911064453125,-1.0349543848138303,4.372363435587287,0.9486229128599166
1684252550204132400,12.20113232421875,-0.3322001565217972,2.6583371652334926,1.3217808104529976
1684252550214158600,12.21115869140625,0.2159796509291045,0.8507184189468622,1.6539900270640848
1684252550224184600,12.2211845703125,0.552528668576479,-0.6691857937544584,2.163124959594011
1684252550234210600,12.23121044921875,0.8471487437665463,-1.8203414497375487,2.689320624779165
1684252550244236500,12.241236572265626,1.230286475843191,-2.646660171443224,3.294370923231542
1684252550254262500,12.251262451171876,1.645716704237461,-3.1350258721888062,3.779645672224462
1684252550264288500,12.26128857421875,1.89430509609282,-3.2527894973039624,3.9516871232330795
1684252550274314500,12.271314453125,2.1129759040683505,-3.0638965724766254,3.711605570699274
1684252550284339500,12.28133935546875,2.4905665234118697,-2.7846786490797997,3.291444514390826
1684252550294365400,12.291365478515624,2.741941331115365,-2.5503058295816183,3.0134158007785676
1684252550304391400,12.301391357421876,3.009619038844108,-2.1349796460837123,2.595869895404577
1684252550314416600,12.311416748046875,3.276135301578045,-1.6688795531600713,1.8968293538734315
1684252550324442600,12.321442626953125,3.6340652349010107,-1.3077116608291863,1.033508058463037
1684252550334468900,12.33146875,4.0257507228314875,-0.8629548001855611,0.02565115860700607
1684252550344494800,12.341494873046875,4.240459056916833,-0.3212316032618284,-0.7814546208456158
1684252550354520800,12.351520751953124,4.39085712365508,0.24135025729537007,-1.4783072969436644
1684252550364546800,12.361546875,4.804111761575937,0.8099164529591798,-2.1379557392850517
1684252550374572800,12.37157275390625,5.531060592991113,1.370012926441431,-2.75740222735852
1684252550384598800,12.381598876953126,6.42640082847476,1.7091197936117648,-3.0951071187764403
1684252550394624800,12.391624755859375,7.294063952481746,1.7548305744290351,-2.670319571711123
1684252550404650800,12.401650634765625,7.340565591415762,1.621626219075918,-1.6370207720845937
1684252550414676700,12.4116767578125,6.418422104680538,1.435634860908985,-0.5595090289831162
1684252550424702700,12.42170263671875,4.812373978486657,1.3728192160338162,0.19975918675661086
1684252550434728700,12.431728759765624,3.2868899198263883,1.4570067347615956,0.743947020228207
1684252550444753700,12.441753662109376,2.322471471941471,1.3874743488520382,1.3306789871796965
1684252550454779600,12.451779541015625,1.840163317669183,1.1487158616155386,2.0519377902597187
1684252550464806000,12.461805908203125,1.861815031376481,0.697210111233592,2.759699398384988
1684252550474832000,12.471831787109375,1.81639928798303,0.003927402576804161,3.2319498306319114
1684252550484857900,12.48185791015625,1.74197167737782,-0.6231342366755008,3.6553377400323748
1684252550494883800,12.4918837890625,1.5726349552832544,-0.9607073184072971,4.069204372371733
1684252550504909800,12.501909912109374,1.3244365856587885,-0.8915747454702854,4.4240538753360505
1684252550514935800,12.511935791015626,1.0380302120625973,-0.262633868342638,4.495270268809795
1684252550524961800,12.5219619140625,0.5605354494214058,0.9666659345507621,4.2875580772221085
1684252550534987800,12.53198779296875,-0.14082418270707128,2.8576246428251264,3.752658296577632
1684252550545013800,12.542013671875,-1.1812123560726642,5.113683322182298,2.8754040451437235
1684252550555039700,12.552039794921875,-2.2059740673698482,7.081257068103551,1.4987772535204886
1684252550565065700,12.562065673828124,-3.2218954696074125,8.298665357673167,-0.4900801034480333
1684252550575091700,12.572091796875,-4.562194810308516,8.266240759408474,-3.0553938248082995
1684252550585117700,12.58211767578125,-4.88358306543678,7.15222445525229,-4.925437463086843
1684252550595143700,12.592143798828126,-4.774184240823984,6.030462067013978,-6.183231539058685
1684252550605169700,12.602169677734375,-5.279759435045719,4.69159012876749,-6.758418029645085
1684252550615195000,12.61219482421875,-5.352781416636705,3.439119293645024,-7.087443647783994
1684252550625220900,12.622220947265625,-5.111825127094984,1.9941396812856196,-7.332055537223815
1684252550635246800,12.632246826171874,-4.519137466609478,-0.08907003007233143,-7.304953010764717
1684252550645272800,12.64227294921875,-3.2577801451981068,-2.042976485168934,-6.510443385773897
1684252550655298800,12.652298828125,0.997878088285774,-4.170532118731737,-7.0030503773510455
1684252550665324800,12.66232470703125,2.769223890316486,-5.764446739539504,-8.098502850812674
1684252550675350800,12.672350830078125,-1.461953835774958,-5.83510023843348,-7.220942602169513
1684252550685376800,12.682376708984375,-4.160720626552402,-5.6948786977946755,-6.312740547025204
1684252550695402500,12.692402587890625,-5.094713833296299,-5.243104067343473,-4.948023388904333
1684252550705428700,12.7024287109375,-4.693889345620573,-4.769207621455192,-3.2794226526856423
1684252550715454700,12.712454833984374,-4.377139563947916,-4.253568129336834,-1.9506126742482184
1684252550725480700,12.722480712890626,-4.171920650480687,-3.7584003473609684,-0.8559326464638114
